"rt","time_elapsed","expId","subject","prolificID","trialType","stimulus","key_press","corrresp","phase","corr","trialNum","attentionRunNum","blockNum","points","rlNum"
"3287.300000000745","3323","pSARL_v2","pSARL_v2h8zh8j0x","601373dbd735b324b32818bd","","","","","","","","","","",""
"","5332","pSARL_v2","pSARL_v2h8zh8j0x","601373dbd735b324b32818bd","fullscreen","","","","","","","","","",""
"62162","67517","pSARL_v2","pSARL_v2h8zh8j0x","601373dbd735b324b32818bd","","","","","","","","","","",""
"null","68349","pSARL_v2","pSARL_v2h8zh8j0x","601373dbd735b324b32818bd","freqPrac","img/green_2bandit_a2.png","null","70","prac","0","","","","",""
"null","69374","pSARL_v2","pSARL_v2h8zh8j0x","601373dbd735b324b32818bd","feedback","img/tooSlow.png","null","na","prac","","","","","",""
"null","69545","pSARL_v2","pSARL_v2h8zh8j0x","601373dbd735b324b32818bd","fixation","img/fixation.png","null","","prac","","","","","",""
"449.5","70017","pSARL_v2","pSARL_v2h8zh8j0x","601373dbd735b324b32818bd","infreqPrac","img/orange_2bandit_a2.png","68","68","prac","1","","","","",""
"449.5","70390","pSARL_v2","pSARL_v2h8zh8j0x","601373dbd735b324b32818bd","infreqPrac_resp","img/orange_2bandit_a.png","68","68","prac","","","","","",""
"null","70561","pSARL_v2","pSARL_v2h8zh8j0x","601373dbd735b324b32818bd","fixation","img/fixation.png","null","","prac","","","","","",""
"413.19999999925494","70997","pSARL_v2","pSARL_v2h8zh8j0x","601373dbd735b324b32818bd","freqPrac","img/green_2bandit_a2.png","70","70","prac","1","","","","",""
"413.19999999925494","71408","pSARL_v2","pSARL_v2h8zh8j0x","601373dbd735b324b32818bd","freqPrac_resp","img/green_2bandit_a.png","70","70","prac","","","","","",""
"null","71583","pSARL_v2","pSARL_v2h8zh8j0x","601373dbd735b324b32818bd","fixation","img/fixation.png","null","","prac","","","","","",""
"325.69999999925494","71931","pSARL_v2","pSARL_v2h8zh8j0x","601373dbd735b324b32818bd","infreqPrac","img/orange_2bandit_a2.png","68","68","prac","1","","","","",""
"325.69999999925494","72428","pSARL_v2","pSARL_v2h8zh8j0x","601373dbd735b324b32818bd","infreqPrac_resp","img/orange_2bandit_a.png","68","68","prac","","","","","",""
"null","72607","pSARL_v2","pSARL_v2h8zh8j0x","601373dbd735b324b32818bd","fixation","img/fixation.png","null","","prac","","","","","",""
"346.90000000037253","72974","pSARL_v2","pSARL_v2h8zh8j0x","601373dbd735b324b32818bd","infreqPrac","img/orange_2bandit_a2.png","68","68","prac","1","","","","",""
"346.90000000037253","73453","pSARL_v2","pSARL_v2h8zh8j0x","601373dbd735b324b32818bd","infreqPrac_resp","img/orange_2bandit_a.png","68","68","prac","","","","","",""
"null","73624","pSARL_v2","pSARL_v2h8zh8j0x","601373dbd735b324b32818bd","fixation","img/fixation.png","null","","prac","","","","","",""
"365.90000000037253","74011","pSARL_v2","pSARL_v2h8zh8j0x","601373dbd735b324b32818bd","infreqPrac","img/orange_2bandit_a2.png","68","68","prac","1","","","","",""
"365.90000000037253","74467","pSARL_v2","pSARL_v2h8zh8j0x","601373dbd735b324b32818bd","infreqPrac_resp","img/orange_2bandit_a.png","68","68","prac","","","","","",""
"null","74640","pSARL_v2","pSARL_v2h8zh8j0x","601373dbd735b324b32818bd","fixation","img/fixation.png","null","","prac","","","","","",""
"388.19999999925494","75053","pSARL_v2","pSARL_v2h8zh8j0x","601373dbd735b324b32818bd","freqPrac","img/green_2bandit_a2.png","70","70","prac","1","","","","",""
"388.19999999925494","75490","pSARL_v2","pSARL_v2h8zh8j0x","601373dbd735b324b32818bd","freqPrac_resp","img/green_2bandit_a.png","70","70","prac","","","","","",""
"null","75664","pSARL_v2","pSARL_v2h8zh8j0x","601373dbd735b324b32818bd","fixation","img/fixation.png","null","","prac","","","","","",""
"507.5","76194","pSARL_v2","pSARL_v2h8zh8j0x","601373dbd735b324b32818bd","infreqPrac","img/orange_2bandit_a2.png","68","68","prac","1","","","","",""
"507.5","76510","pSARL_v2","pSARL_v2h8zh8j0x","601373dbd735b324b32818bd","infreqPrac_resp","img/orange_2bandit_a.png","68","68","prac","","","","","",""
"null","76686","pSARL_v2","pSARL_v2h8zh8j0x","601373dbd735b324b32818bd","fixation","img/fixation.png","null","","prac","","","","","",""
"396.59999999962747","77105","pSARL_v2","pSARL_v2h8zh8j0x","601373dbd735b324b32818bd","freqPrac","img/green_2bandit_a2.png","70","70","prac","1","","","","",""
"396.59999999962747","77533","pSARL_v2","pSARL_v2h8zh8j0x","601373dbd735b324b32818bd","freqPrac_resp","img/green_2bandit_a.png","70","70","prac","","","","","",""
"null","77706","pSARL_v2","pSARL_v2h8zh8j0x","601373dbd735b324b32818bd","fixation","img/fixation.png","null","","prac","","","","","",""
"598.1999999992549","78327","pSARL_v2","pSARL_v2h8zh8j0x","601373dbd735b324b32818bd","freqPrac","img/green_2bandit_a2.png","68","70","prac","0","","","","",""
"598.1999999992549","78557","pSARL_v2","pSARL_v2h8zh8j0x","601373dbd735b324b32818bd","freqPrac_resp","img/green_2bandit_a.png","68","70","prac","","","","","",""
"null","79578","pSARL_v2","pSARL_v2h8zh8j0x","601373dbd735b324b32818bd","feedback","img/wrongKey.png","null","na","prac","","","","","",""
"null","79753","pSARL_v2","pSARL_v2h8zh8j0x","601373dbd735b324b32818bd","fixation","img/fixation.png","null","","prac","","","","","",""
"4687","84462","pSARL_v2","pSARL_v2h8zh8j0x","601373dbd735b324b32818bd","","","","","prac","","","","","",""
"51459.79999999888","135947","pSARL_v2","pSARL_v2h8zh8j0x","601373dbd735b324b32818bd","rewardPractice","img/slot.png","74","","prac","","","","","",""
"null","136727","pSARL_v2","pSARL_v2h8zh8j0x","601373dbd735b324b32818bd","feedback","<div class=""veryhighPoints""> +15 </div>","null","na","prac","","","","","",""
"null","136900","pSARL_v2","pSARL_v2h8zh8j0x","601373dbd735b324b32818bd","fixation","img/fixation.png","null","","prac","","","","","",""
"14758","151678","pSARL_v2","pSARL_v2h8zh8j0x","601373dbd735b324b32818bd","","","","","prac","","","","","",""
"602.8000000007451","152304","pSARL_v2","pSARL_v2h8zh8j0x","601373dbd735b324b32818bd","freq","img/green_2bandit_a2.png","70","70","test","1","1","1","1","",""
"null","152527","pSARL_v2","pSARL_v2h8zh8j0x","601373dbd735b324b32818bd","freq_resp","img/green_2bandit_a.png","70","70","test","","","","1","",""
"null","152706","pSARL_v2","pSARL_v2h8zh8j0x","601373dbd735b324b32818bd","fixation","img/fixation.png","null","","test","","","","","",""
"326.40000000037253","153055","pSARL_v2","pSARL_v2h8zh8j0x","601373dbd735b324b32818bd","freq","img/green_2bandit_a2.png","70","70","test","1","2","2","1","",""
"null","153552","pSARL_v2","pSARL_v2h8zh8j0x","601373dbd735b324b32818bd","freq_resp","img/green_2bandit_a.png","70","70","test","","","","1","",""
"null","153724","pSARL_v2","pSARL_v2h8zh8j0x","601373dbd735b324b32818bd","fixation","img/fixation.png","null","","test","","","","","",""
"359.40000000037253","154104","pSARL_v2","pSARL_v2h8zh8j0x","601373dbd735b324b32818bd","freq","img/green_2bandit_a2.png","70","70","test","1","3","3","1","",""
"null","154569","pSARL_v2","pSARL_v2h8zh8j0x","601373dbd735b324b32818bd","freq_resp","img/green_2bandit_a.png","70","70","test","","","","1","",""
"null","154744","pSARL_v2","pSARL_v2h8zh8j0x","601373dbd735b324b32818bd","fixation","img/fixation.png","null","","test","","","","","",""
"312","155079","pSARL_v2","pSARL_v2h8zh8j0x","601373dbd735b324b32818bd","freq","img/green_2bandit_a2.png","70","70","test","1","4","4","1","",""
"null","155590","pSARL_v2","pSARL_v2h8zh8j0x","601373dbd735b324b32818bd","freq_resp","img/green_2bandit_a.png","70","70","test","","","","1","",""
"null","155764","pSARL_v2","pSARL_v2h8zh8j0x","601373dbd735b324b32818bd","fixation","img/fixation.png","null","","test","","","","","",""
"271.40000000037253","156059","pSARL_v2","pSARL_v2h8zh8j0x","601373dbd735b324b32818bd","freq","img/green_2bandit_a2.png","70","70","test","1","5","5","1","",""
"null","156611","pSARL_v2","pSARL_v2h8zh8j0x","601373dbd735b324b32818bd","freq_resp","img/green_2bandit_a.png","70","70","test","","","","1","",""
"null","156785","pSARL_v2","pSARL_v2h8zh8j0x","601373dbd735b324b32818bd","fixation","img/fixation.png","null","","test","","","","","",""
"339.09999999962747","157148","pSARL_v2","pSARL_v2h8zh8j0x","601373dbd735b324b32818bd","freq","img/green_2bandit_a2.png","70","70","test","1","6","6","1","",""
"null","157631","pSARL_v2","pSARL_v2h8zh8j0x","601373dbd735b324b32818bd","freq_resp","img/green_2bandit_a.png","70","70","test","","","","1","",""
"null","157807","pSARL_v2","pSARL_v2h8zh8j0x","601373dbd735b324b32818bd","fixation","img/fixation.png","null","","test","","","","","",""
"299.2000000011176","158126","pSARL_v2","pSARL_v2h8zh8j0x","601373dbd735b324b32818bd","freq","img/green_2bandit_a2.png","70","70","test","1","7","7","1","",""
"null","158649","pSARL_v2","pSARL_v2h8zh8j0x","601373dbd735b324b32818bd","freq_resp","img/green_2bandit_a.png","70","70","test","","","","1","",""
"null","158824","pSARL_v2","pSARL_v2h8zh8j0x","601373dbd735b324b32818bd","fixation","img/fixation.png","null","","test","","","","","",""
"280","159132","pSARL_v2","pSARL_v2h8zh8j0x","601373dbd735b324b32818bd","freq","img/green_2bandit_a2.png","70","70","test","1","8","8","1","",""
"null","159677","pSARL_v2","pSARL_v2h8zh8j0x","601373dbd735b324b32818bd","freq_resp","img/green_2bandit_a.png","70","70","test","","","","1","",""
"null","159854","pSARL_v2","pSARL_v2h8zh8j0x","601373dbd735b324b32818bd","fixation","img/fixation.png","null","","test","","","","","",""
"490.80000000074506","160368","pSARL_v2","pSARL_v2h8zh8j0x","601373dbd735b324b32818bd","infreq","img/orange_2bandit_a2.png","68","68","test","1","9","9","1","",""
"null","160701","pSARL_v2","pSARL_v2h8zh8j0x","601373dbd735b324b32818bd","infreq_resp","img/orange_2bandit_a.png","68","68","test","","","","1","",""
"null","160875","pSARL_v2","pSARL_v2h8zh8j0x","601373dbd735b324b32818bd","fixation","img/fixation.png","null","","test","","","","","",""
"295.2000000011176","161193","pSARL_v2","pSARL_v2h8zh8j0x","601373dbd735b324b32818bd","freq","img/green_2bandit_a2.png","68","70","test","0","10","10","1","",""
"null","161729","pSARL_v2","pSARL_v2h8zh8j0x","601373dbd735b324b32818bd","freq_resp","img/green_2bandit_a.png","68","70","test","","","","1","",""
"null","161905","pSARL_v2","pSARL_v2h8zh8j0x","601373dbd735b324b32818bd","fixation","img/fixation.png","null","","test","","","","","",""
"400.8999999985099","162332","pSARL_v2","pSARL_v2h8zh8j0x","601373dbd735b324b32818bd","freq","img/green_2bandit_a2.png","70","70","test","1","11","11","1","",""
"null","162755","pSARL_v2","pSARL_v2h8zh8j0x","601373dbd735b324b32818bd","freq_resp","img/green_2bandit_a.png","70","70","test","","","","1","",""
"null","162930","pSARL_v2","pSARL_v2h8zh8j0x","601373dbd735b324b32818bd","fixation","img/fixation.png","null","","test","","","","","",""
"340.7999999988824","163292","pSARL_v2","pSARL_v2h8zh8j0x","601373dbd735b324b32818bd","freq","img/green_2bandit_a2.png","70","70","test","1","12","12","1","",""
"null","163775","pSARL_v2","pSARL_v2h8zh8j0x","601373dbd735b324b32818bd","freq_resp","img/green_2bandit_a.png","70","70","test","","","","1","",""
"null","163953","pSARL_v2","pSARL_v2h8zh8j0x","601373dbd735b324b32818bd","fixation","img/fixation.png","null","","test","","","","","",""
"274.5","164249","pSARL_v2","pSARL_v2h8zh8j0x","601373dbd735b324b32818bd","freq","img/green_2bandit_a2.png","70","70","test","1","13","13","1","",""
"null","164798","pSARL_v2","pSARL_v2h8zh8j0x","601373dbd735b324b32818bd","freq_resp","img/green_2bandit_a.png","70","70","test","","","","1","",""
"null","164969","pSARL_v2","pSARL_v2h8zh8j0x","601373dbd735b324b32818bd","fixation","img/fixation.png","null","","test","","","","","",""
"269.40000000037253","165258","pSARL_v2","pSARL_v2h8zh8j0x","601373dbd735b324b32818bd","freq","img/green_2bandit_a2.png","70","70","test","1","14","14","1","",""
"null","165812","pSARL_v2","pSARL_v2h8zh8j0x","601373dbd735b324b32818bd","freq_resp","img/green_2bandit_a.png","70","70","test","","","","1","",""
"null","165987","pSARL_v2","pSARL_v2h8zh8j0x","601373dbd735b324b32818bd","fixation","img/fixation.png","null","","test","","","","","",""
"246.40000000037253","166255","pSARL_v2","pSARL_v2h8zh8j0x","601373dbd735b324b32818bd","freq","img/green_2bandit_a2.png","70","70","test","1","15","15","1","",""
"null","166833","pSARL_v2","pSARL_v2h8zh8j0x","601373dbd735b324b32818bd","freq_resp","img/green_2bandit_a.png","70","70","test","","","","1","",""
"null","167008","pSARL_v2","pSARL_v2h8zh8j0x","601373dbd735b324b32818bd","fixation","img/fixation.png","null","","test","","","","","",""
"278.19999999925494","167309","pSARL_v2","pSARL_v2h8zh8j0x","601373dbd735b324b32818bd","freq","img/green_2bandit_a2.png","70","70","test","1","16","16","1","",""
"null","167853","pSARL_v2","pSARL_v2h8zh8j0x","601373dbd735b324b32818bd","freq_resp","img/green_2bandit_a.png","70","70","test","","","","1","",""
"null","168031","pSARL_v2","pSARL_v2h8zh8j0x","601373dbd735b324b32818bd","fixation","img/fixation.png","null","","test","","","","","",""
"417.1000000014901","168471","pSARL_v2","pSARL_v2h8zh8j0x","601373dbd735b324b32818bd","infreq","img/orange_2bandit_a2.png","68","68","test","1","17","17","1","",""
"null","168879","pSARL_v2","pSARL_v2h8zh8j0x","601373dbd735b324b32818bd","infreq_resp","img/orange_2bandit_a.png","68","68","test","","","","1","",""
"null","169055","pSARL_v2","pSARL_v2h8zh8j0x","601373dbd735b324b32818bd","fixation","img/fixation.png","null","","test","","","","","",""
"366","169445","pSARL_v2","pSARL_v2h8zh8j0x","601373dbd735b324b32818bd","freq","img/green_2bandit_a2.png","70","70","test","1","18","18","1","",""
"null","169903","pSARL_v2","pSARL_v2h8zh8j0x","601373dbd735b324b32818bd","freq_resp","img/green_2bandit_a.png","70","70","test","","","","1","",""
"null","170079","pSARL_v2","pSARL_v2h8zh8j0x","601373dbd735b324b32818bd","fixation","img/fixation.png","null","","test","","","","","",""
"760.2999999988824","170863","pSARL_v2","pSARL_v2h8zh8j0x","601373dbd735b324b32818bd","freq","img/green_2bandit_a2.png","70","70","test","1","19","19","1","",""
"null","170927","pSARL_v2","pSARL_v2h8zh8j0x","601373dbd735b324b32818bd","freq_resp","img/green_2bandit_a.png","70","70","test","","","","1","",""
"null","171101","pSARL_v2","pSARL_v2h8zh8j0x","601373dbd735b324b32818bd","fixation","img/fixation.png","null","","test","","","","","",""
"609.1000000014901","171733","pSARL_v2","pSARL_v2h8zh8j0x","601373dbd735b324b32818bd","reward","img/slot.png","74","","test","","","","","",""
"null","172507","pSARL_v2","pSARL_v2h8zh8j0x","601373dbd735b324b32818bd","points","<div class=""verylowPoints""> -6 </div>","null","na","test","","","","1","-6","0"
"598.3999999985099","173128","pSARL_v2","pSARL_v2h8zh8j0x","601373dbd735b324b32818bd","freq","img/green_2bandit_a2.png","70","70","test","1","20","20","2","",""
"null","173351","pSARL_v2","pSARL_v2h8zh8j0x","601373dbd735b324b32818bd","freq_resp","img/green_2bandit_a.png","70","70","test","","","","2","",""
"null","173525","pSARL_v2","pSARL_v2h8zh8j0x","601373dbd735b324b32818bd","fixation","img/fixation.png","null","","test","","","","","",""
"483.2999999988824","174030","pSARL_v2","pSARL_v2h8zh8j0x","601373dbd735b324b32818bd","freq","img/green_2bandit_a2.png","70","70","test","1","21","21","2","",""
"null","174370","pSARL_v2","pSARL_v2h8zh8j0x","601373dbd735b324b32818bd","freq_resp","img/green_2bandit_a.png","70","70","test","","","","2","",""
"null","174543","pSARL_v2","pSARL_v2h8zh8j0x","601373dbd735b324b32818bd","fixation","img/fixation.png","null","","test","","","","","",""
"488","175053","pSARL_v2","pSARL_v2h8zh8j0x","601373dbd735b324b32818bd","freq","img/green_2bandit_a2.png","70","70","test","1","22","22","2","",""
"null","175391","pSARL_v2","pSARL_v2h8zh8j0x","601373dbd735b324b32818bd","freq_resp","img/green_2bandit_a.png","70","70","test","","","","2","",""
"null","175567","pSARL_v2","pSARL_v2h8zh8j0x","601373dbd735b324b32818bd","fixation","img/fixation.png","null","","test","","","","","",""
"419","176010","pSARL_v2","pSARL_v2h8zh8j0x","601373dbd735b324b32818bd","freq","img/green_2bandit_a2.png","70","70","test","1","23","23","2","",""
"null","176419","pSARL_v2","pSARL_v2h8zh8j0x","601373dbd735b324b32818bd","freq_resp","img/green_2bandit_a.png","70","70","test","","","","2","",""
"null","176596","pSARL_v2","pSARL_v2h8zh8j0x","601373dbd735b324b32818bd","fixation","img/fixation.png","null","","test","","","","","",""
"475.40000000037253","177095","pSARL_v2","pSARL_v2h8zh8j0x","601373dbd735b324b32818bd","freq","img/green_2bandit_a2.png","70","70","test","1","24","24","2","",""
"null","177442","pSARL_v2","pSARL_v2h8zh8j0x","601373dbd735b324b32818bd","freq_resp","img/green_2bandit_a.png","70","70","test","","","","2","",""
"null","177612","pSARL_v2","pSARL_v2h8zh8j0x","601373dbd735b324b32818bd","fixation","img/fixation.png","null","","test","","","","","",""
"399","178036","pSARL_v2","pSARL_v2h8zh8j0x","601373dbd735b324b32818bd","infreq","img/orange_2bandit_a2.png","68","68","test","1","25","25","2","",""
"null","178462","pSARL_v2","pSARL_v2h8zh8j0x","601373dbd735b324b32818bd","infreq_resp","img/orange_2bandit_a.png","68","68","test","","","","2","",""
"null","178637","pSARL_v2","pSARL_v2h8zh8j0x","601373dbd735b324b32818bd","fixation","img/fixation.png","null","","test","","","","","",""
"374","179032","pSARL_v2","pSARL_v2h8zh8j0x","601373dbd735b324b32818bd","freq","img/green_2bandit_a2.png","70","70","test","1","26","26","2","",""
"null","179478","pSARL_v2","pSARL_v2h8zh8j0x","601373dbd735b324b32818bd","freq_resp","img/green_2bandit_a.png","70","70","test","","","","2","",""
"null","179653","pSARL_v2","pSARL_v2h8zh8j0x","601373dbd735b324b32818bd","fixation","img/fixation.png","null","","test","","","","","",""
"452.30000000074506","180128","pSARL_v2","pSARL_v2h8zh8j0x","601373dbd735b324b32818bd","freq","img/green_2bandit_a2.png","70","70","test","1","27","27","2","",""
"null","180497","pSARL_v2","pSARL_v2h8zh8j0x","601373dbd735b324b32818bd","freq_resp","img/green_2bandit_a.png","70","70","test","","","","2","",""
"null","180672","pSARL_v2","pSARL_v2h8zh8j0x","601373dbd735b324b32818bd","fixation","img/fixation.png","null","","test","","","","","",""
"457.8999999985099","181153","pSARL_v2","pSARL_v2h8zh8j0x","601373dbd735b324b32818bd","freq","img/green_2bandit_a2.png","70","70","test","1","28","28","2","",""
"null","181518","pSARL_v2","pSARL_v2h8zh8j0x","601373dbd735b324b32818bd","freq_resp","img/green_2bandit_a.png","70","70","test","","","","2","",""
"null","181693","pSARL_v2","pSARL_v2h8zh8j0x","601373dbd735b324b32818bd","fixation","img/fixation.png","null","","test","","","","","",""
"354.7000000011176","182070","pSARL_v2","pSARL_v2h8zh8j0x","601373dbd735b324b32818bd","freq","img/green_2bandit_a2.png","70","70","test","1","29","29","2","",""
"null","182541","pSARL_v2","pSARL_v2h8zh8j0x","601373dbd735b324b32818bd","freq_resp","img/green_2bandit_a.png","70","70","test","","","","2","",""
"null","182716","pSARL_v2","pSARL_v2h8zh8j0x","601373dbd735b324b32818bd","fixation","img/fixation.png","null","","test","","","","","",""
"390.59999999962747","183131","pSARL_v2","pSARL_v2h8zh8j0x","601373dbd735b324b32818bd","freq","img/green_2bandit_a2.png","70","70","test","1","30","30","2","",""
"null","183566","pSARL_v2","pSARL_v2h8zh8j0x","601373dbd735b324b32818bd","freq_resp","img/green_2bandit_a.png","70","70","test","","","","2","",""
"null","183742","pSARL_v2","pSARL_v2h8zh8j0x","601373dbd735b324b32818bd","fixation","img/fixation.png","null","","test","","","","","",""
"334","184099","pSARL_v2","pSARL_v2h8zh8j0x","601373dbd735b324b32818bd","freq","img/green_2bandit_a2.png","70","70","test","1","31","31","2","",""
"null","184587","pSARL_v2","pSARL_v2h8zh8j0x","601373dbd735b324b32818bd","freq_resp","img/green_2bandit_a.png","70","70","test","","","","2","",""
"null","184760","pSARL_v2","pSARL_v2h8zh8j0x","601373dbd735b324b32818bd","fixation","img/fixation.png","null","","test","","","","","",""
"588","185370","pSARL_v2","pSARL_v2h8zh8j0x","601373dbd735b324b32818bd","freq","img/green_2bandit_a2.png","70","70","test","1","32","32","2","",""
"null","185607","pSARL_v2","pSARL_v2h8zh8j0x","601373dbd735b324b32818bd","freq_resp","img/green_2bandit_a.png","70","70","test","","","","2","",""
"null","185783","pSARL_v2","pSARL_v2h8zh8j0x","601373dbd735b324b32818bd","fixation","img/fixation.png","null","","test","","","","","",""
"356.5","186163","pSARL_v2","pSARL_v2h8zh8j0x","601373dbd735b324b32818bd","freq","img/green_2bandit_a2.png","70","70","test","1","33","33","2","",""
"null","186631","pSARL_v2","pSARL_v2h8zh8j0x","601373dbd735b324b32818bd","freq_resp","img/green_2bandit_a.png","70","70","test","","","","2","",""
"null","186806","pSARL_v2","pSARL_v2h8zh8j0x","601373dbd735b324b32818bd","fixation","img/fixation.png","null","","test","","","","","",""
"289.5","187118","pSARL_v2","pSARL_v2h8zh8j0x","601373dbd735b324b32818bd","freq","img/green_2bandit_a2.png","70","70","test","1","34","34","2","",""
"null","187650","pSARL_v2","pSARL_v2h8zh8j0x","601373dbd735b324b32818bd","freq_resp","img/green_2bandit_a.png","70","70","test","","","","2","",""
"null","187822","pSARL_v2","pSARL_v2h8zh8j0x","601373dbd735b324b32818bd","fixation","img/fixation.png","null","","test","","","","","",""
"271.5","188117","pSARL_v2","pSARL_v2h8zh8j0x","601373dbd735b324b32818bd","freq","img/green_2bandit_a2.png","70","70","test","1","35","35","2","",""
"null","188669","pSARL_v2","pSARL_v2h8zh8j0x","601373dbd735b324b32818bd","freq_resp","img/green_2bandit_a.png","70","70","test","","","","2","",""
"null","188843","pSARL_v2","pSARL_v2h8zh8j0x","601373dbd735b324b32818bd","fixation","img/fixation.png","null","","test","","","","","",""
"298.5","189167","pSARL_v2","pSARL_v2h8zh8j0x","601373dbd735b324b32818bd","freq","img/green_2bandit_a2.png","70","70","test","1","36","36","2","",""
"null","189692","pSARL_v2","pSARL_v2h8zh8j0x","601373dbd735b324b32818bd","freq_resp","img/green_2bandit_a.png","70","70","test","","","","2","",""
"null","189867","pSARL_v2","pSARL_v2h8zh8j0x","601373dbd735b324b32818bd","fixation","img/fixation.png","null","","test","","","","","",""
"354.7000000011176","190243","pSARL_v2","pSARL_v2h8zh8j0x","601373dbd735b324b32818bd","freq","img/green_2bandit_a2.png","70","70","test","1","37","37","2","",""
"null","190708","pSARL_v2","pSARL_v2h8zh8j0x","601373dbd735b324b32818bd","freq_resp","img/green_2bandit_a.png","70","70","test","","","","2","",""
"null","190881","pSARL_v2","pSARL_v2h8zh8j0x","601373dbd735b324b32818bd","fixation","img/fixation.png","null","","test","","","","","",""
"482.59999999962747","191385","pSARL_v2","pSARL_v2h8zh8j0x","601373dbd735b324b32818bd","infreq","img/orange_2bandit_a2.png","68","68","test","1","38","38","2","",""
"null","191725","pSARL_v2","pSARL_v2h8zh8j0x","601373dbd735b324b32818bd","infreq_resp","img/orange_2bandit_a.png","68","68","test","","","","2","",""
"null","191900","pSARL_v2","pSARL_v2h8zh8j0x","601373dbd735b324b32818bd","fixation","img/fixation.png","null","","test","","","","","",""
"628.7000000011176","192551","pSARL_v2","pSARL_v2h8zh8j0x","601373dbd735b324b32818bd","freq","img/green_2bandit_a2.png","70","70","test","1","39","39","2","",""
"null","192745","pSARL_v2","pSARL_v2h8zh8j0x","601373dbd735b324b32818bd","freq_resp","img/green_2bandit_a.png","70","70","test","","","","2","",""
"null","192920","pSARL_v2","pSARL_v2h8zh8j0x","601373dbd735b324b32818bd","fixation","img/fixation.png","null","","test","","","","","",""
"441.5","193383","pSARL_v2","pSARL_v2h8zh8j0x","601373dbd735b324b32818bd","freq","img/green_2bandit_a2.png","70","70","test","1","40","40","2","",""
"null","193765","pSARL_v2","pSARL_v2h8zh8j0x","601373dbd735b324b32818bd","freq_resp","img/green_2bandit_a.png","70","70","test","","","","2","",""
"null","193940","pSARL_v2","pSARL_v2h8zh8j0x","601373dbd735b324b32818bd","fixation","img/fixation.png","null","","test","","","","","",""
"498.90000000037253","194468","pSARL_v2","pSARL_v2h8zh8j0x","601373dbd735b324b32818bd","reward","img/slot.png","74","","test","","","","","",""
"null","195243","pSARL_v2","pSARL_v2h8zh8j0x","601373dbd735b324b32818bd","points","<div class=""verylowPoints""> -11 </div>","null","na","test","","","","2","-11","1"
"null","196067","pSARL_v2","pSARL_v2h8zh8j0x","601373dbd735b324b32818bd","freq","img/green_2bandit_a2.png","null","70","test","0","41","41","3","",""
"null","196244","pSARL_v2","pSARL_v2h8zh8j0x","601373dbd735b324b32818bd","fixation","img/fixation.png","null","","test","","","","","",""
"378","196642","pSARL_v2","pSARL_v2h8zh8j0x","601373dbd735b324b32818bd","freq","img/green_2bandit_a2.png","70","70","test","1","42","42","3","",""
"null","197089","pSARL_v2","pSARL_v2h8zh8j0x","601373dbd735b324b32818bd","freq_resp","img/green_2bandit_a.png","70","70","test","","","","3","",""
"null","197262","pSARL_v2","pSARL_v2h8zh8j0x","601373dbd735b324b32818bd","fixation","img/fixation.png","null","","test","","","","","",""
"300.09999999962747","197586","pSARL_v2","pSARL_v2h8zh8j0x","601373dbd735b324b32818bd","freq","img/green_2bandit_a2.png","70","70","test","1","43","43","3","",""
"null","198118","pSARL_v2","pSARL_v2h8zh8j0x","601373dbd735b324b32818bd","freq_resp","img/green_2bandit_a.png","70","70","test","","","","3","",""
"null","198291","pSARL_v2","pSARL_v2h8zh8j0x","601373dbd735b324b32818bd","fixation","img/fixation.png","null","","test","","","","","",""
"458.5","198770","pSARL_v2","pSARL_v2h8zh8j0x","601373dbd735b324b32818bd","freq","img/green_2bandit_a2.png","70","70","test","1","44","44","3","",""
"null","199136","pSARL_v2","pSARL_v2h8zh8j0x","601373dbd735b324b32818bd","freq_resp","img/green_2bandit_a.png","70","70","test","","","","3","",""
"null","199311","pSARL_v2","pSARL_v2h8zh8j0x","601373dbd735b324b32818bd","fixation","img/fixation.png","null","","test","","","","","",""
"497.6000000014901","199829","pSARL_v2","pSARL_v2h8zh8j0x","601373dbd735b324b32818bd","infreq","img/orange_2bandit_a2.png","68","68","test","1","45","45","3","",""
"null","200156","pSARL_v2","pSARL_v2h8zh8j0x","601373dbd735b324b32818bd","infreq_resp","img/orange_2bandit_a.png","68","68","test","","","","3","",""
"null","200332","pSARL_v2","pSARL_v2h8zh8j0x","601373dbd735b324b32818bd","fixation","img/fixation.png","null","","test","","","","","",""
"339.40000000037253","200694","pSARL_v2","pSARL_v2h8zh8j0x","601373dbd735b324b32818bd","freq","img/green_2bandit_a2.png","70","70","test","1","46","46","3","",""
"null","201180","pSARL_v2","pSARL_v2h8zh8j0x","601373dbd735b324b32818bd","freq_resp","img/green_2bandit_a.png","70","70","test","","","","3","",""
"null","201353","pSARL_v2","pSARL_v2h8zh8j0x","601373dbd735b324b32818bd","fixation","img/fixation.png","null","","test","","","","","",""
"418.80000000074506","201794","pSARL_v2","pSARL_v2h8zh8j0x","601373dbd735b324b32818bd","freq","img/green_2bandit_a2.png","70","70","test","1","47","47","3","",""
"null","202203","pSARL_v2","pSARL_v2h8zh8j0x","601373dbd735b324b32818bd","freq_resp","img/green_2bandit_a.png","70","70","test","","","","3","",""
"null","202377","pSARL_v2","pSARL_v2h8zh8j0x","601373dbd735b324b32818bd","fixation","img/fixation.png","null","","test","","","","","",""
"381.3999999985099","202781","pSARL_v2","pSARL_v2h8zh8j0x","601373dbd735b324b32818bd","freq","img/green_2bandit_a2.png","70","70","test","1","48","48","3","",""
"null","203222","pSARL_v2","pSARL_v2h8zh8j0x","601373dbd735b324b32818bd","freq_resp","img/green_2bandit_a.png","70","70","test","","","","3","",""
"null","203398","pSARL_v2","pSARL_v2h8zh8j0x","601373dbd735b324b32818bd","fixation","img/fixation.png","null","","test","","","","","",""
"527.4000000003725","203948","pSARL_v2","pSARL_v2h8zh8j0x","601373dbd735b324b32818bd","freq","img/green_2bandit_a2.png","70","70","test","1","49","49","3","",""
"null","204246","pSARL_v2","pSARL_v2h8zh8j0x","601373dbd735b324b32818bd","freq_resp","img/green_2bandit_a.png","70","70","test","","","","3","",""
"null","204421","pSARL_v2","pSARL_v2h8zh8j0x","601373dbd735b324b32818bd","fixation","img/fixation.png","null","","test","","","","","",""
"411.2000000011176","204854","pSARL_v2","pSARL_v2h8zh8j0x","601373dbd735b324b32818bd","infreq","img/orange_2bandit_a2.png","68","68","test","1","50","50","3","",""
"null","205266","pSARL_v2","pSARL_v2h8zh8j0x","601373dbd735b324b32818bd","infreq_resp","img/orange_2bandit_a.png","68","68","test","","","","3","",""
"null","205444","pSARL_v2","pSARL_v2h8zh8j0x","601373dbd735b324b32818bd","fixation","img/fixation.png","null","","test","","","","","",""
"277.09999999962747","205745","pSARL_v2","pSARL_v2h8zh8j0x","601373dbd735b324b32818bd","freq","img/green_2bandit_a2.png","70","70","test","1","51","51","3","",""
"null","206291","pSARL_v2","pSARL_v2h8zh8j0x","601373dbd735b324b32818bd","freq_resp","img/green_2bandit_a.png","70","70","test","","","","3","",""
"null","206463","pSARL_v2","pSARL_v2h8zh8j0x","601373dbd735b324b32818bd","fixation","img/fixation.png","null","","test","","","","","",""
"385.19999999925494","206871","pSARL_v2","pSARL_v2h8zh8j0x","601373dbd735b324b32818bd","freq","img/green_2bandit_a2.png","70","70","test","1","52","52","3","",""
"null","207311","pSARL_v2","pSARL_v2h8zh8j0x","601373dbd735b324b32818bd","freq_resp","img/green_2bandit_a.png","70","70","test","","","","3","",""
"null","207490","pSARL_v2","pSARL_v2h8zh8j0x","601373dbd735b324b32818bd","fixation","img/fixation.png","null","","test","","","","","",""
"307.5","207820","pSARL_v2","pSARL_v2h8zh8j0x","601373dbd735b324b32818bd","freq","img/green_2bandit_a2.png","70","70","test","1","53","53","3","",""
"null","208336","pSARL_v2","pSARL_v2h8zh8j0x","601373dbd735b324b32818bd","freq_resp","img/green_2bandit_a.png","70","70","test","","","","3","",""
"null","208507","pSARL_v2","pSARL_v2h8zh8j0x","601373dbd735b324b32818bd","fixation","img/fixation.png","null","","test","","","","","",""
"389.7000000011176","208920","pSARL_v2","pSARL_v2h8zh8j0x","601373dbd735b324b32818bd","freq","img/green_2bandit_a2.png","70","70","test","1","54","54","3","",""
"null","209355","pSARL_v2","pSARL_v2h8zh8j0x","601373dbd735b324b32818bd","freq_resp","img/green_2bandit_a.png","70","70","test","","","","3","",""
"null","209528","pSARL_v2","pSARL_v2h8zh8j0x","601373dbd735b324b32818bd","fixation","img/fixation.png","null","","test","","","","","",""
"363.59999999962747","209913","pSARL_v2","pSARL_v2h8zh8j0x","601373dbd735b324b32818bd","freq","img/green_2bandit_a2.png","70","70","test","1","55","55","3","",""
"null","210374","pSARL_v2","pSARL_v2h8zh8j0x","601373dbd735b324b32818bd","freq_resp","img/green_2bandit_a.png","70","70","test","","","","3","",""
"null","210549","pSARL_v2","pSARL_v2h8zh8j0x","601373dbd735b324b32818bd","fixation","img/fixation.png","null","","test","","","","","",""
"335.6000000014901","210908","pSARL_v2","pSARL_v2h8zh8j0x","601373dbd735b324b32818bd","freq","img/green_2bandit_a2.png","70","70","test","1","56","56","3","",""
"null","211400","pSARL_v2","pSARL_v2h8zh8j0x","601373dbd735b324b32818bd","freq_resp","img/green_2bandit_a.png","70","70","test","","","","3","",""
"null","211576","pSARL_v2","pSARL_v2h8zh8j0x","601373dbd735b324b32818bd","fixation","img/fixation.png","null","","test","","","","","",""
"282.8999999985099","211879","pSARL_v2","pSARL_v2h8zh8j0x","601373dbd735b324b32818bd","freq","img/green_2bandit_a2.png","70","70","test","1","57","57","3","",""
"null","212423","pSARL_v2","pSARL_v2h8zh8j0x","601373dbd735b324b32818bd","freq_resp","img/green_2bandit_a.png","70","70","test","","","","3","",""
"null","212602","pSARL_v2","pSARL_v2h8zh8j0x","601373dbd735b324b32818bd","fixation","img/fixation.png","null","","test","","","","","",""
"364.2000000011176","212988","pSARL_v2","pSARL_v2h8zh8j0x","601373dbd735b324b32818bd","infreq","img/orange_2bandit_a2.png","68","68","test","1","58","58","3","",""
"null","213452","pSARL_v2","pSARL_v2h8zh8j0x","601373dbd735b324b32818bd","infreq_resp","img/orange_2bandit_a.png","68","68","test","","","","3","",""
"null","213628","pSARL_v2","pSARL_v2h8zh8j0x","601373dbd735b324b32818bd","fixation","img/fixation.png","null","","test","","","","","",""
"325.5","213975","pSARL_v2","pSARL_v2h8zh8j0x","601373dbd735b324b32818bd","freq","img/green_2bandit_a2.png","70","70","test","1","59","59","3","",""
"null","214471","pSARL_v2","pSARL_v2h8zh8j0x","601373dbd735b324b32818bd","freq_resp","img/green_2bandit_a.png","70","70","test","","","","3","",""
"null","214645","pSARL_v2","pSARL_v2h8zh8j0x","601373dbd735b324b32818bd","fixation","img/fixation.png","null","","test","","","","","",""
"303.7000000011176","214970","pSARL_v2","pSARL_v2h8zh8j0x","601373dbd735b324b32818bd","freq","img/green_2bandit_a2.png","70","70","test","1","60","60","3","",""
"null","215487","pSARL_v2","pSARL_v2h8zh8j0x","601373dbd735b324b32818bd","freq_resp","img/green_2bandit_a.png","70","70","test","","","","3","",""
"null","215657","pSARL_v2","pSARL_v2h8zh8j0x","601373dbd735b324b32818bd","fixation","img/fixation.png","null","","test","","","","","",""
"301.7000000011176","215979","pSARL_v2","pSARL_v2h8zh8j0x","601373dbd735b324b32818bd","freq","img/green_2bandit_a2.png","70","70","test","1","61","61","3","",""
"null","216502","pSARL_v2","pSARL_v2h8zh8j0x","601373dbd735b324b32818bd","freq_resp","img/green_2bandit_a.png","70","70","test","","","","3","",""
"null","216676","pSARL_v2","pSARL_v2h8zh8j0x","601373dbd735b324b32818bd","fixation","img/fixation.png","null","","test","","","","","",""
"301.59999999962747","216999","pSARL_v2","pSARL_v2h8zh8j0x","601373dbd735b324b32818bd","freq","img/green_2bandit_a2.png","70","70","test","1","62","62","3","",""
"null","217521","pSARL_v2","pSARL_v2h8zh8j0x","601373dbd735b324b32818bd","freq_resp","img/green_2bandit_a.png","70","70","test","","","","3","",""
"null","217695","pSARL_v2","pSARL_v2h8zh8j0x","601373dbd735b324b32818bd","fixation","img/fixation.png","null","","test","","","","","",""
"352.40000000037253","218071","pSARL_v2","pSARL_v2h8zh8j0x","601373dbd735b324b32818bd","freq","img/green_2bandit_a2.png","70","70","test","1","63","63","3","",""
"null","218543","pSARL_v2","pSARL_v2h8zh8j0x","601373dbd735b324b32818bd","freq_resp","img/green_2bandit_a.png","70","70","test","","","","3","",""
"null","218718","pSARL_v2","pSARL_v2h8zh8j0x","601373dbd735b324b32818bd","fixation","img/fixation.png","null","","test","","","","","",""
"261.30000000074506","219002","pSARL_v2","pSARL_v2h8zh8j0x","601373dbd735b324b32818bd","freq","img/green_2bandit_a2.png","70","70","test","1","64","64","3","",""
"null","219565","pSARL_v2","pSARL_v2h8zh8j0x","601373dbd735b324b32818bd","freq_resp","img/green_2bandit_a.png","70","70","test","","","","3","",""
"null","219739","pSARL_v2","pSARL_v2h8zh8j0x","601373dbd735b324b32818bd","fixation","img/fixation.png","null","","test","","","","","",""
"144.59999999962747","219906","pSARL_v2","pSARL_v2h8zh8j0x","601373dbd735b324b32818bd","freq","img/green_2bandit_a2.png","70","70","test","1","65","65","3","",""
"null","220586","pSARL_v2","pSARL_v2h8zh8j0x","601373dbd735b324b32818bd","freq_resp","img/green_2bandit_a.png","70","70","test","","","","3","",""
"null","220762","pSARL_v2","pSARL_v2h8zh8j0x","601373dbd735b324b32818bd","fixation","img/fixation.png","null","","test","","","","","",""
"302.7999999988824","221088","pSARL_v2","pSARL_v2h8zh8j0x","601373dbd735b324b32818bd","freq","img/green_2bandit_a2.png","70","70","test","1","66","66","3","",""
"null","221610","pSARL_v2","pSARL_v2h8zh8j0x","601373dbd735b324b32818bd","freq_resp","img/green_2bandit_a.png","70","70","test","","","","3","",""
"null","221782","pSARL_v2","pSARL_v2h8zh8j0x","601373dbd735b324b32818bd","fixation","img/fixation.png","null","","test","","","","","",""
"469.90000000037253","222274","pSARL_v2","pSARL_v2h8zh8j0x","601373dbd735b324b32818bd","reward","img/slot.png","74","","test","","","","","",""
"null","223048","pSARL_v2","pSARL_v2h8zh8j0x","601373dbd735b324b32818bd","points","<div class=""verylowPoints""> -7 </div>","null","na","test","","","","3","-7","2"
"591.5","223664","pSARL_v2","pSARL_v2h8zh8j0x","601373dbd735b324b32818bd","freq","img/green_2bandit_a2.png","70","70","test","1","67","67","4","",""
"null","223897","pSARL_v2","pSARL_v2h8zh8j0x","601373dbd735b324b32818bd","freq_resp","img/green_2bandit_a.png","70","70","test","","","","4","",""
"null","224071","pSARL_v2","pSARL_v2h8zh8j0x","601373dbd735b324b32818bd","fixation","img/fixation.png","null","","test","","","","","",""
"395.2000000011176","224490","pSARL_v2","pSARL_v2h8zh8j0x","601373dbd735b324b32818bd","freq","img/green_2bandit_a2.png","70","70","test","1","68","68","4","",""
"null","224918","pSARL_v2","pSARL_v2h8zh8j0x","601373dbd735b324b32818bd","freq_resp","img/green_2bandit_a.png","70","70","test","","","","4","",""
"null","225094","pSARL_v2","pSARL_v2h8zh8j0x","601373dbd735b324b32818bd","fixation","img/fixation.png","null","","test","","","","","",""
"289","225406","pSARL_v2","pSARL_v2h8zh8j0x","601373dbd735b324b32818bd","freq","img/green_2bandit_a2.png","70","70","test","1","69","69","4","",""
"null","225942","pSARL_v2","pSARL_v2h8zh8j0x","601373dbd735b324b32818bd","freq_resp","img/green_2bandit_a.png","70","70","test","","","","4","",""
"null","226121","pSARL_v2","pSARL_v2h8zh8j0x","601373dbd735b324b32818bd","fixation","img/fixation.png","null","","test","","","","","",""
"255.80000000074506","226398","pSARL_v2","pSARL_v2h8zh8j0x","601373dbd735b324b32818bd","freq","img/green_2bandit_a2.png","70","70","test","1","70","70","4","",""
"null","226969","pSARL_v2","pSARL_v2h8zh8j0x","601373dbd735b324b32818bd","freq_resp","img/green_2bandit_a.png","70","70","test","","","","4","",""
"null","227143","pSARL_v2","pSARL_v2h8zh8j0x","601373dbd735b324b32818bd","fixation","img/fixation.png","null","","test","","","","","",""
"258.09999999962747","227424","pSARL_v2","pSARL_v2h8zh8j0x","601373dbd735b324b32818bd","freq","img/green_2bandit_a2.png","70","70","test","1","71","71","4","",""
"null","227989","pSARL_v2","pSARL_v2h8zh8j0x","601373dbd735b324b32818bd","freq_resp","img/green_2bandit_a.png","70","70","test","","","","4","",""
"null","228160","pSARL_v2","pSARL_v2h8zh8j0x","601373dbd735b324b32818bd","fixation","img/fixation.png","null","","test","","","","","",""
"235.7999999988824","228419","pSARL_v2","pSARL_v2h8zh8j0x","601373dbd735b324b32818bd","freq","img/green_2bandit_a2.png","70","70","test","1","72","72","4","",""
"null","229008","pSARL_v2","pSARL_v2h8zh8j0x","601373dbd735b324b32818bd","freq_resp","img/green_2bandit_a.png","70","70","test","","","","4","",""
"null","229184","pSARL_v2","pSARL_v2h8zh8j0x","601373dbd735b324b32818bd","fixation","img/fixation.png","null","","test","","","","","",""
"248.80000000074506","229460","pSARL_v2","pSARL_v2h8zh8j0x","601373dbd735b324b32818bd","freq","img/green_2bandit_a2.png","70","70","test","1","73","73","4","",""
"null","230035","pSARL_v2","pSARL_v2h8zh8j0x","601373dbd735b324b32818bd","freq_resp","img/green_2bandit_a.png","70","70","test","","","","4","",""
"null","230208","pSARL_v2","pSARL_v2h8zh8j0x","601373dbd735b324b32818bd","fixation","img/fixation.png","null","","test","","","","","",""
"285.40000000037253","230517","pSARL_v2","pSARL_v2h8zh8j0x","601373dbd735b324b32818bd","freq","img/green_2bandit_a2.png","70","70","test","1","74","74","4","",""
"null","231055","pSARL_v2","pSARL_v2h8zh8j0x","601373dbd735b324b32818bd","freq_resp","img/green_2bandit_a.png","70","70","test","","","","4","",""
"null","231229","pSARL_v2","pSARL_v2h8zh8j0x","601373dbd735b324b32818bd","fixation","img/fixation.png","null","","test","","","","","",""
"238","231487","pSARL_v2","pSARL_v2h8zh8j0x","601373dbd735b324b32818bd","freq","img/green_2bandit_a2.png","70","70","test","1","75","75","4","",""
"null","232073","pSARL_v2","pSARL_v2h8zh8j0x","601373dbd735b324b32818bd","freq_resp","img/green_2bandit_a.png","70","70","test","","","","4","",""
"null","232248","pSARL_v2","pSARL_v2h8zh8j0x","601373dbd735b324b32818bd","fixation","img/fixation.png","null","","test","","","","","",""
"385.30000000074506","232654","pSARL_v2","pSARL_v2h8zh8j0x","601373dbd735b324b32818bd","infreq","img/orange_2bandit_a2.png","68","68","test","1","76","76","4","",""
"null","233093","pSARL_v2","pSARL_v2h8zh8j0x","601373dbd735b324b32818bd","infreq_resp","img/orange_2bandit_a.png","68","68","test","","","","4","",""
"null","233268","pSARL_v2","pSARL_v2h8zh8j0x","601373dbd735b324b32818bd","fixation","img/fixation.png","null","","test","","","","","",""
"338.5","233627","pSARL_v2","pSARL_v2h8zh8j0x","601373dbd735b324b32818bd","freq","img/green_2bandit_a2.png","70","70","test","1","77","77","4","",""
"null","234113","pSARL_v2","pSARL_v2h8zh8j0x","601373dbd735b324b32818bd","freq_resp","img/green_2bandit_a.png","70","70","test","","","","4","",""
"null","234288","pSARL_v2","pSARL_v2h8zh8j0x","601373dbd735b324b32818bd","fixation","img/fixation.png","null","","test","","","","","",""
"276.59999999962747","234587","pSARL_v2","pSARL_v2h8zh8j0x","601373dbd735b324b32818bd","freq","img/green_2bandit_a2.png","70","70","test","1","78","78","4","",""
"null","235134","pSARL_v2","pSARL_v2h8zh8j0x","601373dbd735b324b32818bd","freq_resp","img/green_2bandit_a.png","70","70","test","","","","4","",""
"null","235308","pSARL_v2","pSARL_v2h8zh8j0x","601373dbd735b324b32818bd","fixation","img/fixation.png","null","","test","","","","","",""
"246.60000000149012","235575","pSARL_v2","pSARL_v2h8zh8j0x","601373dbd735b324b32818bd","freq","img/green_2bandit_a2.png","70","70","test","1","79","79","4","",""
"null","236152","pSARL_v2","pSARL_v2h8zh8j0x","601373dbd735b324b32818bd","freq_resp","img/green_2bandit_a.png","70","70","test","","","","4","",""
"null","236326","pSARL_v2","pSARL_v2h8zh8j0x","601373dbd735b324b32818bd","fixation","img/fixation.png","null","","test","","","","","",""
"209.09999999962747","236557","pSARL_v2","pSARL_v2h8zh8j0x","601373dbd735b324b32818bd","freq","img/green_2bandit_a2.png","70","70","test","1","80","80","4","",""
"null","237172","pSARL_v2","pSARL_v2h8zh8j0x","601373dbd735b324b32818bd","freq_resp","img/green_2bandit_a.png","70","70","test","","","","4","",""
"null","237347","pSARL_v2","pSARL_v2h8zh8j0x","601373dbd735b324b32818bd","fixation","img/fixation.png","null","","test","","","","","",""
"191.30000000074506","237562","pSARL_v2","pSARL_v2h8zh8j0x","601373dbd735b324b32818bd","freq","img/green_2bandit_a2.png","70","70","test","1","81","81","4","",""
"null","238194","pSARL_v2","pSARL_v2h8zh8j0x","601373dbd735b324b32818bd","freq_resp","img/green_2bandit_a.png","70","70","test","","","","4","",""
"null","238368","pSARL_v2","pSARL_v2h8zh8j0x","601373dbd735b324b32818bd","fixation","img/fixation.png","null","","test","","","","","",""
"323.19999999925494","238714","pSARL_v2","pSARL_v2h8zh8j0x","601373dbd735b324b32818bd","freq","img/green_2bandit_a2.png","70","70","test","1","82","82","4","",""
"null","239215","pSARL_v2","pSARL_v2h8zh8j0x","601373dbd735b324b32818bd","freq_resp","img/green_2bandit_a.png","70","70","test","","","","4","",""
"null","239389","pSARL_v2","pSARL_v2h8zh8j0x","601373dbd735b324b32818bd","fixation","img/fixation.png","null","","test","","","","","",""
"302.5","239713","pSARL_v2","pSARL_v2h8zh8j0x","601373dbd735b324b32818bd","freq","img/green_2bandit_a2.png","70","70","test","1","83","83","4","",""
"null","240239","pSARL_v2","pSARL_v2h8zh8j0x","601373dbd735b324b32818bd","freq_resp","img/green_2bandit_a.png","70","70","test","","","","4","",""
"null","240413","pSARL_v2","pSARL_v2h8zh8j0x","601373dbd735b324b32818bd","fixation","img/fixation.png","null","","test","","","","","",""
"266.2000000011176","240702","pSARL_v2","pSARL_v2h8zh8j0x","601373dbd735b324b32818bd","freq","img/green_2bandit_a2.png","70","70","test","1","84","84","4","",""
"null","241260","pSARL_v2","pSARL_v2h8zh8j0x","601373dbd735b324b32818bd","freq_resp","img/green_2bandit_a.png","70","70","test","","","","4","",""
"null","241438","pSARL_v2","pSARL_v2h8zh8j0x","601373dbd735b324b32818bd","fixation","img/fixation.png","null","","test","","","","","",""
"307.7000000011176","241768","pSARL_v2","pSARL_v2h8zh8j0x","601373dbd735b324b32818bd","freq","img/green_2bandit_a2.png","70","70","test","1","85","85","4","",""
"null","242283","pSARL_v2","pSARL_v2h8zh8j0x","601373dbd735b324b32818bd","freq_resp","img/green_2bandit_a.png","70","70","test","","","","4","",""
"null","242461","pSARL_v2","pSARL_v2h8zh8j0x","601373dbd735b324b32818bd","fixation","img/fixation.png","null","","test","","","","","",""
"399.59999999962747","242885","pSARL_v2","pSARL_v2h8zh8j0x","601373dbd735b324b32818bd","infreq","img/orange_2bandit_a2.png","68","68","test","1","86","86","4","",""
"null","243311","pSARL_v2","pSARL_v2h8zh8j0x","601373dbd735b324b32818bd","infreq_resp","img/orange_2bandit_a.png","68","68","test","","","","4","",""
"null","243484","pSARL_v2","pSARL_v2h8zh8j0x","601373dbd735b324b32818bd","fixation","img/fixation.png","null","","test","","","","","",""
"312.6000000014901","243818","pSARL_v2","pSARL_v2h8zh8j0x","601373dbd735b324b32818bd","freq","img/green_2bandit_a2.png","70","70","test","1","87","87","4","",""
"null","244330","pSARL_v2","pSARL_v2h8zh8j0x","601373dbd735b324b32818bd","freq_resp","img/green_2bandit_a.png","70","70","test","","","","4","",""
"null","244505","pSARL_v2","pSARL_v2h8zh8j0x","601373dbd735b324b32818bd","fixation","img/fixation.png","null","","test","","","","","",""
"296.8999999985099","244824","pSARL_v2","pSARL_v2h8zh8j0x","601373dbd735b324b32818bd","freq","img/green_2bandit_a2.png","70","70","test","1","88","88","4","",""
"null","245351","pSARL_v2","pSARL_v2h8zh8j0x","601373dbd735b324b32818bd","freq_resp","img/green_2bandit_a.png","70","70","test","","","","4","",""
"null","245525","pSARL_v2","pSARL_v2h8zh8j0x","601373dbd735b324b32818bd","fixation","img/fixation.png","null","","test","","","","","",""
"929.3999999985099","246475","pSARL_v2","pSARL_v2h8zh8j0x","601373dbd735b324b32818bd","reward","img/slot.png","74","","test","","","","","",""
"null","247246","pSARL_v2","pSARL_v2h8zh8j0x","601373dbd735b324b32818bd","points","<div class=""verylowPoints""> -3 </div>","null","na","test","","","","4","-3","3"
"533.5999999996275","247802","pSARL_v2","pSARL_v2h8zh8j0x","601373dbd735b324b32818bd","freq","img/green_2bandit_a2.png","70","70","test","1","89","89","5","",""
"null","248091","pSARL_v2","pSARL_v2h8zh8j0x","601373dbd735b324b32818bd","freq_resp","img/green_2bandit_a.png","70","70","test","","","","5","",""
"null","248266","pSARL_v2","pSARL_v2h8zh8j0x","601373dbd735b324b32818bd","fixation","img/fixation.png","null","","test","","","","","",""
"284.40000000037253","248573","pSARL_v2","pSARL_v2h8zh8j0x","601373dbd735b324b32818bd","freq","img/green_2bandit_a2.png","70","70","test","1","90","90","5","",""
"null","249113","pSARL_v2","pSARL_v2h8zh8j0x","601373dbd735b324b32818bd","freq_resp","img/green_2bandit_a.png","70","70","test","","","","5","",""
"null","249288","pSARL_v2","pSARL_v2h8zh8j0x","601373dbd735b324b32818bd","fixation","img/fixation.png","null","","test","","","","","",""
"345","249656","pSARL_v2","pSARL_v2h8zh8j0x","601373dbd735b324b32818bd","freq","img/green_2bandit_a2.png","70","70","test","1","91","91","5","",""
"null","250136","pSARL_v2","pSARL_v2h8zh8j0x","601373dbd735b324b32818bd","freq_resp","img/green_2bandit_a.png","70","70","test","","","","5","",""
"null","250308","pSARL_v2","pSARL_v2h8zh8j0x","601373dbd735b324b32818bd","fixation","img/fixation.png","null","","test","","","","","",""
"286.7000000011176","250617","pSARL_v2","pSARL_v2h8zh8j0x","601373dbd735b324b32818bd","freq","img/green_2bandit_a2.png","70","70","test","1","92","92","5","",""
"null","251153","pSARL_v2","pSARL_v2h8zh8j0x","601373dbd735b324b32818bd","freq_resp","img/green_2bandit_a.png","70","70","test","","","","5","",""
"null","251330","pSARL_v2","pSARL_v2h8zh8j0x","601373dbd735b324b32818bd","fixation","img/fixation.png","null","","test","","","","","",""
"375.09999999962747","251727","pSARL_v2","pSARL_v2h8zh8j0x","601373dbd735b324b32818bd","freq","img/green_2bandit_a2.png","70","70","test","1","93","93","5","",""
"null","252175","pSARL_v2","pSARL_v2h8zh8j0x","601373dbd735b324b32818bd","freq_resp","img/green_2bandit_a.png","70","70","test","","","","5","",""
"null","252350","pSARL_v2","pSARL_v2h8zh8j0x","601373dbd735b324b32818bd","fixation","img/fixation.png","null","","test","","","","","",""
"354.59999999962747","252727","pSARL_v2","pSARL_v2h8zh8j0x","601373dbd735b324b32818bd","freq","img/green_2bandit_a2.png","70","70","test","1","94","94","5","",""
"null","253199","pSARL_v2","pSARL_v2h8zh8j0x","601373dbd735b324b32818bd","freq_resp","img/green_2bandit_a.png","70","70","test","","","","5","",""
"null","253372","pSARL_v2","pSARL_v2h8zh8j0x","601373dbd735b324b32818bd","fixation","img/fixation.png","null","","test","","","","","",""
"357.3999999985099","253752","pSARL_v2","pSARL_v2h8zh8j0x","601373dbd735b324b32818bd","freq","img/green_2bandit_a2.png","70","70","test","1","95","95","5","",""
"null","254218","pSARL_v2","pSARL_v2h8zh8j0x","601373dbd735b324b32818bd","freq_resp","img/green_2bandit_a.png","70","70","test","","","","5","",""
"null","254392","pSARL_v2","pSARL_v2h8zh8j0x","601373dbd735b324b32818bd","fixation","img/fixation.png","null","","test","","","","","",""
"360.80000000074506","254773","pSARL_v2","pSARL_v2h8zh8j0x","601373dbd735b324b32818bd","freq","img/green_2bandit_a2.png","70","70","test","1","96","96","5","",""
"null","255243","pSARL_v2","pSARL_v2h8zh8j0x","601373dbd735b324b32818bd","freq_resp","img/green_2bandit_a.png","70","70","test","","","","5","",""
"null","255417","pSARL_v2","pSARL_v2h8zh8j0x","601373dbd735b324b32818bd","fixation","img/fixation.png","null","","test","","","","","",""
"372.09999999962747","255811","pSARL_v2","pSARL_v2h8zh8j0x","601373dbd735b324b32818bd","freq","img/green_2bandit_a2.png","70","70","test","1","97","97","5","",""
"null","256263","pSARL_v2","pSARL_v2h8zh8j0x","601373dbd735b324b32818bd","freq_resp","img/green_2bandit_a.png","70","70","test","","","","5","",""
"null","256436","pSARL_v2","pSARL_v2h8zh8j0x","601373dbd735b324b32818bd","fixation","img/fixation.png","null","","test","","","","","",""
"386","256844","pSARL_v2","pSARL_v2h8zh8j0x","601373dbd735b324b32818bd","freq","img/green_2bandit_a2.png","70","70","test","1","98","98","5","",""
"null","257281","pSARL_v2","pSARL_v2h8zh8j0x","601373dbd735b324b32818bd","freq_resp","img/green_2bandit_a.png","70","70","test","","","","5","",""
"null","257462","pSARL_v2","pSARL_v2h8zh8j0x","601373dbd735b324b32818bd","fixation","img/fixation.png","null","","test","","","","","",""
"362.69999999925494","257848","pSARL_v2","pSARL_v2h8zh8j0x","601373dbd735b324b32818bd","freq","img/green_2bandit_a2.png","70","70","test","1","99","99","5","",""
"null","258309","pSARL_v2","pSARL_v2h8zh8j0x","601373dbd735b324b32818bd","freq_resp","img/green_2bandit_a.png","70","70","test","","","","5","",""
"null","258479","pSARL_v2","pSARL_v2h8zh8j0x","601373dbd735b324b32818bd","fixation","img/fixation.png","null","","test","","","","","",""
"381.90000000037253","258883","pSARL_v2","pSARL_v2h8zh8j0x","601373dbd735b324b32818bd","freq","img/green_2bandit_a2.png","70","70","test","1","100","100","5","",""
"null","259327","pSARL_v2","pSARL_v2h8zh8j0x","601373dbd735b324b32818bd","freq_resp","img/green_2bandit_a.png","70","70","test","","","","5","",""
"null","259498","pSARL_v2","pSARL_v2h8zh8j0x","601373dbd735b324b32818bd","fixation","img/fixation.png","null","","test","","","","","",""
"370.09999999962747","259892","pSARL_v2","pSARL_v2h8zh8j0x","601373dbd735b324b32818bd","freq","img/green_2bandit_a2.png","70","70","test","1","101","101","5","",""
"null","260345","pSARL_v2","pSARL_v2h8zh8j0x","601373dbd735b324b32818bd","freq_resp","img/green_2bandit_a.png","70","70","test","","","","5","",""
"null","260520","pSARL_v2","pSARL_v2h8zh8j0x","601373dbd735b324b32818bd","fixation","img/fixation.png","null","","test","","","","","",""
"335.30000000074506","260883","pSARL_v2","pSARL_v2h8zh8j0x","601373dbd735b324b32818bd","freq","img/green_2bandit_a2.png","70","70","test","1","102","102","5","",""
"null","261373","pSARL_v2","pSARL_v2h8zh8j0x","601373dbd735b324b32818bd","freq_resp","img/green_2bandit_a.png","70","70","test","","","","5","",""
"null","261547","pSARL_v2","pSARL_v2h8zh8j0x","601373dbd735b324b32818bd","fixation","img/fixation.png","null","","test","","","","","",""
"371","261944","pSARL_v2","pSARL_v2h8zh8j0x","601373dbd735b324b32818bd","freq","img/green_2bandit_a2.png","70","70","test","1","103","103","5","",""
"null","262401","pSARL_v2","pSARL_v2h8zh8j0x","601373dbd735b324b32818bd","freq_resp","img/green_2bandit_a.png","70","70","test","","","","5","",""
"null","262575","pSARL_v2","pSARL_v2h8zh8j0x","601373dbd735b324b32818bd","fixation","img/fixation.png","null","","test","","","","","",""
"425.90000000037253","263025","pSARL_v2","pSARL_v2h8zh8j0x","601373dbd735b324b32818bd","infreq","img/orange_2bandit_a2.png","68","68","test","1","104","104","5","",""
"null","263423","pSARL_v2","pSARL_v2h8zh8j0x","601373dbd735b324b32818bd","infreq_resp","img/orange_2bandit_a.png","68","68","test","","","","5","",""
"null","263595","pSARL_v2","pSARL_v2h8zh8j0x","601373dbd735b324b32818bd","fixation","img/fixation.png","null","","test","","","","","",""
"735.4000000003725","264354","pSARL_v2","pSARL_v2h8zh8j0x","601373dbd735b324b32818bd","infreq","img/orange_2bandit_a2.png","70","68","test","0","105","105","5","",""
"null","264442","pSARL_v2","pSARL_v2h8zh8j0x","601373dbd735b324b32818bd","infreq_resp","img/orange_2bandit_a.png","70","68","test","","","","5","",""
"null","264616","pSARL_v2","pSARL_v2h8zh8j0x","601373dbd735b324b32818bd","fixation","img/fixation.png","null","","test","","","","","",""
"616.7000000011176","265256","pSARL_v2","pSARL_v2h8zh8j0x","601373dbd735b324b32818bd","freq","img/green_2bandit_a2.png","70","70","test","1","106","106","5","",""
"null","265466","pSARL_v2","pSARL_v2h8zh8j0x","601373dbd735b324b32818bd","freq_resp","img/green_2bandit_a.png","70","70","test","","","","5","",""
"null","265639","pSARL_v2","pSARL_v2h8zh8j0x","601373dbd735b324b32818bd","fixation","img/fixation.png","null","","test","","","","","",""
"425.69999999925494","266087","pSARL_v2","pSARL_v2h8zh8j0x","601373dbd735b324b32818bd","freq","img/green_2bandit_a2.png","70","70","test","1","107","107","5","",""
"null","266484","pSARL_v2","pSARL_v2h8zh8j0x","601373dbd735b324b32818bd","freq_resp","img/green_2bandit_a.png","70","70","test","","","","5","",""
"null","266658","pSARL_v2","pSARL_v2h8zh8j0x","601373dbd735b324b32818bd","fixation","img/fixation.png","null","","test","","","","","",""
"10575.599999999627","277256","pSARL_v2","pSARL_v2h8zh8j0x","601373dbd735b324b32818bd","reward","img/slot.png","74","","test","","","","","",""
"null","278032","pSARL_v2","pSARL_v2h8zh8j0x","601373dbd735b324b32818bd","points","<div class=""veryhighPoints""> +1 </div>","null","na","test","","","","5","1","4"
"686.9000000003725","278741","pSARL_v2","pSARL_v2h8zh8j0x","601373dbd735b324b32818bd","freq","img/green_2bandit_a2.png","70","70","test","1","108","108","6","",""
"null","278880","pSARL_v2","pSARL_v2h8zh8j0x","601373dbd735b324b32818bd","freq_resp","img/green_2bandit_a.png","70","70","test","","","","6","",""
"null","279057","pSARL_v2","pSARL_v2h8zh8j0x","601373dbd735b324b32818bd","fixation","img/fixation.png","null","","test","","","","","",""
"660.6999999992549","279740","pSARL_v2","pSARL_v2h8zh8j0x","601373dbd735b324b32818bd","infreq","img/orange_2bandit_a2.png","68","68","test","1","109","109","6","",""
"null","279903","pSARL_v2","pSARL_v2h8zh8j0x","601373dbd735b324b32818bd","infreq_resp","img/orange_2bandit_a.png","68","68","test","","","","6","",""
"null","280077","pSARL_v2","pSARL_v2h8zh8j0x","601373dbd735b324b32818bd","fixation","img/fixation.png","null","","test","","","","","",""
"438.30000000074506","280538","pSARL_v2","pSARL_v2h8zh8j0x","601373dbd735b324b32818bd","freq","img/green_2bandit_a2.png","70","70","test","1","110","110","6","",""
"null","280923","pSARL_v2","pSARL_v2h8zh8j0x","601373dbd735b324b32818bd","freq_resp","img/green_2bandit_a.png","70","70","test","","","","6","",""
"null","281095","pSARL_v2","pSARL_v2h8zh8j0x","601373dbd735b324b32818bd","fixation","img/fixation.png","null","","test","","","","","",""
"547.8000000007451","281665","pSARL_v2","pSARL_v2h8zh8j0x","601373dbd735b324b32818bd","freq","img/green_2bandit_a2.png","70","70","test","1","111","111","6","",""
"null","281941","pSARL_v2","pSARL_v2h8zh8j0x","601373dbd735b324b32818bd","freq_resp","img/green_2bandit_a.png","70","70","test","","","","6","",""
"null","282117","pSARL_v2","pSARL_v2h8zh8j0x","601373dbd735b324b32818bd","fixation","img/fixation.png","null","","test","","","","","",""
"303.30000000074506","282442","pSARL_v2","pSARL_v2h8zh8j0x","601373dbd735b324b32818bd","freq","img/green_2bandit_a2.png","70","70","test","1","112","112","6","",""
"null","282962","pSARL_v2","pSARL_v2h8zh8j0x","601373dbd735b324b32818bd","freq_resp","img/green_2bandit_a.png","70","70","test","","","","6","",""
"null","283137","pSARL_v2","pSARL_v2h8zh8j0x","601373dbd735b324b32818bd","fixation","img/fixation.png","null","","test","","","","","",""
"374.7000000011176","283533","pSARL_v2","pSARL_v2h8zh8j0x","601373dbd735b324b32818bd","freq","img/green_2bandit_a2.png","70","70","test","1","113","113","6","",""
"null","283984","pSARL_v2","pSARL_v2h8zh8j0x","601373dbd735b324b32818bd","freq_resp","img/green_2bandit_a.png","70","70","test","","","","6","",""
"null","284159","pSARL_v2","pSARL_v2h8zh8j0x","601373dbd735b324b32818bd","fixation","img/fixation.png","null","","test","","","","","",""
"312.6000000014901","284496","pSARL_v2","pSARL_v2h8zh8j0x","601373dbd735b324b32818bd","freq","img/green_2bandit_a2.png","70","70","test","1","114","114","6","",""
"null","285007","pSARL_v2","pSARL_v2h8zh8j0x","601373dbd735b324b32818bd","freq_resp","img/green_2bandit_a.png","70","70","test","","","","6","",""
"null","285183","pSARL_v2","pSARL_v2h8zh8j0x","601373dbd735b324b32818bd","fixation","img/fixation.png","null","","test","","","","","",""
"294.90000000037253","285500","pSARL_v2","pSARL_v2h8zh8j0x","601373dbd735b324b32818bd","freq","img/green_2bandit_a2.png","70","70","test","1","115","115","6","",""
"null","286028","pSARL_v2","pSARL_v2h8zh8j0x","601373dbd735b324b32818bd","freq_resp","img/green_2bandit_a.png","70","70","test","","","","6","",""
"null","286201","pSARL_v2","pSARL_v2h8zh8j0x","601373dbd735b324b32818bd","fixation","img/fixation.png","null","","test","","","","","",""
"373","286597","pSARL_v2","pSARL_v2h8zh8j0x","601373dbd735b324b32818bd","freq","img/green_2bandit_a2.png","70","70","test","1","116","116","6","",""
"null","287048","pSARL_v2","pSARL_v2h8zh8j0x","601373dbd735b324b32818bd","freq_resp","img/green_2bandit_a.png","70","70","test","","","","6","",""
"null","287223","pSARL_v2","pSARL_v2h8zh8j0x","601373dbd735b324b32818bd","fixation","img/fixation.png","null","","test","","","","","",""
"324.8999999985099","287573","pSARL_v2","pSARL_v2h8zh8j0x","601373dbd735b324b32818bd","freq","img/green_2bandit_a2.png","70","70","test","1","117","117","6","",""
"null","288071","pSARL_v2","pSARL_v2h8zh8j0x","601373dbd735b324b32818bd","freq_resp","img/green_2bandit_a.png","70","70","test","","","","6","",""
"null","288246","pSARL_v2","pSARL_v2h8zh8j0x","601373dbd735b324b32818bd","fixation","img/fixation.png","null","","test","","","","","",""
"322.09999999962747","288590","pSARL_v2","pSARL_v2h8zh8j0x","601373dbd735b324b32818bd","freq","img/green_2bandit_a2.png","70","70","test","1","118","118","6","",""
"null","289092","pSARL_v2","pSARL_v2h8zh8j0x","601373dbd735b324b32818bd","freq_resp","img/green_2bandit_a.png","70","70","test","","","","6","",""
"null","289265","pSARL_v2","pSARL_v2h8zh8j0x","601373dbd735b324b32818bd","fixation","img/fixation.png","null","","test","","","","","",""
"301.09999999962747","289588","pSARL_v2","pSARL_v2h8zh8j0x","601373dbd735b324b32818bd","freq","img/green_2bandit_a2.png","70","70","test","1","119","119","6","",""
"null","290112","pSARL_v2","pSARL_v2h8zh8j0x","601373dbd735b324b32818bd","freq_resp","img/green_2bandit_a.png","70","70","test","","","","6","",""
"null","290281","pSARL_v2","pSARL_v2h8zh8j0x","601373dbd735b324b32818bd","fixation","img/fixation.png","null","","test","","","","","",""
"286.69999999925494","290590","pSARL_v2","pSARL_v2h8zh8j0x","601373dbd735b324b32818bd","freq","img/green_2bandit_a2.png","70","70","test","1","120","120","6","",""
"null","291129","pSARL_v2","pSARL_v2h8zh8j0x","601373dbd735b324b32818bd","freq_resp","img/green_2bandit_a.png","70","70","test","","","","6","",""
"null","291300","pSARL_v2","pSARL_v2h8zh8j0x","601373dbd735b324b32818bd","fixation","img/fixation.png","null","","test","","","","","",""
"448.19999999925494","291772","pSARL_v2","pSARL_v2h8zh8j0x","601373dbd735b324b32818bd","infreq","img/orange_2bandit_a2.png","68","68","test","1","121","121","6","",""
"null","292147","pSARL_v2","pSARL_v2h8zh8j0x","601373dbd735b324b32818bd","infreq_resp","img/orange_2bandit_a.png","68","68","test","","","","6","",""
"null","292322","pSARL_v2","pSARL_v2h8zh8j0x","601373dbd735b324b32818bd","fixation","img/fixation.png","null","","test","","","","","",""
"418.2000000011176","292762","pSARL_v2","pSARL_v2h8zh8j0x","601373dbd735b324b32818bd","infreq","img/orange_2bandit_a2.png","68","68","test","1","122","122","6","",""
"null","293166","pSARL_v2","pSARL_v2h8zh8j0x","601373dbd735b324b32818bd","infreq_resp","img/orange_2bandit_a.png","68","68","test","","","","6","",""
"null","293343","pSARL_v2","pSARL_v2h8zh8j0x","601373dbd735b324b32818bd","fixation","img/fixation.png","null","","test","","","","","",""
"579.0999999996275","293945","pSARL_v2","pSARL_v2h8zh8j0x","601373dbd735b324b32818bd","freq","img/green_2bandit_a2.png","70","70","test","1","123","123","6","",""
"null","294191","pSARL_v2","pSARL_v2h8zh8j0x","601373dbd735b324b32818bd","freq_resp","img/green_2bandit_a.png","70","70","test","","","","6","",""
"null","294364","pSARL_v2","pSARL_v2h8zh8j0x","601373dbd735b324b32818bd","fixation","img/fixation.png","null","","test","","","","","",""
"736.7999999988824","295125","pSARL_v2","pSARL_v2h8zh8j0x","601373dbd735b324b32818bd","freq","img/green_2bandit_a2.png","70","70","test","1","124","124","6","",""
"null","295212","pSARL_v2","pSARL_v2h8zh8j0x","601373dbd735b324b32818bd","freq_resp","img/green_2bandit_a.png","70","70","test","","","","6","",""
"null","295384","pSARL_v2","pSARL_v2h8zh8j0x","601373dbd735b324b32818bd","fixation","img/fixation.png","null","","test","","","","","",""
"549.0999999996275","295956","pSARL_v2","pSARL_v2h8zh8j0x","601373dbd735b324b32818bd","freq","img/green_2bandit_a2.png","70","70","test","1","125","125","6","",""
"null","296228","pSARL_v2","pSARL_v2h8zh8j0x","601373dbd735b324b32818bd","freq_resp","img/green_2bandit_a.png","70","70","test","","","","6","",""
"null","296402","pSARL_v2","pSARL_v2h8zh8j0x","601373dbd735b324b32818bd","fixation","img/fixation.png","null","","test","","","","","",""
"419.09999999962747","296844","pSARL_v2","pSARL_v2h8zh8j0x","601373dbd735b324b32818bd","freq","img/green_2bandit_a2.png","70","70","test","1","126","126","6","",""
"null","297248","pSARL_v2","pSARL_v2h8zh8j0x","601373dbd735b324b32818bd","freq_resp","img/green_2bandit_a.png","70","70","test","","","","6","",""
"null","297422","pSARL_v2","pSARL_v2h8zh8j0x","601373dbd735b324b32818bd","fixation","img/fixation.png","null","","test","","","","","",""
"400.80000000074506","297845","pSARL_v2","pSARL_v2h8zh8j0x","601373dbd735b324b32818bd","freq","img/green_2bandit_a2.png","70","70","test","1","127","127","6","",""
"null","298270","pSARL_v2","pSARL_v2h8zh8j0x","601373dbd735b324b32818bd","freq_resp","img/green_2bandit_a.png","70","70","test","","","","6","",""
"null","298444","pSARL_v2","pSARL_v2h8zh8j0x","601373dbd735b324b32818bd","fixation","img/fixation.png","null","","test","","","","","",""
"28240.300000000745","326708","pSARL_v2","pSARL_v2h8zh8j0x","601373dbd735b324b32818bd","reward","img/slot.png","74","","test","","","","","",""
"null","327480","pSARL_v2","pSARL_v2h8zh8j0x","601373dbd735b324b32818bd","points","<div class=""verylowPoints""> -7 </div>","null","na","test","","","","6","-7","5"
"673.3000000007451","328175","pSARL_v2","pSARL_v2h8zh8j0x","601373dbd735b324b32818bd","freq","img/green_2bandit_a2.png","70","70","test","1","128","128","7","",""
"null","328326","pSARL_v2","pSARL_v2h8zh8j0x","601373dbd735b324b32818bd","freq_resp","img/green_2bandit_a.png","70","70","test","","","","7","",""
"null","328499","pSARL_v2","pSARL_v2h8zh8j0x","601373dbd735b324b32818bd","fixation","img/fixation.png","null","","test","","","","","",""
"359.90000000037253","328885","pSARL_v2","pSARL_v2h8zh8j0x","601373dbd735b324b32818bd","freq","img/green_2bandit_a2.png","70","70","test","1","129","129","7","",""
"null","329347","pSARL_v2","pSARL_v2h8zh8j0x","601373dbd735b324b32818bd","freq_resp","img/green_2bandit_a.png","70","70","test","","","","7","",""
"null","329521","pSARL_v2","pSARL_v2h8zh8j0x","601373dbd735b324b32818bd","fixation","img/fixation.png","null","","test","","","","","",""
"338.30000000074506","329882","pSARL_v2","pSARL_v2h8zh8j0x","601373dbd735b324b32818bd","freq","img/green_2bandit_a2.png","70","70","test","1","130","130","7","",""
"null","330367","pSARL_v2","pSARL_v2h8zh8j0x","601373dbd735b324b32818bd","freq_resp","img/green_2bandit_a.png","70","70","test","","","","7","",""
"null","330542","pSARL_v2","pSARL_v2h8zh8j0x","601373dbd735b324b32818bd","fixation","img/fixation.png","null","","test","","","","","",""
"366.40000000037253","330929","pSARL_v2","pSARL_v2h8zh8j0x","601373dbd735b324b32818bd","freq","img/green_2bandit_a2.png","70","70","test","1","131","131","7","",""
"null","331387","pSARL_v2","pSARL_v2h8zh8j0x","601373dbd735b324b32818bd","freq_resp","img/green_2bandit_a.png","70","70","test","","","","7","",""
"null","331561","pSARL_v2","pSARL_v2h8zh8j0x","601373dbd735b324b32818bd","fixation","img/fixation.png","null","","test","","","","","",""
"792.1999999992549","332375","pSARL_v2","pSARL_v2h8zh8j0x","601373dbd735b324b32818bd","infreq","img/orange_2bandit_a2.png","70","68","test","0","132","132","7","",""
"null","332403","pSARL_v2","pSARL_v2h8zh8j0x","601373dbd735b324b32818bd","infreq_resp","img/orange_2bandit_a.png","70","68","test","","","","7","",""
"null","332577","pSARL_v2","pSARL_v2h8zh8j0x","601373dbd735b324b32818bd","fixation","img/fixation.png","null","","test","","","","","",""
"399.59999999962747","333002","pSARL_v2","pSARL_v2h8zh8j0x","601373dbd735b324b32818bd","freq","img/green_2bandit_a2.png","70","70","test","1","133","133","7","",""
"null","333429","pSARL_v2","pSARL_v2h8zh8j0x","601373dbd735b324b32818bd","freq_resp","img/green_2bandit_a.png","70","70","test","","","","7","",""
"null","333604","pSARL_v2","pSARL_v2h8zh8j0x","601373dbd735b324b32818bd","fixation","img/fixation.png","null","","test","","","","","",""
"289.30000000074506","333915","pSARL_v2","pSARL_v2h8zh8j0x","601373dbd735b324b32818bd","freq","img/green_2bandit_a2.png","70","70","test","1","134","134","7","",""
"null","334452","pSARL_v2","pSARL_v2h8zh8j0x","601373dbd735b324b32818bd","freq_resp","img/green_2bandit_a.png","70","70","test","","","","7","",""
"null","334627","pSARL_v2","pSARL_v2h8zh8j0x","601373dbd735b324b32818bd","fixation","img/fixation.png","null","","test","","","","","",""
"297.90000000037253","334947","pSARL_v2","pSARL_v2h8zh8j0x","601373dbd735b324b32818bd","freq","img/green_2bandit_a2.png","70","70","test","1","135","135","7","",""
"null","335477","pSARL_v2","pSARL_v2h8zh8j0x","601373dbd735b324b32818bd","freq_resp","img/green_2bandit_a.png","70","70","test","","","","7","",""
"null","335652","pSARL_v2","pSARL_v2h8zh8j0x","601373dbd735b324b32818bd","fixation","img/fixation.png","null","","test","","","","","",""
"422.2999999988824","336094","pSARL_v2","pSARL_v2h8zh8j0x","601373dbd735b324b32818bd","infreq","img/orange_2bandit_a2.png","68","68","test","1","136","136","7","",""
"null","336494","pSARL_v2","pSARL_v2h8zh8j0x","601373dbd735b324b32818bd","infreq_resp","img/orange_2bandit_a.png","68","68","test","","","","7","",""
"null","336669","pSARL_v2","pSARL_v2h8zh8j0x","601373dbd735b324b32818bd","fixation","img/fixation.png","null","","test","","","","","",""
"481.2999999988824","337172","pSARL_v2","pSARL_v2h8zh8j0x","601373dbd735b324b32818bd","freq","img/green_2bandit_a2.png","70","70","test","1","137","137","7","",""
"null","337515","pSARL_v2","pSARL_v2h8zh8j0x","601373dbd735b324b32818bd","freq_resp","img/green_2bandit_a.png","70","70","test","","","","7","",""
"null","337688","pSARL_v2","pSARL_v2h8zh8j0x","601373dbd735b324b32818bd","fixation","img/fixation.png","null","","test","","","","","",""
"349","338062","pSARL_v2","pSARL_v2h8zh8j0x","601373dbd735b324b32818bd","freq","img/green_2bandit_a2.png","70","70","test","1","138","138","7","",""
"null","338536","pSARL_v2","pSARL_v2h8zh8j0x","601373dbd735b324b32818bd","freq_resp","img/green_2bandit_a.png","70","70","test","","","","7","",""
"null","338711","pSARL_v2","pSARL_v2h8zh8j0x","601373dbd735b324b32818bd","fixation","img/fixation.png","null","","test","","","","","",""
"349.69999999925494","339086","pSARL_v2","pSARL_v2h8zh8j0x","601373dbd735b324b32818bd","freq","img/green_2bandit_a2.png","70","70","test","1","139","139","7","",""
"null","339561","pSARL_v2","pSARL_v2h8zh8j0x","601373dbd735b324b32818bd","freq_resp","img/green_2bandit_a.png","70","70","test","","","","7","",""
"null","339734","pSARL_v2","pSARL_v2h8zh8j0x","601373dbd735b324b32818bd","fixation","img/fixation.png","null","","test","","","","","",""
"341.7000000011176","340095","pSARL_v2","pSARL_v2h8zh8j0x","601373dbd735b324b32818bd","freq","img/green_2bandit_a2.png","70","70","test","1","140","140","7","",""
"null","340579","pSARL_v2","pSARL_v2h8zh8j0x","601373dbd735b324b32818bd","freq_resp","img/green_2bandit_a.png","70","70","test","","","","7","",""
"null","340754","pSARL_v2","pSARL_v2h8zh8j0x","601373dbd735b324b32818bd","fixation","img/fixation.png","null","","test","","","","","",""
"357.40000000037253","341143","pSARL_v2","pSARL_v2h8zh8j0x","601373dbd735b324b32818bd","freq","img/green_2bandit_a2.png","70","70","test","1","141","141","7","",""
"null","341610","pSARL_v2","pSARL_v2h8zh8j0x","601373dbd735b324b32818bd","freq_resp","img/green_2bandit_a.png","70","70","test","","","","7","",""
"null","341783","pSARL_v2","pSARL_v2h8zh8j0x","601373dbd735b324b32818bd","fixation","img/fixation.png","null","","test","","","","","",""
"401.09999999962747","342207","pSARL_v2","pSARL_v2h8zh8j0x","601373dbd735b324b32818bd","freq","img/green_2bandit_a2.png","70","70","test","1","142","142","7","",""
"null","342630","pSARL_v2","pSARL_v2h8zh8j0x","601373dbd735b324b32818bd","freq_resp","img/green_2bandit_a.png","70","70","test","","","","7","",""
"null","342805","pSARL_v2","pSARL_v2h8zh8j0x","601373dbd735b324b32818bd","fixation","img/fixation.png","null","","test","","","","","",""
"351.6000000014901","343182","pSARL_v2","pSARL_v2h8zh8j0x","601373dbd735b324b32818bd","freq","img/green_2bandit_a2.png","70","70","test","1","143","143","7","",""
"null","343656","pSARL_v2","pSARL_v2h8zh8j0x","601373dbd735b324b32818bd","freq_resp","img/green_2bandit_a.png","70","70","test","","","","7","",""
"null","343831","pSARL_v2","pSARL_v2h8zh8j0x","601373dbd735b324b32818bd","fixation","img/fixation.png","null","","test","","","","","",""
"429.40000000037253","344283","pSARL_v2","pSARL_v2h8zh8j0x","601373dbd735b324b32818bd","freq","img/green_2bandit_a2.png","70","70","test","1","144","144","7","",""
"null","344677","pSARL_v2","pSARL_v2h8zh8j0x","601373dbd735b324b32818bd","freq_resp","img/green_2bandit_a.png","70","70","test","","","","7","",""
"null","344853","pSARL_v2","pSARL_v2h8zh8j0x","601373dbd735b324b32818bd","fixation","img/fixation.png","null","","test","","","","","",""
"390.40000000037253","345265","pSARL_v2","pSARL_v2h8zh8j0x","601373dbd735b324b32818bd","freq","img/green_2bandit_a2.png","70","70","test","1","145","145","7","",""
"null","345696","pSARL_v2","pSARL_v2h8zh8j0x","601373dbd735b324b32818bd","freq_resp","img/green_2bandit_a.png","70","70","test","","","","7","",""
"null","345872","pSARL_v2","pSARL_v2h8zh8j0x","601373dbd735b324b32818bd","fixation","img/fixation.png","null","","test","","","","","",""
"361.30000000074506","346256","pSARL_v2","pSARL_v2h8zh8j0x","601373dbd735b324b32818bd","freq","img/green_2bandit_a2.png","70","70","test","1","146","146","7","",""
"null","346717","pSARL_v2","pSARL_v2h8zh8j0x","601373dbd735b324b32818bd","freq_resp","img/green_2bandit_a.png","70","70","test","","","","7","",""
"null","346892","pSARL_v2","pSARL_v2h8zh8j0x","601373dbd735b324b32818bd","fixation","img/fixation.png","null","","test","","","","","",""
"359.19999999925494","347275","pSARL_v2","pSARL_v2h8zh8j0x","601373dbd735b324b32818bd","freq","img/green_2bandit_a2.png","70","70","test","1","147","147","7","",""
"null","347740","pSARL_v2","pSARL_v2h8zh8j0x","601373dbd735b324b32818bd","freq_resp","img/green_2bandit_a.png","70","70","test","","","","7","",""
"null","347915","pSARL_v2","pSARL_v2h8zh8j0x","601373dbd735b324b32818bd","fixation","img/fixation.png","null","","test","","","","","",""
"312.09999999962747","348249","pSARL_v2","pSARL_v2h8zh8j0x","601373dbd735b324b32818bd","freq","img/green_2bandit_a2.png","70","70","test","1","148","148","7","",""
"null","348760","pSARL_v2","pSARL_v2h8zh8j0x","601373dbd735b324b32818bd","freq_resp","img/green_2bandit_a.png","70","70","test","","","","7","",""
"null","348934","pSARL_v2","pSARL_v2h8zh8j0x","601373dbd735b324b32818bd","fixation","img/fixation.png","null","","test","","","","","",""
"20047.5","369005","pSARL_v2","pSARL_v2h8zh8j0x","601373dbd735b324b32818bd","reward","img/slot.png","74","","test","","","","","",""
"null","369780","pSARL_v2","pSARL_v2h8zh8j0x","601373dbd735b324b32818bd","points","<div class=""verylowPoints""> -6 </div>","null","na","test","","","","7","-6","6"
"748.5","370552","pSARL_v2","pSARL_v2h8zh8j0x","601373dbd735b324b32818bd","freq","img/green_2bandit_a2.png","70","70","test","1","149","149","8","",""
"null","370629","pSARL_v2","pSARL_v2h8zh8j0x","601373dbd735b324b32818bd","freq_resp","img/green_2bandit_a.png","70","70","test","","","","8","",""
"null","370802","pSARL_v2","pSARL_v2h8zh8j0x","601373dbd735b324b32818bd","fixation","img/fixation.png","null","","test","","","","","",""
"371.40000000037253","371195","pSARL_v2","pSARL_v2h8zh8j0x","601373dbd735b324b32818bd","freq","img/green_2bandit_a2.png","70","70","test","1","150","150","8","",""
"null","371648","pSARL_v2","pSARL_v2h8zh8j0x","601373dbd735b324b32818bd","freq_resp","img/green_2bandit_a.png","70","70","test","","","","8","",""
"null","371822","pSARL_v2","pSARL_v2h8zh8j0x","601373dbd735b324b32818bd","fixation","img/fixation.png","null","","test","","","","","",""
"455.09999999962747","372300","pSARL_v2","pSARL_v2h8zh8j0x","601373dbd735b324b32818bd","freq","img/green_2bandit_a2.png","70","70","test","1","151","151","8","",""
"null","372669","pSARL_v2","pSARL_v2h8zh8j0x","601373dbd735b324b32818bd","freq_resp","img/green_2bandit_a.png","70","70","test","","","","8","",""
"null","372845","pSARL_v2","pSARL_v2h8zh8j0x","601373dbd735b324b32818bd","fixation","img/fixation.png","null","","test","","","","","",""
"457.90000000037253","373327","pSARL_v2","pSARL_v2h8zh8j0x","601373dbd735b324b32818bd","freq","img/green_2bandit_a2.png","70","70","test","1","152","152","8","",""
"null","373696","pSARL_v2","pSARL_v2h8zh8j0x","601373dbd735b324b32818bd","freq_resp","img/green_2bandit_a.png","70","70","test","","","","8","",""
"null","373868","pSARL_v2","pSARL_v2h8zh8j0x","601373dbd735b324b32818bd","fixation","img/fixation.png","null","","test","","","","","",""
"331.80000000074506","374222","pSARL_v2","pSARL_v2h8zh8j0x","601373dbd735b324b32818bd","freq","img/green_2bandit_a2.png","70","70","test","1","153","153","8","",""
"null","374715","pSARL_v2","pSARL_v2h8zh8j0x","601373dbd735b324b32818bd","freq_resp","img/green_2bandit_a.png","70","70","test","","","","8","",""
"null","374891","pSARL_v2","pSARL_v2h8zh8j0x","601373dbd735b324b32818bd","fixation","img/fixation.png","null","","test","","","","","",""
"772.5","375685","pSARL_v2","pSARL_v2h8zh8j0x","601373dbd735b324b32818bd","freq","img/green_2bandit_a2.png","70","70","test","1","154","154","8","",""
"null","375733","pSARL_v2","pSARL_v2h8zh8j0x","601373dbd735b324b32818bd","freq_resp","img/green_2bandit_a.png","70","70","test","","","","8","",""
"null","375909","pSARL_v2","pSARL_v2h8zh8j0x","601373dbd735b324b32818bd","fixation","img/fixation.png","null","","test","","","","","",""
"656.1000000014901","376588","pSARL_v2","pSARL_v2h8zh8j0x","601373dbd735b324b32818bd","freq","img/green_2bandit_a2.png","70","70","test","1","155","155","8","",""
"null","376758","pSARL_v2","pSARL_v2h8zh8j0x","601373dbd735b324b32818bd","freq_resp","img/green_2bandit_a.png","70","70","test","","","","8","",""
"null","376931","pSARL_v2","pSARL_v2h8zh8j0x","601373dbd735b324b32818bd","fixation","img/fixation.png","null","","test","","","","","",""
"631.5999999996275","377585","pSARL_v2","pSARL_v2h8zh8j0x","601373dbd735b324b32818bd","freq","img/green_2bandit_a2.png","70","70","test","1","156","156","8","",""
"null","377778","pSARL_v2","pSARL_v2h8zh8j0x","601373dbd735b324b32818bd","freq_resp","img/green_2bandit_a.png","70","70","test","","","","8","",""
"null","377953","pSARL_v2","pSARL_v2h8zh8j0x","601373dbd735b324b32818bd","fixation","img/fixation.png","null","","test","","","","","",""
"578.4000000003725","378553","pSARL_v2","pSARL_v2h8zh8j0x","601373dbd735b324b32818bd","freq","img/green_2bandit_a2.png","70","70","test","1","157","157","8","",""
"null","378798","pSARL_v2","pSARL_v2h8zh8j0x","601373dbd735b324b32818bd","freq_resp","img/green_2bandit_a.png","70","70","test","","","","8","",""
"null","378972","pSARL_v2","pSARL_v2h8zh8j0x","601373dbd735b324b32818bd","fixation","img/fixation.png","null","","test","","","","","",""
"532.7000000011176","379529","pSARL_v2","pSARL_v2h8zh8j0x","601373dbd735b324b32818bd","infreq","img/orange_2bandit_a2.png","68","68","test","1","158","158","8","",""
"null","379823","pSARL_v2","pSARL_v2h8zh8j0x","601373dbd735b324b32818bd","infreq_resp","img/orange_2bandit_a.png","68","68","test","","","","8","",""
"null","379996","pSARL_v2","pSARL_v2h8zh8j0x","601373dbd735b324b32818bd","fixation","img/fixation.png","null","","test","","","","","",""
"523.6999999992549","380543","pSARL_v2","pSARL_v2h8zh8j0x","601373dbd735b324b32818bd","freq","img/green_2bandit_a2.png","70","70","test","1","159","159","8","",""
"null","380843","pSARL_v2","pSARL_v2h8zh8j0x","601373dbd735b324b32818bd","freq_resp","img/green_2bandit_a.png","70","70","test","","","","8","",""
"null","381018","pSARL_v2","pSARL_v2h8zh8j0x","601373dbd735b324b32818bd","fixation","img/fixation.png","null","","test","","","","","",""
"416.90000000037253","381459","pSARL_v2","pSARL_v2h8zh8j0x","601373dbd735b324b32818bd","freq","img/green_2bandit_a2.png","70","70","test","1","160","160","8","",""
"null","381867","pSARL_v2","pSARL_v2h8zh8j0x","601373dbd735b324b32818bd","freq_resp","img/green_2bandit_a.png","70","70","test","","","","8","",""
"null","382041","pSARL_v2","pSARL_v2h8zh8j0x","601373dbd735b324b32818bd","fixation","img/fixation.png","null","","test","","","","","",""
"339.7000000011176","382404","pSARL_v2","pSARL_v2h8zh8j0x","601373dbd735b324b32818bd","freq","img/green_2bandit_a2.png","70","70","test","1","161","161","8","",""
"null","382889","pSARL_v2","pSARL_v2h8zh8j0x","601373dbd735b324b32818bd","freq_resp","img/green_2bandit_a.png","70","70","test","","","","8","",""
"null","383063","pSARL_v2","pSARL_v2h8zh8j0x","601373dbd735b324b32818bd","fixation","img/fixation.png","null","","test","","","","","",""
"366.80000000074506","383454","pSARL_v2","pSARL_v2h8zh8j0x","601373dbd735b324b32818bd","freq","img/green_2bandit_a2.png","70","70","test","1","162","162","8","",""
"null","383910","pSARL_v2","pSARL_v2h8zh8j0x","601373dbd735b324b32818bd","freq_resp","img/green_2bandit_a.png","70","70","test","","","","8","",""
"null","384086","pSARL_v2","pSARL_v2h8zh8j0x","601373dbd735b324b32818bd","fixation","img/fixation.png","null","","test","","","","","",""
"384.59999999962747","384493","pSARL_v2","pSARL_v2h8zh8j0x","601373dbd735b324b32818bd","freq","img/green_2bandit_a2.png","70","70","test","1","163","163","8","",""
"null","384934","pSARL_v2","pSARL_v2h8zh8j0x","601373dbd735b324b32818bd","freq_resp","img/green_2bandit_a.png","70","70","test","","","","8","",""
"null","385109","pSARL_v2","pSARL_v2h8zh8j0x","601373dbd735b324b32818bd","fixation","img/fixation.png","null","","test","","","","","",""
"445.8999999985099","385576","pSARL_v2","pSARL_v2h8zh8j0x","601373dbd735b324b32818bd","freq","img/green_2bandit_a2.png","70","70","test","1","164","164","8","",""
"null","385953","pSARL_v2","pSARL_v2h8zh8j0x","601373dbd735b324b32818bd","freq_resp","img/green_2bandit_a.png","70","70","test","","","","8","",""
"null","386128","pSARL_v2","pSARL_v2h8zh8j0x","601373dbd735b324b32818bd","fixation","img/fixation.png","null","","test","","","","","",""
"369.90000000037253","386519","pSARL_v2","pSARL_v2h8zh8j0x","601373dbd735b324b32818bd","freq","img/green_2bandit_a2.png","70","70","test","1","165","165","8","",""
"null","386979","pSARL_v2","pSARL_v2h8zh8j0x","601373dbd735b324b32818bd","freq_resp","img/green_2bandit_a.png","70","70","test","","","","8","",""
"null","387154","pSARL_v2","pSARL_v2h8zh8j0x","601373dbd735b324b32818bd","fixation","img/fixation.png","null","","test","","","","","",""
"349.90000000037253","387527","pSARL_v2","pSARL_v2h8zh8j0x","601373dbd735b324b32818bd","freq","img/green_2bandit_a2.png","70","70","test","1","166","166","8","",""
"null","388002","pSARL_v2","pSARL_v2h8zh8j0x","601373dbd735b324b32818bd","freq_resp","img/green_2bandit_a.png","70","70","test","","","","8","",""
"null","388183","pSARL_v2","pSARL_v2h8zh8j0x","601373dbd735b324b32818bd","fixation","img/fixation.png","null","","test","","","","","",""
"588.9000000003725","388796","pSARL_v2","pSARL_v2h8zh8j0x","601373dbd735b324b32818bd","freq","img/green_2bandit_a2.png","68","70","test","0","167","167","8","",""
"null","389033","pSARL_v2","pSARL_v2h8zh8j0x","601373dbd735b324b32818bd","freq_resp","img/green_2bandit_a.png","68","70","test","","","","8","",""
"null","389207","pSARL_v2","pSARL_v2h8zh8j0x","601373dbd735b324b32818bd","fixation","img/fixation.png","null","","test","","","","","",""
"419.40000000037253","389649","pSARL_v2","pSARL_v2h8zh8j0x","601373dbd735b324b32818bd","freq","img/green_2bandit_a2.png","70","70","test","1","168","168","8","",""
"null","390053","pSARL_v2","pSARL_v2h8zh8j0x","601373dbd735b324b32818bd","freq_resp","img/green_2bandit_a.png","70","70","test","","","","8","",""
"null","390227","pSARL_v2","pSARL_v2h8zh8j0x","601373dbd735b324b32818bd","fixation","img/fixation.png","null","","test","","","","","",""
"null","391051","pSARL_v2","pSARL_v2h8zh8j0x","601373dbd735b324b32818bd","freq","img/green_2bandit_a2.png","null","70","test","0","169","169","8","",""
"null","391228","pSARL_v2","pSARL_v2h8zh8j0x","601373dbd735b324b32818bd","fixation","img/fixation.png","null","","test","","","","","",""
"null","392052","pSARL_v2","pSARL_v2h8zh8j0x","601373dbd735b324b32818bd","infreq","img/orange_2bandit_a2.png","null","68","test","0","170","170","8","",""
"null","392226","pSARL_v2","pSARL_v2h8zh8j0x","601373dbd735b324b32818bd","fixation","img/fixation.png","null","","test","","","","","",""
"393.7000000011176","392643","pSARL_v2","pSARL_v2h8zh8j0x","601373dbd735b324b32818bd","freq","img/green_2bandit_a2.png","70","70","test","1","171","171","8","",""
"null","393075","pSARL_v2","pSARL_v2h8zh8j0x","601373dbd735b324b32818bd","freq_resp","img/green_2bandit_a.png","70","70","test","","","","8","",""
"null","393249","pSARL_v2","pSARL_v2h8zh8j0x","601373dbd735b324b32818bd","fixation","img/fixation.png","null","","test","","","","","",""
"403.3999999985099","393676","pSARL_v2","pSARL_v2h8zh8j0x","601373dbd735b324b32818bd","freq","img/green_2bandit_a2.png","70","70","test","1","172","172","8","",""
"null","394097","pSARL_v2","pSARL_v2h8zh8j0x","601373dbd735b324b32818bd","freq_resp","img/green_2bandit_a.png","70","70","test","","","","8","",""
"null","394272","pSARL_v2","pSARL_v2h8zh8j0x","601373dbd735b324b32818bd","fixation","img/fixation.png","null","","test","","","","","",""
"358.59999999962747","394653","pSARL_v2","pSARL_v2h8zh8j0x","601373dbd735b324b32818bd","freq","img/green_2bandit_a2.png","70","70","test","1","173","173","8","",""
"null","395120","pSARL_v2","pSARL_v2h8zh8j0x","601373dbd735b324b32818bd","freq_resp","img/green_2bandit_a.png","70","70","test","","","","8","",""
"null","395295","pSARL_v2","pSARL_v2h8zh8j0x","601373dbd735b324b32818bd","fixation","img/fixation.png","null","","test","","","","","",""
"492.80000000074506","395810","pSARL_v2","pSARL_v2h8zh8j0x","601373dbd735b324b32818bd","reward","img/slot.png","74","","test","","","","","",""
"null","396582","pSARL_v2","pSARL_v2h8zh8j0x","601373dbd735b324b32818bd","points","<div class=""verylowPoints""> -4 </div>","null","na","test","","","","8","-4","7"
"503.19999999925494","397109","pSARL_v2","pSARL_v2h8zh8j0x","601373dbd735b324b32818bd","freq","img/green_2bandit_a2.png","70","70","test","1","174","174","9","",""
"null","397429","pSARL_v2","pSARL_v2h8zh8j0x","601373dbd735b324b32818bd","freq_resp","img/green_2bandit_a.png","70","70","test","","","","9","",""
"null","397606","pSARL_v2","pSARL_v2h8zh8j0x","601373dbd735b324b32818bd","fixation","img/fixation.png","null","","test","","","","","",""
"null","398432","pSARL_v2","pSARL_v2h8zh8j0x","601373dbd735b324b32818bd","freq","img/green_2bandit_a2.png","null","70","test","0","175","175","9","",""
"null","398607","pSARL_v2","pSARL_v2h8zh8j0x","601373dbd735b324b32818bd","fixation","img/fixation.png","null","","test","","","","","",""
"null","399432","pSARL_v2","pSARL_v2h8zh8j0x","601373dbd735b324b32818bd","infreq","img/orange_2bandit_a2.png","null","68","test","0","176","176","9","",""
"null","399607","pSARL_v2","pSARL_v2h8zh8j0x","601373dbd735b324b32818bd","fixation","img/fixation.png","null","","test","","","","","",""
"390","400020","pSARL_v2","pSARL_v2h8zh8j0x","601373dbd735b324b32818bd","freq","img/green_2bandit_a2.png","68","70","test","0","177","177","9","",""
"null","400455","pSARL_v2","pSARL_v2h8zh8j0x","601373dbd735b324b32818bd","freq_resp","img/green_2bandit_a.png","68","70","test","","","","9","",""
"null","400628","pSARL_v2","pSARL_v2h8zh8j0x","601373dbd735b324b32818bd","fixation","img/fixation.png","null","","test","","","","","",""
"398.40000000037253","401048","pSARL_v2","pSARL_v2h8zh8j0x","601373dbd735b324b32818bd","freq","img/green_2bandit_a2.png","70","70","test","1","178","178","9","",""
"null","401470","pSARL_v2","pSARL_v2h8zh8j0x","601373dbd735b324b32818bd","freq_resp","img/green_2bandit_a.png","70","70","test","","","","9","",""
"null","401643","pSARL_v2","pSARL_v2h8zh8j0x","601373dbd735b324b32818bd","fixation","img/fixation.png","null","","test","","","","","",""
"443.2999999988824","402109","pSARL_v2","pSARL_v2h8zh8j0x","601373dbd735b324b32818bd","freq","img/green_2bandit_a2.png","70","70","test","1","179","179","9","",""
"null","402490","pSARL_v2","pSARL_v2h8zh8j0x","601373dbd735b324b32818bd","freq_resp","img/green_2bandit_a.png","70","70","test","","","","9","",""
"null","402667","pSARL_v2","pSARL_v2h8zh8j0x","601373dbd735b324b32818bd","fixation","img/fixation.png","null","","test","","","","","",""
"558.0999999996275","403250","pSARL_v2","pSARL_v2h8zh8j0x","601373dbd735b324b32818bd","infreq","img/orange_2bandit_a2.png","68","68","test","1","180","180","9","",""
"null","403516","pSARL_v2","pSARL_v2h8zh8j0x","601373dbd735b324b32818bd","infreq_resp","img/orange_2bandit_a.png","68","68","test","","","","9","",""
"null","403692","pSARL_v2","pSARL_v2h8zh8j0x","601373dbd735b324b32818bd","fixation","img/fixation.png","null","","test","","","","","",""
"450.2999999988824","404164","pSARL_v2","pSARL_v2h8zh8j0x","601373dbd735b324b32818bd","freq","img/green_2bandit_a2.png","70","70","test","1","181","181","9","",""
"null","404538","pSARL_v2","pSARL_v2h8zh8j0x","601373dbd735b324b32818bd","freq_resp","img/green_2bandit_a.png","70","70","test","","","","9","",""
"null","404713","pSARL_v2","pSARL_v2h8zh8j0x","601373dbd735b324b32818bd","fixation","img/fixation.png","null","","test","","","","","",""
"636.2999999988824","405371","pSARL_v2","pSARL_v2h8zh8j0x","601373dbd735b324b32818bd","freq","img/green_2bandit_a2.png","70","70","test","1","182","182","9","",""
"null","405558","pSARL_v2","pSARL_v2h8zh8j0x","601373dbd735b324b32818bd","freq_resp","img/green_2bandit_a.png","70","70","test","","","","9","",""
"null","405733","pSARL_v2","pSARL_v2h8zh8j0x","601373dbd735b324b32818bd","fixation","img/fixation.png","null","","test","","","","","",""
"456.5","406216","pSARL_v2","pSARL_v2h8zh8j0x","601373dbd735b324b32818bd","infreq","img/orange_2bandit_a2.png","68","68","test","1","183","183","9","",""
"null","406586","pSARL_v2","pSARL_v2h8zh8j0x","601373dbd735b324b32818bd","infreq_resp","img/orange_2bandit_a.png","68","68","test","","","","9","",""
"null","406762","pSARL_v2","pSARL_v2h8zh8j0x","601373dbd735b324b32818bd","fixation","img/fixation.png","null","","test","","","","","",""
"329.5","407116","pSARL_v2","pSARL_v2h8zh8j0x","601373dbd735b324b32818bd","freq","img/green_2bandit_a2.png","70","70","test","1","184","184","9","",""
"null","407612","pSARL_v2","pSARL_v2h8zh8j0x","601373dbd735b324b32818bd","freq_resp","img/green_2bandit_a.png","70","70","test","","","","9","",""
"null","407787","pSARL_v2","pSARL_v2h8zh8j0x","601373dbd735b324b32818bd","fixation","img/fixation.png","null","","test","","","","","",""
"387.59999999962747","408199","pSARL_v2","pSARL_v2h8zh8j0x","601373dbd735b324b32818bd","freq","img/green_2bandit_a2.png","70","70","test","1","185","185","9","",""
"null","408638","pSARL_v2","pSARL_v2h8zh8j0x","601373dbd735b324b32818bd","freq_resp","img/green_2bandit_a.png","70","70","test","","","","9","",""
"null","408814","pSARL_v2","pSARL_v2h8zh8j0x","601373dbd735b324b32818bd","fixation","img/fixation.png","null","","test","","","","","",""
"525","409362","pSARL_v2","pSARL_v2h8zh8j0x","601373dbd735b324b32818bd","freq","img/green_2bandit_a2.png","70","70","test","1","186","186","9","",""
"null","409662","pSARL_v2","pSARL_v2h8zh8j0x","601373dbd735b324b32818bd","freq_resp","img/green_2bandit_a.png","70","70","test","","","","9","",""
"null","409836","pSARL_v2","pSARL_v2h8zh8j0x","601373dbd735b324b32818bd","fixation","img/fixation.png","null","","test","","","","","",""
"428.7000000011176","410288","pSARL_v2","pSARL_v2h8zh8j0x","601373dbd735b324b32818bd","freq","img/green_2bandit_a2.png","70","70","test","1","187","187","9","",""
"null","410683","pSARL_v2","pSARL_v2h8zh8j0x","601373dbd735b324b32818bd","freq_resp","img/green_2bandit_a.png","70","70","test","","","","9","",""
"null","410858","pSARL_v2","pSARL_v2h8zh8j0x","601373dbd735b324b32818bd","fixation","img/fixation.png","null","","test","","","","","",""
"440.80000000074506","411324","pSARL_v2","pSARL_v2h8zh8j0x","601373dbd735b324b32818bd","freq","img/green_2bandit_a2.png","70","70","test","1","188","188","9","",""
"null","411710","pSARL_v2","pSARL_v2h8zh8j0x","601373dbd735b324b32818bd","freq_resp","img/green_2bandit_a.png","70","70","test","","","","9","",""
"null","411885","pSARL_v2","pSARL_v2h8zh8j0x","601373dbd735b324b32818bd","fixation","img/fixation.png","null","","test","","","","","",""
"447.19999999925494","412354","pSARL_v2","pSARL_v2h8zh8j0x","601373dbd735b324b32818bd","freq","img/green_2bandit_a2.png","70","70","test","1","189","189","9","",""
"null","412733","pSARL_v2","pSARL_v2h8zh8j0x","601373dbd735b324b32818bd","freq_resp","img/green_2bandit_a.png","70","70","test","","","","9","",""
"null","412907","pSARL_v2","pSARL_v2h8zh8j0x","601373dbd735b324b32818bd","fixation","img/fixation.png","null","","test","","","","","",""
"494.2999999988824","413424","pSARL_v2","pSARL_v2h8zh8j0x","601373dbd735b324b32818bd","freq","img/green_2bandit_a2.png","70","70","test","1","190","190","9","",""
"null","413752","pSARL_v2","pSARL_v2h8zh8j0x","601373dbd735b324b32818bd","freq_resp","img/green_2bandit_a.png","70","70","test","","","","9","",""
"null","413924","pSARL_v2","pSARL_v2h8zh8j0x","601373dbd735b324b32818bd","fixation","img/fixation.png","null","","test","","","","","",""
"428.80000000074506","414376","pSARL_v2","pSARL_v2h8zh8j0x","601373dbd735b324b32818bd","freq","img/green_2bandit_a2.png","70","70","test","1","191","191","9","",""
"null","414772","pSARL_v2","pSARL_v2h8zh8j0x","601373dbd735b324b32818bd","freq_resp","img/green_2bandit_a.png","70","70","test","","","","9","",""
"null","414945","pSARL_v2","pSARL_v2h8zh8j0x","601373dbd735b324b32818bd","fixation","img/fixation.png","null","","test","","","","","",""
"431","415400","pSARL_v2","pSARL_v2h8zh8j0x","601373dbd735b324b32818bd","freq","img/green_2bandit_a2.png","70","70","test","1","192","192","9","",""
"null","415794","pSARL_v2","pSARL_v2h8zh8j0x","601373dbd735b324b32818bd","freq_resp","img/green_2bandit_a.png","70","70","test","","","","9","",""
"null","415970","pSARL_v2","pSARL_v2h8zh8j0x","601373dbd735b324b32818bd","fixation","img/fixation.png","null","","test","","","","","",""
"568.4000000003725","416561","pSARL_v2","pSARL_v2h8zh8j0x","601373dbd735b324b32818bd","freq","img/green_2bandit_a2.png","70","70","test","1","193","193","9","",""
"null","416819","pSARL_v2","pSARL_v2h8zh8j0x","601373dbd735b324b32818bd","freq_resp","img/green_2bandit_a.png","70","70","test","","","","9","",""
"null","416994","pSARL_v2","pSARL_v2h8zh8j0x","601373dbd735b324b32818bd","fixation","img/fixation.png","null","","test","","","","","",""
"594.7999999988824","417614","pSARL_v2","pSARL_v2h8zh8j0x","601373dbd735b324b32818bd","freq","img/green_2bandit_a2.png","70","70","test","1","194","194","9","",""
"null","417843","pSARL_v2","pSARL_v2h8zh8j0x","601373dbd735b324b32818bd","freq_resp","img/green_2bandit_a.png","70","70","test","","","","9","",""
"null","418019","pSARL_v2","pSARL_v2h8zh8j0x","601373dbd735b324b32818bd","fixation","img/fixation.png","null","","test","","","","","",""
"638.5","418680","pSARL_v2","pSARL_v2h8zh8j0x","601373dbd735b324b32818bd","freq","img/green_2bandit_a2.png","70","70","test","1","195","195","9","",""
"null","418867","pSARL_v2","pSARL_v2h8zh8j0x","601373dbd735b324b32818bd","freq_resp","img/green_2bandit_a.png","70","70","test","","","","9","",""
"null","419042","pSARL_v2","pSARL_v2h8zh8j0x","601373dbd735b324b32818bd","fixation","img/fixation.png","null","","test","","","","","",""
"636.4000000003725","419702","pSARL_v2","pSARL_v2h8zh8j0x","601373dbd735b324b32818bd","freq","img/green_2bandit_a2.png","70","70","test","1","196","196","9","",""
"null","419889","pSARL_v2","pSARL_v2h8zh8j0x","601373dbd735b324b32818bd","freq_resp","img/green_2bandit_a.png","70","70","test","","","","9","",""
"null","420065","pSARL_v2","pSARL_v2h8zh8j0x","601373dbd735b324b32818bd","fixation","img/fixation.png","null","","test","","","","","",""
"846.0999999996275","420934","pSARL_v2","pSARL_v2h8zh8j0x","601373dbd735b324b32818bd","reward","img/slot.png","74","","test","","","","","",""
"null","421714","pSARL_v2","pSARL_v2h8zh8j0x","601373dbd735b324b32818bd","points","<div class=""verylowPoints""> -3 </div>","null","na","test","","","","9","-3","8"
"400.40000000037253","422147","pSARL_v2","pSARL_v2h8zh8j0x","601373dbd735b324b32818bd","freq","img/green_2bandit_a2.png","70","70","test","1","197","197","10","",""
"null","422569","pSARL_v2","pSARL_v2h8zh8j0x","601373dbd735b324b32818bd","freq_resp","img/green_2bandit_a.png","70","70","test","","","","10","",""
"null","422744","pSARL_v2","pSARL_v2h8zh8j0x","601373dbd735b324b32818bd","fixation","img/fixation.png","null","","test","","","","","",""
"393.90000000037253","423162","pSARL_v2","pSARL_v2h8zh8j0x","601373dbd735b324b32818bd","freq","img/green_2bandit_a2.png","70","70","test","1","198","198","10","",""
"null","423594","pSARL_v2","pSARL_v2h8zh8j0x","601373dbd735b324b32818bd","freq_resp","img/green_2bandit_a.png","70","70","test","","","","10","",""
"null","423774","pSARL_v2","pSARL_v2h8zh8j0x","601373dbd735b324b32818bd","fixation","img/fixation.png","null","","test","","","","","",""
"313.30000000074506","424111","pSARL_v2","pSARL_v2h8zh8j0x","601373dbd735b324b32818bd","freq","img/green_2bandit_a2.png","70","70","test","1","199","199","10","",""
"null","424628","pSARL_v2","pSARL_v2h8zh8j0x","601373dbd735b324b32818bd","freq_resp","img/green_2bandit_a.png","70","70","test","","","","10","",""
"null","424798","pSARL_v2","pSARL_v2h8zh8j0x","601373dbd735b324b32818bd","fixation","img/fixation.png","null","","test","","","","","",""
"306.8999999985099","425131","pSARL_v2","pSARL_v2h8zh8j0x","601373dbd735b324b32818bd","freq","img/green_2bandit_a2.png","70","70","test","1","200","200","10","",""
"null","425649","pSARL_v2","pSARL_v2h8zh8j0x","601373dbd735b324b32818bd","freq_resp","img/green_2bandit_a.png","70","70","test","","","","10","",""
"null","425827","pSARL_v2","pSARL_v2h8zh8j0x","601373dbd735b324b32818bd","fixation","img/fixation.png","null","","test","","","","","",""
"292.40000000037253","426144","pSARL_v2","pSARL_v2h8zh8j0x","601373dbd735b324b32818bd","freq","img/green_2bandit_a2.png","70","70","test","1","201","201","10","",""
"null","426679","pSARL_v2","pSARL_v2h8zh8j0x","601373dbd735b324b32818bd","freq_resp","img/green_2bandit_a.png","70","70","test","","","","10","",""
"null","426852","pSARL_v2","pSARL_v2h8zh8j0x","601373dbd735b324b32818bd","fixation","img/fixation.png","null","","test","","","","","",""
"366.5","427244","pSARL_v2","pSARL_v2h8zh8j0x","601373dbd735b324b32818bd","freq","img/green_2bandit_a2.png","70","70","test","1","202","202","10","",""
"null","427703","pSARL_v2","pSARL_v2h8zh8j0x","601373dbd735b324b32818bd","freq_resp","img/green_2bandit_a.png","70","70","test","","","","10","",""
"null","427878","pSARL_v2","pSARL_v2h8zh8j0x","601373dbd735b324b32818bd","fixation","img/fixation.png","null","","test","","","","","",""
"394.59999999962747","428298","pSARL_v2","pSARL_v2h8zh8j0x","601373dbd735b324b32818bd","freq","img/green_2bandit_a2.png","70","70","test","1","203","203","10","",""
"null","428730","pSARL_v2","pSARL_v2h8zh8j0x","601373dbd735b324b32818bd","freq_resp","img/green_2bandit_a.png","70","70","test","","","","10","",""
"null","428903","pSARL_v2","pSARL_v2h8zh8j0x","601373dbd735b324b32818bd","fixation","img/fixation.png","null","","test","","","","","",""
"372.09999999962747","429297","pSARL_v2","pSARL_v2h8zh8j0x","601373dbd735b324b32818bd","freq","img/green_2bandit_a2.png","70","70","test","1","204","204","10","",""
"null","429748","pSARL_v2","pSARL_v2h8zh8j0x","601373dbd735b324b32818bd","freq_resp","img/green_2bandit_a.png","70","70","test","","","","10","",""
"null","429918","pSARL_v2","pSARL_v2h8zh8j0x","601373dbd735b324b32818bd","fixation","img/fixation.png","null","","test","","","","","",""
"433.19999999925494","430375","pSARL_v2","pSARL_v2h8zh8j0x","601373dbd735b324b32818bd","freq","img/green_2bandit_a2.png","70","70","test","1","205","205","10","",""
"null","430766","pSARL_v2","pSARL_v2h8zh8j0x","601373dbd735b324b32818bd","freq_resp","img/green_2bandit_a.png","70","70","test","","","","10","",""
"null","430939","pSARL_v2","pSARL_v2h8zh8j0x","601373dbd735b324b32818bd","fixation","img/fixation.png","null","","test","","","","","",""
"477.80000000074506","431441","pSARL_v2","pSARL_v2h8zh8j0x","601373dbd735b324b32818bd","freq","img/green_2bandit_a2.png","70","70","test","1","206","206","10","",""
"null","431787","pSARL_v2","pSARL_v2h8zh8j0x","601373dbd735b324b32818bd","freq_resp","img/green_2bandit_a.png","70","70","test","","","","10","",""
"null","431961","pSARL_v2","pSARL_v2h8zh8j0x","601373dbd735b324b32818bd","fixation","img/fixation.png","null","","test","","","","","",""
"435.40000000037253","432420","pSARL_v2","pSARL_v2h8zh8j0x","601373dbd735b324b32818bd","freq","img/green_2bandit_a2.png","70","70","test","1","207","207","10","",""
"null","432808","pSARL_v2","pSARL_v2h8zh8j0x","601373dbd735b324b32818bd","freq_resp","img/green_2bandit_a.png","70","70","test","","","","10","",""
