"rt","time_elapsed","expId","subject","prolificID","trialType","stimulus","key_press","corrresp","phase","corr","trialNum","attentionRunNum","blockNum","points","rlNum"
"61630.29999999702","61635","pSARL_v2","pSARL_v2tgczxhkj","5fd7782dee03dc08d3f3f491","","","","","","","","","","",""
"","65279","pSARL_v2","pSARL_v2tgczxhkj","5fd7782dee03dc08d3f3f491","fullscreen","","","","","","","","","",""
"109807.70000000298","175090","pSARL_v2","pSARL_v2tgczxhkj","5fd7782dee03dc08d3f3f491","","","","","","","","","","",""
"null","175909","pSARL_v2","pSARL_v2tgczxhkj","5fd7782dee03dc08d3f3f491","freqPrac","img/orange_2bandit_a2.png","null","70","prac","0","","","","",""
"null","176922","pSARL_v2","pSARL_v2tgczxhkj","5fd7782dee03dc08d3f3f491","feedback","img/tooSlow.png","null","na","prac","","","","","",""
"null","177077","pSARL_v2","pSARL_v2tgczxhkj","5fd7782dee03dc08d3f3f491","fixation","img/fixation.png","null","","prac","","","","","",""
"320.70000000298023","177400","pSARL_v2","pSARL_v2tgczxhkj","5fd7782dee03dc08d3f3f491","infreqPrac","img/green_2bandit_a2.png","70","68","prac","0","","","","",""
"320.70000000298023","177886","pSARL_v2","pSARL_v2tgczxhkj","5fd7782dee03dc08d3f3f491","infreqPrac_resp","img/green_2bandit_a.png","70","68","prac","","","","","",""
"null","178898","pSARL_v2","pSARL_v2tgczxhkj","5fd7782dee03dc08d3f3f491","feedback","img/wrongKey.png","null","na","prac","","","","","",""
"null","179054","pSARL_v2","pSARL_v2tgczxhkj","5fd7782dee03dc08d3f3f491","fixation","img/fixation.png","null","","prac","","","","","",""
"453.59999999403954","179510","pSARL_v2","pSARL_v2tgczxhkj","5fd7782dee03dc08d3f3f491","freqPrac","img/orange_2bandit_a2.png","70","70","prac","1","","","","",""
"453.59999999403954","179866","pSARL_v2","pSARL_v2tgczxhkj","5fd7782dee03dc08d3f3f491","freqPrac_resp","img/orange_2bandit_a.png","70","70","prac","","","","","",""
"null","180022","pSARL_v2","pSARL_v2tgczxhkj","5fd7782dee03dc08d3f3f491","fixation","img/fixation.png","null","","prac","","","","","",""
"529.2999999970198","180553","pSARL_v2","pSARL_v2tgczxhkj","5fd7782dee03dc08d3f3f491","infreqPrac","img/green_2bandit_a2.png","68","68","prac","1","","","","",""
"529.2999999970198","180834","pSARL_v2","pSARL_v2tgczxhkj","5fd7782dee03dc08d3f3f491","infreqPrac_resp","img/green_2bandit_a.png","68","68","prac","","","","","",""
"null","180989","pSARL_v2","pSARL_v2tgczxhkj","5fd7782dee03dc08d3f3f491","fixation","img/fixation.png","null","","prac","","","","","",""
"339.29999999701977","181330","pSARL_v2","pSARL_v2tgczxhkj","5fd7782dee03dc08d3f3f491","infreqPrac","img/green_2bandit_a2.png","68","68","prac","1","","","","",""
"339.29999999701977","181795","pSARL_v2","pSARL_v2tgczxhkj","5fd7782dee03dc08d3f3f491","infreqPrac_resp","img/green_2bandit_a.png","68","68","prac","","","","","",""
"null","181950","pSARL_v2","pSARL_v2tgczxhkj","5fd7782dee03dc08d3f3f491","fixation","img/fixation.png","null","","prac","","","","","",""
"325.6000000089407","182278","pSARL_v2","pSARL_v2tgczxhkj","5fd7782dee03dc08d3f3f491","infreqPrac","img/green_2bandit_a2.png","68","68","prac","1","","","","",""
"325.6000000089407","182767","pSARL_v2","pSARL_v2tgczxhkj","5fd7782dee03dc08d3f3f491","infreqPrac_resp","img/green_2bandit_a.png","68","68","prac","","","","","",""
"null","182922","pSARL_v2","pSARL_v2tgczxhkj","5fd7782dee03dc08d3f3f491","fixation","img/fixation.png","null","","prac","","","","","",""
"351.79999999701977","183276","pSARL_v2","pSARL_v2tgczxhkj","5fd7782dee03dc08d3f3f491","freqPrac","img/orange_2bandit_a2.png","70","70","prac","1","","","","",""
"351.79999999701977","183731","pSARL_v2","pSARL_v2tgczxhkj","5fd7782dee03dc08d3f3f491","freqPrac_resp","img/orange_2bandit_a.png","70","70","prac","","","","","",""
"null","183887","pSARL_v2","pSARL_v2tgczxhkj","5fd7782dee03dc08d3f3f491","fixation","img/fixation.png","null","","prac","","","","","",""
"346.40000000596046","184235","pSARL_v2","pSARL_v2tgczxhkj","5fd7782dee03dc08d3f3f491","infreqPrac","img/green_2bandit_a2.png","68","68","prac","1","","","","",""
"346.40000000596046","184698","pSARL_v2","pSARL_v2tgczxhkj","5fd7782dee03dc08d3f3f491","infreqPrac_resp","img/green_2bandit_a.png","68","68","prac","","","","","",""
"null","184853","pSARL_v2","pSARL_v2tgczxhkj","5fd7782dee03dc08d3f3f491","fixation","img/fixation.png","null","","prac","","","","","",""
"368.70000000298023","185224","pSARL_v2","pSARL_v2tgczxhkj","5fd7782dee03dc08d3f3f491","freqPrac","img/orange_2bandit_a2.png","70","70","prac","1","","","","",""
"368.70000000298023","185660","pSARL_v2","pSARL_v2tgczxhkj","5fd7782dee03dc08d3f3f491","freqPrac_resp","img/orange_2bandit_a.png","70","70","prac","","","","","",""
"null","185816","pSARL_v2","pSARL_v2tgczxhkj","5fd7782dee03dc08d3f3f491","fixation","img/fixation.png","null","","prac","","","","","",""
"286.59999999403954","186105","pSARL_v2","pSARL_v2tgczxhkj","5fd7782dee03dc08d3f3f491","freqPrac","img/orange_2bandit_a2.png","70","70","prac","1","","","","",""
"286.59999999403954","186623","pSARL_v2","pSARL_v2tgczxhkj","5fd7782dee03dc08d3f3f491","freqPrac_resp","img/orange_2bandit_a.png","70","70","prac","","","","","",""
"null","186779","pSARL_v2","pSARL_v2tgczxhkj","5fd7782dee03dc08d3f3f491","fixation","img/fixation.png","null","","prac","","","","","",""
"28171.70000000298","214953","pSARL_v2","pSARL_v2tgczxhkj","5fd7782dee03dc08d3f3f491","","","","","prac","","","","","",""
"530.5999999940395","215486","pSARL_v2","pSARL_v2tgczxhkj","5fd7782dee03dc08d3f3f491","rewardPractice","img/slot.png","74","","prac","","","","","",""
"null","216240","pSARL_v2","pSARL_v2tgczxhkj","5fd7782dee03dc08d3f3f491","feedback","<div class=""veryhighPoints""> +15 </div>","null","na","prac","","","","","",""
"null","216394","pSARL_v2","pSARL_v2tgczxhkj","5fd7782dee03dc08d3f3f491","fixation","img/fixation.png","null","","prac","","","","","",""
"12703.10000000894","229099","pSARL_v2","pSARL_v2tgczxhkj","5fd7782dee03dc08d3f3f491","","","","","prac","","","","","",""
"485.5","229587","pSARL_v2","pSARL_v2tgczxhkj","5fd7782dee03dc08d3f3f491","freq","img/orange_2bandit_a2.png","70","70","test","1","1","1","1","",""
"null","229915","pSARL_v2","pSARL_v2tgczxhkj","5fd7782dee03dc08d3f3f491","freq_resp","img/orange_2bandit_a.png","70","70","test","","","","1","",""
"null","230068","pSARL_v2","pSARL_v2tgczxhkj","5fd7782dee03dc08d3f3f491","fixation","img/fixation.png","null","","test","","","","","",""
"298","230369","pSARL_v2","pSARL_v2tgczxhkj","5fd7782dee03dc08d3f3f491","freq","img/orange_2bandit_a2.png","70","70","test","1","2","2","1","",""
"null","230874","pSARL_v2","pSARL_v2tgczxhkj","5fd7782dee03dc08d3f3f491","freq_resp","img/orange_2bandit_a.png","70","70","test","","","","1","",""
"null","231031","pSARL_v2","pSARL_v2tgczxhkj","5fd7782dee03dc08d3f3f491","fixation","img/fixation.png","null","","test","","","","","",""
"288.5","231322","pSARL_v2","pSARL_v2tgczxhkj","5fd7782dee03dc08d3f3f491","freq","img/orange_2bandit_a2.png","70","70","test","1","3","3","1","",""
"null","231837","pSARL_v2","pSARL_v2tgczxhkj","5fd7782dee03dc08d3f3f491","freq_resp","img/orange_2bandit_a.png","70","70","test","","","","1","",""
"null","231993","pSARL_v2","pSARL_v2tgczxhkj","5fd7782dee03dc08d3f3f491","fixation","img/fixation.png","null","","test","","","","","",""
"242.40000000596046","232238","pSARL_v2","pSARL_v2tgczxhkj","5fd7782dee03dc08d3f3f491","freq","img/orange_2bandit_a2.png","70","70","test","1","4","4","1","",""
"null","232813","pSARL_v2","pSARL_v2tgczxhkj","5fd7782dee03dc08d3f3f491","freq_resp","img/orange_2bandit_a.png","70","70","test","","","","1","",""
"null","232967","pSARL_v2","pSARL_v2tgczxhkj","5fd7782dee03dc08d3f3f491","fixation","img/fixation.png","null","","test","","","","","",""
"237.90000000596046","233208","pSARL_v2","pSARL_v2tgczxhkj","5fd7782dee03dc08d3f3f491","freq","img/orange_2bandit_a2.png","70","70","test","1","5","5","1","",""
"null","233775","pSARL_v2","pSARL_v2tgczxhkj","5fd7782dee03dc08d3f3f491","freq_resp","img/orange_2bandit_a.png","70","70","test","","","","1","",""
"null","233930","pSARL_v2","pSARL_v2tgczxhkj","5fd7782dee03dc08d3f3f491","fixation","img/fixation.png","null","","test","","","","","",""
"387.70000000298023","234320","pSARL_v2","pSARL_v2tgczxhkj","5fd7782dee03dc08d3f3f491","infreq","img/green_2bandit_a2.png","68","68","test","1","6","6","1","",""
"null","234747","pSARL_v2","pSARL_v2tgczxhkj","5fd7782dee03dc08d3f3f491","infreq_resp","img/green_2bandit_a.png","68","68","test","","","","1","",""
"null","234903","pSARL_v2","pSARL_v2tgczxhkj","5fd7782dee03dc08d3f3f491","fixation","img/fixation.png","null","","test","","","","","",""
"288.20000000298023","235194","pSARL_v2","pSARL_v2tgczxhkj","5fd7782dee03dc08d3f3f491","infreq","img/green_2bandit_a2.png","68","68","test","1","7","7","1","",""
"null","235715","pSARL_v2","pSARL_v2tgczxhkj","5fd7782dee03dc08d3f3f491","infreq_resp","img/green_2bandit_a.png","68","68","test","","","","1","",""
"null","235869","pSARL_v2","pSARL_v2tgczxhkj","5fd7782dee03dc08d3f3f491","fixation","img/fixation.png","null","","test","","","","","",""
"345.29999999701977","236217","pSARL_v2","pSARL_v2tgczxhkj","5fd7782dee03dc08d3f3f491","freq","img/orange_2bandit_a2.png","70","70","test","1","8","8","1","",""
"null","236682","pSARL_v2","pSARL_v2tgczxhkj","5fd7782dee03dc08d3f3f491","freq_resp","img/orange_2bandit_a.png","70","70","test","","","","1","",""
"null","236838","pSARL_v2","pSARL_v2tgczxhkj","5fd7782dee03dc08d3f3f491","fixation","img/fixation.png","null","","test","","","","","",""
"285.20000000298023","237126","pSARL_v2","pSARL_v2tgczxhkj","5fd7782dee03dc08d3f3f491","freq","img/orange_2bandit_a2.png","70","70","test","1","9","9","1","",""
"null","237644","pSARL_v2","pSARL_v2tgczxhkj","5fd7782dee03dc08d3f3f491","freq_resp","img/orange_2bandit_a.png","70","70","test","","","","1","",""
"null","237801","pSARL_v2","pSARL_v2tgczxhkj","5fd7782dee03dc08d3f3f491","fixation","img/fixation.png","null","","test","","","","","",""
"257.5","238061","pSARL_v2","pSARL_v2tgczxhkj","5fd7782dee03dc08d3f3f491","freq","img/orange_2bandit_a2.png","70","70","test","1","10","10","1","",""
"null","238610","pSARL_v2","pSARL_v2tgczxhkj","5fd7782dee03dc08d3f3f491","freq_resp","img/orange_2bandit_a.png","70","70","test","","","","1","",""
"null","238767","pSARL_v2","pSARL_v2tgczxhkj","5fd7782dee03dc08d3f3f491","fixation","img/fixation.png","null","","test","","","","","",""
"278.5","239048","pSARL_v2","pSARL_v2tgczxhkj","5fd7782dee03dc08d3f3f491","freq","img/orange_2bandit_a2.png","70","70","test","1","11","11","1","",""
"null","239577","pSARL_v2","pSARL_v2tgczxhkj","5fd7782dee03dc08d3f3f491","freq_resp","img/orange_2bandit_a.png","70","70","test","","","","1","",""
"null","239733","pSARL_v2","pSARL_v2tgczxhkj","5fd7782dee03dc08d3f3f491","fixation","img/fixation.png","null","","test","","","","","",""
"261","239996","pSARL_v2","pSARL_v2tgczxhkj","5fd7782dee03dc08d3f3f491","freq","img/orange_2bandit_a2.png","70","70","test","1","12","12","1","",""
"null","240542","pSARL_v2","pSARL_v2tgczxhkj","5fd7782dee03dc08d3f3f491","freq_resp","img/orange_2bandit_a.png","70","70","test","","","","1","",""
"null","240697","pSARL_v2","pSARL_v2tgczxhkj","5fd7782dee03dc08d3f3f491","fixation","img/fixation.png","null","","test","","","","","",""
"266","240965","pSARL_v2","pSARL_v2tgczxhkj","5fd7782dee03dc08d3f3f491","freq","img/orange_2bandit_a2.png","70","70","test","1","13","13","1","",""
"null","241503","pSARL_v2","pSARL_v2tgczxhkj","5fd7782dee03dc08d3f3f491","freq_resp","img/orange_2bandit_a.png","70","70","test","","","","1","",""
"null","241659","pSARL_v2","pSARL_v2tgczxhkj","5fd7782dee03dc08d3f3f491","fixation","img/fixation.png","null","","test","","","","","",""
"270.59999999403954","241932","pSARL_v2","pSARL_v2tgczxhkj","5fd7782dee03dc08d3f3f491","freq","img/orange_2bandit_a2.png","70","70","test","1","14","14","1","",""
"null","242478","pSARL_v2","pSARL_v2tgczxhkj","5fd7782dee03dc08d3f3f491","freq_resp","img/orange_2bandit_a.png","70","70","test","","","","1","",""
"null","242632","pSARL_v2","pSARL_v2tgczxhkj","5fd7782dee03dc08d3f3f491","fixation","img/fixation.png","null","","test","","","","","",""
"277.79999999701977","242912","pSARL_v2","pSARL_v2tgczxhkj","5fd7782dee03dc08d3f3f491","freq","img/orange_2bandit_a2.png","70","70","test","1","15","15","1","",""
"null","243450","pSARL_v2","pSARL_v2tgczxhkj","5fd7782dee03dc08d3f3f491","freq_resp","img/orange_2bandit_a.png","70","70","test","","","","1","",""
"null","243604","pSARL_v2","pSARL_v2tgczxhkj","5fd7782dee03dc08d3f3f491","fixation","img/fixation.png","null","","test","","","","","",""
"278.5","243885","pSARL_v2","pSARL_v2tgczxhkj","5fd7782dee03dc08d3f3f491","freq","img/orange_2bandit_a2.png","70","70","test","1","16","16","1","",""
"null","244420","pSARL_v2","pSARL_v2tgczxhkj","5fd7782dee03dc08d3f3f491","freq_resp","img/orange_2bandit_a.png","70","70","test","","","","1","",""
"null","244576","pSARL_v2","pSARL_v2tgczxhkj","5fd7782dee03dc08d3f3f491","fixation","img/fixation.png","null","","test","","","","","",""
"286.69999998807907","244865","pSARL_v2","pSARL_v2tgczxhkj","5fd7782dee03dc08d3f3f491","freq","img/orange_2bandit_a2.png","70","70","test","1","17","17","1","",""
"null","245386","pSARL_v2","pSARL_v2tgczxhkj","5fd7782dee03dc08d3f3f491","freq_resp","img/orange_2bandit_a.png","70","70","test","","","","1","",""
"null","245541","pSARL_v2","pSARL_v2tgczxhkj","5fd7782dee03dc08d3f3f491","fixation","img/fixation.png","null","","test","","","","","",""
"302.29999999701977","245845","pSARL_v2","pSARL_v2tgczxhkj","5fd7782dee03dc08d3f3f491","freq","img/orange_2bandit_a2.png","70","70","test","1","18","18","1","",""
"null","246350","pSARL_v2","pSARL_v2tgczxhkj","5fd7782dee03dc08d3f3f491","freq_resp","img/orange_2bandit_a.png","70","70","test","","","","1","",""
"null","246505","pSARL_v2","pSARL_v2tgczxhkj","5fd7782dee03dc08d3f3f491","fixation","img/fixation.png","null","","test","","","","","",""
"282.3999999910593","246790","pSARL_v2","pSARL_v2tgczxhkj","5fd7782dee03dc08d3f3f491","freq","img/orange_2bandit_a2.png","70","70","test","1","19","19","1","",""
"null","247314","pSARL_v2","pSARL_v2tgczxhkj","5fd7782dee03dc08d3f3f491","freq_resp","img/orange_2bandit_a.png","70","70","test","","","","1","",""
"null","247469","pSARL_v2","pSARL_v2tgczxhkj","5fd7782dee03dc08d3f3f491","fixation","img/fixation.png","null","","test","","","","","",""
"222.09999999403954","247693","pSARL_v2","pSARL_v2tgczxhkj","5fd7782dee03dc08d3f3f491","freq","img/orange_2bandit_a2.png","70","70","test","1","20","20","1","",""
"null","248278","pSARL_v2","pSARL_v2tgczxhkj","5fd7782dee03dc08d3f3f491","freq_resp","img/orange_2bandit_a.png","70","70","test","","","","1","",""
"null","248434","pSARL_v2","pSARL_v2tgczxhkj","5fd7782dee03dc08d3f3f491","fixation","img/fixation.png","null","","test","","","","","",""
"223.70000000298023","248660","pSARL_v2","pSARL_v2tgczxhkj","5fd7782dee03dc08d3f3f491","freq","img/orange_2bandit_a2.png","70","70","test","1","21","21","1","",""
"null","249241","pSARL_v2","pSARL_v2tgczxhkj","5fd7782dee03dc08d3f3f491","freq_resp","img/orange_2bandit_a.png","70","70","test","","","","1","",""
"null","249397","pSARL_v2","pSARL_v2tgczxhkj","5fd7782dee03dc08d3f3f491","fixation","img/fixation.png","null","","test","","","","","",""
"397.79999999701977","249798","pSARL_v2","pSARL_v2tgczxhkj","5fd7782dee03dc08d3f3f491","reward","img/slot.png","74","","test","","","","","",""
"null","250556","pSARL_v2","pSARL_v2tgczxhkj","5fd7782dee03dc08d3f3f491","points","<div class=""verylowPoints""> -6 </div>","null","na","test","","","","1","-6","0"
"747.7999999970198","251306","pSARL_v2","pSARL_v2tgczxhkj","5fd7782dee03dc08d3f3f491","freq","img/orange_2bandit_a2.png","68","70","test","0","22","22","2","",""
"null","251363","pSARL_v2","pSARL_v2tgczxhkj","5fd7782dee03dc08d3f3f491","freq_resp","img/orange_2bandit_a.png","68","70","test","","","","2","",""
"null","251520","pSARL_v2","pSARL_v2tgczxhkj","5fd7782dee03dc08d3f3f491","fixation","img/fixation.png","null","","test","","","","","",""
"null","252326","pSARL_v2","pSARL_v2tgczxhkj","5fd7782dee03dc08d3f3f491","infreq","img/green_2bandit_a2.png","null","68","test","0","23","23","2","",""
"null","252479","pSARL_v2","pSARL_v2tgczxhkj","5fd7782dee03dc08d3f3f491","fixation","img/fixation.png","null","","test","","","","","",""
"659.3000000119209","253141","pSARL_v2","pSARL_v2tgczxhkj","5fd7782dee03dc08d3f3f491","freq","img/orange_2bandit_a2.png","68","70","test","0","24","24","2","",""
"null","253286","pSARL_v2","pSARL_v2tgczxhkj","5fd7782dee03dc08d3f3f491","freq_resp","img/orange_2bandit_a.png","68","70","test","","","","2","",""
"null","253442","pSARL_v2","pSARL_v2tgczxhkj","5fd7782dee03dc08d3f3f491","fixation","img/fixation.png","null","","test","","","","","",""
"null","254254","pSARL_v2","pSARL_v2tgczxhkj","5fd7782dee03dc08d3f3f491","freq","img/orange_2bandit_a2.png","null","70","test","0","25","25","2","",""
"null","254407","pSARL_v2","pSARL_v2tgczxhkj","5fd7782dee03dc08d3f3f491","fixation","img/fixation.png","null","","test","","","","","",""
"468.69999998807907","254878","pSARL_v2","pSARL_v2tgczxhkj","5fd7782dee03dc08d3f3f491","freq","img/orange_2bandit_a2.png","70","70","test","1","26","26","2","",""
"null","255214","pSARL_v2","pSARL_v2tgczxhkj","5fd7782dee03dc08d3f3f491","freq_resp","img/orange_2bandit_a.png","70","70","test","","","","2","",""
"null","255372","pSARL_v2","pSARL_v2tgczxhkj","5fd7782dee03dc08d3f3f491","fixation","img/fixation.png","null","","test","","","","","",""
"331.70000000298023","255706","pSARL_v2","pSARL_v2tgczxhkj","5fd7782dee03dc08d3f3f491","freq","img/orange_2bandit_a2.png","70","70","test","1","27","27","2","",""
"null","256180","pSARL_v2","pSARL_v2tgczxhkj","5fd7782dee03dc08d3f3f491","freq_resp","img/orange_2bandit_a.png","70","70","test","","","","2","",""
"null","256335","pSARL_v2","pSARL_v2tgczxhkj","5fd7782dee03dc08d3f3f491","fixation","img/fixation.png","null","","test","","","","","",""
"320.5","256658","pSARL_v2","pSARL_v2tgczxhkj","5fd7782dee03dc08d3f3f491","freq","img/orange_2bandit_a2.png","70","70","test","1","28","28","2","",""
"null","257144","pSARL_v2","pSARL_v2tgczxhkj","5fd7782dee03dc08d3f3f491","freq_resp","img/orange_2bandit_a.png","70","70","test","","","","2","",""
"null","257300","pSARL_v2","pSARL_v2tgczxhkj","5fd7782dee03dc08d3f3f491","fixation","img/fixation.png","null","","test","","","","","",""
"290","257592","pSARL_v2","pSARL_v2tgczxhkj","5fd7782dee03dc08d3f3f491","freq","img/orange_2bandit_a2.png","70","70","test","1","29","29","2","",""
"null","258108","pSARL_v2","pSARL_v2tgczxhkj","5fd7782dee03dc08d3f3f491","freq_resp","img/orange_2bandit_a.png","70","70","test","","","","2","",""
"null","258265","pSARL_v2","pSARL_v2tgczxhkj","5fd7782dee03dc08d3f3f491","fixation","img/fixation.png","null","","test","","","","","",""
"331","258598","pSARL_v2","pSARL_v2tgczxhkj","5fd7782dee03dc08d3f3f491","freq","img/orange_2bandit_a2.png","70","70","test","1","30","30","2","",""
"null","259071","pSARL_v2","pSARL_v2tgczxhkj","5fd7782dee03dc08d3f3f491","freq_resp","img/orange_2bandit_a.png","70","70","test","","","","2","",""
"null","259229","pSARL_v2","pSARL_v2tgczxhkj","5fd7782dee03dc08d3f3f491","fixation","img/fixation.png","null","","test","","","","","",""
"287.5","259519","pSARL_v2","pSARL_v2tgczxhkj","5fd7782dee03dc08d3f3f491","freq","img/orange_2bandit_a2.png","70","70","test","1","31","31","2","",""
"null","260034","pSARL_v2","pSARL_v2tgczxhkj","5fd7782dee03dc08d3f3f491","freq_resp","img/orange_2bandit_a.png","70","70","test","","","","2","",""
"null","260191","pSARL_v2","pSARL_v2tgczxhkj","5fd7782dee03dc08d3f3f491","fixation","img/fixation.png","null","","test","","","","","",""
"288.40000000596046","260482","pSARL_v2","pSARL_v2tgczxhkj","5fd7782dee03dc08d3f3f491","freq","img/orange_2bandit_a2.png","70","70","test","1","32","32","2","",""
"null","260997","pSARL_v2","pSARL_v2tgczxhkj","5fd7782dee03dc08d3f3f491","freq_resp","img/orange_2bandit_a.png","70","70","test","","","","2","",""
"null","261152","pSARL_v2","pSARL_v2tgczxhkj","5fd7782dee03dc08d3f3f491","fixation","img/fixation.png","null","","test","","","","","",""
"289.5","261443","pSARL_v2","pSARL_v2tgczxhkj","5fd7782dee03dc08d3f3f491","freq","img/orange_2bandit_a2.png","70","70","test","1","33","33","2","",""
"null","261958","pSARL_v2","pSARL_v2tgczxhkj","5fd7782dee03dc08d3f3f491","freq_resp","img/orange_2bandit_a.png","70","70","test","","","","2","",""
"null","262111","pSARL_v2","pSARL_v2tgczxhkj","5fd7782dee03dc08d3f3f491","fixation","img/fixation.png","null","","test","","","","","",""
"306.29999999701977","262420","pSARL_v2","pSARL_v2tgczxhkj","5fd7782dee03dc08d3f3f491","freq","img/orange_2bandit_a2.png","70","70","test","1","34","34","2","",""
"null","262920","pSARL_v2","pSARL_v2tgczxhkj","5fd7782dee03dc08d3f3f491","freq_resp","img/orange_2bandit_a.png","70","70","test","","","","2","",""
"null","263075","pSARL_v2","pSARL_v2tgczxhkj","5fd7782dee03dc08d3f3f491","fixation","img/fixation.png","null","","test","","","","","",""
"296","263373","pSARL_v2","pSARL_v2tgczxhkj","5fd7782dee03dc08d3f3f491","freq","img/orange_2bandit_a2.png","70","70","test","1","35","35","2","",""
"null","263883","pSARL_v2","pSARL_v2tgczxhkj","5fd7782dee03dc08d3f3f491","freq_resp","img/orange_2bandit_a.png","70","70","test","","","","2","",""
"null","264039","pSARL_v2","pSARL_v2tgczxhkj","5fd7782dee03dc08d3f3f491","fixation","img/fixation.png","null","","test","","","","","",""
"416.3999999910593","264457","pSARL_v2","pSARL_v2tgczxhkj","5fd7782dee03dc08d3f3f491","infreq","img/green_2bandit_a2.png","68","68","test","1","36","36","2","",""
"null","264853","pSARL_v2","pSARL_v2tgczxhkj","5fd7782dee03dc08d3f3f491","infreq_resp","img/green_2bandit_a.png","68","68","test","","","","2","",""
"null","265008","pSARL_v2","pSARL_v2tgczxhkj","5fd7782dee03dc08d3f3f491","fixation","img/fixation.png","null","","test","","","","","",""
"413.5","265423","pSARL_v2","pSARL_v2tgczxhkj","5fd7782dee03dc08d3f3f491","freq","img/orange_2bandit_a2.png","70","70","test","1","37","37","2","",""
"null","265821","pSARL_v2","pSARL_v2tgczxhkj","5fd7782dee03dc08d3f3f491","freq_resp","img/orange_2bandit_a.png","70","70","test","","","","2","",""
"null","265981","pSARL_v2","pSARL_v2tgczxhkj","5fd7782dee03dc08d3f3f491","fixation","img/fixation.png","null","","test","","","","","",""
"307.70000000298023","266291","pSARL_v2","pSARL_v2tgczxhkj","5fd7782dee03dc08d3f3f491","freq","img/orange_2bandit_a2.png","70","70","test","1","38","38","2","",""
"null","266792","pSARL_v2","pSARL_v2tgczxhkj","5fd7782dee03dc08d3f3f491","freq_resp","img/orange_2bandit_a.png","70","70","test","","","","2","",""
"null","266952","pSARL_v2","pSARL_v2tgczxhkj","5fd7782dee03dc08d3f3f491","fixation","img/fixation.png","null","","test","","","","","",""
"302.80000001192093","267257","pSARL_v2","pSARL_v2tgczxhkj","5fd7782dee03dc08d3f3f491","freq","img/orange_2bandit_a2.png","70","70","test","1","39","39","2","",""
"null","267758","pSARL_v2","pSARL_v2tgczxhkj","5fd7782dee03dc08d3f3f491","freq_resp","img/orange_2bandit_a.png","70","70","test","","","","2","",""
"null","267916","pSARL_v2","pSARL_v2tgczxhkj","5fd7782dee03dc08d3f3f491","fixation","img/fixation.png","null","","test","","","","","",""
"282.40000000596046","268201","pSARL_v2","pSARL_v2tgczxhkj","5fd7782dee03dc08d3f3f491","freq","img/orange_2bandit_a2.png","70","70","test","1","40","40","2","",""
"null","268723","pSARL_v2","pSARL_v2tgczxhkj","5fd7782dee03dc08d3f3f491","freq_resp","img/orange_2bandit_a.png","70","70","test","","","","2","",""
"null","268880","pSARL_v2","pSARL_v2tgczxhkj","5fd7782dee03dc08d3f3f491","fixation","img/fixation.png","null","","test","","","","","",""
"291.8999999910593","269174","pSARL_v2","pSARL_v2tgczxhkj","5fd7782dee03dc08d3f3f491","freq","img/orange_2bandit_a2.png","70","70","test","1","41","41","2","",""
"null","269687","pSARL_v2","pSARL_v2tgczxhkj","5fd7782dee03dc08d3f3f491","freq_resp","img/orange_2bandit_a.png","70","70","test","","","","2","",""
"null","269842","pSARL_v2","pSARL_v2tgczxhkj","5fd7782dee03dc08d3f3f491","fixation","img/fixation.png","null","","test","","","","","",""
"320.5","270165","pSARL_v2","pSARL_v2tgczxhkj","5fd7782dee03dc08d3f3f491","freq","img/orange_2bandit_a2.png","70","70","test","1","42","42","2","",""
"null","270650","pSARL_v2","pSARL_v2tgczxhkj","5fd7782dee03dc08d3f3f491","freq_resp","img/orange_2bandit_a.png","70","70","test","","","","2","",""
"null","270804","pSARL_v2","pSARL_v2tgczxhkj","5fd7782dee03dc08d3f3f491","fixation","img/fixation.png","null","","test","","","","","",""
"335.40000000596046","271141","pSARL_v2","pSARL_v2tgczxhkj","5fd7782dee03dc08d3f3f491","freq","img/orange_2bandit_a2.png","70","70","test","1","43","43","2","",""
"null","271609","pSARL_v2","pSARL_v2tgczxhkj","5fd7782dee03dc08d3f3f491","freq_resp","img/orange_2bandit_a.png","70","70","test","","","","2","",""
"null","271763","pSARL_v2","pSARL_v2tgczxhkj","5fd7782dee03dc08d3f3f491","fixation","img/fixation.png","null","","test","","","","","",""
"411.40000000596046","272177","pSARL_v2","pSARL_v2tgczxhkj","5fd7782dee03dc08d3f3f491","reward","img/slot.png","74","","test","","","","","",""
"null","272944","pSARL_v2","pSARL_v2tgczxhkj","5fd7782dee03dc08d3f3f491","points","<div class=""verylowPoints""> -11 </div>","null","na","test","","","","2","-11","1"
"610.8999999910593","273557","pSARL_v2","pSARL_v2tgczxhkj","5fd7782dee03dc08d3f3f491","freq","img/orange_2bandit_a2.png","70","70","test","1","44","44","3","",""
"null","273753","pSARL_v2","pSARL_v2tgczxhkj","5fd7782dee03dc08d3f3f491","freq_resp","img/orange_2bandit_a.png","70","70","test","","","","3","",""
"null","273908","pSARL_v2","pSARL_v2tgczxhkj","5fd7782dee03dc08d3f3f491","fixation","img/fixation.png","null","","test","","","","","",""
"444","274355","pSARL_v2","pSARL_v2tgczxhkj","5fd7782dee03dc08d3f3f491","freq","img/orange_2bandit_a2.png","70","70","test","1","45","45","3","",""
"null","274719","pSARL_v2","pSARL_v2tgczxhkj","5fd7782dee03dc08d3f3f491","freq_resp","img/orange_2bandit_a.png","70","70","test","","","","3","",""
"null","274873","pSARL_v2","pSARL_v2tgczxhkj","5fd7782dee03dc08d3f3f491","fixation","img/fixation.png","null","","test","","","","","",""
"341.20000000298023","275217","pSARL_v2","pSARL_v2tgczxhkj","5fd7782dee03dc08d3f3f491","freq","img/orange_2bandit_a2.png","70","70","test","1","46","46","3","",""
"null","275679","pSARL_v2","pSARL_v2tgczxhkj","5fd7782dee03dc08d3f3f491","freq_resp","img/orange_2bandit_a.png","70","70","test","","","","3","",""
"null","275834","pSARL_v2","pSARL_v2tgczxhkj","5fd7782dee03dc08d3f3f491","fixation","img/fixation.png","null","","test","","","","","",""
"328.1000000089407","276167","pSARL_v2","pSARL_v2tgczxhkj","5fd7782dee03dc08d3f3f491","freq","img/orange_2bandit_a2.png","70","70","test","1","47","47","3","",""
"null","276643","pSARL_v2","pSARL_v2tgczxhkj","5fd7782dee03dc08d3f3f491","freq_resp","img/orange_2bandit_a.png","70","70","test","","","","3","",""
"null","276798","pSARL_v2","pSARL_v2tgczxhkj","5fd7782dee03dc08d3f3f491","fixation","img/fixation.png","null","","test","","","","","",""
"354.70000000298023","277155","pSARL_v2","pSARL_v2tgczxhkj","5fd7782dee03dc08d3f3f491","freq","img/orange_2bandit_a2.png","70","70","test","1","48","48","3","",""
"null","277611","pSARL_v2","pSARL_v2tgczxhkj","5fd7782dee03dc08d3f3f491","freq_resp","img/orange_2bandit_a.png","70","70","test","","","","3","",""
"null","277765","pSARL_v2","pSARL_v2tgczxhkj","5fd7782dee03dc08d3f3f491","fixation","img/fixation.png","null","","test","","","","","",""
"352.29999999701977","278120","pSARL_v2","pSARL_v2tgczxhkj","5fd7782dee03dc08d3f3f491","freq","img/orange_2bandit_a2.png","70","70","test","1","49","49","3","",""
"null","278573","pSARL_v2","pSARL_v2tgczxhkj","5fd7782dee03dc08d3f3f491","freq_resp","img/orange_2bandit_a.png","70","70","test","","","","3","",""
"null","278729","pSARL_v2","pSARL_v2tgczxhkj","5fd7782dee03dc08d3f3f491","fixation","img/fixation.png","null","","test","","","","","",""
"318.5","279049","pSARL_v2","pSARL_v2tgczxhkj","5fd7782dee03dc08d3f3f491","freq","img/orange_2bandit_a2.png","70","70","test","1","50","50","3","",""
"null","279535","pSARL_v2","pSARL_v2tgczxhkj","5fd7782dee03dc08d3f3f491","freq_resp","img/orange_2bandit_a.png","70","70","test","","","","3","",""
"null","279691","pSARL_v2","pSARL_v2tgczxhkj","5fd7782dee03dc08d3f3f491","fixation","img/fixation.png","null","","test","","","","","",""
"285.70000000298023","279979","pSARL_v2","pSARL_v2tgczxhkj","5fd7782dee03dc08d3f3f491","freq","img/orange_2bandit_a2.png","70","70","test","1","51","51","3","",""
"null","280503","pSARL_v2","pSARL_v2tgczxhkj","5fd7782dee03dc08d3f3f491","freq_resp","img/orange_2bandit_a.png","70","70","test","","","","3","",""
"null","280659","pSARL_v2","pSARL_v2tgczxhkj","5fd7782dee03dc08d3f3f491","fixation","img/fixation.png","null","","test","","","","","",""
"294.80000001192093","280956","pSARL_v2","pSARL_v2tgczxhkj","5fd7782dee03dc08d3f3f491","freq","img/orange_2bandit_a2.png","70","70","test","1","52","52","3","",""
"null","281468","pSARL_v2","pSARL_v2tgczxhkj","5fd7782dee03dc08d3f3f491","freq_resp","img/orange_2bandit_a.png","70","70","test","","","","3","",""
"null","281636","pSARL_v2","pSARL_v2tgczxhkj","5fd7782dee03dc08d3f3f491","fixation","img/fixation.png","null","","test","","","","","",""
"321.1000000089407","281961","pSARL_v2","pSARL_v2tgczxhkj","5fd7782dee03dc08d3f3f491","freq","img/orange_2bandit_a2.png","70","70","test","1","53","53","3","",""
"null","282457","pSARL_v2","pSARL_v2tgczxhkj","5fd7782dee03dc08d3f3f491","freq_resp","img/orange_2bandit_a.png","70","70","test","","","","3","",""
"null","282624","pSARL_v2","pSARL_v2tgczxhkj","5fd7782dee03dc08d3f3f491","fixation","img/fixation.png","null","","test","","","","","",""
"286.69999998807907","282914","pSARL_v2","pSARL_v2tgczxhkj","5fd7782dee03dc08d3f3f491","freq","img/orange_2bandit_a2.png","70","70","test","1","54","54","3","",""
"null","283433","pSARL_v2","pSARL_v2tgczxhkj","5fd7782dee03dc08d3f3f491","freq_resp","img/orange_2bandit_a.png","70","70","test","","","","3","",""
"null","283588","pSARL_v2","pSARL_v2tgczxhkj","5fd7782dee03dc08d3f3f491","fixation","img/fixation.png","null","","test","","","","","",""
"289.80000001192093","283880","pSARL_v2","pSARL_v2tgczxhkj","5fd7782dee03dc08d3f3f491","freq","img/orange_2bandit_a2.png","70","70","test","1","55","55","3","",""
"null","284394","pSARL_v2","pSARL_v2tgczxhkj","5fd7782dee03dc08d3f3f491","freq_resp","img/orange_2bandit_a.png","70","70","test","","","","3","",""
"null","284547","pSARL_v2","pSARL_v2tgczxhkj","5fd7782dee03dc08d3f3f491","fixation","img/fixation.png","null","","test","","","","","",""
"303.70000000298023","284853","pSARL_v2","pSARL_v2tgczxhkj","5fd7782dee03dc08d3f3f491","freq","img/orange_2bandit_a2.png","70","70","test","1","56","56","3","",""
"null","285362","pSARL_v2","pSARL_v2tgczxhkj","5fd7782dee03dc08d3f3f491","freq_resp","img/orange_2bandit_a.png","70","70","test","","","","3","",""
"null","285517","pSARL_v2","pSARL_v2tgczxhkj","5fd7782dee03dc08d3f3f491","fixation","img/fixation.png","null","","test","","","","","",""
"293.8999999910593","285813","pSARL_v2","pSARL_v2tgczxhkj","5fd7782dee03dc08d3f3f491","freq","img/orange_2bandit_a2.png","70","70","test","1","57","57","3","",""
"null","286327","pSARL_v2","pSARL_v2tgczxhkj","5fd7782dee03dc08d3f3f491","freq_resp","img/orange_2bandit_a.png","70","70","test","","","","3","",""
"null","286480","pSARL_v2","pSARL_v2tgczxhkj","5fd7782dee03dc08d3f3f491","fixation","img/fixation.png","null","","test","","","","","",""
"317.6000000089407","286800","pSARL_v2","pSARL_v2tgczxhkj","5fd7782dee03dc08d3f3f491","infreq","img/green_2bandit_a2.png","70","68","test","0","58","58","3","",""
"null","287291","pSARL_v2","pSARL_v2tgczxhkj","5fd7782dee03dc08d3f3f491","infreq_resp","img/green_2bandit_a.png","70","68","test","","","","3","",""
"null","287447","pSARL_v2","pSARL_v2tgczxhkj","5fd7782dee03dc08d3f3f491","fixation","img/fixation.png","null","","test","","","","","",""
"441.79999999701977","287892","pSARL_v2","pSARL_v2tgczxhkj","5fd7782dee03dc08d3f3f491","freq","img/orange_2bandit_a2.png","70","70","test","1","59","59","3","",""
"null","288261","pSARL_v2","pSARL_v2tgczxhkj","5fd7782dee03dc08d3f3f491","freq_resp","img/orange_2bandit_a.png","70","70","test","","","","3","",""
"null","288419","pSARL_v2","pSARL_v2tgczxhkj","5fd7782dee03dc08d3f3f491","fixation","img/fixation.png","null","","test","","","","","",""
"488.90000000596046","288910","pSARL_v2","pSARL_v2tgczxhkj","5fd7782dee03dc08d3f3f491","freq","img/orange_2bandit_a2.png","70","70","test","1","60","60","3","",""
"null","289226","pSARL_v2","pSARL_v2tgczxhkj","5fd7782dee03dc08d3f3f491","freq_resp","img/orange_2bandit_a.png","70","70","test","","","","3","",""
"null","289381","pSARL_v2","pSARL_v2tgczxhkj","5fd7782dee03dc08d3f3f491","fixation","img/fixation.png","null","","test","","","","","",""
"467.70000000298023","289851","pSARL_v2","pSARL_v2tgczxhkj","5fd7782dee03dc08d3f3f491","freq","img/orange_2bandit_a2.png","70","70","test","1","61","61","3","",""
"null","290187","pSARL_v2","pSARL_v2tgczxhkj","5fd7782dee03dc08d3f3f491","freq_resp","img/orange_2bandit_a.png","70","70","test","","","","3","",""
"null","290343","pSARL_v2","pSARL_v2tgczxhkj","5fd7782dee03dc08d3f3f491","fixation","img/fixation.png","null","","test","","","","","",""
"350.90000000596046","290696","pSARL_v2","pSARL_v2tgczxhkj","5fd7782dee03dc08d3f3f491","freq","img/orange_2bandit_a2.png","70","70","test","1","62","62","3","",""
"null","291156","pSARL_v2","pSARL_v2tgczxhkj","5fd7782dee03dc08d3f3f491","freq_resp","img/orange_2bandit_a.png","70","70","test","","","","3","",""
"null","291312","pSARL_v2","pSARL_v2tgczxhkj","5fd7782dee03dc08d3f3f491","fixation","img/fixation.png","null","","test","","","","","",""
"289.19999998807907","291603","pSARL_v2","pSARL_v2tgczxhkj","5fd7782dee03dc08d3f3f491","freq","img/orange_2bandit_a2.png","70","70","test","1","63","63","3","",""
"null","292120","pSARL_v2","pSARL_v2tgczxhkj","5fd7782dee03dc08d3f3f491","freq_resp","img/orange_2bandit_a.png","70","70","test","","","","3","",""
"null","292277","pSARL_v2","pSARL_v2tgczxhkj","5fd7782dee03dc08d3f3f491","fixation","img/fixation.png","null","","test","","","","","",""
"255","292534","pSARL_v2","pSARL_v2tgczxhkj","5fd7782dee03dc08d3f3f491","freq","img/orange_2bandit_a2.png","70","70","test","1","64","64","3","",""
"null","293084","pSARL_v2","pSARL_v2tgczxhkj","5fd7782dee03dc08d3f3f491","freq_resp","img/orange_2bandit_a.png","70","70","test","","","","3","",""
"null","293253","pSARL_v2","pSARL_v2tgczxhkj","5fd7782dee03dc08d3f3f491","fixation","img/fixation.png","null","","test","","","","","",""
"258.5","293514","pSARL_v2","pSARL_v2tgczxhkj","5fd7782dee03dc08d3f3f491","infreq","img/green_2bandit_a2.png","70","68","test","0","65","65","3","",""
"null","294068","pSARL_v2","pSARL_v2tgczxhkj","5fd7782dee03dc08d3f3f491","infreq_resp","img/green_2bandit_a.png","70","68","test","","","","3","",""
"null","294223","pSARL_v2","pSARL_v2tgczxhkj","5fd7782dee03dc08d3f3f491","fixation","img/fixation.png","null","","test","","","","","",""
"347.09999999403954","294572","pSARL_v2","pSARL_v2tgczxhkj","5fd7782dee03dc08d3f3f491","freq","img/orange_2bandit_a2.png","70","70","test","1","66","66","3","",""
"null","295042","pSARL_v2","pSARL_v2tgczxhkj","5fd7782dee03dc08d3f3f491","freq_resp","img/orange_2bandit_a.png","70","70","test","","","","3","",""
"null","295198","pSARL_v2","pSARL_v2tgczxhkj","5fd7782dee03dc08d3f3f491","fixation","img/fixation.png","null","","test","","","","","",""
"371.79999999701977","295572","pSARL_v2","pSARL_v2tgczxhkj","5fd7782dee03dc08d3f3f491","reward","img/slot.png","74","","test","","","","","",""
"null","296331","pSARL_v2","pSARL_v2tgczxhkj","5fd7782dee03dc08d3f3f491","points","<div class=""verylowPoints""> -7 </div>","null","na","test","","","","3","-7","2"
"516.7000000029802","296850","pSARL_v2","pSARL_v2tgczxhkj","5fd7782dee03dc08d3f3f491","freq","img/orange_2bandit_a2.png","70","70","test","1","67","67","4","",""
"null","297138","pSARL_v2","pSARL_v2tgczxhkj","5fd7782dee03dc08d3f3f491","freq_resp","img/orange_2bandit_a.png","70","70","test","","","","4","",""
"null","297292","pSARL_v2","pSARL_v2tgczxhkj","5fd7782dee03dc08d3f3f491","fixation","img/fixation.png","null","","test","","","","","",""
"482.8999999910593","297778","pSARL_v2","pSARL_v2tgczxhkj","5fd7782dee03dc08d3f3f491","freq","img/orange_2bandit_a2.png","70","70","test","1","68","68","4","",""
"null","298105","pSARL_v2","pSARL_v2tgczxhkj","5fd7782dee03dc08d3f3f491","freq_resp","img/orange_2bandit_a.png","70","70","test","","","","4","",""
"null","298260","pSARL_v2","pSARL_v2tgczxhkj","5fd7782dee03dc08d3f3f491","fixation","img/fixation.png","null","","test","","","","","",""
"421.5","298684","pSARL_v2","pSARL_v2tgczxhkj","5fd7782dee03dc08d3f3f491","freq","img/orange_2bandit_a2.png","70","70","test","1","69","69","4","",""
"null","299066","pSARL_v2","pSARL_v2tgczxhkj","5fd7782dee03dc08d3f3f491","freq_resp","img/orange_2bandit_a.png","70","70","test","","","","4","",""
"null","299222","pSARL_v2","pSARL_v2tgczxhkj","5fd7782dee03dc08d3f3f491","fixation","img/fixation.png","null","","test","","","","","",""
"404.40000000596046","299629","pSARL_v2","pSARL_v2tgczxhkj","5fd7782dee03dc08d3f3f491","freq","img/orange_2bandit_a2.png","70","70","test","1","70","70","4","",""
"null","300040","pSARL_v2","pSARL_v2tgczxhkj","5fd7782dee03dc08d3f3f491","freq_resp","img/orange_2bandit_a.png","70","70","test","","","","4","",""
"null","300197","pSARL_v2","pSARL_v2tgczxhkj","5fd7782dee03dc08d3f3f491","fixation","img/fixation.png","null","","test","","","","","",""
"367","300566","pSARL_v2","pSARL_v2tgczxhkj","5fd7782dee03dc08d3f3f491","freq","img/orange_2bandit_a2.png","70","70","test","1","71","71","4","",""
"null","301005","pSARL_v2","pSARL_v2tgczxhkj","5fd7782dee03dc08d3f3f491","freq_resp","img/orange_2bandit_a.png","70","70","test","","","","4","",""
"null","301162","pSARL_v2","pSARL_v2tgczxhkj","5fd7782dee03dc08d3f3f491","fixation","img/fixation.png","null","","test","","","","","",""
"400","301564","pSARL_v2","pSARL_v2tgczxhkj","5fd7782dee03dc08d3f3f491","freq","img/orange_2bandit_a2.png","70","70","test","1","72","72","4","",""
"null","301970","pSARL_v2","pSARL_v2tgczxhkj","5fd7782dee03dc08d3f3f491","freq_resp","img/orange_2bandit_a.png","70","70","test","","","","4","",""
"null","302127","pSARL_v2","pSARL_v2tgczxhkj","5fd7782dee03dc08d3f3f491","fixation","img/fixation.png","null","","test","","","","","",""
"322.29999999701977","302452","pSARL_v2","pSARL_v2tgczxhkj","5fd7782dee03dc08d3f3f491","freq","img/orange_2bandit_a2.png","70","70","test","1","73","73","4","",""
"null","302933","pSARL_v2","pSARL_v2tgczxhkj","5fd7782dee03dc08d3f3f491","freq_resp","img/orange_2bandit_a.png","70","70","test","","","","4","",""
"null","303090","pSARL_v2","pSARL_v2tgczxhkj","5fd7782dee03dc08d3f3f491","fixation","img/fixation.png","null","","test","","","","","",""
"353.80000001192093","303446","pSARL_v2","pSARL_v2tgczxhkj","5fd7782dee03dc08d3f3f491","infreq","img/green_2bandit_a2.png","68","68","test","1","74","74","4","",""
"null","303902","pSARL_v2","pSARL_v2tgczxhkj","5fd7782dee03dc08d3f3f491","infreq_resp","img/green_2bandit_a.png","68","68","test","","","","4","",""
"null","304070","pSARL_v2","pSARL_v2tgczxhkj","5fd7782dee03dc08d3f3f491","fixation","img/fixation.png","null","","test","","","","","",""
"287.5","304360","pSARL_v2","pSARL_v2tgczxhkj","5fd7782dee03dc08d3f3f491","freq","img/orange_2bandit_a2.png","70","70","test","1","75","75","4","",""
"null","304879","pSARL_v2","pSARL_v2tgczxhkj","5fd7782dee03dc08d3f3f491","freq_resp","img/orange_2bandit_a.png","70","70","test","","","","4","",""
"null","305035","pSARL_v2","pSARL_v2tgczxhkj","5fd7782dee03dc08d3f3f491","fixation","img/fixation.png","null","","test","","","","","",""
"270.59999999403954","305308","pSARL_v2","pSARL_v2tgczxhkj","5fd7782dee03dc08d3f3f491","freq","img/orange_2bandit_a2.png","70","70","test","1","76","76","4","",""
"null","305843","pSARL_v2","pSARL_v2tgczxhkj","5fd7782dee03dc08d3f3f491","freq_resp","img/orange_2bandit_a.png","70","70","test","","","","4","",""
"null","305998","pSARL_v2","pSARL_v2tgczxhkj","5fd7782dee03dc08d3f3f491","fixation","img/fixation.png","null","","test","","","","","",""
"209.90000000596046","306211","pSARL_v2","pSARL_v2tgczxhkj","5fd7782dee03dc08d3f3f491","freq","img/orange_2bandit_a2.png","70","70","test","1","77","77","4","",""
"null","306807","pSARL_v2","pSARL_v2tgczxhkj","5fd7782dee03dc08d3f3f491","freq_resp","img/orange_2bandit_a.png","70","70","test","","","","4","",""
"null","306962","pSARL_v2","pSARL_v2tgczxhkj","5fd7782dee03dc08d3f3f491","fixation","img/fixation.png","null","","test","","","","","",""
"224.1000000089407","307189","pSARL_v2","pSARL_v2tgczxhkj","5fd7782dee03dc08d3f3f491","freq","img/orange_2bandit_a2.png","70","70","test","1","78","78","4","",""
"null","307771","pSARL_v2","pSARL_v2tgczxhkj","5fd7782dee03dc08d3f3f491","freq_resp","img/orange_2bandit_a.png","70","70","test","","","","4","",""
"null","307927","pSARL_v2","pSARL_v2tgczxhkj","5fd7782dee03dc08d3f3f491","fixation","img/fixation.png","null","","test","","","","","",""
"204.29999999701977","308133","pSARL_v2","pSARL_v2tgczxhkj","5fd7782dee03dc08d3f3f491","freq","img/orange_2bandit_a2.png","70","70","test","1","79","79","4","",""
"null","308736","pSARL_v2","pSARL_v2tgczxhkj","5fd7782dee03dc08d3f3f491","freq_resp","img/orange_2bandit_a.png","70","70","test","","","","4","",""
"null","308892","pSARL_v2","pSARL_v2tgczxhkj","5fd7782dee03dc08d3f3f491","fixation","img/fixation.png","null","","test","","","","","",""
"217.5","309112","pSARL_v2","pSARL_v2tgczxhkj","5fd7782dee03dc08d3f3f491","freq","img/orange_2bandit_a2.png","70","70","test","1","80","80","4","",""
"null","309714","pSARL_v2","pSARL_v2tgczxhkj","5fd7782dee03dc08d3f3f491","freq_resp","img/orange_2bandit_a.png","70","70","test","","","","4","",""
"null","309868","pSARL_v2","pSARL_v2tgczxhkj","5fd7782dee03dc08d3f3f491","fixation","img/fixation.png","null","","test","","","","","",""
"225.09999999403954","310095","pSARL_v2","pSARL_v2tgczxhkj","5fd7782dee03dc08d3f3f491","freq","img/orange_2bandit_a2.png","70","70","test","1","81","81","4","",""
"null","310677","pSARL_v2","pSARL_v2tgczxhkj","5fd7782dee03dc08d3f3f491","freq_resp","img/orange_2bandit_a.png","70","70","test","","","","4","",""
"null","310834","pSARL_v2","pSARL_v2tgczxhkj","5fd7782dee03dc08d3f3f491","fixation","img/fixation.png","null","","test","","","","","",""
"224.29999999701977","311060","pSARL_v2","pSARL_v2tgczxhkj","5fd7782dee03dc08d3f3f491","freq","img/orange_2bandit_a2.png","70","70","test","1","82","82","4","",""
"null","311646","pSARL_v2","pSARL_v2tgczxhkj","5fd7782dee03dc08d3f3f491","freq_resp","img/orange_2bandit_a.png","70","70","test","","","","4","",""
"null","311803","pSARL_v2","pSARL_v2tgczxhkj","5fd7782dee03dc08d3f3f491","fixation","img/fixation.png","null","","test","","","","","",""
"225.79999999701977","312032","pSARL_v2","pSARL_v2tgczxhkj","5fd7782dee03dc08d3f3f491","freq","img/orange_2bandit_a2.png","70","70","test","1","83","83","4","",""
"null","312622","pSARL_v2","pSARL_v2tgczxhkj","5fd7782dee03dc08d3f3f491","freq_resp","img/orange_2bandit_a.png","70","70","test","","","","4","",""
"null","312778","pSARL_v2","pSARL_v2tgczxhkj","5fd7782dee03dc08d3f3f491","fixation","img/fixation.png","null","","test","","","","","",""
"390.20000000298023","313170","pSARL_v2","pSARL_v2tgczxhkj","5fd7782dee03dc08d3f3f491","infreq","img/green_2bandit_a2.png","68","68","test","1","84","84","4","",""
"null","313586","pSARL_v2","pSARL_v2tgczxhkj","5fd7782dee03dc08d3f3f491","infreq_resp","img/green_2bandit_a.png","68","68","test","","","","4","",""
"null","313741","pSARL_v2","pSARL_v2tgczxhkj","5fd7782dee03dc08d3f3f491","fixation","img/fixation.png","null","","test","","","","","",""
"346.59999999403954","314090","pSARL_v2","pSARL_v2tgczxhkj","5fd7782dee03dc08d3f3f491","freq","img/orange_2bandit_a2.png","70","70","test","1","85","85","4","",""
"null","314549","pSARL_v2","pSARL_v2tgczxhkj","5fd7782dee03dc08d3f3f491","freq_resp","img/orange_2bandit_a.png","70","70","test","","","","4","",""
"null","314705","pSARL_v2","pSARL_v2tgczxhkj","5fd7782dee03dc08d3f3f491","fixation","img/fixation.png","null","","test","","","","","",""
"313.70000000298023","315020","pSARL_v2","pSARL_v2tgczxhkj","5fd7782dee03dc08d3f3f491","freq","img/orange_2bandit_a2.png","70","70","test","1","86","86","4","",""
"null","315520","pSARL_v2","pSARL_v2tgczxhkj","5fd7782dee03dc08d3f3f491","freq_resp","img/orange_2bandit_a.png","70","70","test","","","","4","",""
"null","315675","pSARL_v2","pSARL_v2tgczxhkj","5fd7782dee03dc08d3f3f491","fixation","img/fixation.png","null","","test","","","","","",""
"316.40000000596046","315993","pSARL_v2","pSARL_v2tgczxhkj","5fd7782dee03dc08d3f3f491","freq","img/orange_2bandit_a2.png","70","70","test","1","87","87","4","",""
"null","316482","pSARL_v2","pSARL_v2tgczxhkj","5fd7782dee03dc08d3f3f491","freq_resp","img/orange_2bandit_a.png","70","70","test","","","","4","",""
"null","316638","pSARL_v2","pSARL_v2tgczxhkj","5fd7782dee03dc08d3f3f491","fixation","img/fixation.png","null","","test","","","","","",""
"260.20000000298023","316901","pSARL_v2","pSARL_v2tgczxhkj","5fd7782dee03dc08d3f3f491","freq","img/orange_2bandit_a2.png","70","70","test","1","88","88","4","",""
"null","317447","pSARL_v2","pSARL_v2tgczxhkj","5fd7782dee03dc08d3f3f491","freq_resp","img/orange_2bandit_a.png","70","70","test","","","","4","",""
"null","317601","pSARL_v2","pSARL_v2tgczxhkj","5fd7782dee03dc08d3f3f491","fixation","img/fixation.png","null","","test","","","","","",""
"257.20000000298023","317860","pSARL_v2","pSARL_v2tgczxhkj","5fd7782dee03dc08d3f3f491","freq","img/orange_2bandit_a2.png","70","70","test","1","89","89","4","",""
"null","318410","pSARL_v2","pSARL_v2tgczxhkj","5fd7782dee03dc08d3f3f491","freq_resp","img/orange_2bandit_a.png","70","70","test","","","","4","",""
"null","318565","pSARL_v2","pSARL_v2tgczxhkj","5fd7782dee03dc08d3f3f491","fixation","img/fixation.png","null","","test","","","","","",""
"299.20000000298023","318866","pSARL_v2","pSARL_v2tgczxhkj","5fd7782dee03dc08d3f3f491","freq","img/orange_2bandit_a2.png","70","70","test","1","90","90","4","",""
"null","319372","pSARL_v2","pSARL_v2tgczxhkj","5fd7782dee03dc08d3f3f491","freq_resp","img/orange_2bandit_a.png","70","70","test","","","","4","",""
"null","319530","pSARL_v2","pSARL_v2tgczxhkj","5fd7782dee03dc08d3f3f491","fixation","img/fixation.png","null","","test","","","","","",""
"320.09999999403954","319852","pSARL_v2","pSARL_v2tgczxhkj","5fd7782dee03dc08d3f3f491","freq","img/orange_2bandit_a2.png","70","70","test","1","91","91","4","",""
"null","320338","pSARL_v2","pSARL_v2tgczxhkj","5fd7782dee03dc08d3f3f491","freq_resp","img/orange_2bandit_a.png","70","70","test","","","","4","",""
"null","320494","pSARL_v2","pSARL_v2tgczxhkj","5fd7782dee03dc08d3f3f491","fixation","img/fixation.png","null","","test","","","","","",""
"443","320939","pSARL_v2","pSARL_v2tgczxhkj","5fd7782dee03dc08d3f3f491","reward","img/slot.png","74","","test","","","","","",""
"null","321697","pSARL_v2","pSARL_v2tgczxhkj","5fd7782dee03dc08d3f3f491","points","<div class=""verylowPoints""> -3 </div>","null","na","test","","","","4","-3","3"
"580.9000000059605","322280","pSARL_v2","pSARL_v2tgczxhkj","5fd7782dee03dc08d3f3f491","freq","img/orange_2bandit_a2.png","68","70","test","0","92","92","5","",""
"null","322507","pSARL_v2","pSARL_v2tgczxhkj","5fd7782dee03dc08d3f3f491","freq_resp","img/orange_2bandit_a.png","68","70","test","","","","5","",""
"null","322661","pSARL_v2","pSARL_v2tgczxhkj","5fd7782dee03dc08d3f3f491","fixation","img/fixation.png","null","","test","","","","","",""
"414.70000000298023","323078","pSARL_v2","pSARL_v2tgczxhkj","5fd7782dee03dc08d3f3f491","freq","img/orange_2bandit_a2.png","70","70","test","1","93","93","5","",""
"null","323469","pSARL_v2","pSARL_v2tgczxhkj","5fd7782dee03dc08d3f3f491","freq_resp","img/orange_2bandit_a.png","70","70","test","","","","5","",""
"null","323627","pSARL_v2","pSARL_v2tgczxhkj","5fd7782dee03dc08d3f3f491","fixation","img/fixation.png","null","","test","","","","","",""
"342.40000000596046","323972","pSARL_v2","pSARL_v2tgczxhkj","5fd7782dee03dc08d3f3f491","freq","img/orange_2bandit_a2.png","70","70","test","1","94","94","5","",""
"null","324436","pSARL_v2","pSARL_v2tgczxhkj","5fd7782dee03dc08d3f3f491","freq_resp","img/orange_2bandit_a.png","70","70","test","","","","5","",""
"null","324590","pSARL_v2","pSARL_v2tgczxhkj","5fd7782dee03dc08d3f3f491","fixation","img/fixation.png","null","","test","","","","","",""
"422.5","325015","pSARL_v2","pSARL_v2tgczxhkj","5fd7782dee03dc08d3f3f491","infreq","img/green_2bandit_a2.png","68","68","test","1","95","95","5","",""
"null","325399","pSARL_v2","pSARL_v2tgczxhkj","5fd7782dee03dc08d3f3f491","infreq_resp","img/green_2bandit_a.png","68","68","test","","","","5","",""
"null","325554","pSARL_v2","pSARL_v2tgczxhkj","5fd7782dee03dc08d3f3f491","fixation","img/fixation.png","null","","test","","","","","",""
"301.20000000298023","325858","pSARL_v2","pSARL_v2tgczxhkj","5fd7782dee03dc08d3f3f491","freq","img/orange_2bandit_a2.png","70","70","test","1","96","96","5","",""
"null","326358","pSARL_v2","pSARL_v2tgczxhkj","5fd7782dee03dc08d3f3f491","freq_resp","img/orange_2bandit_a.png","70","70","test","","","","5","",""
"null","326513","pSARL_v2","pSARL_v2tgczxhkj","5fd7782dee03dc08d3f3f491","fixation","img/fixation.png","null","","test","","","","","",""
"375.19999998807907","326891","pSARL_v2","pSARL_v2tgczxhkj","5fd7782dee03dc08d3f3f491","infreq","img/green_2bandit_a2.png","68","68","test","1","97","97","5","",""
"null","327322","pSARL_v2","pSARL_v2tgczxhkj","5fd7782dee03dc08d3f3f491","infreq_resp","img/green_2bandit_a.png","68","68","test","","","","5","",""
"null","327477","pSARL_v2","pSARL_v2tgczxhkj","5fd7782dee03dc08d3f3f491","fixation","img/fixation.png","null","","test","","","","","",""
"377.20000000298023","327856","pSARL_v2","pSARL_v2tgczxhkj","5fd7782dee03dc08d3f3f491","freq","img/orange_2bandit_a2.png","70","70","test","1","98","98","5","",""
"null","328287","pSARL_v2","pSARL_v2tgczxhkj","5fd7782dee03dc08d3f3f491","freq_resp","img/orange_2bandit_a.png","70","70","test","","","","5","",""
"null","328441","pSARL_v2","pSARL_v2tgczxhkj","5fd7782dee03dc08d3f3f491","fixation","img/fixation.png","null","","test","","","","","",""
"365.1000000089407","328808","pSARL_v2","pSARL_v2tgczxhkj","5fd7782dee03dc08d3f3f491","freq","img/orange_2bandit_a2.png","70","70","test","1","99","99","5","",""
"null","329250","pSARL_v2","pSARL_v2tgczxhkj","5fd7782dee03dc08d3f3f491","freq_resp","img/orange_2bandit_a.png","70","70","test","","","","5","",""
"null","329404","pSARL_v2","pSARL_v2tgczxhkj","5fd7782dee03dc08d3f3f491","fixation","img/fixation.png","null","","test","","","","","",""
"255.59999999403954","329662","pSARL_v2","pSARL_v2tgczxhkj","5fd7782dee03dc08d3f3f491","freq","img/orange_2bandit_a2.png","70","70","test","1","100","100","5","",""
"null","330213","pSARL_v2","pSARL_v2tgczxhkj","5fd7782dee03dc08d3f3f491","freq_resp","img/orange_2bandit_a.png","70","70","test","","","","5","",""
"null","330368","pSARL_v2","pSARL_v2tgczxhkj","5fd7782dee03dc08d3f3f491","fixation","img/fixation.png","null","","test","","","","","",""
"238.8999999910593","330609","pSARL_v2","pSARL_v2tgczxhkj","5fd7782dee03dc08d3f3f491","freq","img/orange_2bandit_a2.png","70","70","test","1","101","101","5","",""
"null","331187","pSARL_v2","pSARL_v2tgczxhkj","5fd7782dee03dc08d3f3f491","freq_resp","img/orange_2bandit_a.png","70","70","test","","","","5","",""
"null","331343","pSARL_v2","pSARL_v2tgczxhkj","5fd7782dee03dc08d3f3f491","fixation","img/fixation.png","null","","test","","","","","",""
"245","331590","pSARL_v2","pSARL_v2tgczxhkj","5fd7782dee03dc08d3f3f491","freq","img/orange_2bandit_a2.png","70","70","test","1","102","102","5","",""
"null","332151","pSARL_v2","pSARL_v2tgczxhkj","5fd7782dee03dc08d3f3f491","freq_resp","img/orange_2bandit_a.png","70","70","test","","","","5","",""
"null","332306","pSARL_v2","pSARL_v2tgczxhkj","5fd7782dee03dc08d3f3f491","fixation","img/fixation.png","null","","test","","","","","",""
"260.20000000298023","332568","pSARL_v2","pSARL_v2tgczxhkj","5fd7782dee03dc08d3f3f491","freq","img/orange_2bandit_a2.png","70","70","test","1","103","103","5","",""
"null","333112","pSARL_v2","pSARL_v2tgczxhkj","5fd7782dee03dc08d3f3f491","freq_resp","img/orange_2bandit_a.png","70","70","test","","","","5","",""
"null","333268","pSARL_v2","pSARL_v2tgczxhkj","5fd7782dee03dc08d3f3f491","fixation","img/fixation.png","null","","test","","","","","",""
"258","333528","pSARL_v2","pSARL_v2tgczxhkj","5fd7782dee03dc08d3f3f491","freq","img/orange_2bandit_a2.png","70","70","test","1","104","104","5","",""
"null","334079","pSARL_v2","pSARL_v2tgczxhkj","5fd7782dee03dc08d3f3f491","freq_resp","img/orange_2bandit_a.png","70","70","test","","","","5","",""
"null","334233","pSARL_v2","pSARL_v2tgczxhkj","5fd7782dee03dc08d3f3f491","fixation","img/fixation.png","null","","test","","","","","",""
"281","334516","pSARL_v2","pSARL_v2tgczxhkj","5fd7782dee03dc08d3f3f491","freq","img/orange_2bandit_a2.png","70","70","test","1","105","105","5","",""
"null","335044","pSARL_v2","pSARL_v2tgczxhkj","5fd7782dee03dc08d3f3f491","freq_resp","img/orange_2bandit_a.png","70","70","test","","","","5","",""
"null","335199","pSARL_v2","pSARL_v2tgczxhkj","5fd7782dee03dc08d3f3f491","fixation","img/fixation.png","null","","test","","","","","",""
"272.79999999701977","335474","pSARL_v2","pSARL_v2tgczxhkj","5fd7782dee03dc08d3f3f491","freq","img/orange_2bandit_a2.png","70","70","test","1","106","106","5","",""
"null","336012","pSARL_v2","pSARL_v2tgczxhkj","5fd7782dee03dc08d3f3f491","freq_resp","img/orange_2bandit_a.png","70","70","test","","","","5","",""
"null","336180","pSARL_v2","pSARL_v2tgczxhkj","5fd7782dee03dc08d3f3f491","fixation","img/fixation.png","null","","test","","","","","",""
"281.5","336465","pSARL_v2","pSARL_v2tgczxhkj","5fd7782dee03dc08d3f3f491","freq","img/orange_2bandit_a2.png","70","70","test","1","107","107","5","",""
"null","336990","pSARL_v2","pSARL_v2tgczxhkj","5fd7782dee03dc08d3f3f491","freq_resp","img/orange_2bandit_a.png","70","70","test","","","","5","",""
"null","337144","pSARL_v2","pSARL_v2tgczxhkj","5fd7782dee03dc08d3f3f491","fixation","img/fixation.png","null","","test","","","","","",""
"233.80000001192093","337380","pSARL_v2","pSARL_v2tgczxhkj","5fd7782dee03dc08d3f3f491","freq","img/orange_2bandit_a2.png","70","70","test","1","108","108","5","",""
"null","337954","pSARL_v2","pSARL_v2tgczxhkj","5fd7782dee03dc08d3f3f491","freq_resp","img/orange_2bandit_a.png","70","70","test","","","","5","",""
"null","338109","pSARL_v2","pSARL_v2tgczxhkj","5fd7782dee03dc08d3f3f491","fixation","img/fixation.png","null","","test","","","","","",""
"227.79999999701977","338339","pSARL_v2","pSARL_v2tgczxhkj","5fd7782dee03dc08d3f3f491","freq","img/orange_2bandit_a2.png","70","70","test","1","109","109","5","",""
"null","338918","pSARL_v2","pSARL_v2tgczxhkj","5fd7782dee03dc08d3f3f491","freq_resp","img/orange_2bandit_a.png","70","70","test","","","","5","",""
"null","339074","pSARL_v2","pSARL_v2tgczxhkj","5fd7782dee03dc08d3f3f491","fixation","img/fixation.png","null","","test","","","","","",""
"232.80000001192093","339309","pSARL_v2","pSARL_v2tgczxhkj","5fd7782dee03dc08d3f3f491","freq","img/orange_2bandit_a2.png","70","70","test","1","110","110","5","",""
"null","339881","pSARL_v2","pSARL_v2tgczxhkj","5fd7782dee03dc08d3f3f491","freq_resp","img/orange_2bandit_a.png","70","70","test","","","","5","",""
"null","340036","pSARL_v2","pSARL_v2tgczxhkj","5fd7782dee03dc08d3f3f491","fixation","img/fixation.png","null","","test","","","","","",""
"222.20000000298023","340261","pSARL_v2","pSARL_v2tgczxhkj","5fd7782dee03dc08d3f3f491","freq","img/orange_2bandit_a2.png","70","70","test","1","111","111","5","",""
"null","340843","pSARL_v2","pSARL_v2tgczxhkj","5fd7782dee03dc08d3f3f491","freq_resp","img/orange_2bandit_a.png","70","70","test","","","","5","",""
"null","341002","pSARL_v2","pSARL_v2tgczxhkj","5fd7782dee03dc08d3f3f491","fixation","img/fixation.png","null","","test","","","","","",""
"null","341813","pSARL_v2","pSARL_v2tgczxhkj","5fd7782dee03dc08d3f3f491","infreq","img/green_2bandit_a2.png","null","68","test","0","112","112","5","",""
"null","341968","pSARL_v2","pSARL_v2tgczxhkj","5fd7782dee03dc08d3f3f491","fixation","img/fixation.png","null","","test","","","","","",""
"451.29999999701977","342422","pSARL_v2","pSARL_v2tgczxhkj","5fd7782dee03dc08d3f3f491","freq","img/orange_2bandit_a2.png","70","70","test","1","113","113","5","",""
"null","342777","pSARL_v2","pSARL_v2tgczxhkj","5fd7782dee03dc08d3f3f491","freq_resp","img/orange_2bandit_a.png","70","70","test","","","","5","",""
"null","342931","pSARL_v2","pSARL_v2tgczxhkj","5fd7782dee03dc08d3f3f491","fixation","img/fixation.png","null","","test","","","","","",""
"413.59999999403954","343347","pSARL_v2","pSARL_v2tgczxhkj","5fd7782dee03dc08d3f3f491","freq","img/orange_2bandit_a2.png","70","70","test","1","114","114","5","",""
"null","343744","pSARL_v2","pSARL_v2tgczxhkj","5fd7782dee03dc08d3f3f491","freq_resp","img/orange_2bandit_a.png","70","70","test","","","","5","",""
"null","343911","pSARL_v2","pSARL_v2tgczxhkj","5fd7782dee03dc08d3f3f491","fixation","img/fixation.png","null","","test","","","","","",""
"344.59999999403954","344258","pSARL_v2","pSARL_v2tgczxhkj","5fd7782dee03dc08d3f3f491","reward","img/slot.png","74","","test","","","","","",""
"null","345023","pSARL_v2","pSARL_v2tgczxhkj","5fd7782dee03dc08d3f3f491","points","<div class=""veryhighPoints""> +1 </div>","null","na","test","","","","5","1","4"
"470.79999999701977","345496","pSARL_v2","pSARL_v2tgczxhkj","5fd7782dee03dc08d3f3f491","freq","img/orange_2bandit_a2.png","70","70","test","1","115","115","6","",""
"null","345833","pSARL_v2","pSARL_v2tgczxhkj","5fd7782dee03dc08d3f3f491","freq_resp","img/orange_2bandit_a.png","70","70","test","","","","6","",""
"null","345988","pSARL_v2","pSARL_v2tgczxhkj","5fd7782dee03dc08d3f3f491","fixation","img/fixation.png","null","","test","","","","","",""
"381.90000000596046","346373","pSARL_v2","pSARL_v2tgczxhkj","5fd7782dee03dc08d3f3f491","freq","img/orange_2bandit_a2.png","70","70","test","1","116","116","6","",""
"null","346795","pSARL_v2","pSARL_v2tgczxhkj","5fd7782dee03dc08d3f3f491","freq_resp","img/orange_2bandit_a.png","70","70","test","","","","6","",""
"null","346951","pSARL_v2","pSARL_v2tgczxhkj","5fd7782dee03dc08d3f3f491","fixation","img/fixation.png","null","","test","","","","","",""
"293","347246","pSARL_v2","pSARL_v2tgczxhkj","5fd7782dee03dc08d3f3f491","freq","img/orange_2bandit_a2.png","70","70","test","1","117","117","6","",""
"null","347761","pSARL_v2","pSARL_v2tgczxhkj","5fd7782dee03dc08d3f3f491","freq_resp","img/orange_2bandit_a.png","70","70","test","","","","6","",""
"null","347916","pSARL_v2","pSARL_v2tgczxhkj","5fd7782dee03dc08d3f3f491","fixation","img/fixation.png","null","","test","","","","","",""
"297.5","348216","pSARL_v2","pSARL_v2tgczxhkj","5fd7782dee03dc08d3f3f491","freq","img/orange_2bandit_a2.png","70","70","test","1","118","118","6","",""
"null","348725","pSARL_v2","pSARL_v2tgczxhkj","5fd7782dee03dc08d3f3f491","freq_resp","img/orange_2bandit_a.png","70","70","test","","","","6","",""
"null","348894","pSARL_v2","pSARL_v2tgczxhkj","5fd7782dee03dc08d3f3f491","fixation","img/fixation.png","null","","test","","","","","",""
"398","349294","pSARL_v2","pSARL_v2tgczxhkj","5fd7782dee03dc08d3f3f491","infreq","img/green_2bandit_a2.png","68","68","test","1","119","119","6","",""
"null","349707","pSARL_v2","pSARL_v2tgczxhkj","5fd7782dee03dc08d3f3f491","infreq_resp","img/green_2bandit_a.png","68","68","test","","","","6","",""
"null","349862","pSARL_v2","pSARL_v2tgczxhkj","5fd7782dee03dc08d3f3f491","fixation","img/fixation.png","null","","test","","","","","",""
"385.70000000298023","350250","pSARL_v2","pSARL_v2tgczxhkj","5fd7782dee03dc08d3f3f491","freq","img/orange_2bandit_a2.png","70","70","test","1","120","120","6","",""
"null","350669","pSARL_v2","pSARL_v2tgczxhkj","5fd7782dee03dc08d3f3f491","freq_resp","img/orange_2bandit_a.png","70","70","test","","","","6","",""
"null","350825","pSARL_v2","pSARL_v2tgczxhkj","5fd7782dee03dc08d3f3f491","fixation","img/fixation.png","null","","test","","","","","",""
"284.29999999701977","351112","pSARL_v2","pSARL_v2tgczxhkj","5fd7782dee03dc08d3f3f491","freq","img/orange_2bandit_a2.png","70","70","test","1","121","121","6","",""
"null","351631","pSARL_v2","pSARL_v2tgczxhkj","5fd7782dee03dc08d3f3f491","freq_resp","img/orange_2bandit_a.png","70","70","test","","","","6","",""
"null","351799","pSARL_v2","pSARL_v2tgczxhkj","5fd7782dee03dc08d3f3f491","fixation","img/fixation.png","null","","test","","","","","",""
"209.40000000596046","352011","pSARL_v2","pSARL_v2tgczxhkj","5fd7782dee03dc08d3f3f491","freq","img/orange_2bandit_a2.png","70","70","test","1","122","122","6","",""
"null","352611","pSARL_v2","pSARL_v2tgczxhkj","5fd7782dee03dc08d3f3f491","freq_resp","img/orange_2bandit_a.png","70","70","test","","","","6","",""
"null","352768","pSARL_v2","pSARL_v2tgczxhkj","5fd7782dee03dc08d3f3f491","fixation","img/fixation.png","null","","test","","","","","",""
"172.70000000298023","352943","pSARL_v2","pSARL_v2tgczxhkj","5fd7782dee03dc08d3f3f491","freq","img/orange_2bandit_a2.png","70","70","test","1","123","123","6","",""
"null","353576","pSARL_v2","pSARL_v2tgczxhkj","5fd7782dee03dc08d3f3f491","freq_resp","img/orange_2bandit_a.png","70","70","test","","","","6","",""
"null","353730","pSARL_v2","pSARL_v2tgczxhkj","5fd7782dee03dc08d3f3f491","fixation","img/fixation.png","null","","test","","","","","",""
"219.19999998807907","353952","pSARL_v2","pSARL_v2tgczxhkj","5fd7782dee03dc08d3f3f491","freq","img/orange_2bandit_a2.png","70","70","test","1","124","124","6","",""
"null","354537","pSARL_v2","pSARL_v2tgczxhkj","5fd7782dee03dc08d3f3f491","freq_resp","img/orange_2bandit_a.png","70","70","test","","","","6","",""
"null","354693","pSARL_v2","pSARL_v2tgczxhkj","5fd7782dee03dc08d3f3f491","fixation","img/fixation.png","null","","test","","","","","",""
"222.20000000298023","354918","pSARL_v2","pSARL_v2tgczxhkj","5fd7782dee03dc08d3f3f491","freq","img/orange_2bandit_a2.png","70","70","test","1","125","125","6","",""
"null","355501","pSARL_v2","pSARL_v2tgczxhkj","5fd7782dee03dc08d3f3f491","freq_resp","img/orange_2bandit_a.png","70","70","test","","","","6","",""
"null","355655","pSARL_v2","pSARL_v2tgczxhkj","5fd7782dee03dc08d3f3f491","fixation","img/fixation.png","null","","test","","","","","",""
"279.79999999701977","355937","pSARL_v2","pSARL_v2tgczxhkj","5fd7782dee03dc08d3f3f491","freq","img/orange_2bandit_a2.png","70","70","test","1","126","126","6","",""
"null","356461","pSARL_v2","pSARL_v2tgczxhkj","5fd7782dee03dc08d3f3f491","freq_resp","img/orange_2bandit_a.png","70","70","test","","","","6","",""
"null","356615","pSARL_v2","pSARL_v2tgczxhkj","5fd7782dee03dc08d3f3f491","fixation","img/fixation.png","null","","test","","","","","",""
"273.20000000298023","356890","pSARL_v2","pSARL_v2tgczxhkj","5fd7782dee03dc08d3f3f491","freq","img/orange_2bandit_a2.png","70","70","test","1","127","127","6","",""
"null","357423","pSARL_v2","pSARL_v2tgczxhkj","5fd7782dee03dc08d3f3f491","freq_resp","img/orange_2bandit_a.png","70","70","test","","","","6","",""
"null","357579","pSARL_v2","pSARL_v2tgczxhkj","5fd7782dee03dc08d3f3f491","fixation","img/fixation.png","null","","test","","","","","",""
"261.90000000596046","357843","pSARL_v2","pSARL_v2tgczxhkj","5fd7782dee03dc08d3f3f491","freq","img/orange_2bandit_a2.png","70","70","test","1","128","128","6","",""
"null","358400","pSARL_v2","pSARL_v2tgczxhkj","5fd7782dee03dc08d3f3f491","freq_resp","img/orange_2bandit_a.png","70","70","test","","","","6","",""
"null","358555","pSARL_v2","pSARL_v2tgczxhkj","5fd7782dee03dc08d3f3f491","fixation","img/fixation.png","null","","test","","","","","",""
"256.79999999701977","358814","pSARL_v2","pSARL_v2tgczxhkj","5fd7782dee03dc08d3f3f491","freq","img/orange_2bandit_a2.png","70","70","test","1","129","129","6","",""
"null","359367","pSARL_v2","pSARL_v2tgczxhkj","5fd7782dee03dc08d3f3f491","freq_resp","img/orange_2bandit_a.png","70","70","test","","","","6","",""
"null","359522","pSARL_v2","pSARL_v2tgczxhkj","5fd7782dee03dc08d3f3f491","fixation","img/fixation.png","null","","test","","","","","",""
"265.20000000298023","359789","pSARL_v2","pSARL_v2tgczxhkj","5fd7782dee03dc08d3f3f491","freq","img/orange_2bandit_a2.png","70","70","test","1","130","130","6","",""
"null","360331","pSARL_v2","pSARL_v2tgczxhkj","5fd7782dee03dc08d3f3f491","freq_resp","img/orange_2bandit_a.png","70","70","test","","","","6","",""
"null","360489","pSARL_v2","pSARL_v2tgczxhkj","5fd7782dee03dc08d3f3f491","fixation","img/fixation.png","null","","test","","","","","",""
"371.59999999403954","360863","pSARL_v2","pSARL_v2tgczxhkj","5fd7782dee03dc08d3f3f491","infreq","img/green_2bandit_a2.png","68","68","test","1","131","131","6","",""
"null","361296","pSARL_v2","pSARL_v2tgczxhkj","5fd7782dee03dc08d3f3f491","infreq_resp","img/green_2bandit_a.png","68","68","test","","","","6","",""
"null","361453","pSARL_v2","pSARL_v2tgczxhkj","5fd7782dee03dc08d3f3f491","fixation","img/fixation.png","null","","test","","","","","",""
"263.90000000596046","361719","pSARL_v2","pSARL_v2tgczxhkj","5fd7782dee03dc08d3f3f491","freq","img/orange_2bandit_a2.png","70","70","test","1","132","132","6","",""
"null","362263","pSARL_v2","pSARL_v2tgczxhkj","5fd7782dee03dc08d3f3f491","freq_resp","img/orange_2bandit_a.png","70","70","test","","","","6","",""
"null","362418","pSARL_v2","pSARL_v2tgczxhkj","5fd7782dee03dc08d3f3f491","fixation","img/fixation.png","null","","test","","","","","",""
"267","362687","pSARL_v2","pSARL_v2tgczxhkj","5fd7782dee03dc08d3f3f491","freq","img/orange_2bandit_a2.png","70","70","test","1","133","133","6","",""
"null","363227","pSARL_v2","pSARL_v2tgczxhkj","5fd7782dee03dc08d3f3f491","freq_resp","img/orange_2bandit_a.png","70","70","test","","","","6","",""
"null","363383","pSARL_v2","pSARL_v2tgczxhkj","5fd7782dee03dc08d3f3f491","fixation","img/fixation.png","null","","test","","","","","",""
"259.5","363644","pSARL_v2","pSARL_v2tgczxhkj","5fd7782dee03dc08d3f3f491","freq","img/orange_2bandit_a2.png","70","70","test","1","134","134","6","",""
"null","364195","pSARL_v2","pSARL_v2tgczxhkj","5fd7782dee03dc08d3f3f491","freq_resp","img/orange_2bandit_a.png","70","70","test","","","","6","",""
"null","364350","pSARL_v2","pSARL_v2tgczxhkj","5fd7782dee03dc08d3f3f491","fixation","img/fixation.png","null","","test","","","","","",""
"243.40000000596046","364596","pSARL_v2","pSARL_v2tgczxhkj","5fd7782dee03dc08d3f3f491","freq","img/orange_2bandit_a2.png","70","70","test","1","135","135","6","",""
"null","365159","pSARL_v2","pSARL_v2tgczxhkj","5fd7782dee03dc08d3f3f491","freq_resp","img/orange_2bandit_a.png","70","70","test","","","","6","",""
"null","365316","pSARL_v2","pSARL_v2tgczxhkj","5fd7782dee03dc08d3f3f491","fixation","img/fixation.png","null","","test","","","","","",""
"206.1000000089407","365525","pSARL_v2","pSARL_v2tgczxhkj","5fd7782dee03dc08d3f3f491","freq","img/orange_2bandit_a2.png","70","70","test","1","136","136","6","",""
"null","366122","pSARL_v2","pSARL_v2tgczxhkj","5fd7782dee03dc08d3f3f491","freq_resp","img/orange_2bandit_a.png","70","70","test","","","","6","",""
"null","366278","pSARL_v2","pSARL_v2tgczxhkj","5fd7782dee03dc08d3f3f491","fixation","img/fixation.png","null","","test","","","","","",""
"389.8999999910593","366671","pSARL_v2","pSARL_v2tgczxhkj","5fd7782dee03dc08d3f3f491","reward","img/slot.png","74","","test","","","","","",""
"null","367427","pSARL_v2","pSARL_v2tgczxhkj","5fd7782dee03dc08d3f3f491","points","<div class=""verylowPoints""> -7 </div>","null","na","test","","","","6","-7","5"
"461.59999999403954","367891","pSARL_v2","pSARL_v2tgczxhkj","5fd7782dee03dc08d3f3f491","freq","img/orange_2bandit_a2.png","70","70","test","1","137","137","7","",""
"null","368234","pSARL_v2","pSARL_v2tgczxhkj","5fd7782dee03dc08d3f3f491","freq_resp","img/orange_2bandit_a.png","70","70","test","","","","7","",""
"null","368403","pSARL_v2","pSARL_v2tgczxhkj","5fd7782dee03dc08d3f3f491","fixation","img/fixation.png","null","","test","","","","","",""
"304.29999999701977","368710","pSARL_v2","pSARL_v2tgczxhkj","5fd7782dee03dc08d3f3f491","freq","img/orange_2bandit_a2.png","70","70","test","1","138","138","7","",""
"null","369212","pSARL_v2","pSARL_v2tgczxhkj","5fd7782dee03dc08d3f3f491","freq_resp","img/orange_2bandit_a.png","70","70","test","","","","7","",""
"null","369369","pSARL_v2","pSARL_v2tgczxhkj","5fd7782dee03dc08d3f3f491","fixation","img/fixation.png","null","","test","","","","","",""
"339.3999999910593","369711","pSARL_v2","pSARL_v2tgczxhkj","5fd7782dee03dc08d3f3f491","freq","img/orange_2bandit_a2.png","70","70","test","1","139","139","7","",""
"null","370176","pSARL_v2","pSARL_v2tgczxhkj","5fd7782dee03dc08d3f3f491","freq_resp","img/orange_2bandit_a.png","70","70","test","","","","7","",""
"null","370330","pSARL_v2","pSARL_v2tgczxhkj","5fd7782dee03dc08d3f3f491","fixation","img/fixation.png","null","","test","","","","","",""
"324.3999999910593","370657","pSARL_v2","pSARL_v2tgczxhkj","5fd7782dee03dc08d3f3f491","freq","img/orange_2bandit_a2.png","70","70","test","1","140","140","7","",""
"null","371148","pSARL_v2","pSARL_v2tgczxhkj","5fd7782dee03dc08d3f3f491","freq_resp","img/orange_2bandit_a.png","70","70","test","","","","7","",""
"null","371304","pSARL_v2","pSARL_v2tgczxhkj","5fd7782dee03dc08d3f3f491","fixation","img/fixation.png","null","","test","","","","","",""
"311.79999999701977","371618","pSARL_v2","pSARL_v2tgczxhkj","5fd7782dee03dc08d3f3f491","freq","img/orange_2bandit_a2.png","70","70","test","1","141","141","7","",""
"null","372111","pSARL_v2","pSARL_v2tgczxhkj","5fd7782dee03dc08d3f3f491","freq_resp","img/orange_2bandit_a.png","70","70","test","","","","7","",""
"null","372266","pSARL_v2","pSARL_v2tgczxhkj","5fd7782dee03dc08d3f3f491","fixation","img/fixation.png","null","","test","","","","","",""
"320.90000000596046","372589","pSARL_v2","pSARL_v2tgczxhkj","5fd7782dee03dc08d3f3f491","freq","img/orange_2bandit_a2.png","70","70","test","1","142","142","7","",""
"null","373084","pSARL_v2","pSARL_v2tgczxhkj","5fd7782dee03dc08d3f3f491","freq_resp","img/orange_2bandit_a.png","70","70","test","","","","7","",""
"null","373240","pSARL_v2","pSARL_v2tgczxhkj","5fd7782dee03dc08d3f3f491","fixation","img/fixation.png","null","","test","","","","","",""
"302.40000000596046","373545","pSARL_v2","pSARL_v2tgczxhkj","5fd7782dee03dc08d3f3f491","freq","img/orange_2bandit_a2.png","70","70","test","1","143","143","7","",""
"null","374046","pSARL_v2","pSARL_v2tgczxhkj","5fd7782dee03dc08d3f3f491","freq_resp","img/orange_2bandit_a.png","70","70","test","","","","7","",""
"null","374202","pSARL_v2","pSARL_v2tgczxhkj","5fd7782dee03dc08d3f3f491","fixation","img/fixation.png","null","","test","","","","","",""
"371.90000000596046","374576","pSARL_v2","pSARL_v2tgczxhkj","5fd7782dee03dc08d3f3f491","infreq","img/green_2bandit_a2.png","68","68","test","1","144","144","7","",""
"null","375013","pSARL_v2","pSARL_v2tgczxhkj","5fd7782dee03dc08d3f3f491","infreq_resp","img/green_2bandit_a.png","68","68","test","","","","7","",""
"null","375171","pSARL_v2","pSARL_v2tgczxhkj","5fd7782dee03dc08d3f3f491","fixation","img/fixation.png","null","","test","","","","","",""
"359.90000000596046","375533","pSARL_v2","pSARL_v2tgczxhkj","5fd7782dee03dc08d3f3f491","infreq","img/green_2bandit_a2.png","68","68","test","1","145","145","7","",""
"null","375989","pSARL_v2","pSARL_v2tgczxhkj","5fd7782dee03dc08d3f3f491","infreq_resp","img/green_2bandit_a.png","68","68","test","","","","7","",""
"null","376142","pSARL_v2","pSARL_v2tgczxhkj","5fd7782dee03dc08d3f3f491","fixation","img/fixation.png","null","","test","","","","","",""
"337.29999999701977","376482","pSARL_v2","pSARL_v2tgczxhkj","5fd7782dee03dc08d3f3f491","freq","img/orange_2bandit_a2.png","70","70","test","1","146","146","7","",""
"null","376958","pSARL_v2","pSARL_v2tgczxhkj","5fd7782dee03dc08d3f3f491","freq_resp","img/orange_2bandit_a.png","70","70","test","","","","7","",""
"null","377114","pSARL_v2","pSARL_v2tgczxhkj","5fd7782dee03dc08d3f3f491","fixation","img/fixation.png","null","","test","","","","","",""
"255.1000000089407","377371","pSARL_v2","pSARL_v2tgczxhkj","5fd7782dee03dc08d3f3f491","freq","img/orange_2bandit_a2.png","70","70","test","1","147","147","7","",""
"null","377922","pSARL_v2","pSARL_v2tgczxhkj","5fd7782dee03dc08d3f3f491","freq_resp","img/orange_2bandit_a.png","70","70","test","","","","7","",""
"null","378078","pSARL_v2","pSARL_v2tgczxhkj","5fd7782dee03dc08d3f3f491","fixation","img/fixation.png","null","","test","","","","","",""
"257.09999999403954","378337","pSARL_v2","pSARL_v2tgczxhkj","5fd7782dee03dc08d3f3f491","freq","img/orange_2bandit_a2.png","70","70","test","1","148","148","7","",""
"null","378889","pSARL_v2","pSARL_v2tgczxhkj","5fd7782dee03dc08d3f3f491","freq_resp","img/orange_2bandit_a.png","70","70","test","","","","7","",""
"null","379043","pSARL_v2","pSARL_v2tgczxhkj","5fd7782dee03dc08d3f3f491","fixation","img/fixation.png","null","","test","","","","","",""
"261.1000000089407","379307","pSARL_v2","pSARL_v2tgczxhkj","5fd7782dee03dc08d3f3f491","freq","img/orange_2bandit_a2.png","70","70","test","1","149","149","7","",""
"null","379853","pSARL_v2","pSARL_v2tgczxhkj","5fd7782dee03dc08d3f3f491","freq_resp","img/orange_2bandit_a.png","70","70","test","","","","7","",""
"null","380009","pSARL_v2","pSARL_v2tgczxhkj","5fd7782dee03dc08d3f3f491","fixation","img/fixation.png","null","","test","","","","","",""
"250.70000000298023","380262","pSARL_v2","pSARL_v2tgczxhkj","5fd7782dee03dc08d3f3f491","freq","img/orange_2bandit_a2.png","70","70","test","1","150","150","7","",""
"null","380815","pSARL_v2","pSARL_v2tgczxhkj","5fd7782dee03dc08d3f3f491","freq_resp","img/orange_2bandit_a.png","70","70","test","","","","7","",""
"null","380972","pSARL_v2","pSARL_v2tgczxhkj","5fd7782dee03dc08d3f3f491","fixation","img/fixation.png","null","","test","","","","","",""
"242.70000000298023","381217","pSARL_v2","pSARL_v2tgczxhkj","5fd7782dee03dc08d3f3f491","freq","img/orange_2bandit_a2.png","70","70","test","1","151","151","7","",""
"null","381791","pSARL_v2","pSARL_v2tgczxhkj","5fd7782dee03dc08d3f3f491","freq_resp","img/orange_2bandit_a.png","70","70","test","","","","7","",""
"null","381947","pSARL_v2","pSARL_v2tgczxhkj","5fd7782dee03dc08d3f3f491","fixation","img/fixation.png","null","","test","","","","","",""
"179","382129","pSARL_v2","pSARL_v2tgczxhkj","5fd7782dee03dc08d3f3f491","freq","img/orange_2bandit_a2.png","70","70","test","1","152","152","7","",""
"null","382758","pSARL_v2","pSARL_v2tgczxhkj","5fd7782dee03dc08d3f3f491","freq_resp","img/orange_2bandit_a.png","70","70","test","","","","7","",""
"null","382916","pSARL_v2","pSARL_v2tgczxhkj","5fd7782dee03dc08d3f3f491","fixation","img/fixation.png","null","","test","","","","","",""
"226.5","383145","pSARL_v2","pSARL_v2tgczxhkj","5fd7782dee03dc08d3f3f491","freq","img/orange_2bandit_a2.png","70","70","test","1","153","153","7","",""
"null","383737","pSARL_v2","pSARL_v2tgczxhkj","5fd7782dee03dc08d3f3f491","freq_resp","img/orange_2bandit_a.png","70","70","test","","","","7","",""
"null","383892","pSARL_v2","pSARL_v2tgczxhkj","5fd7782dee03dc08d3f3f491","fixation","img/fixation.png","null","","test","","","","","",""
"209.79999999701977","384105","pSARL_v2","pSARL_v2tgczxhkj","5fd7782dee03dc08d3f3f491","freq","img/orange_2bandit_a2.png","70","70","test","1","154","154","7","",""
"null","384703","pSARL_v2","pSARL_v2tgczxhkj","5fd7782dee03dc08d3f3f491","freq_resp","img/orange_2bandit_a.png","70","70","test","","","","7","",""
"null","384857","pSARL_v2","pSARL_v2tgczxhkj","5fd7782dee03dc08d3f3f491","fixation","img/fixation.png","null","","test","","","","","",""
"226.90000000596046","385086","pSARL_v2","pSARL_v2tgczxhkj","5fd7782dee03dc08d3f3f491","freq","img/orange_2bandit_a2.png","70","70","test","1","155","155","7","",""
"null","385663","pSARL_v2","pSARL_v2tgczxhkj","5fd7782dee03dc08d3f3f491","freq_resp","img/orange_2bandit_a.png","70","70","test","","","","7","",""
"null","385820","pSARL_v2","pSARL_v2tgczxhkj","5fd7782dee03dc08d3f3f491","fixation","img/fixation.png","null","","test","","","","","",""
"243.19999998807907","386066","pSARL_v2","pSARL_v2tgczxhkj","5fd7782dee03dc08d3f3f491","freq","img/orange_2bandit_a2.png","70","70","test","1","156","156","7","",""
"null","386626","pSARL_v2","pSARL_v2tgczxhkj","5fd7782dee03dc08d3f3f491","freq_resp","img/orange_2bandit_a.png","70","70","test","","","","7","",""
"null","386780","pSARL_v2","pSARL_v2tgczxhkj","5fd7782dee03dc08d3f3f491","fixation","img/fixation.png","null","","test","","","","","",""
"248.5","387030","pSARL_v2","pSARL_v2tgczxhkj","5fd7782dee03dc08d3f3f491","freq","img/orange_2bandit_a2.png","70","70","test","1","157","157","7","",""
"null","387588","pSARL_v2","pSARL_v2tgczxhkj","5fd7782dee03dc08d3f3f491","freq_resp","img/orange_2bandit_a.png","70","70","test","","","","7","",""
"null","387743","pSARL_v2","pSARL_v2tgczxhkj","5fd7782dee03dc08d3f3f491","fixation","img/fixation.png","null","","test","","","","","",""
"263.20000000298023","388008","pSARL_v2","pSARL_v2tgczxhkj","5fd7782dee03dc08d3f3f491","freq","img/orange_2bandit_a2.png","70","70","test","1","158","158","7","",""
"null","388549","pSARL_v2","pSARL_v2tgczxhkj","5fd7782dee03dc08d3f3f491","freq_resp","img/orange_2bandit_a.png","70","70","test","","","","7","",""
"null","388704","pSARL_v2","pSARL_v2tgczxhkj","5fd7782dee03dc08d3f3f491","fixation","img/fixation.png","null","","test","","","","","",""
"258","388964","pSARL_v2","pSARL_v2tgczxhkj","5fd7782dee03dc08d3f3f491","freq","img/orange_2bandit_a2.png","70","70","test","1","159","159","7","",""
"null","389510","pSARL_v2","pSARL_v2tgczxhkj","5fd7782dee03dc08d3f3f491","freq_resp","img/orange_2bandit_a.png","70","70","test","","","","7","",""
"null","389666","pSARL_v2","pSARL_v2tgczxhkj","5fd7782dee03dc08d3f3f491","fixation","img/fixation.png","null","","test","","","","","",""
"259.40000000596046","389928","pSARL_v2","pSARL_v2tgczxhkj","5fd7782dee03dc08d3f3f491","freq","img/orange_2bandit_a2.png","70","70","test","1","160","160","7","",""
"null","390475","pSARL_v2","pSARL_v2tgczxhkj","5fd7782dee03dc08d3f3f491","freq_resp","img/orange_2bandit_a.png","70","70","test","","","","7","",""
"null","390634","pSARL_v2","pSARL_v2tgczxhkj","5fd7782dee03dc08d3f3f491","fixation","img/fixation.png","null","","test","","","","","",""
"291.29999999701977","390927","pSARL_v2","pSARL_v2tgczxhkj","5fd7782dee03dc08d3f3f491","reward","img/slot.png","74","","test","","","","","",""
"null","391695","pSARL_v2","pSARL_v2tgczxhkj","5fd7782dee03dc08d3f3f491","points","<div class=""verylowPoints""> -6 </div>","null","na","test","","","","7","-6","6"
"403","392101","pSARL_v2","pSARL_v2tgczxhkj","5fd7782dee03dc08d3f3f491","freq","img/orange_2bandit_a2.png","70","70","test","1","161","161","8","",""
"null","392503","pSARL_v2","pSARL_v2tgczxhkj","5fd7782dee03dc08d3f3f491","freq_resp","img/orange_2bandit_a.png","70","70","test","","","","8","",""
"null","392659","pSARL_v2","pSARL_v2tgczxhkj","5fd7782dee03dc08d3f3f491","fixation","img/fixation.png","null","","test","","","","","",""
"301.59999999403954","392963","pSARL_v2","pSARL_v2tgczxhkj","5fd7782dee03dc08d3f3f491","freq","img/orange_2bandit_a2.png","70","70","test","1","162","162","8","",""
"null","393464","pSARL_v2","pSARL_v2tgczxhkj","5fd7782dee03dc08d3f3f491","freq_resp","img/orange_2bandit_a.png","70","70","test","","","","8","",""
"null","393620","pSARL_v2","pSARL_v2tgczxhkj","5fd7782dee03dc08d3f3f491","fixation","img/fixation.png","null","","test","","","","","",""
"334.79999999701977","393957","pSARL_v2","pSARL_v2tgczxhkj","5fd7782dee03dc08d3f3f491","freq","img/orange_2bandit_a2.png","70","70","test","1","163","163","8","",""
"null","394430","pSARL_v2","pSARL_v2tgczxhkj","5fd7782dee03dc08d3f3f491","freq_resp","img/orange_2bandit_a.png","70","70","test","","","","8","",""
"null","394585","pSARL_v2","pSARL_v2tgczxhkj","5fd7782dee03dc08d3f3f491","fixation","img/fixation.png","null","","test","","","","","",""
"297.5","394885","pSARL_v2","pSARL_v2tgczxhkj","5fd7782dee03dc08d3f3f491","freq","img/orange_2bandit_a2.png","70","70","test","1","164","164","8","",""
"null","395394","pSARL_v2","pSARL_v2tgczxhkj","5fd7782dee03dc08d3f3f491","freq_resp","img/orange_2bandit_a.png","70","70","test","","","","8","",""
"null","395548","pSARL_v2","pSARL_v2tgczxhkj","5fd7782dee03dc08d3f3f491","fixation","img/fixation.png","null","","test","","","","","",""
"266.40000000596046","395817","pSARL_v2","pSARL_v2tgczxhkj","5fd7782dee03dc08d3f3f491","freq","img/orange_2bandit_a2.png","70","70","test","1","165","165","8","",""
"null","396358","pSARL_v2","pSARL_v2tgczxhkj","5fd7782dee03dc08d3f3f491","freq_resp","img/orange_2bandit_a.png","70","70","test","","","","8","",""
"null","396513","pSARL_v2","pSARL_v2tgczxhkj","5fd7782dee03dc08d3f3f491","fixation","img/fixation.png","null","","test","","","","","",""
"397.5","396913","pSARL_v2","pSARL_v2tgczxhkj","5fd7782dee03dc08d3f3f491","infreq","img/green_2bandit_a2.png","68","68","test","1","166","166","8","",""
"null","397324","pSARL_v2","pSARL_v2tgczxhkj","5fd7782dee03dc08d3f3f491","infreq_resp","img/green_2bandit_a.png","68","68","test","","","","8","",""
"null","397476","pSARL_v2","pSARL_v2tgczxhkj","5fd7782dee03dc08d3f3f491","fixation","img/fixation.png","null","","test","","","","","",""
"281.70000000298023","397761","pSARL_v2","pSARL_v2tgczxhkj","5fd7782dee03dc08d3f3f491","freq","img/orange_2bandit_a2.png","70","70","test","1","167","167","8","",""
"null","398288","pSARL_v2","pSARL_v2tgczxhkj","5fd7782dee03dc08d3f3f491","freq_resp","img/orange_2bandit_a.png","70","70","test","","","","8","",""
"null","398442","pSARL_v2","pSARL_v2tgczxhkj","5fd7782dee03dc08d3f3f491","fixation","img/fixation.png","null","","test","","","","","",""
"246","398691","pSARL_v2","pSARL_v2tgczxhkj","5fd7782dee03dc08d3f3f491","freq","img/orange_2bandit_a2.png","70","70","test","1","168","168","8","",""
"null","399263","pSARL_v2","pSARL_v2tgczxhkj","5fd7782dee03dc08d3f3f491","freq_resp","img/orange_2bandit_a.png","70","70","test","","","","8","",""
"null","399418","pSARL_v2","pSARL_v2tgczxhkj","5fd7782dee03dc08d3f3f491","fixation","img/fixation.png","null","","test","","","","","",""
"237.29999999701977","399657","pSARL_v2","pSARL_v2tgczxhkj","5fd7782dee03dc08d3f3f491","freq","img/orange_2bandit_a2.png","70","70","test","1","169","169","8","",""
"null","400238","pSARL_v2","pSARL_v2tgczxhkj","5fd7782dee03dc08d3f3f491","freq_resp","img/orange_2bandit_a.png","70","70","test","","","","8","",""
"null","400392","pSARL_v2","pSARL_v2tgczxhkj","5fd7782dee03dc08d3f3f491","fixation","img/fixation.png","null","","test","","","","","",""
"221.90000000596046","400616","pSARL_v2","pSARL_v2tgczxhkj","5fd7782dee03dc08d3f3f491","freq","img/orange_2bandit_a2.png","70","70","test","1","170","170","8","",""
"null","401203","pSARL_v2","pSARL_v2tgczxhkj","5fd7782dee03dc08d3f3f491","freq_resp","img/orange_2bandit_a.png","70","70","test","","","","8","",""
"null","401360","pSARL_v2","pSARL_v2tgczxhkj","5fd7782dee03dc08d3f3f491","fixation","img/fixation.png","null","","test","","","","","",""
"203","401565","pSARL_v2","pSARL_v2tgczxhkj","5fd7782dee03dc08d3f3f491","freq","img/orange_2bandit_a2.png","70","70","test","1","171","171","8","",""
"null","402179","pSARL_v2","pSARL_v2tgczxhkj","5fd7782dee03dc08d3f3f491","freq_resp","img/orange_2bandit_a.png","70","70","test","","","","8","",""
"null","402333","pSARL_v2","pSARL_v2tgczxhkj","5fd7782dee03dc08d3f3f491","fixation","img/fixation.png","null","","test","","","","","",""
"206.80000001192093","402542","pSARL_v2","pSARL_v2tgczxhkj","5fd7782dee03dc08d3f3f491","infreq","img/green_2bandit_a2.png","70","68","test","0","172","172","8","",""
"null","403144","pSARL_v2","pSARL_v2tgczxhkj","5fd7782dee03dc08d3f3f491","infreq_resp","img/green_2bandit_a.png","70","68","test","","","","8","",""
"null","403301","pSARL_v2","pSARL_v2tgczxhkj","5fd7782dee03dc08d3f3f491","fixation","img/fixation.png","null","","test","","","","","",""
"335.70000000298023","403640","pSARL_v2","pSARL_v2tgczxhkj","5fd7782dee03dc08d3f3f491","freq","img/orange_2bandit_a2.png","70","70","test","1","173","173","8","",""
"null","404120","pSARL_v2","pSARL_v2tgczxhkj","5fd7782dee03dc08d3f3f491","freq_resp","img/orange_2bandit_a.png","70","70","test","","","","8","",""
"null","404276","pSARL_v2","pSARL_v2tgczxhkj","5fd7782dee03dc08d3f3f491","fixation","img/fixation.png","null","","test","","","","","",""
"217.30000001192093","404496","pSARL_v2","pSARL_v2tgczxhkj","5fd7782dee03dc08d3f3f491","freq","img/orange_2bandit_a2.png","70","70","test","1","174","174","8","",""
"null","405094","pSARL_v2","pSARL_v2tgczxhkj","5fd7782dee03dc08d3f3f491","freq_resp","img/orange_2bandit_a.png","70","70","test","","","","8","",""
"null","405249","pSARL_v2","pSARL_v2tgczxhkj","5fd7782dee03dc08d3f3f491","fixation","img/fixation.png","null","","test","","","","","",""
"240.90000000596046","405492","pSARL_v2","pSARL_v2tgczxhkj","5fd7782dee03dc08d3f3f491","freq","img/orange_2bandit_a2.png","70","70","test","1","175","175","8","",""
"null","406057","pSARL_v2","pSARL_v2tgczxhkj","5fd7782dee03dc08d3f3f491","freq_resp","img/orange_2bandit_a.png","70","70","test","","","","8","",""
"null","406211","pSARL_v2","pSARL_v2tgczxhkj","5fd7782dee03dc08d3f3f491","fixation","img/fixation.png","null","","test","","","","","",""
"265.29999999701977","406479","pSARL_v2","pSARL_v2tgczxhkj","5fd7782dee03dc08d3f3f491","freq","img/orange_2bandit_a2.png","70","70","test","1","176","176","8","",""
"null","407021","pSARL_v2","pSARL_v2tgczxhkj","5fd7782dee03dc08d3f3f491","freq_resp","img/orange_2bandit_a.png","70","70","test","","","","8","",""
"null","407176","pSARL_v2","pSARL_v2tgczxhkj","5fd7782dee03dc08d3f3f491","fixation","img/fixation.png","null","","test","","","","","",""
"284.40000000596046","407463","pSARL_v2","pSARL_v2tgczxhkj","5fd7782dee03dc08d3f3f491","freq","img/orange_2bandit_a2.png","70","70","test","1","177","177","8","",""
"null","407986","pSARL_v2","pSARL_v2tgczxhkj","5fd7782dee03dc08d3f3f491","freq_resp","img/orange_2bandit_a.png","70","70","test","","","","8","",""
"null","408139","pSARL_v2","pSARL_v2tgczxhkj","5fd7782dee03dc08d3f3f491","fixation","img/fixation.png","null","","test","","","","","",""
"225","408367","pSARL_v2","pSARL_v2tgczxhkj","5fd7782dee03dc08d3f3f491","freq","img/orange_2bandit_a2.png","70","70","test","1","178","178","8","",""
"null","408948","pSARL_v2","pSARL_v2tgczxhkj","5fd7782dee03dc08d3f3f491","freq_resp","img/orange_2bandit_a.png","70","70","test","","","","8","",""
"null","409103","pSARL_v2","pSARL_v2tgczxhkj","5fd7782dee03dc08d3f3f491","fixation","img/fixation.png","null","","test","","","","","",""
"259.5","409366","pSARL_v2","pSARL_v2tgczxhkj","5fd7782dee03dc08d3f3f491","freq","img/orange_2bandit_a2.png","70","70","test","1","179","179","8","",""
"null","409909","pSARL_v2","pSARL_v2tgczxhkj","5fd7782dee03dc08d3f3f491","freq_resp","img/orange_2bandit_a.png","70","70","test","","","","8","",""
"null","410065","pSARL_v2","pSARL_v2tgczxhkj","5fd7782dee03dc08d3f3f491","fixation","img/fixation.png","null","","test","","","","","",""
"219.29999999701977","410287","pSARL_v2","pSARL_v2tgczxhkj","5fd7782dee03dc08d3f3f491","freq","img/orange_2bandit_a2.png","70","70","test","1","180","180","8","",""
"null","410885","pSARL_v2","pSARL_v2tgczxhkj","5fd7782dee03dc08d3f3f491","freq_resp","img/orange_2bandit_a.png","70","70","test","","","","8","",""
"null","411040","pSARL_v2","pSARL_v2tgczxhkj","5fd7782dee03dc08d3f3f491","fixation","img/fixation.png","null","","test","","","","","",""
"145.40000000596046","411188","pSARL_v2","pSARL_v2tgczxhkj","5fd7782dee03dc08d3f3f491","freq","img/orange_2bandit_a2.png","70","70","test","1","181","181","8","",""
"null","411848","pSARL_v2","pSARL_v2tgczxhkj","5fd7782dee03dc08d3f3f491","freq_resp","img/orange_2bandit_a.png","70","70","test","","","","8","",""
"null","412003","pSARL_v2","pSARL_v2tgczxhkj","5fd7782dee03dc08d3f3f491","fixation","img/fixation.png","null","","test","","","","","",""
"196.5","412202","pSARL_v2","pSARL_v2tgczxhkj","5fd7782dee03dc08d3f3f491","freq","img/orange_2bandit_a2.png","70","70","test","1","182","182","8","",""
"null","412814","pSARL_v2","pSARL_v2tgczxhkj","5fd7782dee03dc08d3f3f491","freq_resp","img/orange_2bandit_a.png","70","70","test","","","","8","",""
"null","412971","pSARL_v2","pSARL_v2tgczxhkj","5fd7782dee03dc08d3f3f491","fixation","img/fixation.png","null","","test","","","","","",""
"233.29999999701977","413207","pSARL_v2","pSARL_v2tgczxhkj","5fd7782dee03dc08d3f3f491","freq","img/orange_2bandit_a2.png","70","70","test","1","183","183","8","",""
"null","413781","pSARL_v2","pSARL_v2tgczxhkj","5fd7782dee03dc08d3f3f491","freq_resp","img/orange_2bandit_a.png","70","70","test","","","","8","",""
"null","413937","pSARL_v2","pSARL_v2tgczxhkj","5fd7782dee03dc08d3f3f491","fixation","img/fixation.png","null","","test","","","","","",""
"291","414230","pSARL_v2","pSARL_v2tgczxhkj","5fd7782dee03dc08d3f3f491","reward","img/slot.png","74","","test","","","","","",""
"null","414990","pSARL_v2","pSARL_v2tgczxhkj","5fd7782dee03dc08d3f3f491","points","<div class=""verylowPoints""> -4 </div>","null","na","test","","","","8","-4","7"
"445.20000000298023","415437","pSARL_v2","pSARL_v2tgczxhkj","5fd7782dee03dc08d3f3f491","freq","img/orange_2bandit_a2.png","70","70","test","1","184","184","9","",""
"null","415805","pSARL_v2","pSARL_v2tgczxhkj","5fd7782dee03dc08d3f3f491","freq_resp","img/orange_2bandit_a.png","70","70","test","","","","9","",""
"null","415961","pSARL_v2","pSARL_v2tgczxhkj","5fd7782dee03dc08d3f3f491","fixation","img/fixation.png","null","","test","","","","","",""
"371.19999998807907","416335","pSARL_v2","pSARL_v2tgczxhkj","5fd7782dee03dc08d3f3f491","freq","img/orange_2bandit_a2.png","70","70","test","1","185","185","9","",""
"null","416769","pSARL_v2","pSARL_v2tgczxhkj","5fd7782dee03dc08d3f3f491","freq_resp","img/orange_2bandit_a.png","70","70","test","","","","9","",""
"null","416924","pSARL_v2","pSARL_v2tgczxhkj","5fd7782dee03dc08d3f3f491","fixation","img/fixation.png","null","","test","","","","","",""
"284","417210","pSARL_v2","pSARL_v2tgczxhkj","5fd7782dee03dc08d3f3f491","freq","img/orange_2bandit_a2.png","70","70","test","1","186","186","9","",""
"null","417733","pSARL_v2","pSARL_v2tgczxhkj","5fd7782dee03dc08d3f3f491","freq_resp","img/orange_2bandit_a.png","70","70","test","","","","9","",""
"null","417890","pSARL_v2","pSARL_v2tgczxhkj","5fd7782dee03dc08d3f3f491","fixation","img/fixation.png","null","","test","","","","","",""
"212","418105","pSARL_v2","pSARL_v2tgczxhkj","5fd7782dee03dc08d3f3f491","freq","img/orange_2bandit_a2.png","70","70","test","1","187","187","9","",""
"null","418698","pSARL_v2","pSARL_v2tgczxhkj","5fd7782dee03dc08d3f3f491","freq_resp","img/orange_2bandit_a.png","70","70","test","","","","9","",""
"null","418853","pSARL_v2","pSARL_v2tgczxhkj","5fd7782dee03dc08d3f3f491","fixation","img/fixation.png","null","","test","","","","","",""
"166.09999999403954","419022","pSARL_v2","pSARL_v2tgczxhkj","5fd7782dee03dc08d3f3f491","freq","img/orange_2bandit_a2.png","70","70","test","1","188","188","9","",""
"null","419664","pSARL_v2","pSARL_v2tgczxhkj","5fd7782dee03dc08d3f3f491","freq_resp","img/orange_2bandit_a.png","70","70","test","","","","9","",""
"null","419819","pSARL_v2","pSARL_v2tgczxhkj","5fd7782dee03dc08d3f3f491","fixation","img/fixation.png","null","","test","","","","","",""
"184.79999999701977","420006","pSARL_v2","pSARL_v2tgczxhkj","5fd7782dee03dc08d3f3f491","freq","img/orange_2bandit_a2.png","70","70","test","1","189","189","9","",""
"null","420628","pSARL_v2","pSARL_v2tgczxhkj","5fd7782dee03dc08d3f3f491","freq_resp","img/orange_2bandit_a.png","70","70","test","","","","9","",""
"null","420783","pSARL_v2","pSARL_v2tgczxhkj","5fd7782dee03dc08d3f3f491","fixation","img/fixation.png","null","","test","","","","","",""
"140.6000000089407","420926","pSARL_v2","pSARL_v2tgczxhkj","5fd7782dee03dc08d3f3f491","freq","img/orange_2bandit_a2.png","70","70","test","1","190","190","9","",""
"null","421592","pSARL_v2","pSARL_v2tgczxhkj","5fd7782dee03dc08d3f3f491","freq_resp","img/orange_2bandit_a.png","70","70","test","","","","9","",""
"null","421746","pSARL_v2","pSARL_v2tgczxhkj","5fd7782dee03dc08d3f3f491","fixation","img/fixation.png","null","","test","","","","","",""
"105.70000000298023","421854","pSARL_v2","pSARL_v2tgczxhkj","5fd7782dee03dc08d3f3f491","infreq","img/green_2bandit_a2.png","70","68","test","0","191","191","9","",""
"null","422563","pSARL_v2","pSARL_v2tgczxhkj","5fd7782dee03dc08d3f3f491","infreq_resp","img/green_2bandit_a.png","70","68","test","","","","9","",""
"null","422716","pSARL_v2","pSARL_v2tgczxhkj","5fd7782dee03dc08d3f3f491","fixation","img/fixation.png","null","","test","","","","","",""
"190.29999999701977","422909","pSARL_v2","pSARL_v2tgczxhkj","5fd7782dee03dc08d3f3f491","freq","img/orange_2bandit_a2.png","70","70","test","1","192","192","9","",""
"null","423530","pSARL_v2","pSARL_v2tgczxhkj","5fd7782dee03dc08d3f3f491","freq_resp","img/orange_2bandit_a.png","70","70","test","","","","9","",""
"null","423686","pSARL_v2","pSARL_v2tgczxhkj","5fd7782dee03dc08d3f3f491","fixation","img/fixation.png","null","","test","","","","","",""
"137","423825","pSARL_v2","pSARL_v2tgczxhkj","5fd7782dee03dc08d3f3f491","freq","img/orange_2bandit_a2.png","70","70","test","1","193","193","9","",""
"null","424495","pSARL_v2","pSARL_v2tgczxhkj","5fd7782dee03dc08d3f3f491","freq_resp","img/orange_2bandit_a.png","70","70","test","","","","9","",""
"null","424651","pSARL_v2","pSARL_v2tgczxhkj","5fd7782dee03dc08d3f3f491","fixation","img/fixation.png","null","","test","","","","","",""
"144.20000000298023","424798","pSARL_v2","pSARL_v2tgczxhkj","5fd7782dee03dc08d3f3f491","infreq","img/green_2bandit_a2.png","70","68","test","0","194","194","9","",""
"null","425458","pSARL_v2","pSARL_v2tgczxhkj","5fd7782dee03dc08d3f3f491","infreq_resp","img/green_2bandit_a.png","70","68","test","","","","9","",""
"null","425613","pSARL_v2","pSARL_v2tgczxhkj","5fd7782dee03dc08d3f3f491","fixation","img/fixation.png","null","","test","","","","","",""
"365.8999999910593","425981","pSARL_v2","pSARL_v2tgczxhkj","5fd7782dee03dc08d3f3f491","infreq","img/green_2bandit_a2.png","68","68","test","1","195","195","9","",""
"null","426426","pSARL_v2","pSARL_v2tgczxhkj","5fd7782dee03dc08d3f3f491","infreq_resp","img/green_2bandit_a.png","68","68","test","","","","9","",""
"null","426581","pSARL_v2","pSARL_v2tgczxhkj","5fd7782dee03dc08d3f3f491","fixation","img/fixation.png","null","","test","","","","","",""
"378.40000000596046","426962","pSARL_v2","pSARL_v2tgczxhkj","5fd7782dee03dc08d3f3f491","freq","img/orange_2bandit_a2.png","70","70","test","1","196","196","9","",""
"null","427389","pSARL_v2","pSARL_v2tgczxhkj","5fd7782dee03dc08d3f3f491","freq_resp","img/orange_2bandit_a.png","70","70","test","","","","9","",""
"null","427558","pSARL_v2","pSARL_v2tgczxhkj","5fd7782dee03dc08d3f3f491","fixation","img/fixation.png","null","","test","","","","","",""
"320","427880","pSARL_v2","pSARL_v2tgczxhkj","5fd7782dee03dc08d3f3f491","freq","img/orange_2bandit_a2.png","70","70","test","1","197","197","9","",""
"null","428366","pSARL_v2","pSARL_v2tgczxhkj","5fd7782dee03dc08d3f3f491","freq_resp","img/orange_2bandit_a.png","70","70","test","","","","9","",""
"null","428523","pSARL_v2","pSARL_v2tgczxhkj","5fd7782dee03dc08d3f3f491","fixation","img/fixation.png","null","","test","","","","","",""
"272.3999999910593","428798","pSARL_v2","pSARL_v2tgczxhkj","5fd7782dee03dc08d3f3f491","freq","img/orange_2bandit_a2.png","70","70","test","1","198","198","9","",""
"null","429331","pSARL_v2","pSARL_v2tgczxhkj","5fd7782dee03dc08d3f3f491","freq_resp","img/orange_2bandit_a.png","70","70","test","","","","9","",""
"null","429486","pSARL_v2","pSARL_v2tgczxhkj","5fd7782dee03dc08d3f3f491","fixation","img/fixation.png","null","","test","","","","","",""
"251.59999999403954","429740","pSARL_v2","pSARL_v2tgczxhkj","5fd7782dee03dc08d3f3f491","freq","img/orange_2bandit_a2.png","70","70","test","1","199","199","9","",""
"null","430306","pSARL_v2","pSARL_v2tgczxhkj","5fd7782dee03dc08d3f3f491","freq_resp","img/orange_2bandit_a.png","70","70","test","","","","9","",""
"null","430461","pSARL_v2","pSARL_v2tgczxhkj","5fd7782dee03dc08d3f3f491","fixation","img/fixation.png","null","","test","","","","","",""
"291.59999999403954","430755","pSARL_v2","pSARL_v2tgczxhkj","5fd7782dee03dc08d3f3f491","freq","img/orange_2bandit_a2.png","70","70","test","1","200","200","9","",""
"null","431271","pSARL_v2","pSARL_v2tgczxhkj","5fd7782dee03dc08d3f3f491","freq_resp","img/orange_2bandit_a.png","70","70","test","","","","9","",""
"null","431427","pSARL_v2","pSARL_v2tgczxhkj","5fd7782dee03dc08d3f3f491","fixation","img/fixation.png","null","","test","","","","","",""
"243.09999999403954","431673","pSARL_v2","pSARL_v2tgczxhkj","5fd7782dee03dc08d3f3f491","freq","img/orange_2bandit_a2.png","70","70","test","1","201","201","9","",""
"null","432237","pSARL_v2","pSARL_v2tgczxhkj","5fd7782dee03dc08d3f3f491","freq_resp","img/orange_2bandit_a.png","70","70","test","","","","9","",""
"null","432393","pSARL_v2","pSARL_v2tgczxhkj","5fd7782dee03dc08d3f3f491","fixation","img/fixation.png","null","","test","","","","","",""
"231.70000000298023","432627","pSARL_v2","pSARL_v2tgczxhkj","5fd7782dee03dc08d3f3f491","freq","img/orange_2bandit_a2.png","70","70","test","1","202","202","9","",""
"null","433206","pSARL_v2","pSARL_v2tgczxhkj","5fd7782dee03dc08d3f3f491","freq_resp","img/orange_2bandit_a.png","70","70","test","","","","9","",""
"null","433361","pSARL_v2","pSARL_v2tgczxhkj","5fd7782dee03dc08d3f3f491","fixation","img/fixation.png","null","","test","","","","","",""
"315.3999999910593","433678","pSARL_v2","pSARL_v2tgczxhkj","5fd7782dee03dc08d3f3f491","freq","img/orange_2bandit_a2.png","70","70","test","1","203","203","9","",""
"null","434166","pSARL_v2","pSARL_v2tgczxhkj","5fd7782dee03dc08d3f3f491","freq_resp","img/orange_2bandit_a.png","70","70","test","","","","9","",""
"null","434321","pSARL_v2","pSARL_v2tgczxhkj","5fd7782dee03dc08d3f3f491","fixation","img/fixation.png","null","","test","","","","","",""
"297","434621","pSARL_v2","pSARL_v2tgczxhkj","5fd7782dee03dc08d3f3f491","freq","img/orange_2bandit_a2.png","70","70","test","1","204","204","9","",""
"null","435134","pSARL_v2","pSARL_v2tgczxhkj","5fd7782dee03dc08d3f3f491","freq_resp","img/orange_2bandit_a.png","70","70","test","","","","9","",""
"null","435289","pSARL_v2","pSARL_v2tgczxhkj","5fd7782dee03dc08d3f3f491","fixation","img/fixation.png","null","","test","","","","","",""
"257.70000000298023","435549","pSARL_v2","pSARL_v2tgczxhkj","5fd7782dee03dc08d3f3f491","freq","img/orange_2bandit_a2.png","70","70","test","1","205","205","9","",""
"null","436100","pSARL_v2","pSARL_v2tgczxhkj","5fd7782dee03dc08d3f3f491","freq_resp","img/orange_2bandit_a.png","70","70","test","","","","9","",""
"null","436257","pSARL_v2","pSARL_v2tgczxhkj","5fd7782dee03dc08d3f3f491","fixation","img/fixation.png","null","","test","","","","","",""
"225.6000000089407","436485","pSARL_v2","pSARL_v2tgczxhkj","5fd7782dee03dc08d3f3f491","freq","img/orange_2bandit_a2.png","70","70","test","1","206","206","9","",""
"null","437076","pSARL_v2","pSARL_v2tgczxhkj","5fd7782dee03dc08d3f3f491","freq_resp","img/orange_2bandit_a.png","70","70","test","","","","9","",""
"null","437245","pSARL_v2","pSARL_v2tgczxhkj","5fd7782dee03dc08d3f3f491","fixation","img/fixation.png","null","","test","","","","","",""
