"rt","time_elapsed","expId","subject","prolificID","trialType","stimulus","key_press","corrresp","phase","corr","trialNum","attentionRunNum","blockNum","points","rlNum"
"2460.300000011921","2475","pSARL_v2","pSARL_v2lq34jen1","6111587a8000027e7f79b1ba","","","","","","","","","","",""
"","5458","pSARL_v2","pSARL_v2lq34jen1","6111587a8000027e7f79b1ba","fullscreen","","","","","","","","","",""
"40034.59999999404","45502","pSARL_v2","pSARL_v2lq34jen1","6111587a8000027e7f79b1ba","","","","","","","","","","",""
"568.3000000119209","46093","pSARL_v2","pSARL_v2lq34jen1","6111587a8000027e7f79b1ba","freqPrac","img/green_2bandit_a2.png","70","70","prac","1","","","","",""
"568.3000000119209","46349","pSARL_v2","pSARL_v2lq34jen1","6111587a8000027e7f79b1ba","freqPrac_resp","img/green_2bandit_a.png","70","70","prac","","","","","",""
"null","46513","pSARL_v2","pSARL_v2lq34jen1","6111587a8000027e7f79b1ba","fixation","img/fixation.png","null","","prac","","","","","",""
"378.59999999403954","46899","pSARL_v2","pSARL_v2lq34jen1","6111587a8000027e7f79b1ba","infreqPrac","img/orange_2bandit_a2.png","68","68","prac","1","","","","",""
"378.59999999403954","47350","pSARL_v2","pSARL_v2lq34jen1","6111587a8000027e7f79b1ba","infreqPrac_resp","img/orange_2bandit_a.png","68","68","prac","","","","","",""
"null","47513","pSARL_v2","pSARL_v2lq34jen1","6111587a8000027e7f79b1ba","fixation","img/fixation.png","null","","prac","","","","","",""
"314.79999999701977","47835","pSARL_v2","pSARL_v2lq34jen1","6111587a8000027e7f79b1ba","freqPrac","img/green_2bandit_a2.png","70","70","prac","1","","","","",""
"314.79999999701977","48328","pSARL_v2","pSARL_v2lq34jen1","6111587a8000027e7f79b1ba","freqPrac_resp","img/green_2bandit_a.png","70","70","prac","","","","","",""
"null","48498","pSARL_v2","pSARL_v2lq34jen1","6111587a8000027e7f79b1ba","fixation","img/fixation.png","null","","prac","","","","","",""
"361.29999999701977","48867","pSARL_v2","pSARL_v2lq34jen1","6111587a8000027e7f79b1ba","infreqPrac","img/orange_2bandit_a2.png","70","68","prac","0","","","","",""
"361.29999999701977","49314","pSARL_v2","pSARL_v2lq34jen1","6111587a8000027e7f79b1ba","infreqPrac_resp","img/orange_2bandit_a.png","70","68","prac","","","","","",""
"null","50329","pSARL_v2","pSARL_v2lq34jen1","6111587a8000027e7f79b1ba","feedback","img/wrongKey.png","null","na","prac","","","","","",""
"null","50487","pSARL_v2","pSARL_v2lq34jen1","6111587a8000027e7f79b1ba","fixation","img/fixation.png","null","","prac","","","","","",""
"635.7000000029802","51131","pSARL_v2","pSARL_v2lq34jen1","6111587a8000027e7f79b1ba","infreqPrac","img/orange_2bandit_a2.png","68","68","prac","1","","","","",""
"635.7000000029802","51318","pSARL_v2","pSARL_v2lq34jen1","6111587a8000027e7f79b1ba","infreqPrac_resp","img/orange_2bandit_a.png","68","68","prac","","","","","",""
"null","51487","pSARL_v2","pSARL_v2lq34jen1","6111587a8000027e7f79b1ba","fixation","img/fixation.png","null","","prac","","","","","",""
"420.30000001192093","51916","pSARL_v2","pSARL_v2lq34jen1","6111587a8000027e7f79b1ba","infreqPrac","img/orange_2bandit_a2.png","68","68","prac","1","","","","",""
"420.30000001192093","52319","pSARL_v2","pSARL_v2lq34jen1","6111587a8000027e7f79b1ba","infreqPrac_resp","img/orange_2bandit_a.png","68","68","prac","","","","","",""
"null","52488","pSARL_v2","pSARL_v2lq34jen1","6111587a8000027e7f79b1ba","fixation","img/fixation.png","null","","prac","","","","","",""
"292","52787","pSARL_v2","pSARL_v2lq34jen1","6111587a8000027e7f79b1ba","freqPrac","img/green_2bandit_a2.png","70","70","prac","1","","","","",""
"292","53305","pSARL_v2","pSARL_v2lq34jen1","6111587a8000027e7f79b1ba","freqPrac_resp","img/green_2bandit_a.png","70","70","prac","","","","","",""
"null","53475","pSARL_v2","pSARL_v2lq34jen1","6111587a8000027e7f79b1ba","fixation","img/fixation.png","null","","prac","","","","","",""
"360.5","53843","pSARL_v2","pSARL_v2lq34jen1","6111587a8000027e7f79b1ba","infreqPrac","img/orange_2bandit_a2.png","68","68","prac","1","","","","",""
"360.5","54306","pSARL_v2","pSARL_v2lq34jen1","6111587a8000027e7f79b1ba","infreqPrac_resp","img/orange_2bandit_a.png","68","68","prac","","","","","",""
"null","54475","pSARL_v2","pSARL_v2lq34jen1","6111587a8000027e7f79b1ba","fixation","img/fixation.png","null","","prac","","","","","",""
"351.90000000596046","54835","pSARL_v2","pSARL_v2lq34jen1","6111587a8000027e7f79b1ba","freqPrac","img/green_2bandit_a2.png","70","70","prac","1","","","","",""
"351.90000000596046","55292","pSARL_v2","pSARL_v2lq34jen1","6111587a8000027e7f79b1ba","freqPrac_resp","img/green_2bandit_a.png","70","70","prac","","","","","",""
"null","55460","pSARL_v2","pSARL_v2lq34jen1","6111587a8000027e7f79b1ba","fixation","img/fixation.png","null","","prac","","","","","",""
"399.30000001192093","55867","pSARL_v2","pSARL_v2lq34jen1","6111587a8000027e7f79b1ba","freqPrac","img/green_2bandit_a2.png","70","70","prac","1","","","","",""
"399.30000001192093","56278","pSARL_v2","pSARL_v2lq34jen1","6111587a8000027e7f79b1ba","freqPrac_resp","img/green_2bandit_a.png","70","70","prac","","","","","",""
"null","56440","pSARL_v2","pSARL_v2lq34jen1","6111587a8000027e7f79b1ba","fixation","img/fixation.png","null","","prac","","","","","",""
"14421.09999999404","70869","pSARL_v2","pSARL_v2lq34jen1","6111587a8000027e7f79b1ba","","","","","prac","","","","","",""
"1283.9000000059605","72161","pSARL_v2","pSARL_v2lq34jen1","6111587a8000027e7f79b1ba","rewardPractice","img/slot.png","74","","prac","","","","","",""
"null","72928","pSARL_v2","pSARL_v2lq34jen1","6111587a8000027e7f79b1ba","feedback","<div class=""veryhighPoints""> +15 </div>","null","na","prac","","","","","",""
"null","73097","pSARL_v2","pSARL_v2lq34jen1","6111587a8000027e7f79b1ba","fixation","img/fixation.png","null","","prac","","","","","",""
"10920.09999999404","84033","pSARL_v2","pSARL_v2lq34jen1","6111587a8000027e7f79b1ba","","","","","prac","","","","","",""
"559.5","84600","pSARL_v2","pSARL_v2lq34jen1","6111587a8000027e7f79b1ba","freq","img/green_2bandit_a2.png","70","70","test","1","1","1","1","",""
"null","84869","pSARL_v2","pSARL_v2lq34jen1","6111587a8000027e7f79b1ba","freq_resp","img/green_2bandit_a.png","70","70","test","","","","1","",""
"null","85032","pSARL_v2","pSARL_v2lq34jen1","6111587a8000027e7f79b1ba","fixation","img/fixation.png","null","","test","","","","","",""
"286.59999999403954","85328","pSARL_v2","pSARL_v2lq34jen1","6111587a8000027e7f79b1ba","freq","img/green_2bandit_a2.png","70","70","test","1","2","2","1","",""
"null","85871","pSARL_v2","pSARL_v2lq34jen1","6111587a8000027e7f79b1ba","freq_resp","img/green_2bandit_a.png","70","70","test","","","","1","",""
"null","86034","pSARL_v2","pSARL_v2lq34jen1","6111587a8000027e7f79b1ba","fixation","img/fixation.png","null","","test","","","","","",""
"412.59999999403954","86455","pSARL_v2","pSARL_v2lq34jen1","6111587a8000027e7f79b1ba","freq","img/green_2bandit_a2.png","70","70","test","1","3","3","1","",""
"null","86872","pSARL_v2","pSARL_v2lq34jen1","6111587a8000027e7f79b1ba","freq_resp","img/green_2bandit_a.png","70","70","test","","","","1","",""
"null","87035","pSARL_v2","pSARL_v2lq34jen1","6111587a8000027e7f79b1ba","fixation","img/fixation.png","null","","test","","","","","",""
"380","87423","pSARL_v2","pSARL_v2lq34jen1","6111587a8000027e7f79b1ba","freq","img/green_2bandit_a2.png","70","70","test","1","4","4","1","",""
"null","87873","pSARL_v2","pSARL_v2lq34jen1","6111587a8000027e7f79b1ba","freq_resp","img/green_2bandit_a.png","70","70","test","","","","1","",""
"null","88035","pSARL_v2","pSARL_v2lq34jen1","6111587a8000027e7f79b1ba","fixation","img/fixation.png","null","","test","","","","","",""
"363.70000000298023","88407","pSARL_v2","pSARL_v2lq34jen1","6111587a8000027e7f79b1ba","freq","img/green_2bandit_a2.png","70","70","test","1","5","5","1","",""
"null","88852","pSARL_v2","pSARL_v2lq34jen1","6111587a8000027e7f79b1ba","freq_resp","img/green_2bandit_a.png","70","70","test","","","","1","",""
"null","89021","pSARL_v2","pSARL_v2lq34jen1","6111587a8000027e7f79b1ba","fixation","img/fixation.png","null","","test","","","","","",""
"384.79999999701977","89415","pSARL_v2","pSARL_v2lq34jen1","6111587a8000027e7f79b1ba","freq","img/green_2bandit_a2.png","70","70","test","1","6","6","1","",""
"null","89854","pSARL_v2","pSARL_v2lq34jen1","6111587a8000027e7f79b1ba","freq_resp","img/green_2bandit_a.png","70","70","test","","","","1","",""
"null","90023","pSARL_v2","pSARL_v2lq34jen1","6111587a8000027e7f79b1ba","fixation","img/fixation.png","null","","test","","","","","",""
"311.20000000298023","90342","pSARL_v2","pSARL_v2lq34jen1","6111587a8000027e7f79b1ba","freq","img/green_2bandit_a2.png","70","70","test","1","7","7","1","",""
"null","90840","pSARL_v2","pSARL_v2lq34jen1","6111587a8000027e7f79b1ba","freq_resp","img/green_2bandit_a.png","70","70","test","","","","1","",""
"null","91010","pSARL_v2","pSARL_v2lq34jen1","6111587a8000027e7f79b1ba","fixation","img/fixation.png","null","","test","","","","","",""
"284.5","91302","pSARL_v2","pSARL_v2lq34jen1","6111587a8000027e7f79b1ba","freq","img/green_2bandit_a2.png","70","70","test","1","8","8","1","",""
"null","91842","pSARL_v2","pSARL_v2lq34jen1","6111587a8000027e7f79b1ba","freq_resp","img/green_2bandit_a.png","70","70","test","","","","1","",""
"null","92012","pSARL_v2","pSARL_v2lq34jen1","6111587a8000027e7f79b1ba","fixation","img/fixation.png","null","","test","","","","","",""
"395.3999999910593","92414","pSARL_v2","pSARL_v2lq34jen1","6111587a8000027e7f79b1ba","infreq","img/orange_2bandit_a2.png","68","68","test","1","9","9","1","",""
"null","92842","pSARL_v2","pSARL_v2lq34jen1","6111587a8000027e7f79b1ba","infreq_resp","img/orange_2bandit_a.png","68","68","test","","","","1","",""
"null","93013","pSARL_v2","pSARL_v2lq34jen1","6111587a8000027e7f79b1ba","fixation","img/fixation.png","null","","test","","","","","",""
"425.20000000298023","93447","pSARL_v2","pSARL_v2lq34jen1","6111587a8000027e7f79b1ba","freq","img/green_2bandit_a2.png","70","70","test","1","10","10","1","",""
"null","93831","pSARL_v2","pSARL_v2lq34jen1","6111587a8000027e7f79b1ba","freq_resp","img/green_2bandit_a.png","70","70","test","","","","1","",""
"null","93999","pSARL_v2","pSARL_v2lq34jen1","6111587a8000027e7f79b1ba","fixation","img/fixation.png","null","","test","","","","","",""
"392.6000000089407","94399","pSARL_v2","pSARL_v2lq34jen1","6111587a8000027e7f79b1ba","freq","img/green_2bandit_a2.png","70","70","test","1","11","11","1","",""
"null","94815","pSARL_v2","pSARL_v2lq34jen1","6111587a8000027e7f79b1ba","freq_resp","img/green_2bandit_a.png","70","70","test","","","","1","",""
"null","94983","pSARL_v2","pSARL_v2lq34jen1","6111587a8000027e7f79b1ba","fixation","img/fixation.png","null","","test","","","","","",""
"327.90000000596046","95318","pSARL_v2","pSARL_v2lq34jen1","6111587a8000027e7f79b1ba","freq","img/green_2bandit_a2.png","70","70","test","1","12","12","1","",""
"null","95799","pSARL_v2","pSARL_v2lq34jen1","6111587a8000027e7f79b1ba","freq_resp","img/green_2bandit_a.png","70","70","test","","","","1","",""
"null","95962","pSARL_v2","pSARL_v2lq34jen1","6111587a8000027e7f79b1ba","fixation","img/fixation.png","null","","test","","","","","",""
"316","96286","pSARL_v2","pSARL_v2lq34jen1","6111587a8000027e7f79b1ba","freq","img/green_2bandit_a2.png","70","70","test","1","13","13","1","",""
"null","96783","pSARL_v2","pSARL_v2lq34jen1","6111587a8000027e7f79b1ba","freq_resp","img/green_2bandit_a.png","70","70","test","","","","1","",""
"null","96947","pSARL_v2","pSARL_v2lq34jen1","6111587a8000027e7f79b1ba","fixation","img/fixation.png","null","","test","","","","","",""
"330.70000000298023","97285","pSARL_v2","pSARL_v2lq34jen1","6111587a8000027e7f79b1ba","freq","img/green_2bandit_a2.png","70","70","test","1","14","14","1","",""
"null","97784","pSARL_v2","pSARL_v2lq34jen1","6111587a8000027e7f79b1ba","freq_resp","img/green_2bandit_a.png","70","70","test","","","","1","",""
"null","97947","pSARL_v2","pSARL_v2lq34jen1","6111587a8000027e7f79b1ba","fixation","img/fixation.png","null","","test","","","","","",""
"363","98318","pSARL_v2","pSARL_v2lq34jen1","6111587a8000027e7f79b1ba","freq","img/green_2bandit_a2.png","70","70","test","1","15","15","1","",""
"null","98785","pSARL_v2","pSARL_v2lq34jen1","6111587a8000027e7f79b1ba","freq_resp","img/green_2bandit_a.png","70","70","test","","","","1","",""
"null","98947","pSARL_v2","pSARL_v2lq34jen1","6111587a8000027e7f79b1ba","fixation","img/fixation.png","null","","test","","","","","",""
"402.09999999403954","99357","pSARL_v2","pSARL_v2lq34jen1","6111587a8000027e7f79b1ba","freq","img/green_2bandit_a2.png","70","70","test","1","16","16","1","",""
"null","99765","pSARL_v2","pSARL_v2lq34jen1","6111587a8000027e7f79b1ba","freq_resp","img/green_2bandit_a.png","70","70","test","","","","1","",""
"null","99933","pSARL_v2","pSARL_v2lq34jen1","6111587a8000027e7f79b1ba","fixation","img/fixation.png","null","","test","","","","","",""
"352.20000000298023","100293","pSARL_v2","pSARL_v2lq34jen1","6111587a8000027e7f79b1ba","infreq","img/orange_2bandit_a2.png","68","68","test","1","17","17","1","",""
"null","100749","pSARL_v2","pSARL_v2lq34jen1","6111587a8000027e7f79b1ba","infreq_resp","img/orange_2bandit_a.png","68","68","test","","","","1","",""
"null","100918","pSARL_v2","pSARL_v2lq34jen1","6111587a8000027e7f79b1ba","fixation","img/fixation.png","null","","test","","","","","",""
"430.70000000298023","101357","pSARL_v2","pSARL_v2lq34jen1","6111587a8000027e7f79b1ba","freq","img/green_2bandit_a2.png","70","70","test","1","18","18","1","",""
"null","101750","pSARL_v2","pSARL_v2lq34jen1","6111587a8000027e7f79b1ba","freq_resp","img/green_2bandit_a.png","70","70","test","","","","1","",""
"null","101919","pSARL_v2","pSARL_v2lq34jen1","6111587a8000027e7f79b1ba","fixation","img/fixation.png","null","","test","","","","","",""
"357.5","102285","pSARL_v2","pSARL_v2lq34jen1","6111587a8000027e7f79b1ba","freq","img/green_2bandit_a2.png","70","70","test","1","19","19","1","",""
"null","102744","pSARL_v2","pSARL_v2lq34jen1","6111587a8000027e7f79b1ba","freq_resp","img/green_2bandit_a.png","70","70","test","","","","1","",""
"null","102904","pSARL_v2","pSARL_v2lq34jen1","6111587a8000027e7f79b1ba","fixation","img/fixation.png","null","","test","","","","","",""
"886.5","103797","pSARL_v2","pSARL_v2lq34jen1","6111587a8000027e7f79b1ba","reward","img/slot.png","74","","test","","","","","",""
"null","104567","pSARL_v2","pSARL_v2lq34jen1","6111587a8000027e7f79b1ba","points","<div class=""verylowPoints""> -6 </div>","null","na","test","","","","1","-6","0"
"null","105390","pSARL_v2","pSARL_v2lq34jen1","6111587a8000027e7f79b1ba","freq","img/green_2bandit_a2.png","null","70","test","0","20","20","2","",""
"null","105552","pSARL_v2","pSARL_v2lq34jen1","6111587a8000027e7f79b1ba","fixation","img/fixation.png","null","","test","","","","","",""
"339.5","105898","pSARL_v2","pSARL_v2lq34jen1","6111587a8000027e7f79b1ba","freq","img/green_2bandit_a2.png","70","70","test","1","21","21","2","",""
"null","106369","pSARL_v2","pSARL_v2lq34jen1","6111587a8000027e7f79b1ba","freq_resp","img/green_2bandit_a.png","70","70","test","","","","2","",""
"null","106538","pSARL_v2","pSARL_v2lq34jen1","6111587a8000027e7f79b1ba","fixation","img/fixation.png","null","","test","","","","","",""
"345.79999999701977","106893","pSARL_v2","pSARL_v2lq34jen1","6111587a8000027e7f79b1ba","freq","img/green_2bandit_a2.png","70","70","test","1","22","22","2","",""
"null","107370","pSARL_v2","pSARL_v2lq34jen1","6111587a8000027e7f79b1ba","freq_resp","img/green_2bandit_a.png","70","70","test","","","","2","",""
"null","107540","pSARL_v2","pSARL_v2lq34jen1","6111587a8000027e7f79b1ba","fixation","img/fixation.png","null","","test","","","","","",""
"335","107884","pSARL_v2","pSARL_v2lq34jen1","6111587a8000027e7f79b1ba","freq","img/green_2bandit_a2.png","70","70","test","1","23","23","2","",""
"null","108373","pSARL_v2","pSARL_v2lq34jen1","6111587a8000027e7f79b1ba","freq_resp","img/green_2bandit_a.png","70","70","test","","","","2","",""
"null","108543","pSARL_v2","pSARL_v2lq34jen1","6111587a8000027e7f79b1ba","fixation","img/fixation.png","null","","test","","","","","",""
"300.79999999701977","108852","pSARL_v2","pSARL_v2lq34jen1","6111587a8000027e7f79b1ba","freq","img/green_2bandit_a2.png","70","70","test","1","24","24","2","",""
"null","109369","pSARL_v2","pSARL_v2lq34jen1","6111587a8000027e7f79b1ba","freq_resp","img/green_2bandit_a.png","70","70","test","","","","2","",""
"null","109529","pSARL_v2","pSARL_v2lq34jen1","6111587a8000027e7f79b1ba","fixation","img/fixation.png","null","","test","","","","","",""
"324.1000000089407","109860","pSARL_v2","pSARL_v2lq34jen1","6111587a8000027e7f79b1ba","infreq","img/orange_2bandit_a2.png","70","68","test","0","25","25","2","",""
"null","110345","pSARL_v2","pSARL_v2lq34jen1","6111587a8000027e7f79b1ba","infreq_resp","img/orange_2bandit_a.png","70","68","test","","","","2","",""
"null","110514","pSARL_v2","pSARL_v2lq34jen1","6111587a8000027e7f79b1ba","fixation","img/fixation.png","null","","test","","","","","",""
"585.7000000029802","111108","pSARL_v2","pSARL_v2lq34jen1","6111587a8000027e7f79b1ba","freq","img/green_2bandit_a2.png","70","70","test","1","26","26","2","",""
"null","111346","pSARL_v2","pSARL_v2lq34jen1","6111587a8000027e7f79b1ba","freq_resp","img/green_2bandit_a.png","70","70","test","","","","2","",""
"null","111515","pSARL_v2","pSARL_v2lq34jen1","6111587a8000027e7f79b1ba","fixation","img/fixation.png","null","","test","","","","","",""
"400.09999999403954","111923","pSARL_v2","pSARL_v2lq34jen1","6111587a8000027e7f79b1ba","freq","img/green_2bandit_a2.png","70","70","test","1","27","27","2","",""
"null","112332","pSARL_v2","pSARL_v2lq34jen1","6111587a8000027e7f79b1ba","freq_resp","img/green_2bandit_a.png","70","70","test","","","","2","",""
"null","112501","pSARL_v2","pSARL_v2lq34jen1","6111587a8000027e7f79b1ba","fixation","img/fixation.png","null","","test","","","","","",""
"342.70000000298023","112851","pSARL_v2","pSARL_v2lq34jen1","6111587a8000027e7f79b1ba","freq","img/green_2bandit_a2.png","70","70","test","1","28","28","2","",""
"null","113333","pSARL_v2","pSARL_v2lq34jen1","6111587a8000027e7f79b1ba","freq_resp","img/green_2bandit_a.png","70","70","test","","","","2","",""
"null","113501","pSARL_v2","pSARL_v2lq34jen1","6111587a8000027e7f79b1ba","fixation","img/fixation.png","null","","test","","","","","",""
"342.80000001192093","113851","pSARL_v2","pSARL_v2lq34jen1","6111587a8000027e7f79b1ba","freq","img/green_2bandit_a2.png","70","70","test","1","29","29","2","",""
"null","114332","pSARL_v2","pSARL_v2lq34jen1","6111587a8000027e7f79b1ba","freq_resp","img/green_2bandit_a.png","70","70","test","","","","2","",""
"null","114502","pSARL_v2","pSARL_v2lq34jen1","6111587a8000027e7f79b1ba","fixation","img/fixation.png","null","","test","","","","","",""
"332.6000000089407","114842","pSARL_v2","pSARL_v2lq34jen1","6111587a8000027e7f79b1ba","freq","img/green_2bandit_a2.png","70","70","test","1","30","30","2","",""
"null","115319","pSARL_v2","pSARL_v2lq34jen1","6111587a8000027e7f79b1ba","freq_resp","img/green_2bandit_a.png","70","70","test","","","","2","",""
"null","115482","pSARL_v2","pSARL_v2lq34jen1","6111587a8000027e7f79b1ba","fixation","img/fixation.png","null","","test","","","","","",""
"433.20000000298023","115923","pSARL_v2","pSARL_v2lq34jen1","6111587a8000027e7f79b1ba","freq","img/green_2bandit_a2.png","70","70","test","1","31","31","2","",""
"null","116306","pSARL_v2","pSARL_v2lq34jen1","6111587a8000027e7f79b1ba","freq_resp","img/green_2bandit_a.png","70","70","test","","","","2","",""
"null","116469","pSARL_v2","pSARL_v2lq34jen1","6111587a8000027e7f79b1ba","fixation","img/fixation.png","null","","test","","","","","",""
"350.40000000596046","116827","pSARL_v2","pSARL_v2lq34jen1","6111587a8000027e7f79b1ba","freq","img/green_2bandit_a2.png","70","70","test","1","32","32","2","",""
"null","117306","pSARL_v2","pSARL_v2lq34jen1","6111587a8000027e7f79b1ba","freq_resp","img/green_2bandit_a.png","70","70","test","","","","2","",""
"null","117469","pSARL_v2","pSARL_v2lq34jen1","6111587a8000027e7f79b1ba","fixation","img/fixation.png","null","","test","","","","","",""
"358.30000001192093","117835","pSARL_v2","pSARL_v2lq34jen1","6111587a8000027e7f79b1ba","freq","img/green_2bandit_a2.png","70","70","test","1","33","33","2","",""
"null","118286","pSARL_v2","pSARL_v2lq34jen1","6111587a8000027e7f79b1ba","freq_resp","img/green_2bandit_a.png","70","70","test","","","","2","",""
"null","118456","pSARL_v2","pSARL_v2lq34jen1","6111587a8000027e7f79b1ba","fixation","img/fixation.png","null","","test","","","","","",""
"507.3999999910593","118971","pSARL_v2","pSARL_v2lq34jen1","6111587a8000027e7f79b1ba","freq","img/green_2bandit_a2.png","70","70","test","1","34","34","2","",""
"null","119272","pSARL_v2","pSARL_v2lq34jen1","6111587a8000027e7f79b1ba","freq_resp","img/green_2bandit_a.png","70","70","test","","","","2","",""
"null","119442","pSARL_v2","pSARL_v2lq34jen1","6111587a8000027e7f79b1ba","fixation","img/fixation.png","null","","test","","","","","",""
"384.79999999701977","119835","pSARL_v2","pSARL_v2lq34jen1","6111587a8000027e7f79b1ba","freq","img/green_2bandit_a2.png","70","70","test","1","35","35","2","",""
"null","120273","pSARL_v2","pSARL_v2lq34jen1","6111587a8000027e7f79b1ba","freq_resp","img/green_2bandit_a.png","70","70","test","","","","2","",""
"null","120442","pSARL_v2","pSARL_v2lq34jen1","6111587a8000027e7f79b1ba","fixation","img/fixation.png","null","","test","","","","","",""
"344.69999998807907","120795","pSARL_v2","pSARL_v2lq34jen1","6111587a8000027e7f79b1ba","freq","img/green_2bandit_a2.png","70","70","test","1","36","36","2","",""
"null","121274","pSARL_v2","pSARL_v2lq34jen1","6111587a8000027e7f79b1ba","freq_resp","img/green_2bandit_a.png","70","70","test","","","","2","",""
"null","121443","pSARL_v2","pSARL_v2lq34jen1","6111587a8000027e7f79b1ba","fixation","img/fixation.png","null","","test","","","","","",""
"791.9000000059605","122243","pSARL_v2","pSARL_v2lq34jen1","6111587a8000027e7f79b1ba","freq","img/green_2bandit_a2.png","70","70","test","1","37","37","2","",""
"null","122260","pSARL_v2","pSARL_v2lq34jen1","6111587a8000027e7f79b1ba","freq_resp","img/green_2bandit_a.png","70","70","test","","","","2","",""
"null","122429","pSARL_v2","pSARL_v2lq34jen1","6111587a8000027e7f79b1ba","fixation","img/fixation.png","null","","test","","","","","",""
"384.20000000298023","122819","pSARL_v2","pSARL_v2lq34jen1","6111587a8000027e7f79b1ba","infreq","img/orange_2bandit_a2.png","68","68","test","1","38","38","2","",""
"null","123246","pSARL_v2","pSARL_v2lq34jen1","6111587a8000027e7f79b1ba","infreq_resp","img/orange_2bandit_a.png","68","68","test","","","","2","",""
"null","123412","pSARL_v2","pSARL_v2lq34jen1","6111587a8000027e7f79b1ba","fixation","img/fixation.png","null","","test","","","","","",""
"581.4000000059605","124001","pSARL_v2","pSARL_v2lq34jen1","6111587a8000027e7f79b1ba","freq","img/green_2bandit_a2.png","70","70","test","1","39","39","2","",""
"null","124230","pSARL_v2","pSARL_v2lq34jen1","6111587a8000027e7f79b1ba","freq_resp","img/green_2bandit_a.png","70","70","test","","","","2","",""
"null","124393","pSARL_v2","pSARL_v2lq34jen1","6111587a8000027e7f79b1ba","fixation","img/fixation.png","null","","test","","","","","",""
"497.70000000298023","124898","pSARL_v2","pSARL_v2lq34jen1","6111587a8000027e7f79b1ba","freq","img/green_2bandit_a2.png","70","70","test","1","40","40","2","",""
"null","125217","pSARL_v2","pSARL_v2lq34jen1","6111587a8000027e7f79b1ba","freq_resp","img/green_2bandit_a.png","70","70","test","","","","2","",""
"null","125381","pSARL_v2","pSARL_v2lq34jen1","6111587a8000027e7f79b1ba","fixation","img/fixation.png","null","","test","","","","","",""
"517.3000000119209","125906","pSARL_v2","pSARL_v2lq34jen1","6111587a8000027e7f79b1ba","reward","img/slot.png","74","","test","","","","","",""
"null","126665","pSARL_v2","pSARL_v2lq34jen1","6111587a8000027e7f79b1ba","points","<div class=""verylowPoints""> -11 </div>","null","na","test","","","","2","-11","1"
"null","127482","pSARL_v2","pSARL_v2lq34jen1","6111587a8000027e7f79b1ba","freq","img/green_2bandit_a2.png","null","70","test","0","41","41","3","",""
"null","127650","pSARL_v2","pSARL_v2lq34jen1","6111587a8000027e7f79b1ba","fixation","img/fixation.png","null","","test","","","","","",""
"416.5","128073","pSARL_v2","pSARL_v2lq34jen1","6111587a8000027e7f79b1ba","freq","img/green_2bandit_a2.png","70","70","test","1","42","42","3","",""
"null","128466","pSARL_v2","pSARL_v2lq34jen1","6111587a8000027e7f79b1ba","freq_resp","img/green_2bandit_a.png","70","70","test","","","","3","",""
"null","128634","pSARL_v2","pSARL_v2lq34jen1","6111587a8000027e7f79b1ba","fixation","img/fixation.png","null","","test","","","","","",""
"431.30000001192093","129073","pSARL_v2","pSARL_v2lq34jen1","6111587a8000027e7f79b1ba","freq","img/green_2bandit_a2.png","70","70","test","1","43","43","3","",""
"null","129451","pSARL_v2","pSARL_v2lq34jen1","6111587a8000027e7f79b1ba","freq_resp","img/green_2bandit_a.png","70","70","test","","","","3","",""
"null","129619","pSARL_v2","pSARL_v2lq34jen1","6111587a8000027e7f79b1ba","fixation","img/fixation.png","null","","test","","","","","",""
"406.90000000596046","130034","pSARL_v2","pSARL_v2lq34jen1","6111587a8000027e7f79b1ba","freq","img/green_2bandit_a2.png","70","70","test","1","44","44","3","",""
"null","130451","pSARL_v2","pSARL_v2lq34jen1","6111587a8000027e7f79b1ba","freq_resp","img/green_2bandit_a.png","70","70","test","","","","3","",""
"null","130621","pSARL_v2","pSARL_v2lq34jen1","6111587a8000027e7f79b1ba","fixation","img/fixation.png","null","","test","","","","","",""
"748.8999999910593","131377","pSARL_v2","pSARL_v2lq34jen1","6111587a8000027e7f79b1ba","infreq","img/orange_2bandit_a2.png","68","68","test","1","45","45","3","",""
"null","131448","pSARL_v2","pSARL_v2lq34jen1","6111587a8000027e7f79b1ba","infreq_resp","img/orange_2bandit_a.png","68","68","test","","","","3","",""
"null","131621","pSARL_v2","pSARL_v2lq34jen1","6111587a8000027e7f79b1ba","fixation","img/fixation.png","null","","test","","","","","",""
"475.90000000596046","132106","pSARL_v2","pSARL_v2lq34jen1","6111587a8000027e7f79b1ba","freq","img/green_2bandit_a2.png","70","70","test","1","46","46","3","",""
"null","132452","pSARL_v2","pSARL_v2lq34jen1","6111587a8000027e7f79b1ba","freq_resp","img/green_2bandit_a.png","70","70","test","","","","3","",""
"null","132621","pSARL_v2","pSARL_v2lq34jen1","6111587a8000027e7f79b1ba","fixation","img/fixation.png","null","","test","","","","","",""
"315.70000000298023","132945","pSARL_v2","pSARL_v2lq34jen1","6111587a8000027e7f79b1ba","freq","img/green_2bandit_a2.png","70","70","test","1","47","47","3","",""
"null","133439","pSARL_v2","pSARL_v2lq34jen1","6111587a8000027e7f79b1ba","freq_resp","img/green_2bandit_a.png","70","70","test","","","","3","",""
"null","133602","pSARL_v2","pSARL_v2lq34jen1","6111587a8000027e7f79b1ba","fixation","img/fixation.png","null","","test","","","","","",""
"269.29999999701977","133881","pSARL_v2","pSARL_v2lq34jen1","6111587a8000027e7f79b1ba","freq","img/green_2bandit_a2.png","70","70","test","1","48","48","3","",""
"null","134426","pSARL_v2","pSARL_v2lq34jen1","6111587a8000027e7f79b1ba","freq_resp","img/green_2bandit_a.png","70","70","test","","","","3","",""
"null","134588","pSARL_v2","pSARL_v2lq34jen1","6111587a8000027e7f79b1ba","fixation","img/fixation.png","null","","test","","","","","",""
"269.90000000596046","134865","pSARL_v2","pSARL_v2lq34jen1","6111587a8000027e7f79b1ba","freq","img/green_2bandit_a2.png","70","70","test","1","49","49","3","",""
"null","135405","pSARL_v2","pSARL_v2lq34jen1","6111587a8000027e7f79b1ba","freq_resp","img/green_2bandit_a.png","70","70","test","","","","3","",""
"null","135575","pSARL_v2","pSARL_v2lq34jen1","6111587a8000027e7f79b1ba","fixation","img/fixation.png","null","","test","","","","","",""
"362","135945","pSARL_v2","pSARL_v2lq34jen1","6111587a8000027e7f79b1ba","infreq","img/orange_2bandit_a2.png","68","68","test","1","50","50","3","",""
"null","136406","pSARL_v2","pSARL_v2lq34jen1","6111587a8000027e7f79b1ba","infreq_resp","img/orange_2bandit_a.png","68","68","test","","","","3","",""
"null","136576","pSARL_v2","pSARL_v2lq34jen1","6111587a8000027e7f79b1ba","fixation","img/fixation.png","null","","test","","","","","",""
"216.59999999403954","136800","pSARL_v2","pSARL_v2lq34jen1","6111587a8000027e7f79b1ba","freq","img/green_2bandit_a2.png","70","70","test","1","51","51","3","",""
"null","137393","pSARL_v2","pSARL_v2lq34jen1","6111587a8000027e7f79b1ba","freq_resp","img/green_2bandit_a.png","70","70","test","","","","3","",""
"null","137562","pSARL_v2","pSARL_v2lq34jen1","6111587a8000027e7f79b1ba","fixation","img/fixation.png","null","","test","","","","","",""
"80.1000000089407","137649","pSARL_v2","pSARL_v2lq34jen1","6111587a8000027e7f79b1ba","freq","img/green_2bandit_a2.png","70","70","test","1","52","52","3","",""
"null","138379","pSARL_v2","pSARL_v2lq34jen1","6111587a8000027e7f79b1ba","freq_resp","img/green_2bandit_a.png","70","70","test","","","","3","",""
"null","138547","pSARL_v2","pSARL_v2lq34jen1","6111587a8000027e7f79b1ba","fixation","img/fixation.png","null","","test","","","","","",""
"36.79999999701977","138592","pSARL_v2","pSARL_v2lq34jen1","6111587a8000027e7f79b1ba","freq","img/green_2bandit_a2.png","70","70","test","1","53","53","3","",""
"null","139378","pSARL_v2","pSARL_v2lq34jen1","6111587a8000027e7f79b1ba","freq_resp","img/green_2bandit_a.png","70","70","test","","","","3","",""
"null","139547","pSARL_v2","pSARL_v2lq34jen1","6111587a8000027e7f79b1ba","fixation","img/fixation.png","null","","test","","","","","",""
"212.90000000596046","139768","pSARL_v2","pSARL_v2lq34jen1","6111587a8000027e7f79b1ba","freq","img/green_2bandit_a2.png","70","70","test","1","54","54","3","",""
"null","140379","pSARL_v2","pSARL_v2lq34jen1","6111587a8000027e7f79b1ba","freq_resp","img/green_2bandit_a.png","70","70","test","","","","3","",""
"null","140547","pSARL_v2","pSARL_v2lq34jen1","6111587a8000027e7f79b1ba","fixation","img/fixation.png","null","","test","","","","","",""
"197","140752","pSARL_v2","pSARL_v2lq34jen1","6111587a8000027e7f79b1ba","freq","img/green_2bandit_a2.png","68","70","test","0","55","55","3","",""
"null","141379","pSARL_v2","pSARL_v2lq34jen1","6111587a8000027e7f79b1ba","freq_resp","img/green_2bandit_a.png","68","70","test","","","","3","",""
"null","141547","pSARL_v2","pSARL_v2lq34jen1","6111587a8000027e7f79b1ba","fixation","img/fixation.png","null","","test","","","","","",""
"340.40000000596046","141896","pSARL_v2","pSARL_v2lq34jen1","6111587a8000027e7f79b1ba","freq","img/green_2bandit_a2.png","70","70","test","1","56","56","3","",""
"null","142380","pSARL_v2","pSARL_v2lq34jen1","6111587a8000027e7f79b1ba","freq_resp","img/green_2bandit_a.png","70","70","test","","","","3","",""
"null","142547","pSARL_v2","pSARL_v2lq34jen1","6111587a8000027e7f79b1ba","fixation","img/fixation.png","null","","test","","","","","",""
"268.70000000298023","142825","pSARL_v2","pSARL_v2lq34jen1","6111587a8000027e7f79b1ba","freq","img/green_2bandit_a2.png","70","70","test","1","57","57","3","",""
"null","143379","pSARL_v2","pSARL_v2lq34jen1","6111587a8000027e7f79b1ba","freq_resp","img/green_2bandit_a.png","70","70","test","","","","3","",""
"null","143547","pSARL_v2","pSARL_v2lq34jen1","6111587a8000027e7f79b1ba","fixation","img/fixation.png","null","","test","","","","","",""
"301","143854","pSARL_v2","pSARL_v2lq34jen1","6111587a8000027e7f79b1ba","infreq","img/orange_2bandit_a2.png","70","68","test","0","58","58","3","",""
"null","144363","pSARL_v2","pSARL_v2lq34jen1","6111587a8000027e7f79b1ba","infreq_resp","img/orange_2bandit_a.png","70","68","test","","","","3","",""
"null","144532","pSARL_v2","pSARL_v2lq34jen1","6111587a8000027e7f79b1ba","fixation","img/fixation.png","null","","test","","","","","",""
"355.79999999701977","144897","pSARL_v2","pSARL_v2lq34jen1","6111587a8000027e7f79b1ba","freq","img/green_2bandit_a2.png","70","70","test","1","59","59","3","",""
"null","145365","pSARL_v2","pSARL_v2lq34jen1","6111587a8000027e7f79b1ba","freq_resp","img/green_2bandit_a.png","70","70","test","","","","3","",""
"null","145533","pSARL_v2","pSARL_v2lq34jen1","6111587a8000027e7f79b1ba","fixation","img/fixation.png","null","","test","","","","","",""
"330.5","145871","pSARL_v2","pSARL_v2lq34jen1","6111587a8000027e7f79b1ba","freq","img/green_2bandit_a2.png","70","70","test","1","60","60","3","",""
"null","146351","pSARL_v2","pSARL_v2lq34jen1","6111587a8000027e7f79b1ba","freq_resp","img/green_2bandit_a.png","70","70","test","","","","3","",""
"null","146514","pSARL_v2","pSARL_v2lq34jen1","6111587a8000027e7f79b1ba","fixation","img/fixation.png","null","","test","","","","","",""
"365.29999999701977","146886","pSARL_v2","pSARL_v2lq34jen1","6111587a8000027e7f79b1ba","freq","img/green_2bandit_a2.png","70","70","test","1","61","61","3","",""
"null","147336","pSARL_v2","pSARL_v2lq34jen1","6111587a8000027e7f79b1ba","freq_resp","img/green_2bandit_a.png","70","70","test","","","","3","",""
"null","147498","pSARL_v2","pSARL_v2lq34jen1","6111587a8000027e7f79b1ba","fixation","img/fixation.png","null","","test","","","","","",""
"333.09999999403954","147839","pSARL_v2","pSARL_v2lq34jen1","6111587a8000027e7f79b1ba","freq","img/green_2bandit_a2.png","70","70","test","1","62","62","3","",""
"null","148315","pSARL_v2","pSARL_v2lq34jen1","6111587a8000027e7f79b1ba","freq_resp","img/green_2bandit_a.png","70","70","test","","","","3","",""
"null","148485","pSARL_v2","pSARL_v2lq34jen1","6111587a8000027e7f79b1ba","fixation","img/fixation.png","null","","test","","","","","",""
"298.09999999403954","148792","pSARL_v2","pSARL_v2lq34jen1","6111587a8000027e7f79b1ba","freq","img/green_2bandit_a2.png","70","70","test","1","63","63","3","",""
"null","149301","pSARL_v2","pSARL_v2lq34jen1","6111587a8000027e7f79b1ba","freq_resp","img/green_2bandit_a.png","70","70","test","","","","3","",""
"null","149470","pSARL_v2","pSARL_v2lq34jen1","6111587a8000027e7f79b1ba","fixation","img/fixation.png","null","","test","","","","","",""
"392.8999999910593","149870","pSARL_v2","pSARL_v2lq34jen1","6111587a8000027e7f79b1ba","freq","img/green_2bandit_a2.png","70","70","test","1","64","64","3","",""
"null","150287","pSARL_v2","pSARL_v2lq34jen1","6111587a8000027e7f79b1ba","freq_resp","img/green_2bandit_a.png","70","70","test","","","","3","",""
"null","150456","pSARL_v2","pSARL_v2lq34jen1","6111587a8000027e7f79b1ba","fixation","img/fixation.png","null","","test","","","","","",""
"342.8999999910593","150806","pSARL_v2","pSARL_v2lq34jen1","6111587a8000027e7f79b1ba","freq","img/green_2bandit_a2.png","70","70","test","1","65","65","3","",""
"null","151272","pSARL_v2","pSARL_v2lq34jen1","6111587a8000027e7f79b1ba","freq_resp","img/green_2bandit_a.png","70","70","test","","","","3","",""
"null","151440","pSARL_v2","pSARL_v2lq34jen1","6111587a8000027e7f79b1ba","fixation","img/fixation.png","null","","test","","","","","",""
"397.90000000596046","151846","pSARL_v2","pSARL_v2lq34jen1","6111587a8000027e7f79b1ba","freq","img/green_2bandit_a2.png","70","70","test","1","66","66","3","",""
"null","152272","pSARL_v2","pSARL_v2lq34jen1","6111587a8000027e7f79b1ba","freq_resp","img/green_2bandit_a.png","70","70","test","","","","3","",""
"null","152443","pSARL_v2","pSARL_v2lq34jen1","6111587a8000027e7f79b1ba","fixation","img/fixation.png","null","","test","","","","","",""
"635.2000000029802","153086","pSARL_v2","pSARL_v2lq34jen1","6111587a8000027e7f79b1ba","reward","img/slot.png","74","","test","","","","","",""
"null","153859","pSARL_v2","pSARL_v2lq34jen1","6111587a8000027e7f79b1ba","points","<div class=""verylowPoints""> -7 </div>","null","na","test","","","","3","-7","2"
"403.3999999910593","154270","pSARL_v2","pSARL_v2lq34jen1","6111587a8000027e7f79b1ba","freq","img/green_2bandit_a2.png","70","70","test","1","67","67","4","",""
"null","154676","pSARL_v2","pSARL_v2lq34jen1","6111587a8000027e7f79b1ba","freq_resp","img/green_2bandit_a.png","70","70","test","","","","4","",""
"null","154844","pSARL_v2","pSARL_v2lq34jen1","6111587a8000027e7f79b1ba","fixation","img/fixation.png","null","","test","","","","","",""
"289.6000000089407","155142","pSARL_v2","pSARL_v2lq34jen1","6111587a8000027e7f79b1ba","freq","img/green_2bandit_a2.png","70","70","test","1","68","68","4","",""
"null","155678","pSARL_v2","pSARL_v2lq34jen1","6111587a8000027e7f79b1ba","freq_resp","img/green_2bandit_a.png","70","70","test","","","","4","",""
"null","155846","pSARL_v2","pSARL_v2lq34jen1","6111587a8000027e7f79b1ba","fixation","img/fixation.png","null","","test","","","","","",""
"272.79999999701977","156127","pSARL_v2","pSARL_v2lq34jen1","6111587a8000027e7f79b1ba","freq","img/green_2bandit_a2.png","70","70","test","1","69","69","4","",""
"null","156664","pSARL_v2","pSARL_v2lq34jen1","6111587a8000027e7f79b1ba","freq_resp","img/green_2bandit_a.png","70","70","test","","","","4","",""
"null","156825","pSARL_v2","pSARL_v2lq34jen1","6111587a8000027e7f79b1ba","fixation","img/fixation.png","null","","test","","","","","",""
"268.8999999910593","157102","pSARL_v2","pSARL_v2lq34jen1","6111587a8000027e7f79b1ba","freq","img/green_2bandit_a2.png","70","70","test","1","70","70","4","",""
"null","157647","pSARL_v2","pSARL_v2lq34jen1","6111587a8000027e7f79b1ba","freq_resp","img/green_2bandit_a.png","70","70","test","","","","4","",""
"null","157812","pSARL_v2","pSARL_v2lq34jen1","6111587a8000027e7f79b1ba","fixation","img/fixation.png","null","","test","","","","","",""
"306.79999999701977","158127","pSARL_v2","pSARL_v2lq34jen1","6111587a8000027e7f79b1ba","freq","img/green_2bandit_a2.png","70","70","test","1","71","71","4","",""
"null","158649","pSARL_v2","pSARL_v2lq34jen1","6111587a8000027e7f79b1ba","freq_resp","img/green_2bandit_a.png","70","70","test","","","","4","",""
"null","158813","pSARL_v2","pSARL_v2lq34jen1","6111587a8000027e7f79b1ba","fixation","img/fixation.png","null","","test","","","","","",""
"272.90000000596046","159094","pSARL_v2","pSARL_v2lq34jen1","6111587a8000027e7f79b1ba","freq","img/green_2bandit_a2.png","70","70","test","1","72","72","4","",""
"null","159649","pSARL_v2","pSARL_v2lq34jen1","6111587a8000027e7f79b1ba","freq_resp","img/green_2bandit_a.png","70","70","test","","","","4","",""
"null","159814","pSARL_v2","pSARL_v2lq34jen1","6111587a8000027e7f79b1ba","fixation","img/fixation.png","null","","test","","","","","",""
"256","160078","pSARL_v2","pSARL_v2lq34jen1","6111587a8000027e7f79b1ba","freq","img/green_2bandit_a2.png","70","70","test","1","73","73","4","",""
"null","160650","pSARL_v2","pSARL_v2lq34jen1","6111587a8000027e7f79b1ba","freq_resp","img/green_2bandit_a.png","70","70","test","","","","4","",""
"null","160813","pSARL_v2","pSARL_v2lq34jen1","6111587a8000027e7f79b1ba","fixation","img/fixation.png","null","","test","","","","","",""
"392","161213","pSARL_v2","pSARL_v2lq34jen1","6111587a8000027e7f79b1ba","freq","img/green_2bandit_a2.png","70","70","test","1","74","74","4","",""
"null","161650","pSARL_v2","pSARL_v2lq34jen1","6111587a8000027e7f79b1ba","freq_resp","img/green_2bandit_a.png","70","70","test","","","","4","",""
"null","161814","pSARL_v2","pSARL_v2lq34jen1","6111587a8000027e7f79b1ba","fixation","img/fixation.png","null","","test","","","","","",""
"344.40000000596046","162166","pSARL_v2","pSARL_v2lq34jen1","6111587a8000027e7f79b1ba","freq","img/green_2bandit_a2.png","70","70","test","1","75","75","4","",""
"null","162650","pSARL_v2","pSARL_v2lq34jen1","6111587a8000027e7f79b1ba","freq_resp","img/green_2bandit_a.png","70","70","test","","","","4","",""
"null","162813","pSARL_v2","pSARL_v2lq34jen1","6111587a8000027e7f79b1ba","fixation","img/fixation.png","null","","test","","","","","",""
"431.90000000596046","163252","pSARL_v2","pSARL_v2lq34jen1","6111587a8000027e7f79b1ba","infreq","img/orange_2bandit_a2.png","68","68","test","1","76","76","4","",""
"null","163650","pSARL_v2","pSARL_v2lq34jen1","6111587a8000027e7f79b1ba","infreq_resp","img/orange_2bandit_a.png","68","68","test","","","","4","",""
"null","163813","pSARL_v2","pSARL_v2lq34jen1","6111587a8000027e7f79b1ba","fixation","img/fixation.png","null","","test","","","","","",""
"263.59999999403954","164085","pSARL_v2","pSARL_v2lq34jen1","6111587a8000027e7f79b1ba","freq","img/green_2bandit_a2.png","70","70","test","1","77","77","4","",""
"null","164650","pSARL_v2","pSARL_v2lq34jen1","6111587a8000027e7f79b1ba","freq_resp","img/green_2bandit_a.png","70","70","test","","","","4","",""
"null","164813","pSARL_v2","pSARL_v2lq34jen1","6111587a8000027e7f79b1ba","fixation","img/fixation.png","null","","test","","","","","",""
"215.59999999403954","165036","pSARL_v2","pSARL_v2lq34jen1","6111587a8000027e7f79b1ba","freq","img/green_2bandit_a2.png","70","70","test","1","78","78","4","",""
"null","165650","pSARL_v2","pSARL_v2lq34jen1","6111587a8000027e7f79b1ba","freq_resp","img/green_2bandit_a.png","70","70","test","","","","4","",""
"null","165814","pSARL_v2","pSARL_v2lq34jen1","6111587a8000027e7f79b1ba","fixation","img/fixation.png","null","","test","","","","","",""
"158.5","165981","pSARL_v2","pSARL_v2lq34jen1","6111587a8000027e7f79b1ba","freq","img/green_2bandit_a2.png","70","70","test","1","79","79","4","",""
"null","166651","pSARL_v2","pSARL_v2lq34jen1","6111587a8000027e7f79b1ba","freq_resp","img/green_2bandit_a.png","70","70","test","","","","4","",""
"null","166814","pSARL_v2","pSARL_v2lq34jen1","6111587a8000027e7f79b1ba","fixation","img/fixation.png","null","","test","","","","","",""
"94.59999999403954","166915","pSARL_v2","pSARL_v2lq34jen1","6111587a8000027e7f79b1ba","freq","img/green_2bandit_a2.png","70","70","test","1","80","80","4","",""
"null","167630","pSARL_v2","pSARL_v2lq34jen1","6111587a8000027e7f79b1ba","freq_resp","img/green_2bandit_a.png","70","70","test","","","","4","",""
"null","167798","pSARL_v2","pSARL_v2lq34jen1","6111587a8000027e7f79b1ba","fixation","img/fixation.png","null","","test","","","","","",""
"301.5","168109","pSARL_v2","pSARL_v2lq34jen1","6111587a8000027e7f79b1ba","freq","img/green_2bandit_a2.png","70","70","test","1","81","81","4","",""
"null","168631","pSARL_v2","pSARL_v2lq34jen1","6111587a8000027e7f79b1ba","freq_resp","img/green_2bandit_a.png","70","70","test","","","","4","",""
"null","168799","pSARL_v2","pSARL_v2lq34jen1","6111587a8000027e7f79b1ba","fixation","img/fixation.png","null","","test","","","","","",""
"309.5","169117","pSARL_v2","pSARL_v2lq34jen1","6111587a8000027e7f79b1ba","freq","img/green_2bandit_a2.png","70","70","test","1","82","82","4","",""
"null","169616","pSARL_v2","pSARL_v2lq34jen1","6111587a8000027e7f79b1ba","freq_resp","img/green_2bandit_a.png","70","70","test","","","","4","",""
"null","169784","pSARL_v2","pSARL_v2lq34jen1","6111587a8000027e7f79b1ba","fixation","img/fixation.png","null","","test","","","","","",""
"275.59999999403954","170068","pSARL_v2","pSARL_v2lq34jen1","6111587a8000027e7f79b1ba","freq","img/green_2bandit_a2.png","70","70","test","1","83","83","4","",""
"null","170601","pSARL_v2","pSARL_v2lq34jen1","6111587a8000027e7f79b1ba","freq_resp","img/green_2bandit_a.png","70","70","test","","","","4","",""
"null","170770","pSARL_v2","pSARL_v2lq34jen1","6111587a8000027e7f79b1ba","fixation","img/fixation.png","null","","test","","","","","",""
"250","171028","pSARL_v2","pSARL_v2lq34jen1","6111587a8000027e7f79b1ba","freq","img/green_2bandit_a2.png","70","70","test","1","84","84","4","",""
"null","171601","pSARL_v2","pSARL_v2lq34jen1","6111587a8000027e7f79b1ba","freq_resp","img/green_2bandit_a.png","70","70","test","","","","4","",""
"null","171770","pSARL_v2","pSARL_v2lq34jen1","6111587a8000027e7f79b1ba","fixation","img/fixation.png","null","","test","","","","","",""
"354.5","172132","pSARL_v2","pSARL_v2lq34jen1","6111587a8000027e7f79b1ba","freq","img/green_2bandit_a2.png","70","70","test","1","85","85","4","",""
"null","172586","pSARL_v2","pSARL_v2lq34jen1","6111587a8000027e7f79b1ba","freq_resp","img/green_2bandit_a.png","70","70","test","","","","4","",""
"null","172755","pSARL_v2","pSARL_v2lq34jen1","6111587a8000027e7f79b1ba","fixation","img/fixation.png","null","","test","","","","","",""
"279.8999999910593","173043","pSARL_v2","pSARL_v2lq34jen1","6111587a8000027e7f79b1ba","infreq","img/orange_2bandit_a2.png","70","68","test","0","86","86","4","",""
"null","173587","pSARL_v2","pSARL_v2lq34jen1","6111587a8000027e7f79b1ba","infreq_resp","img/orange_2bandit_a.png","70","68","test","","","","4","",""
"null","173756","pSARL_v2","pSARL_v2lq34jen1","6111587a8000027e7f79b1ba","fixation","img/fixation.png","null","","test","","","","","",""
"543","174306","pSARL_v2","pSARL_v2lq34jen1","6111587a8000027e7f79b1ba","freq","img/green_2bandit_a2.png","70","70","test","1","87","87","4","",""
"null","174587","pSARL_v2","pSARL_v2lq34jen1","6111587a8000027e7f79b1ba","freq_resp","img/green_2bandit_a.png","70","70","test","","","","4","",""
"null","174755","pSARL_v2","pSARL_v2lq34jen1","6111587a8000027e7f79b1ba","fixation","img/fixation.png","null","","test","","","","","",""
"368.1000000089407","175131","pSARL_v2","pSARL_v2lq34jen1","6111587a8000027e7f79b1ba","freq","img/green_2bandit_a2.png","70","70","test","1","88","88","4","",""
"null","175573","pSARL_v2","pSARL_v2lq34jen1","6111587a8000027e7f79b1ba","freq_resp","img/green_2bandit_a.png","70","70","test","","","","4","",""
"null","175735","pSARL_v2","pSARL_v2lq34jen1","6111587a8000027e7f79b1ba","fixation","img/fixation.png","null","","test","","","","","",""
"553.4000000059605","176296","pSARL_v2","pSARL_v2lq34jen1","6111587a8000027e7f79b1ba","reward","img/slot.png","74","","test","","","","","",""
"null","177061","pSARL_v2","pSARL_v2lq34jen1","6111587a8000027e7f79b1ba","points","<div class=""verylowPoints""> -3 </div>","null","na","test","","","","4","-3","3"
"390.20000000298023","177459","pSARL_v2","pSARL_v2lq34jen1","6111587a8000027e7f79b1ba","freq","img/green_2bandit_a2.png","70","70","test","1","89","89","5","",""
"null","177893","pSARL_v2","pSARL_v2lq34jen1","6111587a8000027e7f79b1ba","freq_resp","img/green_2bandit_a.png","70","70","test","","","","5","",""
"null","178060","pSARL_v2","pSARL_v2lq34jen1","6111587a8000027e7f79b1ba","fixation","img/fixation.png","null","","test","","","","","",""
"278.1000000089407","178346","pSARL_v2","pSARL_v2lq34jen1","6111587a8000027e7f79b1ba","freq","img/green_2bandit_a2.png","70","70","test","1","90","90","5","",""
"null","178892","pSARL_v2","pSARL_v2lq34jen1","6111587a8000027e7f79b1ba","freq_resp","img/green_2bandit_a.png","70","70","test","","","","5","",""
"null","179062","pSARL_v2","pSARL_v2lq34jen1","6111587a8000027e7f79b1ba","fixation","img/fixation.png","null","","test","","","","","",""
"269.29999999701977","179338","pSARL_v2","pSARL_v2lq34jen1","6111587a8000027e7f79b1ba","freq","img/green_2bandit_a2.png","70","70","test","1","91","91","5","",""
"null","179879","pSARL_v2","pSARL_v2lq34jen1","6111587a8000027e7f79b1ba","freq_resp","img/green_2bandit_a.png","70","70","test","","","","5","",""
"null","180042","pSARL_v2","pSARL_v2lq34jen1","6111587a8000027e7f79b1ba","fixation","img/fixation.png","null","","test","","","","","",""
"272.70000000298023","180322","pSARL_v2","pSARL_v2lq34jen1","6111587a8000027e7f79b1ba","freq","img/green_2bandit_a2.png","70","70","test","1","92","92","5","",""
"null","180865","pSARL_v2","pSARL_v2lq34jen1","6111587a8000027e7f79b1ba","freq_resp","img/green_2bandit_a.png","70","70","test","","","","5","",""
"null","181027","pSARL_v2","pSARL_v2lq34jen1","6111587a8000027e7f79b1ba","fixation","img/fixation.png","null","","test","","","","","",""
"280.09999999403954","181314","pSARL_v2","pSARL_v2lq34jen1","6111587a8000027e7f79b1ba","freq","img/green_2bandit_a2.png","70","70","test","1","93","93","5","",""
"null","181843","pSARL_v2","pSARL_v2lq34jen1","6111587a8000027e7f79b1ba","freq_resp","img/green_2bandit_a.png","70","70","test","","","","5","",""
"null","182013","pSARL_v2","pSARL_v2lq34jen1","6111587a8000027e7f79b1ba","fixation","img/fixation.png","null","","test","","","","","",""
"267.79999999701977","182290","pSARL_v2","pSARL_v2lq34jen1","6111587a8000027e7f79b1ba","freq","img/green_2bandit_a2.png","70","70","test","1","94","94","5","",""
"null","182845","pSARL_v2","pSARL_v2lq34jen1","6111587a8000027e7f79b1ba","freq_resp","img/green_2bandit_a.png","70","70","test","","","","5","",""
"null","183015","pSARL_v2","pSARL_v2lq34jen1","6111587a8000027e7f79b1ba","fixation","img/fixation.png","null","","test","","","","","",""
"402.70000000298023","183427","pSARL_v2","pSARL_v2lq34jen1","6111587a8000027e7f79b1ba","freq","img/green_2bandit_a2.png","70","70","test","1","95","95","5","",""
"null","183848","pSARL_v2","pSARL_v2lq34jen1","6111587a8000027e7f79b1ba","freq_resp","img/green_2bandit_a.png","70","70","test","","","","5","",""
"null","184016","pSARL_v2","pSARL_v2lq34jen1","6111587a8000027e7f79b1ba","fixation","img/fixation.png","null","","test","","","","","",""
"321.69999998807907","184347","pSARL_v2","pSARL_v2lq34jen1","6111587a8000027e7f79b1ba","freq","img/green_2bandit_a2.png","70","70","test","1","96","96","5","",""
"null","184833","pSARL_v2","pSARL_v2lq34jen1","6111587a8000027e7f79b1ba","freq_resp","img/green_2bandit_a.png","70","70","test","","","","5","",""
"null","185002","pSARL_v2","pSARL_v2lq34jen1","6111587a8000027e7f79b1ba","fixation","img/fixation.png","null","","test","","","","","",""
"407.59999999403954","185418","pSARL_v2","pSARL_v2lq34jen1","6111587a8000027e7f79b1ba","freq","img/green_2bandit_a2.png","70","70","test","1","97","97","5","",""
"null","185833","pSARL_v2","pSARL_v2lq34jen1","6111587a8000027e7f79b1ba","freq_resp","img/green_2bandit_a.png","70","70","test","","","","5","",""
"null","186002","pSARL_v2","pSARL_v2lq34jen1","6111587a8000027e7f79b1ba","fixation","img/fixation.png","null","","test","","","","","",""
"392","186401","pSARL_v2","pSARL_v2lq34jen1","6111587a8000027e7f79b1ba","freq","img/green_2bandit_a2.png","70","70","test","1","98","98","5","",""
"null","186834","pSARL_v2","pSARL_v2lq34jen1","6111587a8000027e7f79b1ba","freq_resp","img/green_2bandit_a.png","70","70","test","","","","5","",""
"null","187003","pSARL_v2","pSARL_v2lq34jen1","6111587a8000027e7f79b1ba","fixation","img/fixation.png","null","","test","","","","","",""
"406.70000000298023","187417","pSARL_v2","pSARL_v2lq34jen1","6111587a8000027e7f79b1ba","freq","img/green_2bandit_a2.png","70","70","test","1","99","99","5","",""
"null","187819","pSARL_v2","pSARL_v2lq34jen1","6111587a8000027e7f79b1ba","freq_resp","img/green_2bandit_a.png","70","70","test","","","","5","",""
"null","187987","pSARL_v2","pSARL_v2lq34jen1","6111587a8000027e7f79b1ba","fixation","img/fixation.png","null","","test","","","","","",""
"365.70000000298023","188362","pSARL_v2","pSARL_v2lq34jen1","6111587a8000027e7f79b1ba","freq","img/green_2bandit_a2.png","70","70","test","1","100","100","5","",""
"null","188819","pSARL_v2","pSARL_v2lq34jen1","6111587a8000027e7f79b1ba","freq_resp","img/green_2bandit_a.png","70","70","test","","","","5","",""
"null","188988","pSARL_v2","pSARL_v2lq34jen1","6111587a8000027e7f79b1ba","fixation","img/fixation.png","null","","test","","","","","",""
"293.29999999701977","189289","pSARL_v2","pSARL_v2lq34jen1","6111587a8000027e7f79b1ba","freq","img/green_2bandit_a2.png","70","70","test","1","101","101","5","",""
"null","189806","pSARL_v2","pSARL_v2lq34jen1","6111587a8000027e7f79b1ba","freq_resp","img/green_2bandit_a.png","70","70","test","","","","5","",""
"null","189975","pSARL_v2","pSARL_v2lq34jen1","6111587a8000027e7f79b1ba","fixation","img/fixation.png","null","","test","","","","","",""
"386","190369","pSARL_v2","pSARL_v2lq34jen1","6111587a8000027e7f79b1ba","freq","img/green_2bandit_a2.png","70","70","test","1","102","102","5","",""
"null","190806","pSARL_v2","pSARL_v2lq34jen1","6111587a8000027e7f79b1ba","freq_resp","img/green_2bandit_a.png","70","70","test","","","","5","",""
"null","190976","pSARL_v2","pSARL_v2lq34jen1","6111587a8000027e7f79b1ba","fixation","img/fixation.png","null","","test","","","","","",""
"344.79999999701977","191329","pSARL_v2","pSARL_v2lq34jen1","6111587a8000027e7f79b1ba","freq","img/green_2bandit_a2.png","70","70","test","1","103","103","5","",""
"null","191811","pSARL_v2","pSARL_v2lq34jen1","6111587a8000027e7f79b1ba","freq_resp","img/green_2bandit_a.png","70","70","test","","","","5","",""
"null","191978","pSARL_v2","pSARL_v2lq34jen1","6111587a8000027e7f79b1ba","fixation","img/fixation.png","null","","test","","","","","",""
"359.09999999403954","192345","pSARL_v2","pSARL_v2lq34jen1","6111587a8000027e7f79b1ba","infreq","img/orange_2bandit_a2.png","68","68","test","1","104","104","5","",""
"null","192810","pSARL_v2","pSARL_v2lq34jen1","6111587a8000027e7f79b1ba","infreq_resp","img/orange_2bandit_a.png","68","68","test","","","","5","",""
"null","192978","pSARL_v2","pSARL_v2lq34jen1","6111587a8000027e7f79b1ba","fixation","img/fixation.png","null","","test","","","","","",""
"247","193233","pSARL_v2","pSARL_v2lq34jen1","6111587a8000027e7f79b1ba","infreq","img/orange_2bandit_a2.png","70","68","test","0","105","105","5","",""
"null","193810","pSARL_v2","pSARL_v2lq34jen1","6111587a8000027e7f79b1ba","infreq_resp","img/orange_2bandit_a.png","70","68","test","","","","5","",""
"null","193980","pSARL_v2","pSARL_v2lq34jen1","6111587a8000027e7f79b1ba","fixation","img/fixation.png","null","","test","","","","","",""
"300.6000000089407","194289","pSARL_v2","pSARL_v2lq34jen1","6111587a8000027e7f79b1ba","freq","img/green_2bandit_a2.png","70","70","test","1","106","106","5","",""
"null","194813","pSARL_v2","pSARL_v2lq34jen1","6111587a8000027e7f79b1ba","freq_resp","img/green_2bandit_a.png","70","70","test","","","","5","",""
"null","194981","pSARL_v2","pSARL_v2lq34jen1","6111587a8000027e7f79b1ba","fixation","img/fixation.png","null","","test","","","","","",""
"276.09999999403954","195265","pSARL_v2","pSARL_v2lq34jen1","6111587a8000027e7f79b1ba","freq","img/green_2bandit_a2.png","70","70","test","1","107","107","5","",""
"null","195815","pSARL_v2","pSARL_v2lq34jen1","6111587a8000027e7f79b1ba","freq_resp","img/green_2bandit_a.png","70","70","test","","","","5","",""
"null","195981","pSARL_v2","pSARL_v2lq34jen1","6111587a8000027e7f79b1ba","fixation","img/fixation.png","null","","test","","","","","",""
"571.3999999910593","196561","pSARL_v2","pSARL_v2lq34jen1","6111587a8000027e7f79b1ba","reward","img/slot.png","74","","test","","","","","",""
"null","197328","pSARL_v2","pSARL_v2lq34jen1","6111587a8000027e7f79b1ba","points","<div class=""veryhighPoints""> +1 </div>","null","na","test","","","","5","1","4"
"null","198144","pSARL_v2","pSARL_v2lq34jen1","6111587a8000027e7f79b1ba","freq","img/green_2bandit_a2.png","null","70","test","0","108","108","6","",""
"null","198312","pSARL_v2","pSARL_v2lq34jen1","6111587a8000027e7f79b1ba","fixation","img/fixation.png","null","","test","","","","","",""
"544.5999999940395","198864","pSARL_v2","pSARL_v2lq34jen1","6111587a8000027e7f79b1ba","infreq","img/orange_2bandit_a2.png","68","68","test","1","109","109","6","",""
"null","199143","pSARL_v2","pSARL_v2lq34jen1","6111587a8000027e7f79b1ba","infreq_resp","img/orange_2bandit_a.png","68","68","test","","","","6","",""
"null","199313","pSARL_v2","pSARL_v2lq34jen1","6111587a8000027e7f79b1ba","fixation","img/fixation.png","null","","test","","","","","",""
"375.5","199696","pSARL_v2","pSARL_v2lq34jen1","6111587a8000027e7f79b1ba","freq","img/green_2bandit_a2.png","70","70","test","1","110","110","6","",""
"null","200144","pSARL_v2","pSARL_v2lq34jen1","6111587a8000027e7f79b1ba","freq_resp","img/green_2bandit_a.png","70","70","test","","","","6","",""
"null","200312","pSARL_v2","pSARL_v2lq34jen1","6111587a8000027e7f79b1ba","fixation","img/fixation.png","null","","test","","","","","",""
"304.1000000089407","200624","pSARL_v2","pSARL_v2lq34jen1","6111587a8000027e7f79b1ba","freq","img/green_2bandit_a2.png","70","70","test","1","111","111","6","",""
"null","201130","pSARL_v2","pSARL_v2lq34jen1","6111587a8000027e7f79b1ba","freq_resp","img/green_2bandit_a.png","70","70","test","","","","6","",""
"null","201298","pSARL_v2","pSARL_v2lq34jen1","6111587a8000027e7f79b1ba","fixation","img/fixation.png","null","","test","","","","","",""
"301.90000000596046","201608","pSARL_v2","pSARL_v2lq34jen1","6111587a8000027e7f79b1ba","freq","img/green_2bandit_a2.png","70","70","test","1","112","112","6","",""
"null","202115","pSARL_v2","pSARL_v2lq34jen1","6111587a8000027e7f79b1ba","freq_resp","img/green_2bandit_a.png","70","70","test","","","","6","",""
"null","202283","pSARL_v2","pSARL_v2lq34jen1","6111587a8000027e7f79b1ba","fixation","img/fixation.png","null","","test","","","","","",""
"284.40000000596046","202576","pSARL_v2","pSARL_v2lq34jen1","6111587a8000027e7f79b1ba","freq","img/green_2bandit_a2.png","70","70","test","1","113","113","6","",""
"null","203100","pSARL_v2","pSARL_v2lq34jen1","6111587a8000027e7f79b1ba","freq_resp","img/green_2bandit_a.png","70","70","test","","","","6","",""
"null","203263","pSARL_v2","pSARL_v2lq34jen1","6111587a8000027e7f79b1ba","fixation","img/fixation.png","null","","test","","","","","",""
"288.20000000298023","203560","pSARL_v2","pSARL_v2lq34jen1","6111587a8000027e7f79b1ba","freq","img/green_2bandit_a2.png","70","70","test","1","114","114","6","",""
"null","204086","pSARL_v2","pSARL_v2lq34jen1","6111587a8000027e7f79b1ba","freq_resp","img/green_2bandit_a.png","70","70","test","","","","6","",""
"null","204250","pSARL_v2","pSARL_v2lq34jen1","6111587a8000027e7f79b1ba","fixation","img/fixation.png","null","","test","","","","","",""
"293.59999999403954","204551","pSARL_v2","pSARL_v2lq34jen1","6111587a8000027e7f79b1ba","freq","img/green_2bandit_a2.png","70","70","test","1","115","115","6","",""
"null","205066","pSARL_v2","pSARL_v2lq34jen1","6111587a8000027e7f79b1ba","freq_resp","img/green_2bandit_a.png","70","70","test","","","","6","",""
"null","205235","pSARL_v2","pSARL_v2lq34jen1","6111587a8000027e7f79b1ba","fixation","img/fixation.png","null","","test","","","","","",""
"275.90000000596046","205519","pSARL_v2","pSARL_v2lq34jen1","6111587a8000027e7f79b1ba","freq","img/green_2bandit_a2.png","70","70","test","1","116","116","6","",""
"null","206067","pSARL_v2","pSARL_v2lq34jen1","6111587a8000027e7f79b1ba","freq_resp","img/green_2bandit_a.png","70","70","test","","","","6","",""
"null","206236","pSARL_v2","pSARL_v2lq34jen1","6111587a8000027e7f79b1ba","fixation","img/fixation.png","null","","test","","","","","",""
"306.5","206551","pSARL_v2","pSARL_v2lq34jen1","6111587a8000027e7f79b1ba","freq","img/green_2bandit_a2.png","70","70","test","1","117","117","6","",""
"null","207053","pSARL_v2","pSARL_v2lq34jen1","6111587a8000027e7f79b1ba","freq_resp","img/green_2bandit_a.png","70","70","test","","","","6","",""
"null","207222","pSARL_v2","pSARL_v2lq34jen1","6111587a8000027e7f79b1ba","fixation","img/fixation.png","null","","test","","","","","",""
"280.5","207511","pSARL_v2","pSARL_v2lq34jen1","6111587a8000027e7f79b1ba","freq","img/green_2bandit_a2.png","70","70","test","1","118","118","6","",""
"null","208054","pSARL_v2","pSARL_v2lq34jen1","6111587a8000027e7f79b1ba","freq_resp","img/green_2bandit_a.png","70","70","test","","","","6","",""
"null","208223","pSARL_v2","pSARL_v2lq34jen1","6111587a8000027e7f79b1ba","fixation","img/fixation.png","null","","test","","","","","",""
"286.5","208518","pSARL_v2","pSARL_v2lq34jen1","6111587a8000027e7f79b1ba","freq","img/green_2bandit_a2.png","70","70","test","1","119","119","6","",""
"null","209055","pSARL_v2","pSARL_v2lq34jen1","6111587a8000027e7f79b1ba","freq_resp","img/green_2bandit_a.png","70","70","test","","","","6","",""
"null","209224","pSARL_v2","pSARL_v2lq34jen1","6111587a8000027e7f79b1ba","fixation","img/fixation.png","null","","test","","","","","",""
"286.5","209519","pSARL_v2","pSARL_v2lq34jen1","6111587a8000027e7f79b1ba","freq","img/green_2bandit_a2.png","70","70","test","1","120","120","6","",""
"null","210042","pSARL_v2","pSARL_v2lq34jen1","6111587a8000027e7f79b1ba","freq_resp","img/green_2bandit_a.png","70","70","test","","","","6","",""
"null","210210","pSARL_v2","pSARL_v2lq34jen1","6111587a8000027e7f79b1ba","fixation","img/fixation.png","null","","test","","","","","",""
"443.8999999910593","210662","pSARL_v2","pSARL_v2lq34jen1","6111587a8000027e7f79b1ba","infreq","img/orange_2bandit_a2.png","68","68","test","1","121","121","6","",""
"null","211028","pSARL_v2","pSARL_v2lq34jen1","6111587a8000027e7f79b1ba","infreq_resp","img/orange_2bandit_a.png","68","68","test","","","","6","",""
"null","211196","pSARL_v2","pSARL_v2lq34jen1","6111587a8000027e7f79b1ba","fixation","img/fixation.png","null","","test","","","","","",""
"451.69999998807907","211656","pSARL_v2","pSARL_v2lq34jen1","6111587a8000027e7f79b1ba","infreq","img/orange_2bandit_a2.png","68","68","test","1","122","122","6","",""
"null","212014","pSARL_v2","pSARL_v2lq34jen1","6111587a8000027e7f79b1ba","infreq_resp","img/orange_2bandit_a.png","68","68","test","","","","6","",""
"null","212177","pSARL_v2","pSARL_v2lq34jen1","6111587a8000027e7f79b1ba","fixation","img/fixation.png","null","","test","","","","","",""
"381.6000000089407","212566","pSARL_v2","pSARL_v2lq34jen1","6111587a8000027e7f79b1ba","freq","img/green_2bandit_a2.png","70","70","test","1","123","123","6","",""
"null","213000","pSARL_v2","pSARL_v2lq34jen1","6111587a8000027e7f79b1ba","freq_resp","img/green_2bandit_a.png","70","70","test","","","","6","",""
"null","213163","pSARL_v2","pSARL_v2lq34jen1","6111587a8000027e7f79b1ba","fixation","img/fixation.png","null","","test","","","","","",""
"298.79999999701977","213470","pSARL_v2","pSARL_v2lq34jen1","6111587a8000027e7f79b1ba","freq","img/green_2bandit_a2.png","70","70","test","1","124","124","6","",""
"null","214001","pSARL_v2","pSARL_v2lq34jen1","6111587a8000027e7f79b1ba","freq_resp","img/green_2bandit_a.png","70","70","test","","","","6","",""
"null","214164","pSARL_v2","pSARL_v2lq34jen1","6111587a8000027e7f79b1ba","fixation","img/fixation.png","null","","test","","","","","",""
"322.09999999403954","214495","pSARL_v2","pSARL_v2lq34jen1","6111587a8000027e7f79b1ba","freq","img/green_2bandit_a2.png","70","70","test","1","125","125","6","",""
"null","215001","pSARL_v2","pSARL_v2lq34jen1","6111587a8000027e7f79b1ba","freq_resp","img/green_2bandit_a.png","70","70","test","","","","6","",""
"null","215164","pSARL_v2","pSARL_v2lq34jen1","6111587a8000027e7f79b1ba","fixation","img/fixation.png","null","","test","","","","","",""
"289.30000001192093","215462","pSARL_v2","pSARL_v2lq34jen1","6111587a8000027e7f79b1ba","freq","img/green_2bandit_a2.png","70","70","test","1","126","126","6","",""
"null","216002","pSARL_v2","pSARL_v2lq34jen1","6111587a8000027e7f79b1ba","freq_resp","img/green_2bandit_a.png","70","70","test","","","","6","",""
"null","216165","pSARL_v2","pSARL_v2lq34jen1","6111587a8000027e7f79b1ba","fixation","img/fixation.png","null","","test","","","","","",""
"272.8999999910593","216446","pSARL_v2","pSARL_v2lq34jen1","6111587a8000027e7f79b1ba","freq","img/green_2bandit_a2.png","70","70","test","1","127","127","6","",""
"null","216982","pSARL_v2","pSARL_v2lq34jen1","6111587a8000027e7f79b1ba","freq_resp","img/green_2bandit_a.png","70","70","test","","","","6","",""
"null","217150","pSARL_v2","pSARL_v2lq34jen1","6111587a8000027e7f79b1ba","fixation","img/fixation.png","null","","test","","","","","",""
"559.1999999880791","217717","pSARL_v2","pSARL_v2lq34jen1","6111587a8000027e7f79b1ba","reward","img/slot.png","74","","test","","","","","",""
"null","218483","pSARL_v2","pSARL_v2lq34jen1","6111587a8000027e7f79b1ba","points","<div class=""verylowPoints""> -7 </div>","null","na","test","","","","6","-7","5"
"521.5","219013","pSARL_v2","pSARL_v2lq34jen1","6111587a8000027e7f79b1ba","freq","img/green_2bandit_a2.png","70","70","test","1","128","128","7","",""
"null","219305","pSARL_v2","pSARL_v2lq34jen1","6111587a8000027e7f79b1ba","freq_resp","img/green_2bandit_a.png","70","70","test","","","","7","",""
"null","219468","pSARL_v2","pSARL_v2lq34jen1","6111587a8000027e7f79b1ba","fixation","img/fixation.png","null","","test","","","","","",""
"249.40000000596046","219725","pSARL_v2","pSARL_v2lq34jen1","6111587a8000027e7f79b1ba","freq","img/green_2bandit_a2.png","70","70","test","1","129","129","7","",""
"null","220284","pSARL_v2","pSARL_v2lq34jen1","6111587a8000027e7f79b1ba","freq_resp","img/green_2bandit_a.png","70","70","test","","","","7","",""
"null","220453","pSARL_v2","pSARL_v2lq34jen1","6111587a8000027e7f79b1ba","fixation","img/fixation.png","null","","test","","","","","",""
"312.09999999403954","220773","pSARL_v2","pSARL_v2lq34jen1","6111587a8000027e7f79b1ba","freq","img/green_2bandit_a2.png","70","70","test","1","130","130","7","",""
"null","221269","pSARL_v2","pSARL_v2lq34jen1","6111587a8000027e7f79b1ba","freq_resp","img/green_2bandit_a.png","70","70","test","","","","7","",""
"null","221438","pSARL_v2","pSARL_v2lq34jen1","6111587a8000027e7f79b1ba","fixation","img/fixation.png","null","","test","","","","","",""
"246.5","221693","pSARL_v2","pSARL_v2lq34jen1","6111587a8000027e7f79b1ba","freq","img/green_2bandit_a2.png","70","70","test","1","131","131","7","",""
"null","222255","pSARL_v2","pSARL_v2lq34jen1","6111587a8000027e7f79b1ba","freq_resp","img/green_2bandit_a.png","70","70","test","","","","7","",""
"null","222426","pSARL_v2","pSARL_v2lq34jen1","6111587a8000027e7f79b1ba","fixation","img/fixation.png","null","","test","","","","","",""
"594.8000000119209","223029","pSARL_v2","pSARL_v2lq34jen1","6111587a8000027e7f79b1ba","infreq","img/orange_2bandit_a2.png","68","68","test","1","132","132","7","",""
"null","223259","pSARL_v2","pSARL_v2lq34jen1","6111587a8000027e7f79b1ba","infreq_resp","img/orange_2bandit_a.png","68","68","test","","","","7","",""
"null","223427","pSARL_v2","pSARL_v2lq34jen1","6111587a8000027e7f79b1ba","fixation","img/fixation.png","null","","test","","","","","",""
"538","223972","pSARL_v2","pSARL_v2lq34jen1","6111587a8000027e7f79b1ba","freq","img/green_2bandit_a2.png","70","70","test","1","133","133","7","",""
"null","224260","pSARL_v2","pSARL_v2lq34jen1","6111587a8000027e7f79b1ba","freq_resp","img/green_2bandit_a.png","70","70","test","","","","7","",""
"null","224428","pSARL_v2","pSARL_v2lq34jen1","6111587a8000027e7f79b1ba","fixation","img/fixation.png","null","","test","","","","","",""
"null","225245","pSARL_v2","pSARL_v2lq34jen1","6111587a8000027e7f79b1ba","freq","img/green_2bandit_a2.png","null","70","test","0","134","134","7","",""
"null","225414","pSARL_v2","pSARL_v2lq34jen1","6111587a8000027e7f79b1ba","fixation","img/fixation.png","null","","test","","","","","",""
"750.5999999940395","226172","pSARL_v2","pSARL_v2lq34jen1","6111587a8000027e7f79b1ba","freq","img/green_2bandit_a2.png","70","70","test","1","135","135","7","",""
"null","226230","pSARL_v2","pSARL_v2lq34jen1","6111587a8000027e7f79b1ba","freq_resp","img/green_2bandit_a.png","70","70","test","","","","7","",""
"null","226393","pSARL_v2","pSARL_v2lq34jen1","6111587a8000027e7f79b1ba","fixation","img/fixation.png","null","","test","","","","","",""
"442.5","226845","pSARL_v2","pSARL_v2lq34jen1","6111587a8000027e7f79b1ba","infreq","img/orange_2bandit_a2.png","68","68","test","1","136","136","7","",""
"null","227216","pSARL_v2","pSARL_v2lq34jen1","6111587a8000027e7f79b1ba","infreq_resp","img/orange_2bandit_a.png","68","68","test","","","","7","",""
"null","227377","pSARL_v2","pSARL_v2lq34jen1","6111587a8000027e7f79b1ba","fixation","img/fixation.png","null","","test","","","","","",""
"601.8999999910593","227986","pSARL_v2","pSARL_v2lq34jen1","6111587a8000027e7f79b1ba","freq","img/green_2bandit_a2.png","70","70","test","1","137","137","7","",""
"null","228215","pSARL_v2","pSARL_v2lq34jen1","6111587a8000027e7f79b1ba","freq_resp","img/green_2bandit_a.png","70","70","test","","","","7","",""
"null","228377","pSARL_v2","pSARL_v2lq34jen1","6111587a8000027e7f79b1ba","fixation","img/fixation.png","null","","test","","","","","",""
"482.70000000298023","228868","pSARL_v2","pSARL_v2lq34jen1","6111587a8000027e7f79b1ba","freq","img/green_2bandit_a2.png","70","70","test","1","138","138","7","",""
"null","229214","pSARL_v2","pSARL_v2lq34jen1","6111587a8000027e7f79b1ba","freq_resp","img/green_2bandit_a.png","70","70","test","","","","7","",""
"null","229377","pSARL_v2","pSARL_v2lq34jen1","6111587a8000027e7f79b1ba","fixation","img/fixation.png","null","","test","","","","","",""
"379.5","229764","pSARL_v2","pSARL_v2lq34jen1","6111587a8000027e7f79b1ba","freq","img/green_2bandit_a2.png","70","70","test","1","139","139","7","",""
"null","230209","pSARL_v2","pSARL_v2lq34jen1","6111587a8000027e7f79b1ba","freq_resp","img/green_2bandit_a.png","70","70","test","","","","7","",""
"null","230378","pSARL_v2","pSARL_v2lq34jen1","6111587a8000027e7f79b1ba","fixation","img/fixation.png","null","","test","","","","","",""
"273.90000000596046","230660","pSARL_v2","pSARL_v2lq34jen1","6111587a8000027e7f79b1ba","freq","img/green_2bandit_a2.png","70","70","test","1","140","140","7","",""
"null","231210","pSARL_v2","pSARL_v2lq34jen1","6111587a8000027e7f79b1ba","freq_resp","img/green_2bandit_a.png","70","70","test","","","","7","",""
"null","231379","pSARL_v2","pSARL_v2lq34jen1","6111587a8000027e7f79b1ba","fixation","img/fixation.png","null","","test","","","","","",""
"296.59999999403954","231672","pSARL_v2","pSARL_v2lq34jen1","6111587a8000027e7f79b1ba","freq","img/green_2bandit_a2.png","70","70","test","1","141","141","7","",""
"null","232185","pSARL_v2","pSARL_v2lq34jen1","6111587a8000027e7f79b1ba","freq_resp","img/green_2bandit_a.png","70","70","test","","","","7","",""
"null","232353","pSARL_v2","pSARL_v2lq34jen1","6111587a8000027e7f79b1ba","fixation","img/fixation.png","null","","test","","","","","",""
"231.6000000089407","232591","pSARL_v2","pSARL_v2lq34jen1","6111587a8000027e7f79b1ba","freq","img/green_2bandit_a2.png","70","70","test","1","142","142","7","",""
"null","233169","pSARL_v2","pSARL_v2lq34jen1","6111587a8000027e7f79b1ba","freq_resp","img/green_2bandit_a.png","70","70","test","","","","7","",""
"null","233338","pSARL_v2","pSARL_v2lq34jen1","6111587a8000027e7f79b1ba","fixation","img/fixation.png","null","","test","","","","","",""
"317","233663","pSARL_v2","pSARL_v2lq34jen1","6111587a8000027e7f79b1ba","freq","img/green_2bandit_a2.png","70","70","test","1","143","143","7","",""
"null","234170","pSARL_v2","pSARL_v2lq34jen1","6111587a8000027e7f79b1ba","freq_resp","img/green_2bandit_a.png","70","70","test","","","","7","",""
"null","234339","pSARL_v2","pSARL_v2lq34jen1","6111587a8000027e7f79b1ba","fixation","img/fixation.png","null","","test","","","","","",""
"251.8999999910593","234600","pSARL_v2","pSARL_v2lq34jen1","6111587a8000027e7f79b1ba","freq","img/green_2bandit_a2.png","70","70","test","1","144","144","7","",""
"null","235170","pSARL_v2","pSARL_v2lq34jen1","6111587a8000027e7f79b1ba","freq_resp","img/green_2bandit_a.png","70","70","test","","","","7","",""
"null","235339","pSARL_v2","pSARL_v2lq34jen1","6111587a8000027e7f79b1ba","fixation","img/fixation.png","null","","test","","","","","",""
"284.20000000298023","235631","pSARL_v2","pSARL_v2lq34jen1","6111587a8000027e7f79b1ba","freq","img/green_2bandit_a2.png","70","70","test","1","145","145","7","",""
"null","236172","pSARL_v2","pSARL_v2lq34jen1","6111587a8000027e7f79b1ba","freq_resp","img/green_2bandit_a.png","70","70","test","","","","7","",""
"null","236340","pSARL_v2","pSARL_v2lq34jen1","6111587a8000027e7f79b1ba","fixation","img/fixation.png","null","","test","","","","","",""
"291.29999999701977","236639","pSARL_v2","pSARL_v2lq34jen1","6111587a8000027e7f79b1ba","freq","img/green_2bandit_a2.png","70","70","test","1","146","146","7","",""
"null","237157","pSARL_v2","pSARL_v2lq34jen1","6111587a8000027e7f79b1ba","freq_resp","img/green_2bandit_a.png","70","70","test","","","","7","",""
"null","237326","pSARL_v2","pSARL_v2lq34jen1","6111587a8000027e7f79b1ba","fixation","img/fixation.png","null","","test","","","","","",""
"385.6000000089407","237720","pSARL_v2","pSARL_v2lq34jen1","6111587a8000027e7f79b1ba","freq","img/green_2bandit_a2.png","70","70","test","1","147","147","7","",""
"null","238142","pSARL_v2","pSARL_v2lq34jen1","6111587a8000027e7f79b1ba","freq_resp","img/green_2bandit_a.png","70","70","test","","","","7","",""
"null","238305","pSARL_v2","pSARL_v2lq34jen1","6111587a8000027e7f79b1ba","fixation","img/fixation.png","null","","test","","","","","",""
"326.30000001192093","238639","pSARL_v2","pSARL_v2lq34jen1","6111587a8000027e7f79b1ba","freq","img/green_2bandit_a2.png","70","70","test","1","148","148","7","",""
"null","239130","pSARL_v2","pSARL_v2lq34jen1","6111587a8000027e7f79b1ba","freq_resp","img/green_2bandit_a.png","70","70","test","","","","7","",""
"null","239291","pSARL_v2","pSARL_v2lq34jen1","6111587a8000027e7f79b1ba","fixation","img/fixation.png","null","","test","","","","","",""
"667.7999999970198","239966","pSARL_v2","pSARL_v2lq34jen1","6111587a8000027e7f79b1ba","reward","img/slot.png","74","","test","","","","","",""
"null","240730","pSARL_v2","pSARL_v2lq34jen1","6111587a8000027e7f79b1ba","points","<div class=""verylowPoints""> -6 </div>","null","na","test","","","","7","-6","6"
"652.4000000059605","241391","pSARL_v2","pSARL_v2lq34jen1","6111587a8000027e7f79b1ba","freq","img/green_2bandit_a2.png","70","70","test","1","149","149","8","",""
"null","241561","pSARL_v2","pSARL_v2lq34jen1","6111587a8000027e7f79b1ba","freq_resp","img/green_2bandit_a.png","70","70","test","","","","8","",""
"null","241732","pSARL_v2","pSARL_v2lq34jen1","6111587a8000027e7f79b1ba","fixation","img/fixation.png","null","","test","","","","","",""
"338.6000000089407","242079","pSARL_v2","pSARL_v2lq34jen1","6111587a8000027e7f79b1ba","freq","img/green_2bandit_a2.png","70","70","test","1","150","150","8","",""
"null","242563","pSARL_v2","pSARL_v2lq34jen1","6111587a8000027e7f79b1ba","freq_resp","img/green_2bandit_a.png","70","70","test","","","","8","",""
"null","242732","pSARL_v2","pSARL_v2lq34jen1","6111587a8000027e7f79b1ba","fixation","img/fixation.png","null","","test","","","","","",""
"273.70000000298023","243014","pSARL_v2","pSARL_v2lq34jen1","6111587a8000027e7f79b1ba","freq","img/green_2bandit_a2.png","70","70","test","1","151","151","8","",""
"null","243564","pSARL_v2","pSARL_v2lq34jen1","6111587a8000027e7f79b1ba","freq_resp","img/green_2bandit_a.png","70","70","test","","","","8","",""
"null","243733","pSARL_v2","pSARL_v2lq34jen1","6111587a8000027e7f79b1ba","fixation","img/fixation.png","null","","test","","","","","",""
"250","243991","pSARL_v2","pSARL_v2lq34jen1","6111587a8000027e7f79b1ba","freq","img/green_2bandit_a2.png","70","70","test","1","152","152","8","",""
"null","244565","pSARL_v2","pSARL_v2lq34jen1","6111587a8000027e7f79b1ba","freq_resp","img/green_2bandit_a.png","70","70","test","","","","8","",""
"null","244733","pSARL_v2","pSARL_v2lq34jen1","6111587a8000027e7f79b1ba","fixation","img/fixation.png","null","","test","","","","","",""
"280.20000000298023","245020","pSARL_v2","pSARL_v2lq34jen1","6111587a8000027e7f79b1ba","freq","img/green_2bandit_a2.png","70","70","test","1","153","153","8","",""
"null","245550","pSARL_v2","pSARL_v2lq34jen1","6111587a8000027e7f79b1ba","freq_resp","img/green_2bandit_a.png","70","70","test","","","","8","",""
"null","245713","pSARL_v2","pSARL_v2lq34jen1","6111587a8000027e7f79b1ba","fixation","img/fixation.png","null","","test","","","","","",""
"253.20000000298023","245975","pSARL_v2","pSARL_v2lq34jen1","6111587a8000027e7f79b1ba","freq","img/green_2bandit_a2.png","70","70","test","1","154","154","8","",""
"null","246536","pSARL_v2","pSARL_v2lq34jen1","6111587a8000027e7f79b1ba","freq_resp","img/green_2bandit_a.png","70","70","test","","","","8","",""
"null","246698","pSARL_v2","pSARL_v2lq34jen1","6111587a8000027e7f79b1ba","fixation","img/fixation.png","null","","test","","","","","",""
"267.59999999403954","246974","pSARL_v2","pSARL_v2lq34jen1","6111587a8000027e7f79b1ba","freq","img/green_2bandit_a2.png","70","70","test","1","155","155","8","",""
"null","247544","pSARL_v2","pSARL_v2lq34jen1","6111587a8000027e7f79b1ba","freq_resp","img/green_2bandit_a.png","70","70","test","","","","8","",""
"null","247713","pSARL_v2","pSARL_v2lq34jen1","6111587a8000027e7f79b1ba","fixation","img/fixation.png","null","","test","","","","","",""
"277.20000000298023","247998","pSARL_v2","pSARL_v2lq34jen1","6111587a8000027e7f79b1ba","freq","img/green_2bandit_a2.png","70","70","test","1","156","156","8","",""
"null","248536","pSARL_v2","pSARL_v2lq34jen1","6111587a8000027e7f79b1ba","freq_resp","img/green_2bandit_a.png","70","70","test","","","","8","",""
"null","248699","pSARL_v2","pSARL_v2lq34jen1","6111587a8000027e7f79b1ba","fixation","img/fixation.png","null","","test","","","","","",""
"314.8999999910593","249021","pSARL_v2","pSARL_v2lq34jen1","6111587a8000027e7f79b1ba","freq","img/green_2bandit_a2.png","70","70","test","1","157","157","8","",""
"null","249536","pSARL_v2","pSARL_v2lq34jen1","6111587a8000027e7f79b1ba","freq_resp","img/green_2bandit_a.png","70","70","test","","","","8","",""
"null","249700","pSARL_v2","pSARL_v2lq34jen1","6111587a8000027e7f79b1ba","fixation","img/fixation.png","null","","test","","","","","",""
"592.6000000089407","250302","pSARL_v2","pSARL_v2lq34jen1","6111587a8000027e7f79b1ba","infreq","img/orange_2bandit_a2.png","68","68","test","1","158","158","8","",""
"null","250537","pSARL_v2","pSARL_v2lq34jen1","6111587a8000027e7f79b1ba","infreq_resp","img/orange_2bandit_a.png","68","68","test","","","","8","",""
"null","250701","pSARL_v2","pSARL_v2lq34jen1","6111587a8000027e7f79b1ba","fixation","img/fixation.png","null","","test","","","","","",""
"455.70000000298023","251165","pSARL_v2","pSARL_v2lq34jen1","6111587a8000027e7f79b1ba","freq","img/green_2bandit_a2.png","70","70","test","1","159","159","8","",""
"null","251538","pSARL_v2","pSARL_v2lq34jen1","6111587a8000027e7f79b1ba","freq_resp","img/green_2bandit_a.png","70","70","test","","","","8","",""
"null","251702","pSARL_v2","pSARL_v2lq34jen1","6111587a8000027e7f79b1ba","fixation","img/fixation.png","null","","test","","","","","",""
"344.20000000298023","252054","pSARL_v2","pSARL_v2lq34jen1","6111587a8000027e7f79b1ba","freq","img/green_2bandit_a2.png","70","70","test","1","160","160","8","",""
"null","252540","pSARL_v2","pSARL_v2lq34jen1","6111587a8000027e7f79b1ba","freq_resp","img/green_2bandit_a.png","70","70","test","","","","8","",""
"null","252703","pSARL_v2","pSARL_v2lq34jen1","6111587a8000027e7f79b1ba","fixation","img/fixation.png","null","","test","","","","","",""
"302.5","253020","pSARL_v2","pSARL_v2lq34jen1","6111587a8000027e7f79b1ba","freq","img/green_2bandit_a2.png","70","70","test","1","161","161","8","",""
"null","253542","pSARL_v2","pSARL_v2lq34jen1","6111587a8000027e7f79b1ba","freq_resp","img/green_2bandit_a.png","70","70","test","","","","8","",""
"null","253704","pSARL_v2","pSARL_v2lq34jen1","6111587a8000027e7f79b1ba","fixation","img/fixation.png","null","","test","","","","","",""
"325.5","254037","pSARL_v2","pSARL_v2lq34jen1","6111587a8000027e7f79b1ba","freq","img/green_2bandit_a2.png","70","70","test","1","162","162","8","",""
"null","254521","pSARL_v2","pSARL_v2lq34jen1","6111587a8000027e7f79b1ba","freq_resp","img/green_2bandit_a.png","70","70","test","","","","8","",""
"null","254690","pSARL_v2","pSARL_v2lq34jen1","6111587a8000027e7f79b1ba","fixation","img/fixation.png","null","","test","","","","","",""
"290.20000000298023","254988","pSARL_v2","pSARL_v2lq34jen1","6111587a8000027e7f79b1ba","freq","img/green_2bandit_a2.png","70","70","test","1","163","163","8","",""
"null","255507","pSARL_v2","pSARL_v2lq34jen1","6111587a8000027e7f79b1ba","freq_resp","img/green_2bandit_a.png","70","70","test","","","","8","",""
"null","255677","pSARL_v2","pSARL_v2lq34jen1","6111587a8000027e7f79b1ba","fixation","img/fixation.png","null","","test","","","","","",""
"312.29999999701977","255997","pSARL_v2","pSARL_v2lq34jen1","6111587a8000027e7f79b1ba","freq","img/green_2bandit_a2.png","70","70","test","1","164","164","8","",""
"null","256507","pSARL_v2","pSARL_v2lq34jen1","6111587a8000027e7f79b1ba","freq_resp","img/green_2bandit_a.png","70","70","test","","","","8","",""
"null","256675","pSARL_v2","pSARL_v2lq34jen1","6111587a8000027e7f79b1ba","fixation","img/fixation.png","null","","test","","","","","",""
"256.90000000596046","256940","pSARL_v2","pSARL_v2lq34jen1","6111587a8000027e7f79b1ba","freq","img/green_2bandit_a2.png","70","70","test","1","165","165","8","",""
"null","257507","pSARL_v2","pSARL_v2lq34jen1","6111587a8000027e7f79b1ba","freq_resp","img/green_2bandit_a.png","70","70","test","","","","8","",""
"null","257677","pSARL_v2","pSARL_v2lq34jen1","6111587a8000027e7f79b1ba","fixation","img/fixation.png","null","","test","","","","","",""
"255.3999999910593","257940","pSARL_v2","pSARL_v2lq34jen1","6111587a8000027e7f79b1ba","freq","img/green_2bandit_a2.png","70","70","test","1","166","166","8","",""
"null","258493","pSARL_v2","pSARL_v2lq34jen1","6111587a8000027e7f79b1ba","freq_resp","img/green_2bandit_a.png","70","70","test","","","","8","",""
"null","258663","pSARL_v2","pSARL_v2lq34jen1","6111587a8000027e7f79b1ba","fixation","img/fixation.png","null","","test","","","","","",""
"245.20000000298023","258916","pSARL_v2","pSARL_v2lq34jen1","6111587a8000027e7f79b1ba","freq","img/green_2bandit_a2.png","70","70","test","1","167","167","8","",""
"null","259480","pSARL_v2","pSARL_v2lq34jen1","6111587a8000027e7f79b1ba","freq_resp","img/green_2bandit_a.png","70","70","test","","","","8","",""
"null","259649","pSARL_v2","pSARL_v2lq34jen1","6111587a8000027e7f79b1ba","fixation","img/fixation.png","null","","test","","","","","",""
"259.5","259917","pSARL_v2","pSARL_v2lq34jen1","6111587a8000027e7f79b1ba","freq","img/green_2bandit_a2.png","70","70","test","1","168","168","8","",""
"null","260481","pSARL_v2","pSARL_v2lq34jen1","6111587a8000027e7f79b1ba","freq_resp","img/green_2bandit_a.png","70","70","test","","","","8","",""
"null","260651","pSARL_v2","pSARL_v2lq34jen1","6111587a8000027e7f79b1ba","fixation","img/fixation.png","null","","test","","","","","",""
"265","260923","pSARL_v2","pSARL_v2lq34jen1","6111587a8000027e7f79b1ba","freq","img/green_2bandit_a2.png","70","70","test","1","169","169","8","",""
"null","261483","pSARL_v2","pSARL_v2lq34jen1","6111587a8000027e7f79b1ba","freq_resp","img/green_2bandit_a.png","70","70","test","","","","8","",""
"null","261651","pSARL_v2","pSARL_v2lq34jen1","6111587a8000027e7f79b1ba","fixation","img/fixation.png","null","","test","","","","","",""
"432.5","262091","pSARL_v2","pSARL_v2lq34jen1","6111587a8000027e7f79b1ba","infreq","img/orange_2bandit_a2.png","68","68","test","1","170","170","8","",""
"null","262474","pSARL_v2","pSARL_v2lq34jen1","6111587a8000027e7f79b1ba","infreq_resp","img/orange_2bandit_a.png","68","68","test","","","","8","",""
"null","262652","pSARL_v2","pSARL_v2lq34jen1","6111587a8000027e7f79b1ba","fixation","img/fixation.png","null","","test","","","","","",""
"375.29999999701977","263036","pSARL_v2","pSARL_v2lq34jen1","6111587a8000027e7f79b1ba","freq","img/green_2bandit_a2.png","70","70","test","1","171","171","8","",""
"null","263485","pSARL_v2","pSARL_v2lq34jen1","6111587a8000027e7f79b1ba","freq_resp","img/green_2bandit_a.png","70","70","test","","","","8","",""
"null","263652","pSARL_v2","pSARL_v2lq34jen1","6111587a8000027e7f79b1ba","fixation","img/fixation.png","null","","test","","","","","",""
"279.09999999403954","263939","pSARL_v2","pSARL_v2lq34jen1","6111587a8000027e7f79b1ba","freq","img/green_2bandit_a2.png","70","70","test","1","172","172","8","",""
"null","264484","pSARL_v2","pSARL_v2lq34jen1","6111587a8000027e7f79b1ba","freq_resp","img/green_2bandit_a.png","70","70","test","","","","8","",""
"null","264652","pSARL_v2","pSARL_v2lq34jen1","6111587a8000027e7f79b1ba","fixation","img/fixation.png","null","","test","","","","","",""
"262.70000000298023","264923","pSARL_v2","pSARL_v2lq34jen1","6111587a8000027e7f79b1ba","freq","img/green_2bandit_a2.png","70","70","test","1","173","173","8","",""
"null","265485","pSARL_v2","pSARL_v2lq34jen1","6111587a8000027e7f79b1ba","freq_resp","img/green_2bandit_a.png","70","70","test","","","","8","",""
"null","265654","pSARL_v2","pSARL_v2lq34jen1","6111587a8000027e7f79b1ba","fixation","img/fixation.png","null","","test","","","","","",""
"501.1000000089407","266164","pSARL_v2","pSARL_v2lq34jen1","6111587a8000027e7f79b1ba","reward","img/slot.png","74","","test","","","","","",""
"null","266932","pSARL_v2","pSARL_v2lq34jen1","6111587a8000027e7f79b1ba","points","<div class=""verylowPoints""> -4 </div>","null","na","test","","","","8","-4","7"
"702.9000000059605","267643","pSARL_v2","pSARL_v2lq34jen1","6111587a8000027e7f79b1ba","freq","img/green_2bandit_a2.png","70","70","test","1","174","174","9","",""
"null","267752","pSARL_v2","pSARL_v2lq34jen1","6111587a8000027e7f79b1ba","freq_resp","img/green_2bandit_a.png","70","70","test","","","","9","",""
"null","267915","pSARL_v2","pSARL_v2lq34jen1","6111587a8000027e7f79b1ba","fixation","img/fixation.png","null","","test","","","","","",""
"367.1000000089407","268291","pSARL_v2","pSARL_v2lq34jen1","6111587a8000027e7f79b1ba","freq","img/green_2bandit_a2.png","70","70","test","1","175","175","9","",""
"null","268753","pSARL_v2","pSARL_v2lq34jen1","6111587a8000027e7f79b1ba","freq_resp","img/green_2bandit_a.png","70","70","test","","","","9","",""
"null","268915","pSARL_v2","pSARL_v2lq34jen1","6111587a8000027e7f79b1ba","fixation","img/fixation.png","null","","test","","","","","",""
"503.20000000298023","269427","pSARL_v2","pSARL_v2lq34jen1","6111587a8000027e7f79b1ba","infreq","img/orange_2bandit_a2.png","68","68","test","1","176","176","9","",""
"null","269753","pSARL_v2","pSARL_v2lq34jen1","6111587a8000027e7f79b1ba","infreq_resp","img/orange_2bandit_a.png","68","68","test","","","","9","",""
"null","269916","pSARL_v2","pSARL_v2lq34jen1","6111587a8000027e7f79b1ba","fixation","img/fixation.png","null","","test","","","","","",""
"382.3999999910593","270307","pSARL_v2","pSARL_v2lq34jen1","6111587a8000027e7f79b1ba","freq","img/green_2bandit_a2.png","70","70","test","1","177","177","9","",""
"null","270752","pSARL_v2","pSARL_v2lq34jen1","6111587a8000027e7f79b1ba","freq_resp","img/green_2bandit_a.png","70","70","test","","","","9","",""
"null","270914","pSARL_v2","pSARL_v2lq34jen1","6111587a8000027e7f79b1ba","fixation","img/fixation.png","null","","test","","","","","",""
"328.90000000596046","271251","pSARL_v2","pSARL_v2lq34jen1","6111587a8000027e7f79b1ba","freq","img/green_2bandit_a2.png","70","70","test","1","178","178","9","",""
"null","271733","pSARL_v2","pSARL_v2lq34jen1","6111587a8000027e7f79b1ba","freq_resp","img/green_2bandit_a.png","70","70","test","","","","9","",""
"null","271902","pSARL_v2","pSARL_v2lq34jen1","6111587a8000027e7f79b1ba","fixation","img/fixation.png","null","","test","","","","","",""
"332.70000000298023","272241","pSARL_v2","pSARL_v2lq34jen1","6111587a8000027e7f79b1ba","freq","img/green_2bandit_a2.png","70","70","test","1","179","179","9","",""
"null","272718","pSARL_v2","pSARL_v2lq34jen1","6111587a8000027e7f79b1ba","freq_resp","img/green_2bandit_a.png","70","70","test","","","","9","",""
"null","272886","pSARL_v2","pSARL_v2lq34jen1","6111587a8000027e7f79b1ba","fixation","img/fixation.png","null","","test","","","","","",""
"412.5","273306","pSARL_v2","pSARL_v2lq34jen1","6111587a8000027e7f79b1ba","infreq","img/orange_2bandit_a2.png","68","68","test","1","180","180","9","",""
"null","273703","pSARL_v2","pSARL_v2lq34jen1","6111587a8000027e7f79b1ba","infreq_resp","img/orange_2bandit_a.png","68","68","test","","","","9","",""
"null","273871","pSARL_v2","pSARL_v2lq34jen1","6111587a8000027e7f79b1ba","fixation","img/fixation.png","null","","test","","","","","",""
"354.90000000596046","274235","pSARL_v2","pSARL_v2lq34jen1","6111587a8000027e7f79b1ba","freq","img/green_2bandit_a2.png","70","70","test","1","181","181","9","",""
"null","274703","pSARL_v2","pSARL_v2lq34jen1","6111587a8000027e7f79b1ba","freq_resp","img/green_2bandit_a.png","70","70","test","","","","9","",""
"null","274871","pSARL_v2","pSARL_v2lq34jen1","6111587a8000027e7f79b1ba","fixation","img/fixation.png","null","","test","","","","","",""
"275.79999999701977","275154","pSARL_v2","pSARL_v2lq34jen1","6111587a8000027e7f79b1ba","freq","img/green_2bandit_a2.png","70","70","test","1","182","182","9","",""
"null","275687","pSARL_v2","pSARL_v2lq34jen1","6111587a8000027e7f79b1ba","freq_resp","img/green_2bandit_a.png","70","70","test","","","","9","",""
"null","275855","pSARL_v2","pSARL_v2lq34jen1","6111587a8000027e7f79b1ba","fixation","img/fixation.png","null","","test","","","","","",""
"418","276282","pSARL_v2","pSARL_v2lq34jen1","6111587a8000027e7f79b1ba","infreq","img/orange_2bandit_a2.png","68","68","test","1","183","183","9","",""
"null","276687","pSARL_v2","pSARL_v2lq34jen1","6111587a8000027e7f79b1ba","infreq_resp","img/orange_2bandit_a.png","68","68","test","","","","9","",""
"null","276855","pSARL_v2","pSARL_v2lq34jen1","6111587a8000027e7f79b1ba","fixation","img/fixation.png","null","","test","","","","","",""
"474","277338","pSARL_v2","pSARL_v2lq34jen1","6111587a8000027e7f79b1ba","freq","img/green_2bandit_a2.png","70","70","test","1","184","184","9","",""
"null","277688","pSARL_v2","pSARL_v2lq34jen1","6111587a8000027e7f79b1ba","freq_resp","img/green_2bandit_a.png","70","70","test","","","","9","",""
"null","277857","pSARL_v2","pSARL_v2lq34jen1","6111587a8000027e7f79b1ba","fixation","img/fixation.png","null","","test","","","","","",""
"656.5999999940395","278521","pSARL_v2","pSARL_v2lq34jen1","6111587a8000027e7f79b1ba","freq","img/green_2bandit_a2.png","70","70","test","1","185","185","9","",""
"null","278688","pSARL_v2","pSARL_v2lq34jen1","6111587a8000027e7f79b1ba","freq_resp","img/green_2bandit_a.png","70","70","test","","","","9","",""
"null","278857","pSARL_v2","pSARL_v2lq34jen1","6111587a8000027e7f79b1ba","fixation","img/fixation.png","null","","test","","","","","",""
"328.79999999701977","279193","pSARL_v2","pSARL_v2lq34jen1","6111587a8000027e7f79b1ba","freq","img/green_2bandit_a2.png","70","70","test","1","186","186","9","",""
"null","279674","pSARL_v2","pSARL_v2lq34jen1","6111587a8000027e7f79b1ba","freq_resp","img/green_2bandit_a.png","70","70","test","","","","9","",""
"null","279836","pSARL_v2","pSARL_v2lq34jen1","6111587a8000027e7f79b1ba","fixation","img/fixation.png","null","","test","","","","","",""
"445.59999999403954","280290","pSARL_v2","pSARL_v2lq34jen1","6111587a8000027e7f79b1ba","freq","img/green_2bandit_a2.png","70","70","test","1","187","187","9","",""
"null","280659","pSARL_v2","pSARL_v2lq34jen1","6111587a8000027e7f79b1ba","freq_resp","img/green_2bandit_a.png","70","70","test","","","","9","",""
"null","280822","pSARL_v2","pSARL_v2lq34jen1","6111587a8000027e7f79b1ba","fixation","img/fixation.png","null","","test","","","","","",""
"242.5","281074","pSARL_v2","pSARL_v2lq34jen1","6111587a8000027e7f79b1ba","freq","img/green_2bandit_a2.png","70","70","test","1","188","188","9","",""
"null","281660","pSARL_v2","pSARL_v2lq34jen1","6111587a8000027e7f79b1ba","freq_resp","img/green_2bandit_a.png","70","70","test","","","","9","",""
"null","281822","pSARL_v2","pSARL_v2lq34jen1","6111587a8000027e7f79b1ba","fixation","img/fixation.png","null","","test","","","","","",""
"315.29999999701977","282145","pSARL_v2","pSARL_v2lq34jen1","6111587a8000027e7f79b1ba","freq","img/green_2bandit_a2.png","70","70","test","1","189","189","9","",""
"null","282638","pSARL_v2","pSARL_v2lq34jen1","6111587a8000027e7f79b1ba","freq_resp","img/green_2bandit_a.png","70","70","test","","","","9","",""
"null","282808","pSARL_v2","pSARL_v2lq34jen1","6111587a8000027e7f79b1ba","fixation","img/fixation.png","null","","test","","","","","",""
"305.40000000596046","283122","pSARL_v2","pSARL_v2lq34jen1","6111587a8000027e7f79b1ba","freq","img/green_2bandit_a2.png","70","70","test","1","190","190","9","",""
"null","283625","pSARL_v2","pSARL_v2lq34jen1","6111587a8000027e7f79b1ba","freq_resp","img/green_2bandit_a.png","70","70","test","","","","9","",""
"null","283793","pSARL_v2","pSARL_v2lq34jen1","6111587a8000027e7f79b1ba","fixation","img/fixation.png","null","","test","","","","","",""
"264.5","284065","pSARL_v2","pSARL_v2lq34jen1","6111587a8000027e7f79b1ba","freq","img/green_2bandit_a2.png","70","70","test","1","191","191","9","",""
"null","284609","pSARL_v2","pSARL_v2lq34jen1","6111587a8000027e7f79b1ba","freq_resp","img/green_2bandit_a.png","70","70","test","","","","9","",""
"null","284779","pSARL_v2","pSARL_v2lq34jen1","6111587a8000027e7f79b1ba","fixation","img/fixation.png","null","","test","","","","","",""
"325.6000000089407","285113","pSARL_v2","pSARL_v2lq34jen1","6111587a8000027e7f79b1ba","freq","img/green_2bandit_a2.png","70","70","test","1","192","192","9","",""
"null","285610","pSARL_v2","pSARL_v2lq34jen1","6111587a8000027e7f79b1ba","freq_resp","img/green_2bandit_a.png","70","70","test","","","","9","",""
"null","285779","pSARL_v2","pSARL_v2lq34jen1","6111587a8000027e7f79b1ba","fixation","img/fixation.png","null","","test","","","","","",""
"285.5","286073","pSARL_v2","pSARL_v2lq34jen1","6111587a8000027e7f79b1ba","freq","img/green_2bandit_a2.png","70","70","test","1","193","193","9","",""
"null","286611","pSARL_v2","pSARL_v2lq34jen1","6111587a8000027e7f79b1ba","freq_resp","img/green_2bandit_a.png","70","70","test","","","","9","",""
"null","286780","pSARL_v2","pSARL_v2lq34jen1","6111587a8000027e7f79b1ba","fixation","img/fixation.png","null","","test","","","","","",""
"372.29999999701977","287161","pSARL_v2","pSARL_v2lq34jen1","6111587a8000027e7f79b1ba","freq","img/green_2bandit_a2.png","70","70","test","1","194","194","9","",""
"null","287611","pSARL_v2","pSARL_v2lq34jen1","6111587a8000027e7f79b1ba","freq_resp","img/green_2bandit_a.png","70","70","test","","","","9","",""
"null","287780","pSARL_v2","pSARL_v2lq34jen1","6111587a8000027e7f79b1ba","fixation","img/fixation.png","null","","test","","","","","",""
"492.30000001192093","288282","pSARL_v2","pSARL_v2lq34jen1","6111587a8000027e7f79b1ba","freq","img/green_2bandit_a2.png","70","70","test","1","195","195","9","",""
"null","288613","pSARL_v2","pSARL_v2lq34jen1","6111587a8000027e7f79b1ba","freq_resp","img/green_2bandit_a.png","70","70","test","","","","9","",""
"null","288781","pSARL_v2","pSARL_v2lq34jen1","6111587a8000027e7f79b1ba","fixation","img/fixation.png","null","","test","","","","","",""
"316.5","289105","pSARL_v2","pSARL_v2lq34jen1","6111587a8000027e7f79b1ba","freq","img/green_2bandit_a2.png","70","70","test","1","196","196","9","",""
"null","289614","pSARL_v2","pSARL_v2lq34jen1","6111587a8000027e7f79b1ba","freq_resp","img/green_2bandit_a.png","70","70","test","","","","9","",""
"null","289781","pSARL_v2","pSARL_v2lq34jen1","6111587a8000027e7f79b1ba","fixation","img/fixation.png","null","","test","","","","","",""
"515.2999999970198","290304","pSARL_v2","pSARL_v2lq34jen1","6111587a8000027e7f79b1ba","reward","img/slot.png","74","","test","","","","","",""
"null","291067","pSARL_v2","pSARL_v2lq34jen1","6111587a8000027e7f79b1ba","points","<div class=""verylowPoints""> -3 </div>","null","na","test","","","","9","-3","8"
"317.29999999701977","291392","pSARL_v2","pSARL_v2lq34jen1","6111587a8000027e7f79b1ba","freq","img/green_2bandit_a2.png","70","70","test","1","197","197","10","",""
"null","291896","pSARL_v2","pSARL_v2lq34jen1","6111587a8000027e7f79b1ba","freq_resp","img/green_2bandit_a.png","70","70","test","","","","10","",""
"null","292059","pSARL_v2","pSARL_v2lq34jen1","6111587a8000027e7f79b1ba","fixation","img/fixation.png","null","","test","","","","","",""
"266","292333","pSARL_v2","pSARL_v2lq34jen1","6111587a8000027e7f79b1ba","freq","img/green_2bandit_a2.png","70","70","test","1","198","198","10","",""
"null","292883","pSARL_v2","pSARL_v2lq34jen1","6111587a8000027e7f79b1ba","freq_resp","img/green_2bandit_a.png","70","70","test","","","","10","",""
"null","293046","pSARL_v2","pSARL_v2lq34jen1","6111587a8000027e7f79b1ba","fixation","img/fixation.png","null","","test","","","","","",""
"247","293301","pSARL_v2","pSARL_v2lq34jen1","6111587a8000027e7f79b1ba","freq","img/green_2bandit_a2.png","70","70","test","1","199","199","10","",""
"null","293883","pSARL_v2","pSARL_v2lq34jen1","6111587a8000027e7f79b1ba","freq_resp","img/green_2bandit_a.png","70","70","test","","","","10","",""
"null","294047","pSARL_v2","pSARL_v2lq34jen1","6111587a8000027e7f79b1ba","fixation","img/fixation.png","null","","test","","","","","",""
"229.3999999910593","294283","pSARL_v2","pSARL_v2lq34jen1","6111587a8000027e7f79b1ba","freq","img/green_2bandit_a2.png","70","70","test","1","200","200","10","",""
"null","294885","pSARL_v2","pSARL_v2lq34jen1","6111587a8000027e7f79b1ba","freq_resp","img/green_2bandit_a.png","70","70","test","","","","10","",""
"null","295049","pSARL_v2","pSARL_v2lq34jen1","6111587a8000027e7f79b1ba","fixation","img/fixation.png","null","","test","","","","","",""
"275","295332","pSARL_v2","pSARL_v2lq34jen1","6111587a8000027e7f79b1ba","freq","img/green_2bandit_a2.png","70","70","test","1","201","201","10","",""
"null","295885","pSARL_v2","pSARL_v2lq34jen1","6111587a8000027e7f79b1ba","freq_resp","img/green_2bandit_a.png","70","70","test","","","","10","",""
"null","296049","pSARL_v2","pSARL_v2lq34jen1","6111587a8000027e7f79b1ba","fixation","img/fixation.png","null","","test","","","","","",""
"250.90000000596046","296307","pSARL_v2","pSARL_v2lq34jen1","6111587a8000027e7f79b1ba","freq","img/green_2bandit_a2.png","70","70","test","1","202","202","10","",""
"null","296886","pSARL_v2","pSARL_v2lq34jen1","6111587a8000027e7f79b1ba","freq_resp","img/green_2bandit_a.png","70","70","test","","","","10","",""
"null","297049","pSARL_v2","pSARL_v2lq34jen1","6111587a8000027e7f79b1ba","fixation","img/fixation.png","null","","test","","","","","",""
"290.19999998807907","297348","pSARL_v2","pSARL_v2lq34jen1","6111587a8000027e7f79b1ba","freq","img/green_2bandit_a2.png","70","70","test","1","203","203","10","",""
"null","297888","pSARL_v2","pSARL_v2lq34jen1","6111587a8000027e7f79b1ba","freq_resp","img/green_2bandit_a.png","70","70","test","","","","10","",""
"null","298051","pSARL_v2","pSARL_v2lq34jen1","6111587a8000027e7f79b1ba","fixation","img/fixation.png","null","","test","","","","","",""
"295.79999999701977","298355","pSARL_v2","pSARL_v2lq34jen1","6111587a8000027e7f79b1ba","freq","img/green_2bandit_a2.png","70","70","test","1","204","204","10","",""
"null","298889","pSARL_v2","pSARL_v2lq34jen1","6111587a8000027e7f79b1ba","freq_resp","img/green_2bandit_a.png","70","70","test","","","","10","",""
"null","299051","pSARL_v2","pSARL_v2lq34jen1","6111587a8000027e7f79b1ba","fixation","img/fixation.png","null","","test","","","","","",""
"271.20000000298023","299332","pSARL_v2","pSARL_v2lq34jen1","6111587a8000027e7f79b1ba","freq","img/green_2bandit_a2.png","70","70","test","1","205","205","10","",""
"null","299892","pSARL_v2","pSARL_v2lq34jen1","6111587a8000027e7f79b1ba","freq_resp","img/green_2bandit_a.png","70","70","test","","","","10","",""
"null","300052","pSARL_v2","pSARL_v2lq34jen1","6111587a8000027e7f79b1ba","fixation","img/fixation.png","null","","test","","","","","",""
"286.59999999403954","300348","pSARL_v2","pSARL_v2lq34jen1","6111587a8000027e7f79b1ba","freq","img/green_2bandit_a2.png","70","70","test","1","206","206","10","",""
"null","300893","pSARL_v2","pSARL_v2lq34jen1","6111587a8000027e7f79b1ba","freq_resp","img/green_2bandit_a.png","70","70","test","","","","10","",""
"null","301055","pSARL_v2","pSARL_v2lq34jen1","6111587a8000027e7f79b1ba","fixation","img/fixation.png","null","","test","","","","","",""
"284.20000000298023","301348","pSARL_v2","pSARL_v2lq34jen1","6111587a8000027e7f79b1ba","freq","img/green_2bandit_a2.png","70","70","test","1","207","207","10","",""
"null","301893","pSARL_v2","pSARL_v2lq34jen1","6111587a8000027e7f79b1ba","freq_resp","img/green_2bandit_a.png","70","70","test","","","","10","",""
