"rt","time_elapsed","expId","subject","prolificID","trialType","stimulus","key_press","corrresp","phase","corr","trialNum","attentionRunNum","blockNum","points","rlNum"
"1445.2999999523163","1453","pSARL_v2","pSARL_v2sj8x5tex","5dd48444dd9a7447d224cc71","","","","","","","","","","",""
"","3293","pSARL_v2","pSARL_v2sj8x5tex","5dd48444dd9a7447d224cc71","fullscreen","","","","","","","","","",""
"41256.700000047684","44555","pSARL_v2","pSARL_v2sj8x5tex","5dd48444dd9a7447d224cc71","","","","","","","","","","",""
"null","45370","pSARL_v2","pSARL_v2sj8x5tex","5dd48444dd9a7447d224cc71","freqPrac","img/green_2bandit_a2.png","null","70","prac","0","","","","",""
"null","46385","pSARL_v2","pSARL_v2sj8x5tex","5dd48444dd9a7447d224cc71","feedback","img/tooSlow.png","null","na","prac","","","","","",""
"null","46557","pSARL_v2","pSARL_v2sj8x5tex","5dd48444dd9a7447d224cc71","fixation","img/fixation.png","null","","prac","","","","","",""
"394.7999999523163","46960","pSARL_v2","pSARL_v2sj8x5tex","5dd48444dd9a7447d224cc71","infreqPrac","img/orange_2bandit_a2.png","68","68","prac","1","","","","",""
"394.7999999523163","47386","pSARL_v2","pSARL_v2sj8x5tex","5dd48444dd9a7447d224cc71","infreqPrac_resp","img/orange_2bandit_a.png","68","68","prac","","","","","",""
"null","47555","pSARL_v2","pSARL_v2sj8x5tex","5dd48444dd9a7447d224cc71","fixation","img/fixation.png","null","","prac","","","","","",""
"null","48370","pSARL_v2","pSARL_v2sj8x5tex","5dd48444dd9a7447d224cc71","freqPrac","img/green_2bandit_a2.png","null","70","prac","0","","","","",""
"null","49380","pSARL_v2","pSARL_v2sj8x5tex","5dd48444dd9a7447d224cc71","feedback","img/tooSlow.png","null","na","prac","","","","","",""
"null","49543","pSARL_v2","pSARL_v2sj8x5tex","5dd48444dd9a7447d224cc71","fixation","img/fixation.png","null","","prac","","","","","",""
"633.7000000476837","50183","pSARL_v2","pSARL_v2sj8x5tex","5dd48444dd9a7447d224cc71","infreqPrac","img/orange_2bandit_a2.png","68","68","prac","1","","","","",""
"633.7000000476837","50359","pSARL_v2","pSARL_v2sj8x5tex","5dd48444dd9a7447d224cc71","infreqPrac_resp","img/orange_2bandit_a.png","68","68","prac","","","","","",""
"null","50529","pSARL_v2","pSARL_v2sj8x5tex","5dd48444dd9a7447d224cc71","fixation","img/fixation.png","null","","prac","","","","","",""
"438.40000009536743","50975","pSARL_v2","pSARL_v2sj8x5tex","5dd48444dd9a7447d224cc71","infreqPrac","img/orange_2bandit_a2.png","68","68","prac","1","","","","",""
"438.40000009536743","51349","pSARL_v2","pSARL_v2sj8x5tex","5dd48444dd9a7447d224cc71","infreqPrac_resp","img/orange_2bandit_a.png","68","68","prac","","","","","",""
"null","51510","pSARL_v2","pSARL_v2sj8x5tex","5dd48444dd9a7447d224cc71","fixation","img/fixation.png","null","","prac","","","","","",""
"345.90000009536743","51863","pSARL_v2","pSARL_v2sj8x5tex","5dd48444dd9a7447d224cc71","infreqPrac","img/orange_2bandit_a2.png","68","68","prac","1","","","","",""
"345.90000009536743","52328","pSARL_v2","pSARL_v2sj8x5tex","5dd48444dd9a7447d224cc71","infreqPrac_resp","img/orange_2bandit_a.png","68","68","prac","","","","","",""
"null","52494","pSARL_v2","pSARL_v2sj8x5tex","5dd48444dd9a7447d224cc71","fixation","img/fixation.png","null","","prac","","","","","",""
"362.10000014305115","52863","pSARL_v2","pSARL_v2sj8x5tex","5dd48444dd9a7447d224cc71","freqPrac","img/green_2bandit_a2.png","70","70","prac","1","","","","",""
"362.10000014305115","53317","pSARL_v2","pSARL_v2sj8x5tex","5dd48444dd9a7447d224cc71","freqPrac_resp","img/green_2bandit_a.png","70","70","prac","","","","","",""
"null","53476","pSARL_v2","pSARL_v2sj8x5tex","5dd48444dd9a7447d224cc71","fixation","img/fixation.png","null","","prac","","","","","",""
"411.89999985694885","53895","pSARL_v2","pSARL_v2sj8x5tex","5dd48444dd9a7447d224cc71","infreqPrac","img/orange_2bandit_a2.png","68","68","prac","1","","","","",""
"411.89999985694885","54302","pSARL_v2","pSARL_v2sj8x5tex","5dd48444dd9a7447d224cc71","infreqPrac_resp","img/orange_2bandit_a.png","68","68","prac","","","","","",""
"null","54461","pSARL_v2","pSARL_v2sj8x5tex","5dd48444dd9a7447d224cc71","fixation","img/fixation.png","null","","prac","","","","","",""
"377.7999999523163","54845","pSARL_v2","pSARL_v2sj8x5tex","5dd48444dd9a7447d224cc71","freqPrac","img/green_2bandit_a2.png","70","70","prac","1","","","","",""
"377.7999999523163","55287","pSARL_v2","pSARL_v2sj8x5tex","5dd48444dd9a7447d224cc71","freqPrac_resp","img/green_2bandit_a.png","70","70","prac","","","","","",""
"null","55461","pSARL_v2","pSARL_v2sj8x5tex","5dd48444dd9a7447d224cc71","fixation","img/fixation.png","null","","prac","","","","","",""
"610.2999999523163","56077","pSARL_v2","pSARL_v2sj8x5tex","5dd48444dd9a7447d224cc71","freqPrac","img/green_2bandit_a2.png","70","70","prac","1","","","","",""
"610.2999999523163","56287","pSARL_v2","pSARL_v2sj8x5tex","5dd48444dd9a7447d224cc71","freqPrac_resp","img/green_2bandit_a.png","70","70","prac","","","","","",""
"null","56459","pSARL_v2","pSARL_v2sj8x5tex","5dd48444dd9a7447d224cc71","fixation","img/fixation.png","null","","prac","","","","","",""
"34821.799999952316","91286","pSARL_v2","pSARL_v2sj8x5tex","5dd48444dd9a7447d224cc71","","","","","prac","","","","","",""
"530.3000001907349","91823","pSARL_v2","pSARL_v2sj8x5tex","5dd48444dd9a7447d224cc71","rewardPractice","img/slot.png","74","","prac","","","","","",""
"null","92591","pSARL_v2","pSARL_v2sj8x5tex","5dd48444dd9a7447d224cc71","feedback","<div class=""veryhighPoints""> +15 </div>","null","na","prac","","","","","",""
"null","92754","pSARL_v2","pSARL_v2sj8x5tex","5dd48444dd9a7447d224cc71","fixation","img/fixation.png","null","","prac","","","","","",""
"13760.099999904633","106521","pSARL_v2","pSARL_v2sj8x5tex","5dd48444dd9a7447d224cc71","","","","","prac","","","","","",""
"750.5999999046326","107279","pSARL_v2","pSARL_v2sj8x5tex","5dd48444dd9a7447d224cc71","freq","img/green_2bandit_a2.png","70","70","test","1","1","1","1","",""
"null","107346","pSARL_v2","pSARL_v2sj8x5tex","5dd48444dd9a7447d224cc71","freq_resp","img/green_2bandit_a.png","70","70","test","","","","1","",""
"null","107506","pSARL_v2","pSARL_v2sj8x5tex","5dd48444dd9a7447d224cc71","fixation","img/fixation.png","null","","test","","","","","",""
"397.5","107912","pSARL_v2","pSARL_v2sj8x5tex","5dd48444dd9a7447d224cc71","infreq","img/orange_2bandit_a2.png","68","68","test","1","2","2","1","",""
"null","108328","pSARL_v2","pSARL_v2sj8x5tex","5dd48444dd9a7447d224cc71","infreq_resp","img/orange_2bandit_a.png","68","68","test","","","","1","",""
"null","108492","pSARL_v2","pSARL_v2sj8x5tex","5dd48444dd9a7447d224cc71","fixation","img/fixation.png","null","","test","","","","","",""
"379","108878","pSARL_v2","pSARL_v2sj8x5tex","5dd48444dd9a7447d224cc71","freq","img/green_2bandit_a2.png","70","70","test","1","3","3","1","",""
"null","109313","pSARL_v2","pSARL_v2sj8x5tex","5dd48444dd9a7447d224cc71","freq_resp","img/green_2bandit_a.png","70","70","test","","","","1","",""
"null","109475","pSARL_v2","pSARL_v2sj8x5tex","5dd48444dd9a7447d224cc71","fixation","img/fixation.png","null","","test","","","","","",""
"null","110284","pSARL_v2","pSARL_v2sj8x5tex","5dd48444dd9a7447d224cc71","freq","img/green_2bandit_a2.png","null","70","test","0","4","4","1","",""
"null","110441","pSARL_v2","pSARL_v2sj8x5tex","5dd48444dd9a7447d224cc71","fixation","img/fixation.png","null","","test","","","","","",""
"462.5","110911","pSARL_v2","pSARL_v2sj8x5tex","5dd48444dd9a7447d224cc71","freq","img/green_2bandit_a2.png","70","70","test","1","5","5","1","",""
"null","111266","pSARL_v2","pSARL_v2sj8x5tex","5dd48444dd9a7447d224cc71","freq_resp","img/green_2bandit_a.png","70","70","test","","","","1","",""
"null","111426","pSARL_v2","pSARL_v2sj8x5tex","5dd48444dd9a7447d224cc71","fixation","img/fixation.png","null","","test","","","","","",""
"541.2999999523163","111974","pSARL_v2","pSARL_v2sj8x5tex","5dd48444dd9a7447d224cc71","freq","img/green_2bandit_a2.png","70","70","test","1","6","6","1","",""
"null","112251","pSARL_v2","pSARL_v2sj8x5tex","5dd48444dd9a7447d224cc71","freq_resp","img/green_2bandit_a.png","70","70","test","","","","1","",""
"null","112406","pSARL_v2","pSARL_v2sj8x5tex","5dd48444dd9a7447d224cc71","fixation","img/fixation.png","null","","test","","","","","",""
"345.59999990463257","112757","pSARL_v2","pSARL_v2sj8x5tex","5dd48444dd9a7447d224cc71","freq","img/green_2bandit_a2.png","70","70","test","1","7","7","1","",""
"null","113225","pSARL_v2","pSARL_v2sj8x5tex","5dd48444dd9a7447d224cc71","freq_resp","img/green_2bandit_a.png","70","70","test","","","","1","",""
"null","113392","pSARL_v2","pSARL_v2sj8x5tex","5dd48444dd9a7447d224cc71","fixation","img/fixation.png","null","","test","","","","","",""
"367","113767","pSARL_v2","pSARL_v2sj8x5tex","5dd48444dd9a7447d224cc71","freq","img/green_2bandit_a2.png","70","70","test","1","8","8","1","",""
"null","114211","pSARL_v2","pSARL_v2sj8x5tex","5dd48444dd9a7447d224cc71","freq_resp","img/green_2bandit_a.png","70","70","test","","","","1","",""
"null","114376","pSARL_v2","pSARL_v2sj8x5tex","5dd48444dd9a7447d224cc71","fixation","img/fixation.png","null","","test","","","","","",""
"327.39999985694885","114711","pSARL_v2","pSARL_v2sj8x5tex","5dd48444dd9a7447d224cc71","freq","img/green_2bandit_a2.png","70","70","test","1","9","9","1","",""
"null","115192","pSARL_v2","pSARL_v2sj8x5tex","5dd48444dd9a7447d224cc71","freq_resp","img/green_2bandit_a.png","70","70","test","","","","1","",""
"null","115358","pSARL_v2","pSARL_v2sj8x5tex","5dd48444dd9a7447d224cc71","fixation","img/fixation.png","null","","test","","","","","",""
"401.5","115764","pSARL_v2","pSARL_v2sj8x5tex","5dd48444dd9a7447d224cc71","freq","img/green_2bandit_a2.png","70","70","test","1","10","10","1","",""
"null","116179","pSARL_v2","pSARL_v2sj8x5tex","5dd48444dd9a7447d224cc71","freq_resp","img/green_2bandit_a.png","70","70","test","","","","1","",""
"null","116344","pSARL_v2","pSARL_v2sj8x5tex","5dd48444dd9a7447d224cc71","fixation","img/fixation.png","null","","test","","","","","",""
"343.2000000476837","116695","pSARL_v2","pSARL_v2sj8x5tex","5dd48444dd9a7447d224cc71","infreq","img/orange_2bandit_a2.png","68","68","test","1","11","11","1","",""
"null","117161","pSARL_v2","pSARL_v2sj8x5tex","5dd48444dd9a7447d224cc71","infreq_resp","img/orange_2bandit_a.png","68","68","test","","","","1","",""
"null","117328","pSARL_v2","pSARL_v2sj8x5tex","5dd48444dd9a7447d224cc71","fixation","img/fixation.png","null","","test","","","","","",""
"343.5","117679","pSARL_v2","pSARL_v2sj8x5tex","5dd48444dd9a7447d224cc71","freq","img/green_2bandit_a2.png","70","70","test","1","12","12","1","",""
"null","118144","pSARL_v2","pSARL_v2sj8x5tex","5dd48444dd9a7447d224cc71","freq_resp","img/green_2bandit_a.png","70","70","test","","","","1","",""
"null","118310","pSARL_v2","pSARL_v2sj8x5tex","5dd48444dd9a7447d224cc71","fixation","img/fixation.png","null","","test","","","","","",""
"369.5","118687","pSARL_v2","pSARL_v2sj8x5tex","5dd48444dd9a7447d224cc71","freq","img/green_2bandit_a2.png","70","70","test","1","13","13","1","",""
"null","119132","pSARL_v2","pSARL_v2sj8x5tex","5dd48444dd9a7447d224cc71","freq_resp","img/green_2bandit_a.png","70","70","test","","","","1","",""
"null","119293","pSARL_v2","pSARL_v2sj8x5tex","5dd48444dd9a7447d224cc71","fixation","img/fixation.png","null","","test","","","","","",""
"362.59999990463257","119664","pSARL_v2","pSARL_v2sj8x5tex","5dd48444dd9a7447d224cc71","freq","img/green_2bandit_a2.png","70","70","test","1","14","14","1","",""
"null","120112","pSARL_v2","pSARL_v2sj8x5tex","5dd48444dd9a7447d224cc71","freq_resp","img/green_2bandit_a.png","70","70","test","","","","1","",""
"null","120277","pSARL_v2","pSARL_v2sj8x5tex","5dd48444dd9a7447d224cc71","fixation","img/fixation.png","null","","test","","","","","",""
"362.59999990463257","120647","pSARL_v2","pSARL_v2sj8x5tex","5dd48444dd9a7447d224cc71","freq","img/green_2bandit_a2.png","70","70","test","1","15","15","1","",""
"null","121097","pSARL_v2","pSARL_v2sj8x5tex","5dd48444dd9a7447d224cc71","freq_resp","img/green_2bandit_a.png","70","70","test","","","","1","",""
"null","121262","pSARL_v2","pSARL_v2sj8x5tex","5dd48444dd9a7447d224cc71","fixation","img/fixation.png","null","","test","","","","","",""
"345.7000000476837","121614","pSARL_v2","pSARL_v2sj8x5tex","5dd48444dd9a7447d224cc71","freq","img/green_2bandit_a2.png","70","70","test","1","16","16","1","",""
"null","122081","pSARL_v2","pSARL_v2sj8x5tex","5dd48444dd9a7447d224cc71","freq_resp","img/green_2bandit_a.png","70","70","test","","","","1","",""
"null","122245","pSARL_v2","pSARL_v2sj8x5tex","5dd48444dd9a7447d224cc71","fixation","img/fixation.png","null","","test","","","","","",""
"330.69999980926514","122583","pSARL_v2","pSARL_v2sj8x5tex","5dd48444dd9a7447d224cc71","freq","img/green_2bandit_a2.png","70","70","test","1","17","17","1","",""
"null","123061","pSARL_v2","pSARL_v2sj8x5tex","5dd48444dd9a7447d224cc71","freq_resp","img/green_2bandit_a.png","70","70","test","","","","1","",""
"null","123229","pSARL_v2","pSARL_v2sj8x5tex","5dd48444dd9a7447d224cc71","fixation","img/fixation.png","null","","test","","","","","",""
"346.5","123583","pSARL_v2","pSARL_v2sj8x5tex","5dd48444dd9a7447d224cc71","freq","img/green_2bandit_a2.png","70","70","test","1","18","18","1","",""
"null","124044","pSARL_v2","pSARL_v2sj8x5tex","5dd48444dd9a7447d224cc71","freq_resp","img/green_2bandit_a.png","70","70","test","","","","1","",""
"null","124214","pSARL_v2","pSARL_v2sj8x5tex","5dd48444dd9a7447d224cc71","fixation","img/fixation.png","null","","test","","","","","",""
"321.59999990463257","124543","pSARL_v2","pSARL_v2sj8x5tex","5dd48444dd9a7447d224cc71","freq","img/green_2bandit_a2.png","70","70","test","1","19","19","1","",""
"null","125030","pSARL_v2","pSARL_v2sj8x5tex","5dd48444dd9a7447d224cc71","freq_resp","img/green_2bandit_a.png","70","70","test","","","","1","",""
"null","125196","pSARL_v2","pSARL_v2sj8x5tex","5dd48444dd9a7447d224cc71","fixation","img/fixation.png","null","","test","","","","","",""
"331.7999999523163","125535","pSARL_v2","pSARL_v2sj8x5tex","5dd48444dd9a7447d224cc71","freq","img/green_2bandit_a2.png","70","70","test","1","20","20","1","",""
"null","126012","pSARL_v2","pSARL_v2sj8x5tex","5dd48444dd9a7447d224cc71","freq_resp","img/green_2bandit_a.png","70","70","test","","","","1","",""
"null","126178","pSARL_v2","pSARL_v2sj8x5tex","5dd48444dd9a7447d224cc71","fixation","img/fixation.png","null","","test","","","","","",""
"340.7999999523163","126525","pSARL_v2","pSARL_v2sj8x5tex","5dd48444dd9a7447d224cc71","freq","img/green_2bandit_a2.png","70","70","test","1","21","21","1","",""
"null","126995","pSARL_v2","pSARL_v2sj8x5tex","5dd48444dd9a7447d224cc71","freq_resp","img/green_2bandit_a.png","70","70","test","","","","1","",""
"null","127162","pSARL_v2","pSARL_v2sj8x5tex","5dd48444dd9a7447d224cc71","fixation","img/fixation.png","null","","test","","","","","",""
"309.7000000476837","127478","pSARL_v2","pSARL_v2sj8x5tex","5dd48444dd9a7447d224cc71","freq","img/green_2bandit_a2.png","70","70","test","1","22","22","1","",""
"null","127978","pSARL_v2","pSARL_v2sj8x5tex","5dd48444dd9a7447d224cc71","freq_resp","img/green_2bandit_a.png","70","70","test","","","","1","",""
"null","128146","pSARL_v2","pSARL_v2sj8x5tex","5dd48444dd9a7447d224cc71","fixation","img/fixation.png","null","","test","","","","","",""
"357.40000009536743","128511","pSARL_v2","pSARL_v2sj8x5tex","5dd48444dd9a7447d224cc71","freq","img/green_2bandit_a2.png","70","70","test","1","23","23","1","",""
"null","128963","pSARL_v2","pSARL_v2sj8x5tex","5dd48444dd9a7447d224cc71","freq_resp","img/green_2bandit_a.png","70","70","test","","","","1","",""
"null","129130","pSARL_v2","pSARL_v2sj8x5tex","5dd48444dd9a7447d224cc71","fixation","img/fixation.png","null","","test","","","","","",""
"374.09999990463257","129511","pSARL_v2","pSARL_v2sj8x5tex","5dd48444dd9a7447d224cc71","freq","img/green_2bandit_a2.png","70","70","test","1","24","24","1","",""
"null","129949","pSARL_v2","pSARL_v2sj8x5tex","5dd48444dd9a7447d224cc71","freq_resp","img/green_2bandit_a.png","70","70","test","","","","1","",""
"null","130115","pSARL_v2","pSARL_v2sj8x5tex","5dd48444dd9a7447d224cc71","fixation","img/fixation.png","null","","test","","","","","",""
"364.7000000476837","130487","pSARL_v2","pSARL_v2sj8x5tex","5dd48444dd9a7447d224cc71","freq","img/green_2bandit_a2.png","70","70","test","1","25","25","1","",""
"null","130933","pSARL_v2","pSARL_v2sj8x5tex","5dd48444dd9a7447d224cc71","freq_resp","img/green_2bandit_a.png","70","70","test","","","","1","",""
"null","131098","pSARL_v2","pSARL_v2sj8x5tex","5dd48444dd9a7447d224cc71","fixation","img/fixation.png","null","","test","","","","","",""
"350.09999990463257","131455","pSARL_v2","pSARL_v2sj8x5tex","5dd48444dd9a7447d224cc71","freq","img/green_2bandit_a2.png","70","70","test","1","26","26","1","",""
"null","131915","pSARL_v2","pSARL_v2sj8x5tex","5dd48444dd9a7447d224cc71","freq_resp","img/green_2bandit_a.png","70","70","test","","","","1","",""
"null","132081","pSARL_v2","pSARL_v2sj8x5tex","5dd48444dd9a7447d224cc71","fixation","img/fixation.png","null","","test","","","","","",""
"1455.5","133543","pSARL_v2","pSARL_v2sj8x5tex","5dd48444dd9a7447d224cc71","reward","img/slot.png","74","","test","","","","","",""
"null","134315","pSARL_v2","pSARL_v2sj8x5tex","5dd48444dd9a7447d224cc71","points","<div class=""verylowPoints""> -6 </div>","null","na","test","","","","1","-6","0"
"null","135128","pSARL_v2","pSARL_v2sj8x5tex","5dd48444dd9a7447d224cc71","freq","img/green_2bandit_a2.png","null","70","test","0","27","27","2","",""
"null","135298","pSARL_v2","pSARL_v2sj8x5tex","5dd48444dd9a7447d224cc71","fixation","img/fixation.png","null","","test","","","","","",""
"133.60000014305115","135439","pSARL_v2","pSARL_v2sj8x5tex","5dd48444dd9a7447d224cc71","freq","img/green_2bandit_a2.png","70","70","test","1","28","28","2","",""
"null","136121","pSARL_v2","pSARL_v2sj8x5tex","5dd48444dd9a7447d224cc71","freq_resp","img/green_2bandit_a.png","70","70","test","","","","2","",""
"null","136281","pSARL_v2","pSARL_v2sj8x5tex","5dd48444dd9a7447d224cc71","fixation","img/fixation.png","null","","test","","","","","",""
"454.7999999523163","136743","pSARL_v2","pSARL_v2sj8x5tex","5dd48444dd9a7447d224cc71","infreq","img/orange_2bandit_a2.png","68","68","test","1","29","29","2","",""
"null","137108","pSARL_v2","pSARL_v2sj8x5tex","5dd48444dd9a7447d224cc71","infreq_resp","img/orange_2bandit_a.png","68","68","test","","","","2","",""
"null","137266","pSARL_v2","pSARL_v2sj8x5tex","5dd48444dd9a7447d224cc71","fixation","img/fixation.png","null","","test","","","","","",""
"381.7000000476837","137655","pSARL_v2","pSARL_v2sj8x5tex","5dd48444dd9a7447d224cc71","freq","img/green_2bandit_a2.png","70","70","test","1","30","30","2","",""
"null","138084","pSARL_v2","pSARL_v2sj8x5tex","5dd48444dd9a7447d224cc71","freq_resp","img/green_2bandit_a.png","70","70","test","","","","2","",""
"null","138250","pSARL_v2","pSARL_v2sj8x5tex","5dd48444dd9a7447d224cc71","fixation","img/fixation.png","null","","test","","","","","",""
"421.7000000476837","138679","pSARL_v2","pSARL_v2sj8x5tex","5dd48444dd9a7447d224cc71","freq","img/green_2bandit_a2.png","70","70","test","1","31","31","2","",""
"null","139070","pSARL_v2","pSARL_v2sj8x5tex","5dd48444dd9a7447d224cc71","freq_resp","img/green_2bandit_a.png","70","70","test","","","","2","",""
"null","139234","pSARL_v2","pSARL_v2sj8x5tex","5dd48444dd9a7447d224cc71","fixation","img/fixation.png","null","","test","","","","","",""
"333.2999999523163","139575","pSARL_v2","pSARL_v2sj8x5tex","5dd48444dd9a7447d224cc71","freq","img/green_2bandit_a2.png","70","70","test","1","32","32","2","",""
"null","140050","pSARL_v2","pSARL_v2sj8x5tex","5dd48444dd9a7447d224cc71","freq_resp","img/green_2bandit_a.png","70","70","test","","","","2","",""
"null","140218","pSARL_v2","pSARL_v2sj8x5tex","5dd48444dd9a7447d224cc71","fixation","img/fixation.png","null","","test","","","","","",""
"316.60000014305115","140542","pSARL_v2","pSARL_v2sj8x5tex","5dd48444dd9a7447d224cc71","freq","img/green_2bandit_a2.png","70","70","test","1","33","33","2","",""
"null","141048","pSARL_v2","pSARL_v2sj8x5tex","5dd48444dd9a7447d224cc71","freq_resp","img/green_2bandit_a.png","70","70","test","","","","2","",""
"null","141217","pSARL_v2","pSARL_v2sj8x5tex","5dd48444dd9a7447d224cc71","fixation","img/fixation.png","null","","test","","","","","",""
"318","141542","pSARL_v2","pSARL_v2sj8x5tex","5dd48444dd9a7447d224cc71","freq","img/green_2bandit_a2.png","70","70","test","1","34","34","2","",""
"null","142033","pSARL_v2","pSARL_v2sj8x5tex","5dd48444dd9a7447d224cc71","freq_resp","img/green_2bandit_a.png","70","70","test","","","","2","",""
"null","142200","pSARL_v2","pSARL_v2sj8x5tex","5dd48444dd9a7447d224cc71","fixation","img/fixation.png","null","","test","","","","","",""
"392.09999990463257","142600","pSARL_v2","pSARL_v2sj8x5tex","5dd48444dd9a7447d224cc71","freq","img/green_2bandit_a2.png","70","70","test","1","35","35","2","",""
"null","143020","pSARL_v2","pSARL_v2sj8x5tex","5dd48444dd9a7447d224cc71","freq_resp","img/green_2bandit_a.png","70","70","test","","","","2","",""
"null","143184","pSARL_v2","pSARL_v2sj8x5tex","5dd48444dd9a7447d224cc71","fixation","img/fixation.png","null","","test","","","","","",""
"399.40000009536743","143590","pSARL_v2","pSARL_v2sj8x5tex","5dd48444dd9a7447d224cc71","freq","img/green_2bandit_a2.png","70","70","test","1","36","36","2","",""
"null","144008","pSARL_v2","pSARL_v2sj8x5tex","5dd48444dd9a7447d224cc71","freq_resp","img/green_2bandit_a.png","70","70","test","","","","2","",""
"null","144168","pSARL_v2","pSARL_v2sj8x5tex","5dd48444dd9a7447d224cc71","fixation","img/fixation.png","null","","test","","","","","",""
"415.2999999523163","144591","pSARL_v2","pSARL_v2sj8x5tex","5dd48444dd9a7447d224cc71","freq","img/green_2bandit_a2.png","70","70","test","1","37","37","2","",""
"null","144988","pSARL_v2","pSARL_v2sj8x5tex","5dd48444dd9a7447d224cc71","freq_resp","img/green_2bandit_a.png","70","70","test","","","","2","",""
"null","145153","pSARL_v2","pSARL_v2sj8x5tex","5dd48444dd9a7447d224cc71","fixation","img/fixation.png","null","","test","","","","","",""
"366","145526","pSARL_v2","pSARL_v2sj8x5tex","5dd48444dd9a7447d224cc71","freq","img/green_2bandit_a2.png","70","70","test","1","38","38","2","",""
"null","145970","pSARL_v2","pSARL_v2sj8x5tex","5dd48444dd9a7447d224cc71","freq_resp","img/green_2bandit_a.png","70","70","test","","","","2","",""
"null","146135","pSARL_v2","pSARL_v2sj8x5tex","5dd48444dd9a7447d224cc71","fixation","img/fixation.png","null","","test","","","","","",""
"320","146462","pSARL_v2","pSARL_v2sj8x5tex","5dd48444dd9a7447d224cc71","infreq","img/orange_2bandit_a2.png","68","68","test","1","39","39","2","",""
"null","146951","pSARL_v2","pSARL_v2sj8x5tex","5dd48444dd9a7447d224cc71","infreq_resp","img/orange_2bandit_a.png","68","68","test","","","","2","",""
"null","147120","pSARL_v2","pSARL_v2sj8x5tex","5dd48444dd9a7447d224cc71","fixation","img/fixation.png","null","","test","","","","","",""
"399.39999985694885","147526","pSARL_v2","pSARL_v2sj8x5tex","5dd48444dd9a7447d224cc71","freq","img/green_2bandit_a2.png","70","70","test","1","40","40","2","",""
"null","147939","pSARL_v2","pSARL_v2sj8x5tex","5dd48444dd9a7447d224cc71","freq_resp","img/green_2bandit_a.png","70","70","test","","","","2","",""
"null","148103","pSARL_v2","pSARL_v2sj8x5tex","5dd48444dd9a7447d224cc71","fixation","img/fixation.png","null","","test","","","","","",""
"409.5","148519","pSARL_v2","pSARL_v2sj8x5tex","5dd48444dd9a7447d224cc71","freq","img/green_2bandit_a2.png","70","70","test","1","41","41","2","",""
"null","148929","pSARL_v2","pSARL_v2sj8x5tex","5dd48444dd9a7447d224cc71","freq_resp","img/green_2bandit_a.png","70","70","test","","","","2","",""
"null","149101","pSARL_v2","pSARL_v2sj8x5tex","5dd48444dd9a7447d224cc71","fixation","img/fixation.png","null","","test","","","","","",""
"331.59999990463257","149439","pSARL_v2","pSARL_v2sj8x5tex","5dd48444dd9a7447d224cc71","freq","img/green_2bandit_a2.png","70","70","test","1","42","42","2","",""
"null","149920","pSARL_v2","pSARL_v2sj8x5tex","5dd48444dd9a7447d224cc71","freq_resp","img/green_2bandit_a.png","70","70","test","","","","2","",""
"null","150086","pSARL_v2","pSARL_v2sj8x5tex","5dd48444dd9a7447d224cc71","fixation","img/fixation.png","null","","test","","","","","",""
"282.09999990463257","150374","pSARL_v2","pSARL_v2sj8x5tex","5dd48444dd9a7447d224cc71","freq","img/green_2bandit_a2.png","70","70","test","1","43","43","2","",""
"null","150901","pSARL_v2","pSARL_v2sj8x5tex","5dd48444dd9a7447d224cc71","freq_resp","img/green_2bandit_a.png","70","70","test","","","","2","",""
"null","151071","pSARL_v2","pSARL_v2sj8x5tex","5dd48444dd9a7447d224cc71","fixation","img/fixation.png","null","","test","","","","","",""
"320.90000009536743","151399","pSARL_v2","pSARL_v2sj8x5tex","5dd48444dd9a7447d224cc71","freq","img/green_2bandit_a2.png","70","70","test","1","44","44","2","",""
"null","151899","pSARL_v2","pSARL_v2sj8x5tex","5dd48444dd9a7447d224cc71","freq_resp","img/green_2bandit_a.png","70","70","test","","","","2","",""
"null","152070","pSARL_v2","pSARL_v2sj8x5tex","5dd48444dd9a7447d224cc71","fixation","img/fixation.png","null","","test","","","","","",""
"282","152359","pSARL_v2","pSARL_v2sj8x5tex","5dd48444dd9a7447d224cc71","freq","img/green_2bandit_a2.png","70","70","test","1","45","45","2","",""
"null","152899","pSARL_v2","pSARL_v2sj8x5tex","5dd48444dd9a7447d224cc71","freq_resp","img/green_2bandit_a.png","70","70","test","","","","2","",""
"null","153070","pSARL_v2","pSARL_v2sj8x5tex","5dd48444dd9a7447d224cc71","fixation","img/fixation.png","null","","test","","","","","",""
"1346.4000000953674","154423","pSARL_v2","pSARL_v2sj8x5tex","5dd48444dd9a7447d224cc71","reward","img/slot.png","74","","test","","","","","",""
"null","155187","pSARL_v2","pSARL_v2sj8x5tex","5dd48444dd9a7447d224cc71","points","<div class=""verylowPoints""> -11 </div>","null","na","test","","","","2","-11","1"
"772.3999998569489","155967","pSARL_v2","pSARL_v2sj8x5tex","5dd48444dd9a7447d224cc71","freq","img/green_2bandit_a2.png","70","70","test","1","46","46","3","",""
"null","156002","pSARL_v2","pSARL_v2sj8x5tex","5dd48444dd9a7447d224cc71","freq_resp","img/green_2bandit_a.png","70","70","test","","","","3","",""
"null","156171","pSARL_v2","pSARL_v2sj8x5tex","5dd48444dd9a7447d224cc71","fixation","img/fixation.png","null","","test","","","","","",""
"524.4000000953674","156702","pSARL_v2","pSARL_v2sj8x5tex","5dd48444dd9a7447d224cc71","freq","img/green_2bandit_a2.png","70","70","test","1","47","47","3","",""
"null","156995","pSARL_v2","pSARL_v2sj8x5tex","5dd48444dd9a7447d224cc71","freq_resp","img/green_2bandit_a.png","70","70","test","","","","3","",""
"null","157152","pSARL_v2","pSARL_v2sj8x5tex","5dd48444dd9a7447d224cc71","fixation","img/fixation.png","null","","test","","","","","",""
"447.30000019073486","157607","pSARL_v2","pSARL_v2sj8x5tex","5dd48444dd9a7447d224cc71","freq","img/green_2bandit_a2.png","70","70","test","1","48","48","3","",""
"null","157977","pSARL_v2","pSARL_v2sj8x5tex","5dd48444dd9a7447d224cc71","freq_resp","img/green_2bandit_a.png","70","70","test","","","","3","",""
"null","158137","pSARL_v2","pSARL_v2sj8x5tex","5dd48444dd9a7447d224cc71","fixation","img/fixation.png","null","","test","","","","","",""
"326.59999990463257","158471","pSARL_v2","pSARL_v2sj8x5tex","5dd48444dd9a7447d224cc71","freq","img/green_2bandit_a2.png","70","70","test","1","49","49","3","",""
"null","158955","pSARL_v2","pSARL_v2sj8x5tex","5dd48444dd9a7447d224cc71","freq_resp","img/green_2bandit_a.png","70","70","test","","","","3","",""
"null","159119","pSARL_v2","pSARL_v2sj8x5tex","5dd48444dd9a7447d224cc71","fixation","img/fixation.png","null","","test","","","","","",""
"352","159477","pSARL_v2","pSARL_v2sj8x5tex","5dd48444dd9a7447d224cc71","freq","img/green_2bandit_a2.png","70","70","test","1","50","50","3","",""
"null","159933","pSARL_v2","pSARL_v2sj8x5tex","5dd48444dd9a7447d224cc71","freq_resp","img/green_2bandit_a.png","70","70","test","","","","3","",""
"null","160101","pSARL_v2","pSARL_v2sj8x5tex","5dd48444dd9a7447d224cc71","fixation","img/fixation.png","null","","test","","","","","",""
"338.60000014305115","160446","pSARL_v2","pSARL_v2sj8x5tex","5dd48444dd9a7447d224cc71","freq","img/green_2bandit_a2.png","70","70","test","1","51","51","3","",""
"null","160921","pSARL_v2","pSARL_v2sj8x5tex","5dd48444dd9a7447d224cc71","freq_resp","img/green_2bandit_a.png","70","70","test","","","","3","",""
"null","161091","pSARL_v2","pSARL_v2sj8x5tex","5dd48444dd9a7447d224cc71","fixation","img/fixation.png","null","","test","","","","","",""
"291.2000000476837","161390","pSARL_v2","pSARL_v2sj8x5tex","5dd48444dd9a7447d224cc71","freq","img/green_2bandit_a2.png","70","70","test","1","52","52","3","",""
"null","161918","pSARL_v2","pSARL_v2sj8x5tex","5dd48444dd9a7447d224cc71","freq_resp","img/green_2bandit_a.png","70","70","test","","","","3","",""
"null","162087","pSARL_v2","pSARL_v2sj8x5tex","5dd48444dd9a7447d224cc71","fixation","img/fixation.png","null","","test","","","","","",""
"295.40000009536743","162390","pSARL_v2","pSARL_v2sj8x5tex","5dd48444dd9a7447d224cc71","freq","img/green_2bandit_a2.png","70","70","test","1","53","53","3","",""
"null","162918","pSARL_v2","pSARL_v2sj8x5tex","5dd48444dd9a7447d224cc71","freq_resp","img/green_2bandit_a.png","70","70","test","","","","3","",""
"null","163088","pSARL_v2","pSARL_v2sj8x5tex","5dd48444dd9a7447d224cc71","fixation","img/fixation.png","null","","test","","","","","",""
"262.40000009536743","163357","pSARL_v2","pSARL_v2sj8x5tex","5dd48444dd9a7447d224cc71","freq","img/green_2bandit_a2.png","70","70","test","1","54","54","3","",""
"null","163916","pSARL_v2","pSARL_v2sj8x5tex","5dd48444dd9a7447d224cc71","freq_resp","img/green_2bandit_a.png","70","70","test","","","","3","",""
"null","164086","pSARL_v2","pSARL_v2sj8x5tex","5dd48444dd9a7447d224cc71","fixation","img/fixation.png","null","","test","","","","","",""
"321.7999999523163","164415","pSARL_v2","pSARL_v2sj8x5tex","5dd48444dd9a7447d224cc71","freq","img/green_2bandit_a2.png","70","70","test","1","55","55","3","",""
"null","164903","pSARL_v2","pSARL_v2sj8x5tex","5dd48444dd9a7447d224cc71","freq_resp","img/green_2bandit_a.png","70","70","test","","","","3","",""
"null","165072","pSARL_v2","pSARL_v2sj8x5tex","5dd48444dd9a7447d224cc71","fixation","img/fixation.png","null","","test","","","","","",""
"278.80000019073486","165358","pSARL_v2","pSARL_v2sj8x5tex","5dd48444dd9a7447d224cc71","infreq","img/orange_2bandit_a2.png","70","68","test","0","56","56","3","",""
"null","165901","pSARL_v2","pSARL_v2sj8x5tex","5dd48444dd9a7447d224cc71","infreq_resp","img/orange_2bandit_a.png","70","68","test","","","","3","",""
"null","166069","pSARL_v2","pSARL_v2sj8x5tex","5dd48444dd9a7447d224cc71","fixation","img/fixation.png","null","","test","","","","","",""
"409.09999990463257","166484","pSARL_v2","pSARL_v2sj8x5tex","5dd48444dd9a7447d224cc71","freq","img/green_2bandit_a2.png","70","70","test","1","57","57","3","",""
"null","166891","pSARL_v2","pSARL_v2sj8x5tex","5dd48444dd9a7447d224cc71","freq_resp","img/green_2bandit_a.png","70","70","test","","","","3","",""
"null","167055","pSARL_v2","pSARL_v2sj8x5tex","5dd48444dd9a7447d224cc71","fixation","img/fixation.png","null","","test","","","","","",""
"397.7999999523163","167460","pSARL_v2","pSARL_v2sj8x5tex","5dd48444dd9a7447d224cc71","freq","img/green_2bandit_a2.png","70","70","test","1","58","58","3","",""
"null","167878","pSARL_v2","pSARL_v2sj8x5tex","5dd48444dd9a7447d224cc71","freq_resp","img/green_2bandit_a.png","70","70","test","","","","3","",""
"null","168039","pSARL_v2","pSARL_v2sj8x5tex","5dd48444dd9a7447d224cc71","fixation","img/fixation.png","null","","test","","","","","",""
"327.60000014305115","168374","pSARL_v2","pSARL_v2sj8x5tex","5dd48444dd9a7447d224cc71","freq","img/green_2bandit_a2.png","70","70","test","1","59","59","3","",""
"null","168855","pSARL_v2","pSARL_v2sj8x5tex","5dd48444dd9a7447d224cc71","freq_resp","img/green_2bandit_a.png","70","70","test","","","","3","",""
"null","169021","pSARL_v2","pSARL_v2sj8x5tex","5dd48444dd9a7447d224cc71","fixation","img/fixation.png","null","","test","","","","","",""
"290","169318","pSARL_v2","pSARL_v2sj8x5tex","5dd48444dd9a7447d224cc71","freq","img/green_2bandit_a2.png","70","70","test","1","60","60","3","",""
"null","169840","pSARL_v2","pSARL_v2sj8x5tex","5dd48444dd9a7447d224cc71","freq_resp","img/green_2bandit_a.png","70","70","test","","","","3","",""
"null","170007","pSARL_v2","pSARL_v2sj8x5tex","5dd48444dd9a7447d224cc71","fixation","img/fixation.png","null","","test","","","","","",""
"279.59999990463257","170294","pSARL_v2","pSARL_v2sj8x5tex","5dd48444dd9a7447d224cc71","infreq","img/orange_2bandit_a2.png","70","68","test","0","61","61","3","",""
"null","170836","pSARL_v2","pSARL_v2sj8x5tex","5dd48444dd9a7447d224cc71","infreq_resp","img/orange_2bandit_a.png","70","68","test","","","","3","",""
"null","171007","pSARL_v2","pSARL_v2sj8x5tex","5dd48444dd9a7447d224cc71","fixation","img/fixation.png","null","","test","","","","","",""
"375.5","171390","pSARL_v2","pSARL_v2sj8x5tex","5dd48444dd9a7447d224cc71","freq","img/green_2bandit_a2.png","70","70","test","1","62","62","3","",""
"null","171824","pSARL_v2","pSARL_v2sj8x5tex","5dd48444dd9a7447d224cc71","freq_resp","img/green_2bandit_a.png","70","70","test","","","","3","",""
"null","171989","pSARL_v2","pSARL_v2sj8x5tex","5dd48444dd9a7447d224cc71","fixation","img/fixation.png","null","","test","","","","","",""
"378.09999990463257","172376","pSARL_v2","pSARL_v2sj8x5tex","5dd48444dd9a7447d224cc71","freq","img/green_2bandit_a2.png","70","70","test","1","63","63","3","",""
"null","172807","pSARL_v2","pSARL_v2sj8x5tex","5dd48444dd9a7447d224cc71","freq_resp","img/green_2bandit_a.png","70","70","test","","","","3","",""
"null","172975","pSARL_v2","pSARL_v2sj8x5tex","5dd48444dd9a7447d224cc71","fixation","img/fixation.png","null","","test","","","","","",""
"303.2999999523163","173285","pSARL_v2","pSARL_v2sj8x5tex","5dd48444dd9a7447d224cc71","freq","img/green_2bandit_a2.png","70","70","test","1","64","64","3","",""
"null","173790","pSARL_v2","pSARL_v2sj8x5tex","5dd48444dd9a7447d224cc71","freq_resp","img/green_2bandit_a.png","70","70","test","","","","3","",""
"null","173958","pSARL_v2","pSARL_v2sj8x5tex","5dd48444dd9a7447d224cc71","fixation","img/fixation.png","null","","test","","","","","",""
"328","174292","pSARL_v2","pSARL_v2sj8x5tex","5dd48444dd9a7447d224cc71","freq","img/green_2bandit_a2.png","70","70","test","1","65","65","3","",""
"null","174774","pSARL_v2","pSARL_v2sj8x5tex","5dd48444dd9a7447d224cc71","freq_resp","img/green_2bandit_a.png","70","70","test","","","","3","",""
"null","174940","pSARL_v2","pSARL_v2sj8x5tex","5dd48444dd9a7447d224cc71","fixation","img/fixation.png","null","","test","","","","","",""
"314.90000009536743","175262","pSARL_v2","pSARL_v2sj8x5tex","5dd48444dd9a7447d224cc71","freq","img/green_2bandit_a2.png","70","70","test","1","66","66","3","",""
"null","175759","pSARL_v2","pSARL_v2sj8x5tex","5dd48444dd9a7447d224cc71","freq_resp","img/green_2bandit_a.png","70","70","test","","","","3","",""
"null","175925","pSARL_v2","pSARL_v2sj8x5tex","5dd48444dd9a7447d224cc71","fixation","img/fixation.png","null","","test","","","","","",""
"321.2999999523163","176253","pSARL_v2","pSARL_v2sj8x5tex","5dd48444dd9a7447d224cc71","freq","img/green_2bandit_a2.png","70","70","test","1","67","67","3","",""
"null","176742","pSARL_v2","pSARL_v2sj8x5tex","5dd48444dd9a7447d224cc71","freq_resp","img/green_2bandit_a.png","70","70","test","","","","3","",""
"null","176909","pSARL_v2","pSARL_v2sj8x5tex","5dd48444dd9a7447d224cc71","fixation","img/fixation.png","null","","test","","","","","",""
"346.2999999523163","177262","pSARL_v2","pSARL_v2sj8x5tex","5dd48444dd9a7447d224cc71","freq","img/green_2bandit_a2.png","70","70","test","1","68","68","3","",""
"null","177727","pSARL_v2","pSARL_v2sj8x5tex","5dd48444dd9a7447d224cc71","freq_resp","img/green_2bandit_a.png","70","70","test","","","","3","",""
"null","177893","pSARL_v2","pSARL_v2sj8x5tex","5dd48444dd9a7447d224cc71","fixation","img/fixation.png","null","","test","","","","","",""
"545.8000001907349","178446","pSARL_v2","pSARL_v2sj8x5tex","5dd48444dd9a7447d224cc71","infreq","img/orange_2bandit_a2.png","68","68","test","1","69","69","3","",""
"null","178720","pSARL_v2","pSARL_v2sj8x5tex","5dd48444dd9a7447d224cc71","infreq_resp","img/orange_2bandit_a.png","68","68","test","","","","3","",""
"null","178892","pSARL_v2","pSARL_v2sj8x5tex","5dd48444dd9a7447d224cc71","fixation","img/fixation.png","null","","test","","","","","",""
"441.80000019073486","179342","pSARL_v2","pSARL_v2sj8x5tex","5dd48444dd9a7447d224cc71","freq","img/green_2bandit_a2.png","70","70","test","1","70","70","3","",""
"null","179715","pSARL_v2","pSARL_v2sj8x5tex","5dd48444dd9a7447d224cc71","freq_resp","img/green_2bandit_a.png","70","70","test","","","","3","",""
"null","179876","pSARL_v2","pSARL_v2sj8x5tex","5dd48444dd9a7447d224cc71","fixation","img/fixation.png","null","","test","","","","","",""
"1250.8999998569489","181134","pSARL_v2","pSARL_v2sj8x5tex","5dd48444dd9a7447d224cc71","reward","img/slot.png","74","","test","","","","","",""
"null","181893","pSARL_v2","pSARL_v2sj8x5tex","5dd48444dd9a7447d224cc71","points","<div class=""verylowPoints""> -7 </div>","null","na","test","","","","3","-7","2"
"97","181998","pSARL_v2","pSARL_v2sj8x5tex","5dd48444dd9a7447d224cc71","freq","img/green_2bandit_a2.png","68","70","test","0","71","71","4","",""
"null","182710","pSARL_v2","pSARL_v2sj8x5tex","5dd48444dd9a7447d224cc71","freq_resp","img/green_2bandit_a.png","68","70","test","","","","4","",""
"null","182878","pSARL_v2","pSARL_v2sj8x5tex","5dd48444dd9a7447d224cc71","fixation","img/fixation.png","null","","test","","","","","",""
"472.2999999523163","183356","pSARL_v2","pSARL_v2sj8x5tex","5dd48444dd9a7447d224cc71","freq","img/green_2bandit_a2.png","70","70","test","1","72","72","4","",""
"null","183704","pSARL_v2","pSARL_v2sj8x5tex","5dd48444dd9a7447d224cc71","freq_resp","img/green_2bandit_a.png","70","70","test","","","","4","",""
"null","183877","pSARL_v2","pSARL_v2sj8x5tex","5dd48444dd9a7447d224cc71","fixation","img/fixation.png","null","","test","","","","","",""
"393.19999980926514","184279","pSARL_v2","pSARL_v2sj8x5tex","5dd48444dd9a7447d224cc71","freq","img/green_2bandit_a2.png","70","70","test","1","73","73","4","",""
"null","184698","pSARL_v2","pSARL_v2sj8x5tex","5dd48444dd9a7447d224cc71","freq_resp","img/green_2bandit_a.png","70","70","test","","","","4","",""
"null","184861","pSARL_v2","pSARL_v2sj8x5tex","5dd48444dd9a7447d224cc71","fixation","img/fixation.png","null","","test","","","","","",""
"401.2000000476837","185269","pSARL_v2","pSARL_v2sj8x5tex","5dd48444dd9a7447d224cc71","freq","img/green_2bandit_a2.png","70","70","test","1","74","74","4","",""
"null","185679","pSARL_v2","pSARL_v2sj8x5tex","5dd48444dd9a7447d224cc71","freq_resp","img/green_2bandit_a.png","70","70","test","","","","4","",""
"null","185844","pSARL_v2","pSARL_v2sj8x5tex","5dd48444dd9a7447d224cc71","fixation","img/fixation.png","null","","test","","","","","",""
"385.7000000476837","186237","pSARL_v2","pSARL_v2sj8x5tex","5dd48444dd9a7447d224cc71","freq","img/green_2bandit_a2.png","70","70","test","1","75","75","4","",""
"null","186662","pSARL_v2","pSARL_v2sj8x5tex","5dd48444dd9a7447d224cc71","freq_resp","img/green_2bandit_a.png","70","70","test","","","","4","",""
"null","186828","pSARL_v2","pSARL_v2sj8x5tex","5dd48444dd9a7447d224cc71","fixation","img/fixation.png","null","","test","","","","","",""
"313.7999999523163","187148","pSARL_v2","pSARL_v2sj8x5tex","5dd48444dd9a7447d224cc71","freq","img/green_2bandit_a2.png","70","70","test","1","76","76","4","",""
"null","187644","pSARL_v2","pSARL_v2sj8x5tex","5dd48444dd9a7447d224cc71","freq_resp","img/green_2bandit_a.png","70","70","test","","","","4","",""
"null","187812","pSARL_v2","pSARL_v2sj8x5tex","5dd48444dd9a7447d224cc71","fixation","img/fixation.png","null","","test","","","","","",""
"313.7000000476837","188133","pSARL_v2","pSARL_v2sj8x5tex","5dd48444dd9a7447d224cc71","freq","img/green_2bandit_a2.png","70","70","test","1","77","77","4","",""
"null","188626","pSARL_v2","pSARL_v2sj8x5tex","5dd48444dd9a7447d224cc71","freq_resp","img/green_2bandit_a.png","70","70","test","","","","4","",""
"null","188796","pSARL_v2","pSARL_v2sj8x5tex","5dd48444dd9a7447d224cc71","fixation","img/fixation.png","null","","test","","","","","",""
"410.5","189214","pSARL_v2","pSARL_v2sj8x5tex","5dd48444dd9a7447d224cc71","infreq","img/orange_2bandit_a2.png","68","68","test","1","78","78","4","",""
"null","189616","pSARL_v2","pSARL_v2sj8x5tex","5dd48444dd9a7447d224cc71","infreq_resp","img/orange_2bandit_a.png","68","68","test","","","","4","",""
"null","189779","pSARL_v2","pSARL_v2sj8x5tex","5dd48444dd9a7447d224cc71","fixation","img/fixation.png","null","","test","","","","","",""
"435.60000014305115","190221","pSARL_v2","pSARL_v2sj8x5tex","5dd48444dd9a7447d224cc71","freq","img/green_2bandit_a2.png","70","70","test","1","79","79","4","",""
"null","190601","pSARL_v2","pSARL_v2sj8x5tex","5dd48444dd9a7447d224cc71","freq_resp","img/green_2bandit_a.png","70","70","test","","","","4","",""
"null","190762","pSARL_v2","pSARL_v2sj8x5tex","5dd48444dd9a7447d224cc71","fixation","img/fixation.png","null","","test","","","","","",""
"444.2000000476837","191213","pSARL_v2","pSARL_v2sj8x5tex","5dd48444dd9a7447d224cc71","infreq","img/orange_2bandit_a2.png","68","68","test","1","80","80","4","",""
"null","191585","pSARL_v2","pSARL_v2sj8x5tex","5dd48444dd9a7447d224cc71","infreq_resp","img/orange_2bandit_a.png","68","68","test","","","","4","",""
"null","191747","pSARL_v2","pSARL_v2sj8x5tex","5dd48444dd9a7447d224cc71","fixation","img/fixation.png","null","","test","","","","","",""
"411","192164","pSARL_v2","pSARL_v2sj8x5tex","5dd48444dd9a7447d224cc71","freq","img/green_2bandit_a2.png","70","70","test","1","81","81","4","",""
"null","192566","pSARL_v2","pSARL_v2sj8x5tex","5dd48444dd9a7447d224cc71","freq_resp","img/green_2bandit_a.png","70","70","test","","","","4","",""
"null","192731","pSARL_v2","pSARL_v2sj8x5tex","5dd48444dd9a7447d224cc71","fixation","img/fixation.png","null","","test","","","","","",""
"394.7000000476837","193131","pSARL_v2","pSARL_v2sj8x5tex","5dd48444dd9a7447d224cc71","freq","img/green_2bandit_a2.png","70","70","test","1","82","82","4","",""
"null","193549","pSARL_v2","pSARL_v2sj8x5tex","5dd48444dd9a7447d224cc71","freq_resp","img/green_2bandit_a.png","70","70","test","","","","4","",""
"null","193713","pSARL_v2","pSARL_v2sj8x5tex","5dd48444dd9a7447d224cc71","fixation","img/fixation.png","null","","test","","","","","",""
"396.60000014305115","194116","pSARL_v2","pSARL_v2sj8x5tex","5dd48444dd9a7447d224cc71","freq","img/green_2bandit_a2.png","70","70","test","1","83","83","4","",""
"null","194533","pSARL_v2","pSARL_v2sj8x5tex","5dd48444dd9a7447d224cc71","freq_resp","img/green_2bandit_a.png","70","70","test","","","","4","",""
"null","194696","pSARL_v2","pSARL_v2sj8x5tex","5dd48444dd9a7447d224cc71","fixation","img/fixation.png","null","","test","","","","","",""
"358","195060","pSARL_v2","pSARL_v2sj8x5tex","5dd48444dd9a7447d224cc71","freq","img/green_2bandit_a2.png","70","70","test","1","84","84","4","",""
"null","195514","pSARL_v2","pSARL_v2sj8x5tex","5dd48444dd9a7447d224cc71","freq_resp","img/green_2bandit_a.png","70","70","test","","","","4","",""
"null","195680","pSARL_v2","pSARL_v2sj8x5tex","5dd48444dd9a7447d224cc71","fixation","img/fixation.png","null","","test","","","","","",""
"374.2000000476837","196059","pSARL_v2","pSARL_v2sj8x5tex","5dd48444dd9a7447d224cc71","freq","img/green_2bandit_a2.png","70","70","test","1","85","85","4","",""
"null","196499","pSARL_v2","pSARL_v2sj8x5tex","5dd48444dd9a7447d224cc71","freq_resp","img/green_2bandit_a.png","70","70","test","","","","4","",""
"null","196665","pSARL_v2","pSARL_v2sj8x5tex","5dd48444dd9a7447d224cc71","fixation","img/fixation.png","null","","test","","","","","",""
"341.09999990463257","197014","pSARL_v2","pSARL_v2sj8x5tex","5dd48444dd9a7447d224cc71","freq","img/green_2bandit_a2.png","70","70","test","1","86","86","4","",""
"null","197496","pSARL_v2","pSARL_v2sj8x5tex","5dd48444dd9a7447d224cc71","freq_resp","img/green_2bandit_a.png","70","70","test","","","","4","",""
"null","197664","pSARL_v2","pSARL_v2sj8x5tex","5dd48444dd9a7447d224cc71","fixation","img/fixation.png","null","","test","","","","","",""
"357.7000000476837","198029","pSARL_v2","pSARL_v2sj8x5tex","5dd48444dd9a7447d224cc71","freq","img/green_2bandit_a2.png","70","70","test","1","87","87","4","",""
"null","198483","pSARL_v2","pSARL_v2sj8x5tex","5dd48444dd9a7447d224cc71","freq_resp","img/green_2bandit_a.png","70","70","test","","","","4","",""
"null","198649","pSARL_v2","pSARL_v2sj8x5tex","5dd48444dd9a7447d224cc71","fixation","img/fixation.png","null","","test","","","","","",""
"333.59999990463257","198990","pSARL_v2","pSARL_v2sj8x5tex","5dd48444dd9a7447d224cc71","freq","img/green_2bandit_a2.png","70","70","test","1","88","88","4","",""
"null","199464","pSARL_v2","pSARL_v2sj8x5tex","5dd48444dd9a7447d224cc71","freq_resp","img/green_2bandit_a.png","70","70","test","","","","4","",""
"null","199631","pSARL_v2","pSARL_v2sj8x5tex","5dd48444dd9a7447d224cc71","fixation","img/fixation.png","null","","test","","","","","",""
"351.90000009536743","199990","pSARL_v2","pSARL_v2sj8x5tex","5dd48444dd9a7447d224cc71","freq","img/green_2bandit_a2.png","70","70","test","1","89","89","4","",""
"null","200447","pSARL_v2","pSARL_v2sj8x5tex","5dd48444dd9a7447d224cc71","freq_resp","img/green_2bandit_a.png","70","70","test","","","","4","",""
"null","200615","pSARL_v2","pSARL_v2sj8x5tex","5dd48444dd9a7447d224cc71","fixation","img/fixation.png","null","","test","","","","","",""
"1120.2999999523163","201742","pSARL_v2","pSARL_v2sj8x5tex","5dd48444dd9a7447d224cc71","reward","img/slot.png","74","","test","","","","","",""
"null","202512","pSARL_v2","pSARL_v2sj8x5tex","5dd48444dd9a7447d224cc71","points","<div class=""verylowPoints""> -3 </div>","null","na","test","","","","4","-3","3"
"686.5","203205","pSARL_v2","pSARL_v2sj8x5tex","5dd48444dd9a7447d224cc71","freq","img/green_2bandit_a2.png","70","70","test","1","90","90","5","",""
"null","203334","pSARL_v2","pSARL_v2sj8x5tex","5dd48444dd9a7447d224cc71","freq_resp","img/green_2bandit_a.png","70","70","test","","","","5","",""
"null","203503","pSARL_v2","pSARL_v2sj8x5tex","5dd48444dd9a7447d224cc71","fixation","img/fixation.png","null","","test","","","","","",""
"367.7999999523163","203877","pSARL_v2","pSARL_v2sj8x5tex","5dd48444dd9a7447d224cc71","freq","img/green_2bandit_a2.png","70","70","test","1","91","91","5","",""
"null","204330","pSARL_v2","pSARL_v2sj8x5tex","5dd48444dd9a7447d224cc71","freq_resp","img/green_2bandit_a.png","70","70","test","","","","5","",""
"null","204499","pSARL_v2","pSARL_v2sj8x5tex","5dd48444dd9a7447d224cc71","fixation","img/fixation.png","null","","test","","","","","",""
"306.80000019073486","204814","pSARL_v2","pSARL_v2sj8x5tex","5dd48444dd9a7447d224cc71","freq","img/green_2bandit_a2.png","70","70","test","1","92","92","5","",""
"null","205330","pSARL_v2","pSARL_v2sj8x5tex","5dd48444dd9a7447d224cc71","freq_resp","img/green_2bandit_a.png","70","70","test","","","","5","",""
"null","205500","pSARL_v2","pSARL_v2sj8x5tex","5dd48444dd9a7447d224cc71","fixation","img/fixation.png","null","","test","","","","","",""
"450.2999999523163","205959","pSARL_v2","pSARL_v2sj8x5tex","5dd48444dd9a7447d224cc71","infreq","img/orange_2bandit_a2.png","68","68","test","1","93","93","5","",""
"null","206322","pSARL_v2","pSARL_v2sj8x5tex","5dd48444dd9a7447d224cc71","infreq_resp","img/orange_2bandit_a.png","68","68","test","","","","5","",""
"null","206483","pSARL_v2","pSARL_v2sj8x5tex","5dd48444dd9a7447d224cc71","fixation","img/fixation.png","null","","test","","","","","",""
"355.09999990463257","206846","pSARL_v2","pSARL_v2sj8x5tex","5dd48444dd9a7447d224cc71","freq","img/green_2bandit_a2.png","70","70","test","1","94","94","5","",""
"null","207301","pSARL_v2","pSARL_v2sj8x5tex","5dd48444dd9a7447d224cc71","freq_resp","img/green_2bandit_a.png","70","70","test","","","","5","",""
"null","207466","pSARL_v2","pSARL_v2sj8x5tex","5dd48444dd9a7447d224cc71","fixation","img/fixation.png","null","","test","","","","","",""
"316.59999990463257","207790","pSARL_v2","pSARL_v2sj8x5tex","5dd48444dd9a7447d224cc71","freq","img/green_2bandit_a2.png","70","70","test","1","95","95","5","",""
"null","208282","pSARL_v2","pSARL_v2sj8x5tex","5dd48444dd9a7447d224cc71","freq_resp","img/green_2bandit_a.png","70","70","test","","","","5","",""
"null","208450","pSARL_v2","pSARL_v2sj8x5tex","5dd48444dd9a7447d224cc71","fixation","img/fixation.png","null","","test","","","","","",""
"300.09999990463257","208758","pSARL_v2","pSARL_v2sj8x5tex","5dd48444dd9a7447d224cc71","freq","img/green_2bandit_a2.png","70","70","test","1","96","96","5","",""
"null","209280","pSARL_v2","pSARL_v2sj8x5tex","5dd48444dd9a7447d224cc71","freq_resp","img/green_2bandit_a.png","70","70","test","","","","5","",""
"null","209451","pSARL_v2","pSARL_v2sj8x5tex","5dd48444dd9a7447d224cc71","fixation","img/fixation.png","null","","test","","","","","",""
"331.2999999523163","209790","pSARL_v2","pSARL_v2sj8x5tex","5dd48444dd9a7447d224cc71","freq","img/green_2bandit_a2.png","70","70","test","1","97","97","5","",""
"null","210268","pSARL_v2","pSARL_v2sj8x5tex","5dd48444dd9a7447d224cc71","freq_resp","img/green_2bandit_a.png","70","70","test","","","","5","",""
"null","210434","pSARL_v2","pSARL_v2sj8x5tex","5dd48444dd9a7447d224cc71","fixation","img/fixation.png","null","","test","","","","","",""
"292.5","210734","pSARL_v2","pSARL_v2sj8x5tex","5dd48444dd9a7447d224cc71","freq","img/green_2bandit_a2.png","70","70","test","1","98","98","5","",""
"null","211248","pSARL_v2","pSARL_v2sj8x5tex","5dd48444dd9a7447d224cc71","freq_resp","img/green_2bandit_a.png","70","70","test","","","","5","",""
"null","211418","pSARL_v2","pSARL_v2sj8x5tex","5dd48444dd9a7447d224cc71","fixation","img/fixation.png","null","","test","","","","","",""
"325","211750","pSARL_v2","pSARL_v2sj8x5tex","5dd48444dd9a7447d224cc71","freq","img/green_2bandit_a2.png","70","70","test","1","99","99","5","",""
"null","212249","pSARL_v2","pSARL_v2sj8x5tex","5dd48444dd9a7447d224cc71","freq_resp","img/green_2bandit_a.png","70","70","test","","","","5","",""
"null","212418","pSARL_v2","pSARL_v2sj8x5tex","5dd48444dd9a7447d224cc71","fixation","img/fixation.png","null","","test","","","","","",""
"332.7000000476837","212758","pSARL_v2","pSARL_v2sj8x5tex","5dd48444dd9a7447d224cc71","freq","img/green_2bandit_a2.png","70","70","test","1","100","100","5","",""
"null","213248","pSARL_v2","pSARL_v2sj8x5tex","5dd48444dd9a7447d224cc71","freq_resp","img/green_2bandit_a.png","70","70","test","","","","5","",""
"null","213419","pSARL_v2","pSARL_v2sj8x5tex","5dd48444dd9a7447d224cc71","fixation","img/fixation.png","null","","test","","","","","",""
"339.60000014305115","213766","pSARL_v2","pSARL_v2sj8x5tex","5dd48444dd9a7447d224cc71","freq","img/green_2bandit_a2.png","70","70","test","1","101","101","5","",""
"null","214238","pSARL_v2","pSARL_v2sj8x5tex","5dd48444dd9a7447d224cc71","freq_resp","img/green_2bandit_a.png","70","70","test","","","","5","",""
"null","214402","pSARL_v2","pSARL_v2sj8x5tex","5dd48444dd9a7447d224cc71","fixation","img/fixation.png","null","","test","","","","","",""
"324.5","214733","pSARL_v2","pSARL_v2sj8x5tex","5dd48444dd9a7447d224cc71","freq","img/green_2bandit_a2.png","70","70","test","1","102","102","5","",""
"null","215218","pSARL_v2","pSARL_v2sj8x5tex","5dd48444dd9a7447d224cc71","freq_resp","img/green_2bandit_a.png","70","70","test","","","","5","",""
"null","215385","pSARL_v2","pSARL_v2sj8x5tex","5dd48444dd9a7447d224cc71","fixation","img/fixation.png","null","","test","","","","","",""
"325","215717","pSARL_v2","pSARL_v2sj8x5tex","5dd48444dd9a7447d224cc71","freq","img/green_2bandit_a2.png","70","70","test","1","103","103","5","",""
"null","216199","pSARL_v2","pSARL_v2sj8x5tex","5dd48444dd9a7447d224cc71","freq_resp","img/green_2bandit_a.png","70","70","test","","","","5","",""
"null","216368","pSARL_v2","pSARL_v2sj8x5tex","5dd48444dd9a7447d224cc71","fixation","img/fixation.png","null","","test","","","","","",""
"357.7999999523163","216733","pSARL_v2","pSARL_v2sj8x5tex","5dd48444dd9a7447d224cc71","freq","img/green_2bandit_a2.png","70","70","test","1","104","104","5","",""
"null","217185","pSARL_v2","pSARL_v2sj8x5tex","5dd48444dd9a7447d224cc71","freq_resp","img/green_2bandit_a.png","70","70","test","","","","5","",""
"null","217354","pSARL_v2","pSARL_v2sj8x5tex","5dd48444dd9a7447d224cc71","fixation","img/fixation.png","null","","test","","","","","",""
"357","217718","pSARL_v2","pSARL_v2sj8x5tex","5dd48444dd9a7447d224cc71","freq","img/green_2bandit_a2.png","70","70","test","1","105","105","5","",""
"null","218170","pSARL_v2","pSARL_v2sj8x5tex","5dd48444dd9a7447d224cc71","freq_resp","img/green_2bandit_a.png","70","70","test","","","","5","",""
"null","218337","pSARL_v2","pSARL_v2sj8x5tex","5dd48444dd9a7447d224cc71","fixation","img/fixation.png","null","","test","","","","","",""
"365.90000009536743","218710","pSARL_v2","pSARL_v2sj8x5tex","5dd48444dd9a7447d224cc71","freq","img/green_2bandit_a2.png","70","70","test","1","106","106","5","",""
"null","219151","pSARL_v2","pSARL_v2sj8x5tex","5dd48444dd9a7447d224cc71","freq_resp","img/green_2bandit_a.png","70","70","test","","","","5","",""
"null","219319","pSARL_v2","pSARL_v2sj8x5tex","5dd48444dd9a7447d224cc71","fixation","img/fixation.png","null","","test","","","","","",""
"367.2000000476837","219692","pSARL_v2","pSARL_v2sj8x5tex","5dd48444dd9a7447d224cc71","freq","img/green_2bandit_a2.png","70","70","test","1","107","107","5","",""
"null","220133","pSARL_v2","pSARL_v2sj8x5tex","5dd48444dd9a7447d224cc71","freq_resp","img/green_2bandit_a.png","70","70","test","","","","5","",""
"null","220301","pSARL_v2","pSARL_v2sj8x5tex","5dd48444dd9a7447d224cc71","fixation","img/fixation.png","null","","test","","","","","",""
"385.2000000476837","220694","pSARL_v2","pSARL_v2sj8x5tex","5dd48444dd9a7447d224cc71","freq","img/green_2bandit_a2.png","70","70","test","1","108","108","5","",""
"null","221125","pSARL_v2","pSARL_v2sj8x5tex","5dd48444dd9a7447d224cc71","freq_resp","img/green_2bandit_a.png","70","70","test","","","","5","",""
"null","221286","pSARL_v2","pSARL_v2sj8x5tex","5dd48444dd9a7447d224cc71","fixation","img/fixation.png","null","","test","","","","","",""
"473.09999990463257","221767","pSARL_v2","pSARL_v2sj8x5tex","5dd48444dd9a7447d224cc71","infreq","img/orange_2bandit_a2.png","68","68","test","1","109","109","5","",""
"null","222111","pSARL_v2","pSARL_v2sj8x5tex","5dd48444dd9a7447d224cc71","infreq_resp","img/orange_2bandit_a.png","68","68","test","","","","5","",""
"null","222272","pSARL_v2","pSARL_v2sj8x5tex","5dd48444dd9a7447d224cc71","fixation","img/fixation.png","null","","test","","","","","",""
"358.5","222638","pSARL_v2","pSARL_v2sj8x5tex","5dd48444dd9a7447d224cc71","freq","img/green_2bandit_a2.png","70","70","test","1","110","110","5","",""
"null","223089","pSARL_v2","pSARL_v2sj8x5tex","5dd48444dd9a7447d224cc71","freq_resp","img/green_2bandit_a.png","70","70","test","","","","5","",""
"null","223255","pSARL_v2","pSARL_v2sj8x5tex","5dd48444dd9a7447d224cc71","fixation","img/fixation.png","null","","test","","","","","",""
"351.2000000476837","223614","pSARL_v2","pSARL_v2sj8x5tex","5dd48444dd9a7447d224cc71","freq","img/green_2bandit_a2.png","70","70","test","1","111","111","5","",""
"null","224075","pSARL_v2","pSARL_v2sj8x5tex","5dd48444dd9a7447d224cc71","freq_resp","img/green_2bandit_a.png","70","70","test","","","","5","",""
"null","224237","pSARL_v2","pSARL_v2sj8x5tex","5dd48444dd9a7447d224cc71","fixation","img/fixation.png","null","","test","","","","","",""
"345.5","224590","pSARL_v2","pSARL_v2sj8x5tex","5dd48444dd9a7447d224cc71","freq","img/green_2bandit_a2.png","70","70","test","1","112","112","5","",""
"null","225055","pSARL_v2","pSARL_v2sj8x5tex","5dd48444dd9a7447d224cc71","freq_resp","img/green_2bandit_a.png","70","70","test","","","","5","",""
"null","225222","pSARL_v2","pSARL_v2sj8x5tex","5dd48444dd9a7447d224cc71","fixation","img/fixation.png","null","","test","","","","","",""
"369.09999990463257","225598","pSARL_v2","pSARL_v2sj8x5tex","5dd48444dd9a7447d224cc71","freq","img/green_2bandit_a2.png","70","70","test","1","113","113","5","",""
"null","226040","pSARL_v2","pSARL_v2sj8x5tex","5dd48444dd9a7447d224cc71","freq_resp","img/green_2bandit_a.png","70","70","test","","","","5","",""
"null","226205","pSARL_v2","pSARL_v2sj8x5tex","5dd48444dd9a7447d224cc71","fixation","img/fixation.png","null","","test","","","","","",""
"362","226575","pSARL_v2","pSARL_v2sj8x5tex","5dd48444dd9a7447d224cc71","freq","img/green_2bandit_a2.png","70","70","test","1","114","114","5","",""
"null","227023","pSARL_v2","pSARL_v2sj8x5tex","5dd48444dd9a7447d224cc71","freq_resp","img/green_2bandit_a.png","70","70","test","","","","5","",""
"null","227190","pSARL_v2","pSARL_v2sj8x5tex","5dd48444dd9a7447d224cc71","fixation","img/fixation.png","null","","test","","","","","",""
"344.69999980926514","227542","pSARL_v2","pSARL_v2sj8x5tex","5dd48444dd9a7447d224cc71","freq","img/green_2bandit_a2.png","70","70","test","1","115","115","5","",""
"null","228007","pSARL_v2","pSARL_v2sj8x5tex","5dd48444dd9a7447d224cc71","freq_resp","img/green_2bandit_a.png","70","70","test","","","","5","",""
"null","228171","pSARL_v2","pSARL_v2sj8x5tex","5dd48444dd9a7447d224cc71","fixation","img/fixation.png","null","","test","","","","","",""
"1237.2000000476837","229414","pSARL_v2","pSARL_v2sj8x5tex","5dd48444dd9a7447d224cc71","reward","img/slot.png","74","","test","","","","","",""
"null","230175","pSARL_v2","pSARL_v2sj8x5tex","5dd48444dd9a7447d224cc71","points","<div class=""veryhighPoints""> +1 </div>","null","na","test","","","","5","1","4"
"87.60000014305115","230270","pSARL_v2","pSARL_v2sj8x5tex","5dd48444dd9a7447d224cc71","freq","img/green_2bandit_a2.png","70","70","test","1","116","116","6","",""
"null","230995","pSARL_v2","pSARL_v2sj8x5tex","5dd48444dd9a7447d224cc71","freq_resp","img/green_2bandit_a.png","70","70","test","","","","6","",""
"null","231157","pSARL_v2","pSARL_v2sj8x5tex","5dd48444dd9a7447d224cc71","fixation","img/fixation.png","null","","test","","","","","",""
"522.3999998569489","231686","pSARL_v2","pSARL_v2sj8x5tex","5dd48444dd9a7447d224cc71","freq","img/green_2bandit_a2.png","70","70","test","1","117","117","6","",""
"null","231982","pSARL_v2","pSARL_v2sj8x5tex","5dd48444dd9a7447d224cc71","freq_resp","img/green_2bandit_a.png","70","70","test","","","","6","",""
"null","232153","pSARL_v2","pSARL_v2sj8x5tex","5dd48444dd9a7447d224cc71","fixation","img/fixation.png","null","","test","","","","","",""
"342.7999999523163","232503","pSARL_v2","pSARL_v2sj8x5tex","5dd48444dd9a7447d224cc71","freq","img/green_2bandit_a2.png","70","70","test","1","118","118","6","",""
"null","232975","pSARL_v2","pSARL_v2sj8x5tex","5dd48444dd9a7447d224cc71","freq_resp","img/green_2bandit_a.png","70","70","test","","","","6","",""
"null","233138","pSARL_v2","pSARL_v2sj8x5tex","5dd48444dd9a7447d224cc71","fixation","img/fixation.png","null","","test","","","","","",""
"509.69999980926514","233655","pSARL_v2","pSARL_v2sj8x5tex","5dd48444dd9a7447d224cc71","infreq","img/orange_2bandit_a2.png","68","68","test","1","119","119","6","",""
"null","233966","pSARL_v2","pSARL_v2sj8x5tex","5dd48444dd9a7447d224cc71","infreq_resp","img/orange_2bandit_a.png","68","68","test","","","","6","",""
"null","234126","pSARL_v2","pSARL_v2sj8x5tex","5dd48444dd9a7447d224cc71","fixation","img/fixation.png","null","","test","","","","","",""
"345.09999990463257","234478","pSARL_v2","pSARL_v2sj8x5tex","5dd48444dd9a7447d224cc71","freq","img/green_2bandit_a2.png","70","70","test","1","120","120","6","",""
"null","234941","pSARL_v2","pSARL_v2sj8x5tex","5dd48444dd9a7447d224cc71","freq_resp","img/green_2bandit_a.png","70","70","test","","","","6","",""
"null","235109","pSARL_v2","pSARL_v2sj8x5tex","5dd48444dd9a7447d224cc71","fixation","img/fixation.png","null","","test","","","","","",""
"321.60000014305115","235437","pSARL_v2","pSARL_v2sj8x5tex","5dd48444dd9a7447d224cc71","freq","img/green_2bandit_a2.png","70","70","test","1","121","121","6","",""
"null","235926","pSARL_v2","pSARL_v2sj8x5tex","5dd48444dd9a7447d224cc71","freq_resp","img/green_2bandit_a.png","70","70","test","","","","6","",""
"null","236091","pSARL_v2","pSARL_v2sj8x5tex","5dd48444dd9a7447d224cc71","fixation","img/fixation.png","null","","test","","","","","",""
"308.2000000476837","236406","pSARL_v2","pSARL_v2sj8x5tex","5dd48444dd9a7447d224cc71","freq","img/green_2bandit_a2.png","70","70","test","1","122","122","6","",""
"null","236907","pSARL_v2","pSARL_v2sj8x5tex","5dd48444dd9a7447d224cc71","freq_resp","img/green_2bandit_a.png","70","70","test","","","","6","",""
"null","237076","pSARL_v2","pSARL_v2sj8x5tex","5dd48444dd9a7447d224cc71","fixation","img/fixation.png","null","","test","","","","","",""
"378.7000000476837","237461","pSARL_v2","pSARL_v2sj8x5tex","5dd48444dd9a7447d224cc71","freq","img/green_2bandit_a2.png","70","70","test","1","123","123","6","",""
"null","237895","pSARL_v2","pSARL_v2sj8x5tex","5dd48444dd9a7447d224cc71","freq_resp","img/green_2bandit_a.png","70","70","test","","","","6","",""
"null","238058","pSARL_v2","pSARL_v2sj8x5tex","5dd48444dd9a7447d224cc71","fixation","img/fixation.png","null","","test","","","","","",""
"340.7999999523163","238406","pSARL_v2","pSARL_v2sj8x5tex","5dd48444dd9a7447d224cc71","freq","img/green_2bandit_a2.png","70","70","test","1","124","124","6","",""
"null","238878","pSARL_v2","pSARL_v2sj8x5tex","5dd48444dd9a7447d224cc71","freq_resp","img/green_2bandit_a.png","70","70","test","","","","6","",""
"null","239045","pSARL_v2","pSARL_v2sj8x5tex","5dd48444dd9a7447d224cc71","fixation","img/fixation.png","null","","test","","","","","",""
"336.90000009536743","239390","pSARL_v2","pSARL_v2sj8x5tex","5dd48444dd9a7447d224cc71","freq","img/green_2bandit_a2.png","70","70","test","1","125","125","6","",""
"null","239875","pSARL_v2","pSARL_v2sj8x5tex","5dd48444dd9a7447d224cc71","freq_resp","img/green_2bandit_a.png","70","70","test","","","","6","",""
"null","240044","pSARL_v2","pSARL_v2sj8x5tex","5dd48444dd9a7447d224cc71","fixation","img/fixation.png","null","","test","","","","","",""
"299.2999999523163","240350","pSARL_v2","pSARL_v2sj8x5tex","5dd48444dd9a7447d224cc71","freq","img/green_2bandit_a2.png","70","70","test","1","126","126","6","",""
"null","240872","pSARL_v2","pSARL_v2sj8x5tex","5dd48444dd9a7447d224cc71","freq_resp","img/green_2bandit_a.png","70","70","test","","","","6","",""
"null","241043","pSARL_v2","pSARL_v2sj8x5tex","5dd48444dd9a7447d224cc71","fixation","img/fixation.png","null","","test","","","","","",""
"307.59999990463257","241358","pSARL_v2","pSARL_v2sj8x5tex","5dd48444dd9a7447d224cc71","freq","img/green_2bandit_a2.png","70","70","test","1","127","127","6","",""
"null","241858","pSARL_v2","pSARL_v2sj8x5tex","5dd48444dd9a7447d224cc71","freq_resp","img/green_2bandit_a.png","70","70","test","","","","6","",""
"null","242027","pSARL_v2","pSARL_v2sj8x5tex","5dd48444dd9a7447d224cc71","fixation","img/fixation.png","null","","test","","","","","",""
"283.7999999523163","242316","pSARL_v2","pSARL_v2sj8x5tex","5dd48444dd9a7447d224cc71","infreq","img/orange_2bandit_a2.png","70","68","test","0","128","128","6","",""
"null","242840","pSARL_v2","pSARL_v2sj8x5tex","5dd48444dd9a7447d224cc71","infreq_resp","img/orange_2bandit_a.png","70","68","test","","","","6","",""
"null","243010","pSARL_v2","pSARL_v2sj8x5tex","5dd48444dd9a7447d224cc71","fixation","img/fixation.png","null","","test","","","","","",""
"348.90000009536743","243367","pSARL_v2","pSARL_v2sj8x5tex","5dd48444dd9a7447d224cc71","freq","img/green_2bandit_a2.png","70","70","test","1","129","129","6","",""
"null","243829","pSARL_v2","pSARL_v2sj8x5tex","5dd48444dd9a7447d224cc71","freq_resp","img/green_2bandit_a.png","70","70","test","","","","6","",""
"null","243994","pSARL_v2","pSARL_v2sj8x5tex","5dd48444dd9a7447d224cc71","fixation","img/fixation.png","null","","test","","","","","",""
"348.60000014305115","244348","pSARL_v2","pSARL_v2sj8x5tex","5dd48444dd9a7447d224cc71","freq","img/green_2bandit_a2.png","70","70","test","1","130","130","6","",""
"null","244810","pSARL_v2","pSARL_v2sj8x5tex","5dd48444dd9a7447d224cc71","freq_resp","img/green_2bandit_a.png","70","70","test","","","","6","",""
"null","244977","pSARL_v2","pSARL_v2sj8x5tex","5dd48444dd9a7447d224cc71","fixation","img/fixation.png","null","","test","","","","","",""
"309.2000000476837","245293","pSARL_v2","pSARL_v2sj8x5tex","5dd48444dd9a7447d224cc71","freq","img/green_2bandit_a2.png","70","70","test","1","131","131","6","",""
"null","245793","pSARL_v2","pSARL_v2sj8x5tex","5dd48444dd9a7447d224cc71","freq_resp","img/green_2bandit_a.png","70","70","test","","","","6","",""
"null","245962","pSARL_v2","pSARL_v2sj8x5tex","5dd48444dd9a7447d224cc71","fixation","img/fixation.png","null","","test","","","","","",""
"325","246295","pSARL_v2","pSARL_v2sj8x5tex","5dd48444dd9a7447d224cc71","freq","img/green_2bandit_a2.png","70","70","test","1","132","132","6","",""
"null","246791","pSARL_v2","pSARL_v2sj8x5tex","5dd48444dd9a7447d224cc71","freq_resp","img/green_2bandit_a.png","70","70","test","","","","6","",""
"null","246960","pSARL_v2","pSARL_v2sj8x5tex","5dd48444dd9a7447d224cc71","fixation","img/fixation.png","null","","test","","","","","",""
"335.2999999523163","247302","pSARL_v2","pSARL_v2sj8x5tex","5dd48444dd9a7447d224cc71","freq","img/green_2bandit_a2.png","70","70","test","1","133","133","6","",""
"null","247776","pSARL_v2","pSARL_v2sj8x5tex","5dd48444dd9a7447d224cc71","freq_resp","img/green_2bandit_a.png","70","70","test","","","","6","",""
"null","247944","pSARL_v2","pSARL_v2sj8x5tex","5dd48444dd9a7447d224cc71","fixation","img/fixation.png","null","","test","","","","","",""
"326.7000000476837","248277","pSARL_v2","pSARL_v2sj8x5tex","5dd48444dd9a7447d224cc71","freq","img/green_2bandit_a2.png","70","70","test","1","134","134","6","",""
"null","248760","pSARL_v2","pSARL_v2sj8x5tex","5dd48444dd9a7447d224cc71","freq_resp","img/green_2bandit_a.png","70","70","test","","","","6","",""
"null","248928","pSARL_v2","pSARL_v2sj8x5tex","5dd48444dd9a7447d224cc71","fixation","img/fixation.png","null","","test","","","","","",""
"310.7999999523163","249247","pSARL_v2","pSARL_v2sj8x5tex","5dd48444dd9a7447d224cc71","freq","img/green_2bandit_a2.png","70","70","test","1","135","135","6","",""
"null","249744","pSARL_v2","pSARL_v2sj8x5tex","5dd48444dd9a7447d224cc71","freq_resp","img/green_2bandit_a.png","70","70","test","","","","6","",""
"null","249912","pSARL_v2","pSARL_v2sj8x5tex","5dd48444dd9a7447d224cc71","fixation","img/fixation.png","null","","test","","","","","",""
"1239","251157","pSARL_v2","pSARL_v2sj8x5tex","5dd48444dd9a7447d224cc71","reward","img/slot.png","74","","test","","","","","",""
"null","251927","pSARL_v2","pSARL_v2sj8x5tex","5dd48444dd9a7447d224cc71","points","<div class=""verylowPoints""> -7 </div>","null","na","test","","","","6","-7","5"
"431.59999990463257","252366","pSARL_v2","pSARL_v2sj8x5tex","5dd48444dd9a7447d224cc71","freq","img/green_2bandit_a2.png","70","70","test","1","136","136","7","",""
"null","252750","pSARL_v2","pSARL_v2sj8x5tex","5dd48444dd9a7447d224cc71","freq_resp","img/green_2bandit_a.png","70","70","test","","","","7","",""
"null","252912","pSARL_v2","pSARL_v2sj8x5tex","5dd48444dd9a7447d224cc71","fixation","img/fixation.png","null","","test","","","","","",""
"391.60000014305115","253310","pSARL_v2","pSARL_v2sj8x5tex","5dd48444dd9a7447d224cc71","freq","img/green_2bandit_a2.png","70","70","test","1","137","137","7","",""
"null","253732","pSARL_v2","pSARL_v2sj8x5tex","5dd48444dd9a7447d224cc71","freq_resp","img/green_2bandit_a.png","70","70","test","","","","7","",""
"null","253896","pSARL_v2","pSARL_v2sj8x5tex","5dd48444dd9a7447d224cc71","fixation","img/fixation.png","null","","test","","","","","",""
"398.30000019073486","254302","pSARL_v2","pSARL_v2sj8x5tex","5dd48444dd9a7447d224cc71","freq","img/green_2bandit_a2.png","70","70","test","1","138","138","7","",""
"null","254714","pSARL_v2","pSARL_v2sj8x5tex","5dd48444dd9a7447d224cc71","freq_resp","img/green_2bandit_a.png","70","70","test","","","","7","",""
"null","254880","pSARL_v2","pSARL_v2sj8x5tex","5dd48444dd9a7447d224cc71","fixation","img/fixation.png","null","","test","","","","","",""
"374.5","255263","pSARL_v2","pSARL_v2sj8x5tex","5dd48444dd9a7447d224cc71","freq","img/green_2bandit_a2.png","70","70","test","1","139","139","7","",""
"null","255701","pSARL_v2","pSARL_v2sj8x5tex","5dd48444dd9a7447d224cc71","freq_resp","img/green_2bandit_a.png","70","70","test","","","","7","",""
"null","255863","pSARL_v2","pSARL_v2sj8x5tex","5dd48444dd9a7447d224cc71","fixation","img/fixation.png","null","","test","","","","","",""
"367.2999999523163","256237","pSARL_v2","pSARL_v2sj8x5tex","5dd48444dd9a7447d224cc71","freq","img/green_2bandit_a2.png","70","70","test","1","140","140","7","",""
"null","256681","pSARL_v2","pSARL_v2sj8x5tex","5dd48444dd9a7447d224cc71","freq_resp","img/green_2bandit_a.png","70","70","test","","","","7","",""
"null","256847","pSARL_v2","pSARL_v2sj8x5tex","5dd48444dd9a7447d224cc71","fixation","img/fixation.png","null","","test","","","","","",""
"327.59999990463257","257182","pSARL_v2","pSARL_v2sj8x5tex","5dd48444dd9a7447d224cc71","freq","img/green_2bandit_a2.png","70","70","test","1","141","141","7","",""
"null","257663","pSARL_v2","pSARL_v2sj8x5tex","5dd48444dd9a7447d224cc71","freq_resp","img/green_2bandit_a.png","70","70","test","","","","7","",""
"null","257832","pSARL_v2","pSARL_v2sj8x5tex","5dd48444dd9a7447d224cc71","fixation","img/fixation.png","null","","test","","","","","",""
"471.19999980926514","258311","pSARL_v2","pSARL_v2sj8x5tex","5dd48444dd9a7447d224cc71","freq","img/green_2bandit_a2.png","70","70","test","1","142","142","7","",""
"null","258653","pSARL_v2","pSARL_v2sj8x5tex","5dd48444dd9a7447d224cc71","freq_resp","img/green_2bandit_a.png","70","70","test","","","","7","",""
"null","258814","pSARL_v2","pSARL_v2sj8x5tex","5dd48444dd9a7447d224cc71","fixation","img/fixation.png","null","","test","","","","","",""
"408.39999985694885","259231","pSARL_v2","pSARL_v2sj8x5tex","5dd48444dd9a7447d224cc71","freq","img/green_2bandit_a2.png","70","70","test","1","143","143","7","",""
"null","259634","pSARL_v2","pSARL_v2sj8x5tex","5dd48444dd9a7447d224cc71","freq_resp","img/green_2bandit_a.png","70","70","test","","","","7","",""
"null","259798","pSARL_v2","pSARL_v2sj8x5tex","5dd48444dd9a7447d224cc71","fixation","img/fixation.png","null","","test","","","","","",""
"392.7999999523163","260197","pSARL_v2","pSARL_v2sj8x5tex","5dd48444dd9a7447d224cc71","freq","img/green_2bandit_a2.png","70","70","test","1","144","144","7","",""
"null","260618","pSARL_v2","pSARL_v2sj8x5tex","5dd48444dd9a7447d224cc71","freq_resp","img/green_2bandit_a.png","70","70","test","","","","7","",""
"null","260783","pSARL_v2","pSARL_v2sj8x5tex","5dd48444dd9a7447d224cc71","fixation","img/fixation.png","null","","test","","","","","",""
"351.10000014305115","261140","pSARL_v2","pSARL_v2sj8x5tex","5dd48444dd9a7447d224cc71","freq","img/green_2bandit_a2.png","70","70","test","1","145","145","7","",""
"null","261598","pSARL_v2","pSARL_v2sj8x5tex","5dd48444dd9a7447d224cc71","freq_resp","img/green_2bandit_a.png","70","70","test","","","","7","",""
"null","261765","pSARL_v2","pSARL_v2sj8x5tex","5dd48444dd9a7447d224cc71","fixation","img/fixation.png","null","","test","","","","","",""
"337.2000000476837","262109","pSARL_v2","pSARL_v2sj8x5tex","5dd48444dd9a7447d224cc71","freq","img/green_2bandit_a2.png","70","70","test","1","146","146","7","",""
"null","262595","pSARL_v2","pSARL_v2sj8x5tex","5dd48444dd9a7447d224cc71","freq_resp","img/green_2bandit_a.png","70","70","test","","","","7","",""
"null","262764","pSARL_v2","pSARL_v2sj8x5tex","5dd48444dd9a7447d224cc71","fixation","img/fixation.png","null","","test","","","","","",""
"369.89999985694885","263141","pSARL_v2","pSARL_v2sj8x5tex","5dd48444dd9a7447d224cc71","freq","img/green_2bandit_a2.png","70","70","test","1","147","147","7","",""
"null","263583","pSARL_v2","pSARL_v2sj8x5tex","5dd48444dd9a7447d224cc71","freq_resp","img/green_2bandit_a.png","70","70","test","","","","7","",""
"null","263750","pSARL_v2","pSARL_v2sj8x5tex","5dd48444dd9a7447d224cc71","fixation","img/fixation.png","null","","test","","","","","",""
"345.60000014305115","264102","pSARL_v2","pSARL_v2sj8x5tex","5dd48444dd9a7447d224cc71","freq","img/green_2bandit_a2.png","70","70","test","1","148","148","7","",""
"null","264565","pSARL_v2","pSARL_v2sj8x5tex","5dd48444dd9a7447d224cc71","freq_resp","img/green_2bandit_a.png","70","70","test","","","","7","",""
"null","264731","pSARL_v2","pSARL_v2sj8x5tex","5dd48444dd9a7447d224cc71","fixation","img/fixation.png","null","","test","","","","","",""
"371.59999990463257","265111","pSARL_v2","pSARL_v2sj8x5tex","5dd48444dd9a7447d224cc71","freq","img/green_2bandit_a2.png","70","70","test","1","149","149","7","",""
"null","265550","pSARL_v2","pSARL_v2sj8x5tex","5dd48444dd9a7447d224cc71","freq_resp","img/green_2bandit_a.png","70","70","test","","","","7","",""
"null","265717","pSARL_v2","pSARL_v2sj8x5tex","5dd48444dd9a7447d224cc71","fixation","img/fixation.png","null","","test","","","","","",""
"585.2999999523163","266310","pSARL_v2","pSARL_v2sj8x5tex","5dd48444dd9a7447d224cc71","infreq","img/orange_2bandit_a2.png","68","68","test","1","150","150","7","",""
"null","266545","pSARL_v2","pSARL_v2sj8x5tex","5dd48444dd9a7447d224cc71","infreq_resp","img/orange_2bandit_a.png","68","68","test","","","","7","",""
"null","266713","pSARL_v2","pSARL_v2sj8x5tex","5dd48444dd9a7447d224cc71","fixation","img/fixation.png","null","","test","","","","","",""
"382.60000014305115","267102","pSARL_v2","pSARL_v2sj8x5tex","5dd48444dd9a7447d224cc71","freq","img/green_2bandit_a2.png","70","70","test","1","151","151","7","",""
"null","267536","pSARL_v2","pSARL_v2sj8x5tex","5dd48444dd9a7447d224cc71","freq_resp","img/green_2bandit_a.png","70","70","test","","","","7","",""
"null","267697","pSARL_v2","pSARL_v2sj8x5tex","5dd48444dd9a7447d224cc71","fixation","img/fixation.png","null","","test","","","","","",""
"373.19999980926514","268077","pSARL_v2","pSARL_v2sj8x5tex","5dd48444dd9a7447d224cc71","freq","img/green_2bandit_a2.png","70","70","test","1","152","152","7","",""
"null","268516","pSARL_v2","pSARL_v2sj8x5tex","5dd48444dd9a7447d224cc71","freq_resp","img/green_2bandit_a.png","70","70","test","","","","7","",""
"null","268683","pSARL_v2","pSARL_v2sj8x5tex","5dd48444dd9a7447d224cc71","fixation","img/fixation.png","null","","test","","","","","",""
"355.69999980926514","269046","pSARL_v2","pSARL_v2sj8x5tex","5dd48444dd9a7447d224cc71","freq","img/green_2bandit_a2.png","70","70","test","1","153","153","7","",""
"null","269498","pSARL_v2","pSARL_v2sj8x5tex","5dd48444dd9a7447d224cc71","freq_resp","img/green_2bandit_a.png","70","70","test","","","","7","",""
"null","269667","pSARL_v2","pSARL_v2sj8x5tex","5dd48444dd9a7447d224cc71","fixation","img/fixation.png","null","","test","","","","","",""
"339.5","270012","pSARL_v2","pSARL_v2sj8x5tex","5dd48444dd9a7447d224cc71","freq","img/green_2bandit_a2.png","70","70","test","1","154","154","7","",""
"null","270481","pSARL_v2","pSARL_v2sj8x5tex","5dd48444dd9a7447d224cc71","freq_resp","img/green_2bandit_a.png","70","70","test","","","","7","",""
"null","270651","pSARL_v2","pSARL_v2sj8x5tex","5dd48444dd9a7447d224cc71","fixation","img/fixation.png","null","","test","","","","","",""
"355.59999990463257","271014","pSARL_v2","pSARL_v2sj8x5tex","5dd48444dd9a7447d224cc71","freq","img/green_2bandit_a2.png","70","70","test","1","155","155","7","",""
"null","271470","pSARL_v2","pSARL_v2sj8x5tex","5dd48444dd9a7447d224cc71","freq_resp","img/green_2bandit_a.png","70","70","test","","","","7","",""
"null","271632","pSARL_v2","pSARL_v2sj8x5tex","5dd48444dd9a7447d224cc71","fixation","img/fixation.png","null","","test","","","","","",""
"382.7000000476837","272022","pSARL_v2","pSARL_v2sj8x5tex","5dd48444dd9a7447d224cc71","freq","img/green_2bandit_a2.png","70","70","test","1","156","156","7","",""
"null","272452","pSARL_v2","pSARL_v2sj8x5tex","5dd48444dd9a7447d224cc71","freq_resp","img/green_2bandit_a.png","70","70","test","","","","7","",""
"null","272618","pSARL_v2","pSARL_v2sj8x5tex","5dd48444dd9a7447d224cc71","fixation","img/fixation.png","null","","test","","","","","",""
"565.2999999523163","273190","pSARL_v2","pSARL_v2sj8x5tex","5dd48444dd9a7447d224cc71","infreq","img/orange_2bandit_a2.png","68","68","test","1","157","157","7","",""
"null","273445","pSARL_v2","pSARL_v2sj8x5tex","5dd48444dd9a7447d224cc71","infreq_resp","img/orange_2bandit_a.png","68","68","test","","","","7","",""
"null","273617","pSARL_v2","pSARL_v2sj8x5tex","5dd48444dd9a7447d224cc71","fixation","img/fixation.png","null","","test","","","","","",""
"358","273982","pSARL_v2","pSARL_v2sj8x5tex","5dd48444dd9a7447d224cc71","freq","img/green_2bandit_a2.png","70","70","test","1","158","158","7","",""
"null","274435","pSARL_v2","pSARL_v2sj8x5tex","5dd48444dd9a7447d224cc71","freq_resp","img/green_2bandit_a.png","70","70","test","","","","7","",""
"null","274600","pSARL_v2","pSARL_v2sj8x5tex","5dd48444dd9a7447d224cc71","fixation","img/fixation.png","null","","test","","","","","",""
"423","275031","pSARL_v2","pSARL_v2sj8x5tex","5dd48444dd9a7447d224cc71","freq","img/green_2bandit_a2.png","70","70","test","1","159","159","7","",""
"null","275420","pSARL_v2","pSARL_v2sj8x5tex","5dd48444dd9a7447d224cc71","freq_resp","img/green_2bandit_a.png","70","70","test","","","","7","",""
"null","275585","pSARL_v2","pSARL_v2sj8x5tex","5dd48444dd9a7447d224cc71","fixation","img/fixation.png","null","","test","","","","","",""
"1238.5","276829","pSARL_v2","pSARL_v2sj8x5tex","5dd48444dd9a7447d224cc71","reward","img/slot.png","74","","test","","","","","",""
"null","277601","pSARL_v2","pSARL_v2sj8x5tex","5dd48444dd9a7447d224cc71","points","<div class=""verylowPoints""> -6 </div>","null","na","test","","","","7","-6","6"
"509.7999999523163","278119","pSARL_v2","pSARL_v2sj8x5tex","5dd48444dd9a7447d224cc71","freq","img/green_2bandit_a2.png","70","70","test","1","160","160","8","",""
"null","278427","pSARL_v2","pSARL_v2sj8x5tex","5dd48444dd9a7447d224cc71","freq_resp","img/green_2bandit_a.png","70","70","test","","","","8","",""
"null","278585","pSARL_v2","pSARL_v2sj8x5tex","5dd48444dd9a7447d224cc71","fixation","img/fixation.png","null","","test","","","","","",""
"444.2999999523163","279036","pSARL_v2","pSARL_v2sj8x5tex","5dd48444dd9a7447d224cc71","freq","img/green_2bandit_a2.png","70","70","test","1","161","161","8","",""
"null","279405","pSARL_v2","pSARL_v2sj8x5tex","5dd48444dd9a7447d224cc71","freq_resp","img/green_2bandit_a.png","70","70","test","","","","8","",""
"null","279569","pSARL_v2","pSARL_v2sj8x5tex","5dd48444dd9a7447d224cc71","fixation","img/fixation.png","null","","test","","","","","",""
"493","280068","pSARL_v2","pSARL_v2sj8x5tex","5dd48444dd9a7447d224cc71","infreq","img/orange_2bandit_a2.png","68","68","test","1","162","162","8","",""
"null","280392","pSARL_v2","pSARL_v2sj8x5tex","5dd48444dd9a7447d224cc71","infreq_resp","img/orange_2bandit_a.png","68","68","test","","","","8","",""
"null","280551","pSARL_v2","pSARL_v2sj8x5tex","5dd48444dd9a7447d224cc71","fixation","img/fixation.png","null","","test","","","","","",""
"407.5","280966","pSARL_v2","pSARL_v2sj8x5tex","5dd48444dd9a7447d224cc71","freq","img/green_2bandit_a2.png","70","70","test","1","163","163","8","",""
"null","281374","pSARL_v2","pSARL_v2sj8x5tex","5dd48444dd9a7447d224cc71","freq_resp","img/green_2bandit_a.png","70","70","test","","","","8","",""
"null","281537","pSARL_v2","pSARL_v2sj8x5tex","5dd48444dd9a7447d224cc71","fixation","img/fixation.png","null","","test","","","","","",""
"309.2000000476837","281853","pSARL_v2","pSARL_v2sj8x5tex","5dd48444dd9a7447d224cc71","freq","img/green_2bandit_a2.png","70","70","test","1","164","164","8","",""
"null","282367","pSARL_v2","pSARL_v2sj8x5tex","5dd48444dd9a7447d224cc71","freq_resp","img/green_2bandit_a.png","70","70","test","","","","8","",""
"null","282536","pSARL_v2","pSARL_v2sj8x5tex","5dd48444dd9a7447d224cc71","fixation","img/fixation.png","null","","test","","","","","",""
"246.39999985694885","282790","pSARL_v2","pSARL_v2sj8x5tex","5dd48444dd9a7447d224cc71","freq","img/green_2bandit_a2.png","70","70","test","1","165","165","8","",""
"null","283364","pSARL_v2","pSARL_v2sj8x5tex","5dd48444dd9a7447d224cc71","freq_resp","img/green_2bandit_a.png","70","70","test","","","","8","",""
"null","283537","pSARL_v2","pSARL_v2sj8x5tex","5dd48444dd9a7447d224cc71","fixation","img/fixation.png","null","","test","","","","","",""
"205.79999995231628","283750","pSARL_v2","pSARL_v2sj8x5tex","5dd48444dd9a7447d224cc71","freq","img/green_2bandit_a2.png","70","70","test","1","166","166","8","",""
"null","284363","pSARL_v2","pSARL_v2sj8x5tex","5dd48444dd9a7447d224cc71","freq_resp","img/green_2bandit_a.png","70","70","test","","","","8","",""
"null","284535","pSARL_v2","pSARL_v2sj8x5tex","5dd48444dd9a7447d224cc71","fixation","img/fixation.png","null","","test","","","","","",""
"287.7000000476837","284830","pSARL_v2","pSARL_v2sj8x5tex","5dd48444dd9a7447d224cc71","infreq","img/orange_2bandit_a2.png","70","68","test","0","167","167","8","",""
"null","285363","pSARL_v2","pSARL_v2sj8x5tex","5dd48444dd9a7447d224cc71","infreq_resp","img/orange_2bandit_a.png","70","68","test","","","","8","",""
"null","285536","pSARL_v2","pSARL_v2sj8x5tex","5dd48444dd9a7447d224cc71","fixation","img/fixation.png","null","","test","","","","","",""
"493.7000000476837","286035","pSARL_v2","pSARL_v2sj8x5tex","5dd48444dd9a7447d224cc71","infreq","img/orange_2bandit_a2.png","68","68","test","1","168","168","8","",""
"null","286362","pSARL_v2","pSARL_v2sj8x5tex","5dd48444dd9a7447d224cc71","infreq_resp","img/orange_2bandit_a.png","68","68","test","","","","8","",""
"null","286520","pSARL_v2","pSARL_v2sj8x5tex","5dd48444dd9a7447d224cc71","fixation","img/fixation.png","null","","test","","","","","",""
"422.2000000476837","286949","pSARL_v2","pSARL_v2sj8x5tex","5dd48444dd9a7447d224cc71","freq","img/green_2bandit_a2.png","70","70","test","1","169","169","8","",""
"null","287340","pSARL_v2","pSARL_v2sj8x5tex","5dd48444dd9a7447d224cc71","freq_resp","img/green_2bandit_a.png","70","70","test","","","","8","",""
"null","287505","pSARL_v2","pSARL_v2sj8x5tex","5dd48444dd9a7447d224cc71","fixation","img/fixation.png","null","","test","","","","","",""
"332.80000019073486","287845","pSARL_v2","pSARL_v2sj8x5tex","5dd48444dd9a7447d224cc71","freq","img/green_2bandit_a2.png","70","70","test","1","170","170","8","",""
"null","288321","pSARL_v2","pSARL_v2sj8x5tex","5dd48444dd9a7447d224cc71","freq_resp","img/green_2bandit_a.png","70","70","test","","","","8","",""
"null","288487","pSARL_v2","pSARL_v2sj8x5tex","5dd48444dd9a7447d224cc71","fixation","img/fixation.png","null","","test","","","","","",""
"312.09999990463257","288806","pSARL_v2","pSARL_v2sj8x5tex","5dd48444dd9a7447d224cc71","freq","img/green_2bandit_a2.png","70","70","test","1","171","171","8","",""
"null","289301","pSARL_v2","pSARL_v2sj8x5tex","5dd48444dd9a7447d224cc71","freq_resp","img/green_2bandit_a.png","70","70","test","","","","8","",""
"null","289469","pSARL_v2","pSARL_v2sj8x5tex","5dd48444dd9a7447d224cc71","fixation","img/fixation.png","null","","test","","","","","",""
"344.2999999523163","289822","pSARL_v2","pSARL_v2sj8x5tex","5dd48444dd9a7447d224cc71","freq","img/green_2bandit_a2.png","70","70","test","1","172","172","8","",""
"null","290287","pSARL_v2","pSARL_v2sj8x5tex","5dd48444dd9a7447d224cc71","freq_resp","img/green_2bandit_a.png","70","70","test","","","","8","",""
"null","290456","pSARL_v2","pSARL_v2sj8x5tex","5dd48444dd9a7447d224cc71","fixation","img/fixation.png","null","","test","","","","","",""
"397.60000014305115","290859","pSARL_v2","pSARL_v2sj8x5tex","5dd48444dd9a7447d224cc71","freq","img/green_2bandit_a2.png","70","70","test","1","173","173","8","",""
"null","291274","pSARL_v2","pSARL_v2sj8x5tex","5dd48444dd9a7447d224cc71","freq_resp","img/green_2bandit_a.png","70","70","test","","","","8","",""
"null","291437","pSARL_v2","pSARL_v2sj8x5tex","5dd48444dd9a7447d224cc71","fixation","img/fixation.png","null","","test","","","","","",""
"336.7999999523163","291781","pSARL_v2","pSARL_v2sj8x5tex","5dd48444dd9a7447d224cc71","freq","img/green_2bandit_a2.png","70","70","test","1","174","174","8","",""
"null","292251","pSARL_v2","pSARL_v2sj8x5tex","5dd48444dd9a7447d224cc71","freq_resp","img/green_2bandit_a.png","70","70","test","","","","8","",""
"null","292419","pSARL_v2","pSARL_v2sj8x5tex","5dd48444dd9a7447d224cc71","fixation","img/fixation.png","null","","test","","","","","",""
"300.2999999523163","292726","pSARL_v2","pSARL_v2sj8x5tex","5dd48444dd9a7447d224cc71","freq","img/green_2bandit_a2.png","70","70","test","1","175","175","8","",""
"null","293236","pSARL_v2","pSARL_v2sj8x5tex","5dd48444dd9a7447d224cc71","freq_resp","img/green_2bandit_a.png","70","70","test","","","","8","",""
"null","293406","pSARL_v2","pSARL_v2sj8x5tex","5dd48444dd9a7447d224cc71","fixation","img/fixation.png","null","","test","","","","","",""
"304.5","293717","pSARL_v2","pSARL_v2sj8x5tex","5dd48444dd9a7447d224cc71","freq","img/green_2bandit_a2.png","70","70","test","1","176","176","8","",""
"null","294224","pSARL_v2","pSARL_v2sj8x5tex","5dd48444dd9a7447d224cc71","freq_resp","img/green_2bandit_a.png","70","70","test","","","","8","",""
"null","294391","pSARL_v2","pSARL_v2sj8x5tex","5dd48444dd9a7447d224cc71","fixation","img/fixation.png","null","","test","","","","","",""
"334.5","294733","pSARL_v2","pSARL_v2sj8x5tex","5dd48444dd9a7447d224cc71","freq","img/green_2bandit_a2.png","70","70","test","1","177","177","8","",""
"null","295206","pSARL_v2","pSARL_v2sj8x5tex","5dd48444dd9a7447d224cc71","freq_resp","img/green_2bandit_a.png","70","70","test","","","","8","",""
"null","295371","pSARL_v2","pSARL_v2sj8x5tex","5dd48444dd9a7447d224cc71","fixation","img/fixation.png","null","","test","","","","","",""
"316","295694","pSARL_v2","pSARL_v2sj8x5tex","5dd48444dd9a7447d224cc71","freq","img/green_2bandit_a2.png","70","70","test","1","178","178","8","",""
"null","296189","pSARL_v2","pSARL_v2sj8x5tex","5dd48444dd9a7447d224cc71","freq_resp","img/green_2bandit_a.png","70","70","test","","","","8","",""
"null","296354","pSARL_v2","pSARL_v2sj8x5tex","5dd48444dd9a7447d224cc71","fixation","img/fixation.png","null","","test","","","","","",""
"291.59999990463257","296654","pSARL_v2","pSARL_v2sj8x5tex","5dd48444dd9a7447d224cc71","freq","img/green_2bandit_a2.png","70","70","test","1","179","179","8","",""
"null","297170","pSARL_v2","pSARL_v2sj8x5tex","5dd48444dd9a7447d224cc71","freq_resp","img/green_2bandit_a.png","70","70","test","","","","8","",""
"null","297340","pSARL_v2","pSARL_v2sj8x5tex","5dd48444dd9a7447d224cc71","fixation","img/fixation.png","null","","test","","","","","",""
"298.7000000476837","297646","pSARL_v2","pSARL_v2sj8x5tex","5dd48444dd9a7447d224cc71","freq","img/green_2bandit_a2.png","70","70","test","1","180","180","8","",""
"null","298153","pSARL_v2","pSARL_v2sj8x5tex","5dd48444dd9a7447d224cc71","freq_resp","img/green_2bandit_a.png","70","70","test","","","","8","",""
"null","298326","pSARL_v2","pSARL_v2sj8x5tex","5dd48444dd9a7447d224cc71","fixation","img/fixation.png","null","","test","","","","","",""
"368","298700","pSARL_v2","pSARL_v2sj8x5tex","5dd48444dd9a7447d224cc71","freq","img/green_2bandit_a2.png","70","70","test","1","181","181","8","",""
"null","299147","pSARL_v2","pSARL_v2sj8x5tex","5dd48444dd9a7447d224cc71","freq_resp","img/green_2bandit_a.png","70","70","test","","","","8","",""
"null","299305","pSARL_v2","pSARL_v2sj8x5tex","5dd48444dd9a7447d224cc71","fixation","img/fixation.png","null","","test","","","","","",""
"429.19999980926514","299742","pSARL_v2","pSARL_v2sj8x5tex","5dd48444dd9a7447d224cc71","freq","img/green_2bandit_a2.png","70","70","test","1","182","182","8","",""
"null","300128","pSARL_v2","pSARL_v2sj8x5tex","5dd48444dd9a7447d224cc71","freq_resp","img/green_2bandit_a.png","70","70","test","","","","8","",""
"null","300291","pSARL_v2","pSARL_v2sj8x5tex","5dd48444dd9a7447d224cc71","fixation","img/fixation.png","null","","test","","","","","",""
"539.7999999523163","300838","pSARL_v2","pSARL_v2sj8x5tex","5dd48444dd9a7447d224cc71","reward","img/slot.png","74","","test","","","","","",""
"null","301609","pSARL_v2","pSARL_v2sj8x5tex","5dd48444dd9a7447d224cc71","points","<div class=""verylowPoints""> -4 </div>","null","na","test","","","","8","-4","7"
"404.89999985694885","302020","pSARL_v2","pSARL_v2sj8x5tex","5dd48444dd9a7447d224cc71","freq","img/green_2bandit_a2.png","70","70","test","1","183","183","9","",""
"null","302425","pSARL_v2","pSARL_v2sj8x5tex","5dd48444dd9a7447d224cc71","freq_resp","img/green_2bandit_a.png","70","70","test","","","","9","",""
"null","302588","pSARL_v2","pSARL_v2sj8x5tex","5dd48444dd9a7447d224cc71","fixation","img/fixation.png","null","","test","","","","","",""
"425","303019","pSARL_v2","pSARL_v2sj8x5tex","5dd48444dd9a7447d224cc71","freq","img/green_2bandit_a2.png","70","70","test","1","184","184","9","",""
"null","303405","pSARL_v2","pSARL_v2sj8x5tex","5dd48444dd9a7447d224cc71","freq_resp","img/green_2bandit_a.png","70","70","test","","","","9","",""
"null","303566","pSARL_v2","pSARL_v2sj8x5tex","5dd48444dd9a7447d224cc71","fixation","img/fixation.png","null","","test","","","","","",""
"328.40000009536743","303901","pSARL_v2","pSARL_v2sj8x5tex","5dd48444dd9a7447d224cc71","freq","img/green_2bandit_a2.png","70","70","test","1","185","185","9","",""
"null","304388","pSARL_v2","pSARL_v2sj8x5tex","5dd48444dd9a7447d224cc71","freq_resp","img/green_2bandit_a.png","70","70","test","","","","9","",""
"null","304548","pSARL_v2","pSARL_v2sj8x5tex","5dd48444dd9a7447d224cc71","fixation","img/fixation.png","null","","test","","","","","",""
"305.7999999523163","304860","pSARL_v2","pSARL_v2sj8x5tex","5dd48444dd9a7447d224cc71","freq","img/green_2bandit_a2.png","70","70","test","1","186","186","9","",""
"null","305366","pSARL_v2","pSARL_v2sj8x5tex","5dd48444dd9a7447d224cc71","freq_resp","img/green_2bandit_a.png","70","70","test","","","","9","",""
"null","305528","pSARL_v2","pSARL_v2sj8x5tex","5dd48444dd9a7447d224cc71","fixation","img/fixation.png","null","","test","","","","","",""
"310.2999999523163","305845","pSARL_v2","pSARL_v2sj8x5tex","5dd48444dd9a7447d224cc71","freq","img/green_2bandit_a2.png","70","70","test","1","187","187","9","",""
"null","306350","pSARL_v2","pSARL_v2sj8x5tex","5dd48444dd9a7447d224cc71","freq_resp","img/green_2bandit_a.png","70","70","test","","","","9","",""
"null","306511","pSARL_v2","pSARL_v2sj8x5tex","5dd48444dd9a7447d224cc71","fixation","img/fixation.png","null","","test","","","","","",""
"230.29999995231628","306748","pSARL_v2","pSARL_v2sj8x5tex","5dd48444dd9a7447d224cc71","infreq","img/orange_2bandit_a2.png","70","68","test","0","188","188","9","",""
"null","307328","pSARL_v2","pSARL_v2sj8x5tex","5dd48444dd9a7447d224cc71","infreq_resp","img/orange_2bandit_a.png","70","68","test","","","","9","",""
"null","307487","pSARL_v2","pSARL_v2sj8x5tex","5dd48444dd9a7447d224cc71","fixation","img/fixation.png","null","","test","","","","","",""
"310.09999990463257","307804","pSARL_v2","pSARL_v2sj8x5tex","5dd48444dd9a7447d224cc71","freq","img/green_2bandit_a2.png","70","70","test","1","189","189","9","",""
"null","308306","pSARL_v2","pSARL_v2sj8x5tex","5dd48444dd9a7447d224cc71","freq_resp","img/green_2bandit_a.png","70","70","test","","","","9","",""
"null","308472","pSARL_v2","pSARL_v2sj8x5tex","5dd48444dd9a7447d224cc71","fixation","img/fixation.png","null","","test","","","","","",""
"287","308766","pSARL_v2","pSARL_v2sj8x5tex","5dd48444dd9a7447d224cc71","freq","img/green_2bandit_a2.png","70","70","test","1","190","190","9","",""
"null","309297","pSARL_v2","pSARL_v2sj8x5tex","5dd48444dd9a7447d224cc71","freq_resp","img/green_2bandit_a.png","70","70","test","","","","9","",""
"null","309457","pSARL_v2","pSARL_v2sj8x5tex","5dd48444dd9a7447d224cc71","fixation","img/fixation.png","null","","test","","","","","",""
"268.40000009536743","309734","pSARL_v2","pSARL_v2sj8x5tex","5dd48444dd9a7447d224cc71","freq","img/green_2bandit_a2.png","70","70","test","1","191","191","9","",""
"null","310276","pSARL_v2","pSARL_v2sj8x5tex","5dd48444dd9a7447d224cc71","freq_resp","img/green_2bandit_a.png","70","70","test","","","","9","",""
"null","310443","pSARL_v2","pSARL_v2sj8x5tex","5dd48444dd9a7447d224cc71","fixation","img/fixation.png","null","","test","","","","","",""
"298.90000009536743","310747","pSARL_v2","pSARL_v2sj8x5tex","5dd48444dd9a7447d224cc71","freq","img/green_2bandit_a2.png","70","70","test","1","192","192","9","",""
"null","311265","pSARL_v2","pSARL_v2sj8x5tex","5dd48444dd9a7447d224cc71","freq_resp","img/green_2bandit_a.png","70","70","test","","","","9","",""
"null","311427","pSARL_v2","pSARL_v2sj8x5tex","5dd48444dd9a7447d224cc71","fixation","img/fixation.png","null","","test","","","","","",""
"314.7000000476837","311750","pSARL_v2","pSARL_v2sj8x5tex","5dd48444dd9a7447d224cc71","freq","img/green_2bandit_a2.png","70","70","test","1","193","193","9","",""
"null","312249","pSARL_v2","pSARL_v2sj8x5tex","5dd48444dd9a7447d224cc71","freq_resp","img/green_2bandit_a.png","70","70","test","","","","9","",""
"null","312411","pSARL_v2","pSARL_v2sj8x5tex","5dd48444dd9a7447d224cc71","fixation","img/fixation.png","null","","test","","","","","",""
"282.7999999523163","312700","pSARL_v2","pSARL_v2sj8x5tex","5dd48444dd9a7447d224cc71","freq","img/green_2bandit_a2.png","70","70","test","1","194","194","9","",""
"null","313232","pSARL_v2","pSARL_v2sj8x5tex","5dd48444dd9a7447d224cc71","freq_resp","img/green_2bandit_a.png","70","70","test","","","","9","",""
"null","313399","pSARL_v2","pSARL_v2sj8x5tex","5dd48444dd9a7447d224cc71","fixation","img/fixation.png","null","","test","","","","","",""
"311.5","313717","pSARL_v2","pSARL_v2sj8x5tex","5dd48444dd9a7447d224cc71","freq","img/green_2bandit_a2.png","70","70","test","1","195","195","9","",""
"null","314220","pSARL_v2","pSARL_v2sj8x5tex","5dd48444dd9a7447d224cc71","freq_resp","img/green_2bandit_a.png","70","70","test","","","","9","",""
"null","314380","pSARL_v2","pSARL_v2sj8x5tex","5dd48444dd9a7447d224cc71","fixation","img/fixation.png","null","","test","","","","","",""
"354.90000009536743","314741","pSARL_v2","pSARL_v2sj8x5tex","5dd48444dd9a7447d224cc71","freq","img/green_2bandit_a2.png","70","70","test","1","196","196","9","",""
"null","315204","pSARL_v2","pSARL_v2sj8x5tex","5dd48444dd9a7447d224cc71","freq_resp","img/green_2bandit_a.png","70","70","test","","","","9","",""
"null","315370","pSARL_v2","pSARL_v2sj8x5tex","5dd48444dd9a7447d224cc71","fixation","img/fixation.png","null","","test","","","","","",""
"420.90000009536743","315798","pSARL_v2","pSARL_v2sj8x5tex","5dd48444dd9a7447d224cc71","freq","img/green_2bandit_a2.png","70","70","test","1","197","197","9","",""
"null","316193","pSARL_v2","pSARL_v2sj8x5tex","5dd48444dd9a7447d224cc71","freq_resp","img/green_2bandit_a.png","70","70","test","","","","9","",""
"null","316352","pSARL_v2","pSARL_v2sj8x5tex","5dd48444dd9a7447d224cc71","fixation","img/fixation.png","null","","test","","","","","",""
"326.5","316686","pSARL_v2","pSARL_v2sj8x5tex","5dd48444dd9a7447d224cc71","freq","img/green_2bandit_a2.png","70","70","test","1","198","198","9","",""
"null","317171","pSARL_v2","pSARL_v2sj8x5tex","5dd48444dd9a7447d224cc71","freq_resp","img/green_2bandit_a.png","70","70","test","","","","9","",""
"null","317329","pSARL_v2","pSARL_v2sj8x5tex","5dd48444dd9a7447d224cc71","fixation","img/fixation.png","null","","test","","","","","",""
"405.09999990463257","317741","pSARL_v2","pSARL_v2sj8x5tex","5dd48444dd9a7447d224cc71","infreq","img/orange_2bandit_a2.png","68","68","test","1","199","199","9","",""
"null","318151","pSARL_v2","pSARL_v2sj8x5tex","5dd48444dd9a7447d224cc71","infreq_resp","img/orange_2bandit_a.png","68","68","test","","","","9","",""
"null","318311","pSARL_v2","pSARL_v2sj8x5tex","5dd48444dd9a7447d224cc71","fixation","img/fixation.png","null","","test","","","","","",""
"351.10000014305115","318669","pSARL_v2","pSARL_v2sj8x5tex","5dd48444dd9a7447d224cc71","freq","img/green_2bandit_a2.png","70","70","test","1","200","200","9","",""
"null","319133","pSARL_v2","pSARL_v2sj8x5tex","5dd48444dd9a7447d224cc71","freq_resp","img/green_2bandit_a.png","70","70","test","","","","9","",""
"null","319297","pSARL_v2","pSARL_v2sj8x5tex","5dd48444dd9a7447d224cc71","fixation","img/fixation.png","null","","test","","","","","",""
"261.09999990463257","319565","pSARL_v2","pSARL_v2sj8x5tex","5dd48444dd9a7447d224cc71","freq","img/green_2bandit_a2.png","70","70","test","1","201","201","9","",""
"null","320120","pSARL_v2","pSARL_v2sj8x5tex","5dd48444dd9a7447d224cc71","freq_resp","img/green_2bandit_a.png","70","70","test","","","","9","",""
"null","320289","pSARL_v2","pSARL_v2sj8x5tex","5dd48444dd9a7447d224cc71","fixation","img/fixation.png","null","","test","","","","","",""
"253.39999985694885","320548","pSARL_v2","pSARL_v2sj8x5tex","5dd48444dd9a7447d224cc71","freq","img/green_2bandit_a2.png","70","70","test","1","202","202","9","",""
"null","321117","pSARL_v2","pSARL_v2sj8x5tex","5dd48444dd9a7447d224cc71","freq_resp","img/green_2bandit_a.png","70","70","test","","","","9","",""
"null","321280","pSARL_v2","pSARL_v2sj8x5tex","5dd48444dd9a7447d224cc71","fixation","img/fixation.png","null","","test","","","","","",""
"807.6999998092651","322094","pSARL_v2","pSARL_v2sj8x5tex","5dd48444dd9a7447d224cc71","reward","img/slot.png","74","","test","","","","","",""
"null","322859","pSARL_v2","pSARL_v2sj8x5tex","5dd48444dd9a7447d224cc71","points","<div class=""verylowPoints""> -3 </div>","null","na","test","","","","9","-3","8"
"363.5","323229","pSARL_v2","pSARL_v2sj8x5tex","5dd48444dd9a7447d224cc71","freq","img/green_2bandit_a2.png","70","70","test","1","203","203","10","",""
"null","323681","pSARL_v2","pSARL_v2sj8x5tex","5dd48444dd9a7447d224cc71","freq_resp","img/green_2bandit_a.png","70","70","test","","","","10","",""
"null","323847","pSARL_v2","pSARL_v2sj8x5tex","5dd48444dd9a7447d224cc71","fixation","img/fixation.png","null","","test","","","","","",""
"294.39999985694885","324149","pSARL_v2","pSARL_v2sj8x5tex","5dd48444dd9a7447d224cc71","freq","img/green_2bandit_a2.png","70","70","test","1","204","204","10","",""
"null","324665","pSARL_v2","pSARL_v2sj8x5tex","5dd48444dd9a7447d224cc71","freq_resp","img/green_2bandit_a.png","70","70","test","","","","10","",""
"null","324831","pSARL_v2","pSARL_v2sj8x5tex","5dd48444dd9a7447d224cc71","fixation","img/fixation.png","null","","test","","","","","",""
"302.10000014305115","325139","pSARL_v2","pSARL_v2sj8x5tex","5dd48444dd9a7447d224cc71","freq","img/green_2bandit_a2.png","70","70","test","1","205","205","10","",""
"null","325652","pSARL_v2","pSARL_v2sj8x5tex","5dd48444dd9a7447d224cc71","freq_resp","img/green_2bandit_a.png","70","70","test","","","","10","",""
"null","325815","pSARL_v2","pSARL_v2sj8x5tex","5dd48444dd9a7447d224cc71","fixation","img/fixation.png","null","","test","","","","","",""
"423.2000000476837","326245","pSARL_v2","pSARL_v2sj8x5tex","5dd48444dd9a7447d224cc71","infreq","img/orange_2bandit_a2.png","68","68","test","1","206","206","10","",""
"null","326637","pSARL_v2","pSARL_v2sj8x5tex","5dd48444dd9a7447d224cc71","infreq_resp","img/orange_2bandit_a.png","68","68","test","","","","10","",""
"null","326799","pSARL_v2","pSARL_v2sj8x5tex","5dd48444dd9a7447d224cc71","fixation","img/fixation.png","null","","test","","","","","",""
