"rt","time_elapsed","expId","subject","prolificID","trialType","stimulus","key_press","corrresp","phase","corr","trialNum","attentionRunNum","blockNum","points","rlNum"
"27898.59999999404","27901","pSARL_v2","pSARL_v28bss0h4k","5e3040a2d1a553000cc9147b","","","","","","","","","","",""
"","30670","pSARL_v2","pSARL_v28bss0h4k","5e3040a2d1a553000cc9147b","fullscreen","","","","","","","","","",""
"63490.40000000596","94164","pSARL_v2","pSARL_v28bss0h4k","5e3040a2d1a553000cc9147b","","","","","","","","","","",""
"null","94982","pSARL_v2","pSARL_v28bss0h4k","5e3040a2d1a553000cc9147b","freqPrac","img/green_2bandit_b2.png","null","70","prac","0","","","","",""
"null","95993","pSARL_v2","pSARL_v28bss0h4k","5e3040a2d1a553000cc9147b","feedback","img/tooSlow.png","null","na","prac","","","","","",""
"null","96162","pSARL_v2","pSARL_v28bss0h4k","5e3040a2d1a553000cc9147b","fixation","img/fixation.png","null","","prac","","","","","",""
"594.8000000119209","96764","pSARL_v2","pSARL_v28bss0h4k","5e3040a2d1a553000cc9147b","infreqPrac","img/orange_2bandit_b2.png","68","68","prac","1","","","","",""
"594.8000000119209","96976","pSARL_v2","pSARL_v28bss0h4k","5e3040a2d1a553000cc9147b","infreqPrac_resp","img/orange_2bandit_b.png","68","68","prac","","","","","",""
"null","97147","pSARL_v2","pSARL_v28bss0h4k","5e3040a2d1a553000cc9147b","fixation","img/fixation.png","null","","prac","","","","","",""
"569.7000000178814","97723","pSARL_v2","pSARL_v28bss0h4k","5e3040a2d1a553000cc9147b","freqPrac","img/green_2bandit_b2.png","70","70","prac","1","","","","",""
"569.7000000178814","97971","pSARL_v2","pSARL_v28bss0h4k","5e3040a2d1a553000cc9147b","freqPrac_resp","img/green_2bandit_b.png","70","70","prac","","","","","",""
"null","98128","pSARL_v2","pSARL_v28bss0h4k","5e3040a2d1a553000cc9147b","fixation","img/fixation.png","null","","prac","","","","","",""
"428.19999998807907","98559","pSARL_v2","pSARL_v28bss0h4k","5e3040a2d1a553000cc9147b","infreqPrac","img/orange_2bandit_b2.png","68","68","prac","1","","","","",""
"428.19999998807907","98938","pSARL_v2","pSARL_v28bss0h4k","5e3040a2d1a553000cc9147b","infreqPrac_resp","img/orange_2bandit_b.png","68","68","prac","","","","","",""
"null","99106","pSARL_v2","pSARL_v28bss0h4k","5e3040a2d1a553000cc9147b","fixation","img/fixation.png","null","","prac","","","","","",""
"331.19999998807907","99443","pSARL_v2","pSARL_v28bss0h4k","5e3040a2d1a553000cc9147b","infreqPrac","img/orange_2bandit_b2.png","68","68","prac","1","","","","",""
"331.19999998807907","99918","pSARL_v2","pSARL_v28bss0h4k","5e3040a2d1a553000cc9147b","infreqPrac_resp","img/orange_2bandit_b.png","68","68","prac","","","","","",""
"null","100071","pSARL_v2","pSARL_v28bss0h4k","5e3040a2d1a553000cc9147b","fixation","img/fixation.png","null","","prac","","","","","",""
"357.2999999821186","100435","pSARL_v2","pSARL_v28bss0h4k","5e3040a2d1a553000cc9147b","infreqPrac","img/orange_2bandit_b2.png","68","68","prac","1","","","","",""
"357.2999999821186","100893","pSARL_v2","pSARL_v28bss0h4k","5e3040a2d1a553000cc9147b","infreqPrac_resp","img/orange_2bandit_b.png","68","68","prac","","","","","",""
"null","101062","pSARL_v2","pSARL_v28bss0h4k","5e3040a2d1a553000cc9147b","fixation","img/fixation.png","null","","prac","","","","","",""
"326.89999997615814","101395","pSARL_v2","pSARL_v28bss0h4k","5e3040a2d1a553000cc9147b","freqPrac","img/green_2bandit_b2.png","68","70","prac","0","","","","",""
"326.89999997615814","101887","pSARL_v2","pSARL_v28bss0h4k","5e3040a2d1a553000cc9147b","freqPrac_resp","img/green_2bandit_b.png","68","70","prac","","","","","",""
"null","102897","pSARL_v2","pSARL_v28bss0h4k","5e3040a2d1a553000cc9147b","feedback","img/wrongKey.png","null","na","prac","","","","","",""
"null","103064","pSARL_v2","pSARL_v28bss0h4k","5e3040a2d1a553000cc9147b","fixation","img/fixation.png","null","","prac","","","","","",""
"516.7999999821186","103587","pSARL_v2","pSARL_v28bss0h4k","5e3040a2d1a553000cc9147b","infreqPrac","img/orange_2bandit_b2.png","68","68","prac","1","","","","",""
"516.7999999821186","103875","pSARL_v2","pSARL_v28bss0h4k","5e3040a2d1a553000cc9147b","infreqPrac_resp","img/orange_2bandit_b.png","68","68","prac","","","","","",""
"null","104036","pSARL_v2","pSARL_v28bss0h4k","5e3040a2d1a553000cc9147b","fixation","img/fixation.png","null","","prac","","","","","",""
"464","104503","pSARL_v2","pSARL_v28bss0h4k","5e3040a2d1a553000cc9147b","freqPrac","img/green_2bandit_b2.png","70","70","prac","1","","","","",""
"464","104857","pSARL_v2","pSARL_v28bss0h4k","5e3040a2d1a553000cc9147b","freqPrac_resp","img/green_2bandit_b.png","70","70","prac","","","","","",""
"null","105011","pSARL_v2","pSARL_v28bss0h4k","5e3040a2d1a553000cc9147b","fixation","img/fixation.png","null","","prac","","","","","",""
"321.5","105339","pSARL_v2","pSARL_v28bss0h4k","5e3040a2d1a553000cc9147b","freqPrac","img/green_2bandit_b2.png","70","70","prac","1","","","","",""
"321.5","105834","pSARL_v2","pSARL_v28bss0h4k","5e3040a2d1a553000cc9147b","freqPrac_resp","img/green_2bandit_b.png","70","70","prac","","","","","",""
"null","106004","pSARL_v2","pSARL_v28bss0h4k","5e3040a2d1a553000cc9147b","fixation","img/fixation.png","null","","prac","","","","","",""
"17361.40000000596","123370","pSARL_v2","pSARL_v28bss0h4k","5e3040a2d1a553000cc9147b","","","","","prac","","","","","",""
"921.5","124294","pSARL_v2","pSARL_v28bss0h4k","5e3040a2d1a553000cc9147b","rewardPractice","img/slot.png","74","","prac","","","","","",""
"null","125058","pSARL_v2","pSARL_v28bss0h4k","5e3040a2d1a553000cc9147b","feedback","<div class=""veryhighPoints""> +15 </div>","null","na","prac","","","","","",""
"null","125229","pSARL_v2","pSARL_v28bss0h4k","5e3040a2d1a553000cc9147b","fixation","img/fixation.png","null","","prac","","","","","",""
"12350.5","137582","pSARL_v2","pSARL_v28bss0h4k","5e3040a2d1a553000cc9147b","","","","","prac","","","","","",""
"null","138394","pSARL_v2","pSARL_v28bss0h4k","5e3040a2d1a553000cc9147b","freq","img/green_2bandit_b2.png","null","70","test","0","1","1","1","",""
"null","138551","pSARL_v2","pSARL_v28bss0h4k","5e3040a2d1a553000cc9147b","fixation","img/fixation.png","null","","test","","","","","",""
"477.09999999403954","139034","pSARL_v2","pSARL_v28bss0h4k","5e3040a2d1a553000cc9147b","freq","img/green_2bandit_b2.png","70","70","test","1","2","2","1","",""
"null","139371","pSARL_v2","pSARL_v28bss0h4k","5e3040a2d1a553000cc9147b","freq_resp","img/green_2bandit_b.png","70","70","test","","","","1","",""
"null","139530","pSARL_v2","pSARL_v28bss0h4k","5e3040a2d1a553000cc9147b","fixation","img/fixation.png","null","","test","","","","","",""
"529.1999999880791","140062","pSARL_v2","pSARL_v28bss0h4k","5e3040a2d1a553000cc9147b","freq","img/green_2bandit_b2.png","70","70","test","1","3","3","1","",""
"null","140346","pSARL_v2","pSARL_v28bss0h4k","5e3040a2d1a553000cc9147b","freq_resp","img/green_2bandit_b.png","70","70","test","","","","1","",""
"null","140504","pSARL_v2","pSARL_v28bss0h4k","5e3040a2d1a553000cc9147b","fixation","img/fixation.png","null","","test","","","","","",""
"387.5","140898","pSARL_v2","pSARL_v28bss0h4k","5e3040a2d1a553000cc9147b","freq","img/green_2bandit_b2.png","70","70","test","1","4","4","1","",""
"null","141327","pSARL_v2","pSARL_v28bss0h4k","5e3040a2d1a553000cc9147b","freq_resp","img/green_2bandit_b.png","70","70","test","","","","1","",""
"null","141497","pSARL_v2","pSARL_v28bss0h4k","5e3040a2d1a553000cc9147b","fixation","img/fixation.png","null","","test","","","","","",""
"299.5","141802","pSARL_v2","pSARL_v28bss0h4k","5e3040a2d1a553000cc9147b","freq","img/green_2bandit_b2.png","70","70","test","1","5","5","1","",""
"null","142314","pSARL_v2","pSARL_v28bss0h4k","5e3040a2d1a553000cc9147b","freq_resp","img/green_2bandit_b.png","70","70","test","","","","1","",""
"null","142471","pSARL_v2","pSARL_v28bss0h4k","5e3040a2d1a553000cc9147b","fixation","img/fixation.png","null","","test","","","","","",""
"300.59999999403954","142778","pSARL_v2","pSARL_v28bss0h4k","5e3040a2d1a553000cc9147b","freq","img/green_2bandit_b2.png","70","70","test","1","6","6","1","",""
"null","143294","pSARL_v2","pSARL_v28bss0h4k","5e3040a2d1a553000cc9147b","freq_resp","img/green_2bandit_b.png","70","70","test","","","","1","",""
"null","143463","pSARL_v2","pSARL_v28bss0h4k","5e3040a2d1a553000cc9147b","fixation","img/fixation.png","null","","test","","","","","",""
"325.19999998807907","143794","pSARL_v2","pSARL_v28bss0h4k","5e3040a2d1a553000cc9147b","freq","img/green_2bandit_b2.png","70","70","test","1","7","7","1","",""
"null","144277","pSARL_v2","pSARL_v28bss0h4k","5e3040a2d1a553000cc9147b","freq_resp","img/green_2bandit_b.png","70","70","test","","","","1","",""
"null","144444","pSARL_v2","pSARL_v28bss0h4k","5e3040a2d1a553000cc9147b","fixation","img/fixation.png","null","","test","","","","","",""
"287.59999999403954","144738","pSARL_v2","pSARL_v28bss0h4k","5e3040a2d1a553000cc9147b","freq","img/green_2bandit_b2.png","70","70","test","1","8","8","1","",""
"null","145272","pSARL_v2","pSARL_v28bss0h4k","5e3040a2d1a553000cc9147b","freq_resp","img/green_2bandit_b.png","70","70","test","","","","1","",""
"null","145440","pSARL_v2","pSARL_v28bss0h4k","5e3040a2d1a553000cc9147b","fixation","img/fixation.png","null","","test","","","","","",""
"396.10000002384186","145842","pSARL_v2","pSARL_v28bss0h4k","5e3040a2d1a553000cc9147b","infreq","img/orange_2bandit_b2.png","68","68","test","1","9","9","1","",""
"null","146261","pSARL_v2","pSARL_v28bss0h4k","5e3040a2d1a553000cc9147b","infreq_resp","img/orange_2bandit_b.png","68","68","test","","","","1","",""
"null","146430","pSARL_v2","pSARL_v28bss0h4k","5e3040a2d1a553000cc9147b","fixation","img/fixation.png","null","","test","","","","","",""
"453.89999997615814","146890","pSARL_v2","pSARL_v28bss0h4k","5e3040a2d1a553000cc9147b","freq","img/green_2bandit_b2.png","70","70","test","1","10","10","1","",""
"null","147254","pSARL_v2","pSARL_v28bss0h4k","5e3040a2d1a553000cc9147b","freq_resp","img/green_2bandit_b.png","70","70","test","","","","1","",""
"null","147408","pSARL_v2","pSARL_v28bss0h4k","5e3040a2d1a553000cc9147b","fixation","img/fixation.png","null","","test","","","","","",""
"340.90000000596046","147754","pSARL_v2","pSARL_v28bss0h4k","5e3040a2d1a553000cc9147b","freq","img/green_2bandit_b2.png","70","70","test","1","11","11","1","",""
"null","148234","pSARL_v2","pSARL_v28bss0h4k","5e3040a2d1a553000cc9147b","freq_resp","img/green_2bandit_b.png","70","70","test","","","","1","",""
"null","148404","pSARL_v2","pSARL_v28bss0h4k","5e3040a2d1a553000cc9147b","fixation","img/fixation.png","null","","test","","","","","",""
"351.59999999403954","148762","pSARL_v2","pSARL_v28bss0h4k","5e3040a2d1a553000cc9147b","freq","img/green_2bandit_b2.png","70","70","test","1","12","12","1","",""
"null","149226","pSARL_v2","pSARL_v28bss0h4k","5e3040a2d1a553000cc9147b","freq_resp","img/green_2bandit_b.png","70","70","test","","","","1","",""
"null","149383","pSARL_v2","pSARL_v28bss0h4k","5e3040a2d1a553000cc9147b","fixation","img/fixation.png","null","","test","","","","","",""
"308.2999999821186","149698","pSARL_v2","pSARL_v28bss0h4k","5e3040a2d1a553000cc9147b","freq","img/green_2bandit_b2.png","70","70","test","1","13","13","1","",""
"null","150208","pSARL_v2","pSARL_v28bss0h4k","5e3040a2d1a553000cc9147b","freq_resp","img/green_2bandit_b.png","70","70","test","","","","1","",""
"null","150381","pSARL_v2","pSARL_v28bss0h4k","5e3040a2d1a553000cc9147b","fixation","img/fixation.png","null","","test","","","","","",""
"301.7999999821186","150686","pSARL_v2","pSARL_v28bss0h4k","5e3040a2d1a553000cc9147b","freq","img/green_2bandit_b2.png","70","70","test","1","14","14","1","",""
"null","151205","pSARL_v2","pSARL_v28bss0h4k","5e3040a2d1a553000cc9147b","freq_resp","img/green_2bandit_b.png","70","70","test","","","","1","",""
"null","151374","pSARL_v2","pSARL_v28bss0h4k","5e3040a2d1a553000cc9147b","fixation","img/fixation.png","null","","test","","","","","",""
"285.80000001192093","151666","pSARL_v2","pSARL_v28bss0h4k","5e3040a2d1a553000cc9147b","freq","img/green_2bandit_b2.png","70","70","test","1","15","15","1","",""
"null","152196","pSARL_v2","pSARL_v28bss0h4k","5e3040a2d1a553000cc9147b","freq_resp","img/green_2bandit_b.png","70","70","test","","","","1","",""
"null","152367","pSARL_v2","pSARL_v28bss0h4k","5e3040a2d1a553000cc9147b","fixation","img/fixation.png","null","","test","","","","","",""
"332.80000001192093","152706","pSARL_v2","pSARL_v28bss0h4k","5e3040a2d1a553000cc9147b","freq","img/green_2bandit_b2.png","70","70","test","1","16","16","1","",""
"null","153190","pSARL_v2","pSARL_v28bss0h4k","5e3040a2d1a553000cc9147b","freq_resp","img/green_2bandit_b.png","70","70","test","","","","1","",""
"null","153347","pSARL_v2","pSARL_v28bss0h4k","5e3040a2d1a553000cc9147b","fixation","img/fixation.png","null","","test","","","","","",""
"529.7000000178814","153883","pSARL_v2","pSARL_v28bss0h4k","5e3040a2d1a553000cc9147b","infreq","img/orange_2bandit_b2.png","68","68","test","1","17","17","1","",""
"null","154169","pSARL_v2","pSARL_v28bss0h4k","5e3040a2d1a553000cc9147b","infreq_resp","img/orange_2bandit_b.png","68","68","test","","","","1","",""
"null","154337","pSARL_v2","pSARL_v28bss0h4k","5e3040a2d1a553000cc9147b","fixation","img/fixation.png","null","","test","","","","","",""
"450.80000001192093","154792","pSARL_v2","pSARL_v28bss0h4k","5e3040a2d1a553000cc9147b","freq","img/green_2bandit_b2.png","70","70","test","1","18","18","1","",""
"null","155148","pSARL_v2","pSARL_v28bss0h4k","5e3040a2d1a553000cc9147b","freq_resp","img/green_2bandit_b.png","70","70","test","","","","1","",""
"null","155305","pSARL_v2","pSARL_v28bss0h4k","5e3040a2d1a553000cc9147b","fixation","img/fixation.png","null","","test","","","","","",""
"322","155634","pSARL_v2","pSARL_v28bss0h4k","5e3040a2d1a553000cc9147b","freq","img/green_2bandit_b2.png","70","70","test","1","19","19","1","",""
"null","156127","pSARL_v2","pSARL_v28bss0h4k","5e3040a2d1a553000cc9147b","freq_resp","img/green_2bandit_b.png","70","70","test","","","","1","",""
"null","156297","pSARL_v2","pSARL_v28bss0h4k","5e3040a2d1a553000cc9147b","fixation","img/fixation.png","null","","test","","","","","",""
"554.7999999821186","156858","pSARL_v2","pSARL_v28bss0h4k","5e3040a2d1a553000cc9147b","reward","img/slot.png","74","","test","","","","","",""
"null","157616","pSARL_v2","pSARL_v28bss0h4k","5e3040a2d1a553000cc9147b","points","<div class=""verylowPoints""> -6 </div>","null","na","test","","","","1","-6","0"
"571.4000000059605","158195","pSARL_v2","pSARL_v28bss0h4k","5e3040a2d1a553000cc9147b","freq","img/green_2bandit_b2.png","70","70","test","1","20","20","2","",""
"null","158438","pSARL_v2","pSARL_v28bss0h4k","5e3040a2d1a553000cc9147b","freq_resp","img/green_2bandit_b.png","70","70","test","","","","2","",""
"null","158608","pSARL_v2","pSARL_v28bss0h4k","5e3040a2d1a553000cc9147b","fixation","img/fixation.png","null","","test","","","","","",""
"323.69999998807907","158938","pSARL_v2","pSARL_v28bss0h4k","5e3040a2d1a553000cc9147b","freq","img/green_2bandit_b2.png","70","70","test","1","21","21","2","",""
"null","159431","pSARL_v2","pSARL_v28bss0h4k","5e3040a2d1a553000cc9147b","freq_resp","img/green_2bandit_b.png","70","70","test","","","","2","",""
"null","159602","pSARL_v2","pSARL_v28bss0h4k","5e3040a2d1a553000cc9147b","fixation","img/fixation.png","null","","test","","","","","",""
"344.80000001192093","159954","pSARL_v2","pSARL_v28bss0h4k","5e3040a2d1a553000cc9147b","freq","img/green_2bandit_b2.png","70","70","test","1","22","22","2","",""
"null","160428","pSARL_v2","pSARL_v28bss0h4k","5e3040a2d1a553000cc9147b","freq_resp","img/green_2bandit_b.png","70","70","test","","","","2","",""
"null","160599","pSARL_v2","pSARL_v28bss0h4k","5e3040a2d1a553000cc9147b","fixation","img/fixation.png","null","","test","","","","","",""
"315.90000000596046","160919","pSARL_v2","pSARL_v28bss0h4k","5e3040a2d1a553000cc9147b","freq","img/green_2bandit_b2.png","70","70","test","1","23","23","2","",""
"null","161423","pSARL_v2","pSARL_v28bss0h4k","5e3040a2d1a553000cc9147b","freq_resp","img/green_2bandit_b.png","70","70","test","","","","2","",""
"null","161590","pSARL_v2","pSARL_v28bss0h4k","5e3040a2d1a553000cc9147b","fixation","img/fixation.png","null","","test","","","","","",""
"309.80000001192093","161906","pSARL_v2","pSARL_v28bss0h4k","5e3040a2d1a553000cc9147b","freq","img/green_2bandit_b2.png","70","70","test","1","24","24","2","",""
"null","162411","pSARL_v2","pSARL_v28bss0h4k","5e3040a2d1a553000cc9147b","freq_resp","img/green_2bandit_b.png","70","70","test","","","","2","",""
"null","162565","pSARL_v2","pSARL_v28bss0h4k","5e3040a2d1a553000cc9147b","fixation","img/fixation.png","null","","test","","","","","",""
"327.30000001192093","162898","pSARL_v2","pSARL_v28bss0h4k","5e3040a2d1a553000cc9147b","infreq","img/orange_2bandit_b2.png","70","68","test","0","25","25","2","",""
"null","163376","pSARL_v2","pSARL_v28bss0h4k","5e3040a2d1a553000cc9147b","infreq_resp","img/orange_2bandit_b.png","70","68","test","","","","2","",""
"null","163543","pSARL_v2","pSARL_v28bss0h4k","5e3040a2d1a553000cc9147b","fixation","img/fixation.png","null","","test","","","","","",""
"452","163998","pSARL_v2","pSARL_v28bss0h4k","5e3040a2d1a553000cc9147b","freq","img/green_2bandit_b2.png","70","70","test","1","26","26","2","",""
"null","164365","pSARL_v2","pSARL_v28bss0h4k","5e3040a2d1a553000cc9147b","freq_resp","img/green_2bandit_b.png","70","70","test","","","","2","",""
"null","164520","pSARL_v2","pSARL_v28bss0h4k","5e3040a2d1a553000cc9147b","fixation","img/fixation.png","null","","test","","","","","",""
"315.09999999403954","164838","pSARL_v2","pSARL_v28bss0h4k","5e3040a2d1a553000cc9147b","freq","img/green_2bandit_b2.png","70","70","test","1","27","27","2","",""
"null","165328","pSARL_v2","pSARL_v28bss0h4k","5e3040a2d1a553000cc9147b","freq_resp","img/green_2bandit_b.png","70","70","test","","","","2","",""
"null","165486","pSARL_v2","pSARL_v28bss0h4k","5e3040a2d1a553000cc9147b","fixation","img/fixation.png","null","","test","","","","","",""
"350.10000002384186","165842","pSARL_v2","pSARL_v28bss0h4k","5e3040a2d1a553000cc9147b","freq","img/green_2bandit_b2.png","70","70","test","1","28","28","2","",""
"null","166310","pSARL_v2","pSARL_v28bss0h4k","5e3040a2d1a553000cc9147b","freq_resp","img/green_2bandit_b.png","70","70","test","","","","2","",""
"null","166478","pSARL_v2","pSARL_v28bss0h4k","5e3040a2d1a553000cc9147b","fixation","img/fixation.png","null","","test","","","","","",""
"285.69999998807907","166766","pSARL_v2","pSARL_v28bss0h4k","5e3040a2d1a553000cc9147b","freq","img/green_2bandit_b2.png","70","70","test","1","29","29","2","",""
"null","167288","pSARL_v2","pSARL_v28bss0h4k","5e3040a2d1a553000cc9147b","freq_resp","img/green_2bandit_b.png","70","70","test","","","","2","",""
"null","167444","pSARL_v2","pSARL_v28bss0h4k","5e3040a2d1a553000cc9147b","fixation","img/fixation.png","null","","test","","","","","",""
"311.2999999821186","167762","pSARL_v2","pSARL_v28bss0h4k","5e3040a2d1a553000cc9147b","freq","img/green_2bandit_b2.png","70","70","test","1","30","30","2","",""
"null","168272","pSARL_v2","pSARL_v28bss0h4k","5e3040a2d1a553000cc9147b","freq_resp","img/green_2bandit_b.png","70","70","test","","","","2","",""
"null","168439","pSARL_v2","pSARL_v28bss0h4k","5e3040a2d1a553000cc9147b","fixation","img/fixation.png","null","","test","","","","","",""
"324.59999999403954","168770","pSARL_v2","pSARL_v28bss0h4k","5e3040a2d1a553000cc9147b","freq","img/green_2bandit_b2.png","70","70","test","1","31","31","2","",""
"null","169253","pSARL_v2","pSARL_v28bss0h4k","5e3040a2d1a553000cc9147b","freq_resp","img/green_2bandit_b.png","70","70","test","","","","2","",""
"null","169422","pSARL_v2","pSARL_v28bss0h4k","5e3040a2d1a553000cc9147b","fixation","img/fixation.png","null","","test","","","","","",""
"293.7000000178814","169722","pSARL_v2","pSARL_v28bss0h4k","5e3040a2d1a553000cc9147b","freq","img/green_2bandit_b2.png","70","70","test","1","32","32","2","",""
"null","170246","pSARL_v2","pSARL_v28bss0h4k","5e3040a2d1a553000cc9147b","freq_resp","img/green_2bandit_b.png","70","70","test","","","","2","",""
"null","170404","pSARL_v2","pSARL_v28bss0h4k","5e3040a2d1a553000cc9147b","fixation","img/fixation.png","null","","test","","","","","",""
"383.09999999403954","170790","pSARL_v2","pSARL_v28bss0h4k","5e3040a2d1a553000cc9147b","freq","img/green_2bandit_b2.png","70","70","test","1","33","33","2","",""
"null","171215","pSARL_v2","pSARL_v28bss0h4k","5e3040a2d1a553000cc9147b","freq_resp","img/green_2bandit_b.png","70","70","test","","","","2","",""
"null","171385","pSARL_v2","pSARL_v28bss0h4k","5e3040a2d1a553000cc9147b","fixation","img/fixation.png","null","","test","","","","","",""
"314.80000001192093","171706","pSARL_v2","pSARL_v28bss0h4k","5e3040a2d1a553000cc9147b","freq","img/green_2bandit_b2.png","70","70","test","1","34","34","2","",""
"null","172205","pSARL_v2","pSARL_v28bss0h4k","5e3040a2d1a553000cc9147b","freq_resp","img/green_2bandit_b.png","70","70","test","","","","2","",""
"null","172375","pSARL_v2","pSARL_v28bss0h4k","5e3040a2d1a553000cc9147b","fixation","img/fixation.png","null","","test","","","","","",""
"316.19999998807907","172698","pSARL_v2","pSARL_v28bss0h4k","5e3040a2d1a553000cc9147b","freq","img/green_2bandit_b2.png","70","70","test","1","35","35","2","",""
"null","173192","pSARL_v2","pSARL_v28bss0h4k","5e3040a2d1a553000cc9147b","freq_resp","img/green_2bandit_b.png","70","70","test","","","","2","",""
"null","173352","pSARL_v2","pSARL_v28bss0h4k","5e3040a2d1a553000cc9147b","fixation","img/fixation.png","null","","test","","","","","",""
"307","173662","pSARL_v2","pSARL_v28bss0h4k","5e3040a2d1a553000cc9147b","freq","img/green_2bandit_b2.png","70","70","test","1","36","36","2","",""
"null","174176","pSARL_v2","pSARL_v28bss0h4k","5e3040a2d1a553000cc9147b","freq_resp","img/green_2bandit_b.png","70","70","test","","","","2","",""
"null","174347","pSARL_v2","pSARL_v28bss0h4k","5e3040a2d1a553000cc9147b","fixation","img/fixation.png","null","","test","","","","","",""
"319.90000000596046","174671","pSARL_v2","pSARL_v28bss0h4k","5e3040a2d1a553000cc9147b","freq","img/green_2bandit_b2.png","70","70","test","1","37","37","2","",""
"null","175158","pSARL_v2","pSARL_v28bss0h4k","5e3040a2d1a553000cc9147b","freq_resp","img/green_2bandit_b.png","70","70","test","","","","2","",""
"null","175330","pSARL_v2","pSARL_v28bss0h4k","5e3040a2d1a553000cc9147b","fixation","img/fixation.png","null","","test","","","","","",""
"449.90000000596046","175786","pSARL_v2","pSARL_v28bss0h4k","5e3040a2d1a553000cc9147b","infreq","img/orange_2bandit_b2.png","68","68","test","1","38","38","2","",""
"null","176153","pSARL_v2","pSARL_v28bss0h4k","5e3040a2d1a553000cc9147b","infreq_resp","img/orange_2bandit_b.png","68","68","test","","","","2","",""
"null","176310","pSARL_v2","pSARL_v28bss0h4k","5e3040a2d1a553000cc9147b","fixation","img/fixation.png","null","","test","","","","","",""
"470.09999999403954","176787","pSARL_v2","pSARL_v28bss0h4k","5e3040a2d1a553000cc9147b","freq","img/green_2bandit_b2.png","70","70","test","1","39","39","2","",""
"null","177131","pSARL_v2","pSARL_v28bss0h4k","5e3040a2d1a553000cc9147b","freq_resp","img/green_2bandit_b.png","70","70","test","","","","2","",""
"null","177286","pSARL_v2","pSARL_v28bss0h4k","5e3040a2d1a553000cc9147b","fixation","img/fixation.png","null","","test","","","","","",""
"293.69999998807907","177586","pSARL_v2","pSARL_v28bss0h4k","5e3040a2d1a553000cc9147b","freq","img/green_2bandit_b2.png","70","70","test","1","40","40","2","",""
"null","178105","pSARL_v2","pSARL_v28bss0h4k","5e3040a2d1a553000cc9147b","freq_resp","img/green_2bandit_b.png","70","70","test","","","","2","",""
"null","178263","pSARL_v2","pSARL_v28bss0h4k","5e3040a2d1a553000cc9147b","fixation","img/fixation.png","null","","test","","","","","",""
"459.59999999403954","178727","pSARL_v2","pSARL_v28bss0h4k","5e3040a2d1a553000cc9147b","reward","img/slot.png","74","","test","","","","","",""
"null","179485","pSARL_v2","pSARL_v28bss0h4k","5e3040a2d1a553000cc9147b","points","<div class=""verylowPoints""> -11 </div>","null","na","test","","","","2","-11","1"
"510.90000000596046","180002","pSARL_v2","pSARL_v28bss0h4k","5e3040a2d1a553000cc9147b","freq","img/green_2bandit_b2.png","70","70","test","1","41","41","3","",""
"null","180304","pSARL_v2","pSARL_v28bss0h4k","5e3040a2d1a553000cc9147b","freq_resp","img/green_2bandit_b.png","70","70","test","","","","3","",""
"null","180465","pSARL_v2","pSARL_v28bss0h4k","5e3040a2d1a553000cc9147b","fixation","img/fixation.png","null","","test","","","","","",""
"394.39999997615814","180866","pSARL_v2","pSARL_v28bss0h4k","5e3040a2d1a553000cc9147b","freq","img/green_2bandit_b2.png","70","70","test","1","42","42","3","",""
"null","181289","pSARL_v2","pSARL_v28bss0h4k","5e3040a2d1a553000cc9147b","freq_resp","img/green_2bandit_b.png","70","70","test","","","","3","",""
"null","181456","pSARL_v2","pSARL_v28bss0h4k","5e3040a2d1a553000cc9147b","fixation","img/fixation.png","null","","test","","","","","",""
"340.2999999821186","181802","pSARL_v2","pSARL_v28bss0h4k","5e3040a2d1a553000cc9147b","freq","img/green_2bandit_b2.png","70","70","test","1","43","43","3","",""
"null","182278","pSARL_v2","pSARL_v28bss0h4k","5e3040a2d1a553000cc9147b","freq_resp","img/green_2bandit_b.png","70","70","test","","","","3","",""
"null","182436","pSARL_v2","pSARL_v28bss0h4k","5e3040a2d1a553000cc9147b","fixation","img/fixation.png","null","","test","","","","","",""
"359.90000000596046","182798","pSARL_v2","pSARL_v28bss0h4k","5e3040a2d1a553000cc9147b","freq","img/green_2bandit_b2.png","70","70","test","1","44","44","3","",""
"null","183257","pSARL_v2","pSARL_v28bss0h4k","5e3040a2d1a553000cc9147b","freq_resp","img/green_2bandit_b.png","70","70","test","","","","3","",""
"null","183425","pSARL_v2","pSARL_v28bss0h4k","5e3040a2d1a553000cc9147b","fixation","img/fixation.png","null","","test","","","","","",""
"459.59999999403954","183890","pSARL_v2","pSARL_v28bss0h4k","5e3040a2d1a553000cc9147b","infreq","img/orange_2bandit_b2.png","68","68","test","1","45","45","3","",""
"null","184248","pSARL_v2","pSARL_v28bss0h4k","5e3040a2d1a553000cc9147b","infreq_resp","img/orange_2bandit_b.png","68","68","test","","","","3","",""
"null","184418","pSARL_v2","pSARL_v28bss0h4k","5e3040a2d1a553000cc9147b","fixation","img/fixation.png","null","","test","","","","","",""
"497.40000000596046","184918","pSARL_v2","pSARL_v28bss0h4k","5e3040a2d1a553000cc9147b","freq","img/green_2bandit_b2.png","70","70","test","1","46","46","3","",""
"null","185239","pSARL_v2","pSARL_v28bss0h4k","5e3040a2d1a553000cc9147b","freq_resp","img/green_2bandit_b.png","70","70","test","","","","3","",""
"null","185391","pSARL_v2","pSARL_v28bss0h4k","5e3040a2d1a553000cc9147b","fixation","img/fixation.png","null","","test","","","","","",""
"340.2999999821186","185735","pSARL_v2","pSARL_v28bss0h4k","5e3040a2d1a553000cc9147b","freq","img/green_2bandit_b2.png","70","70","test","1","47","47","3","",""
"null","186205","pSARL_v2","pSARL_v28bss0h4k","5e3040a2d1a553000cc9147b","freq_resp","img/green_2bandit_b.png","70","70","test","","","","3","",""
"null","186375","pSARL_v2","pSARL_v28bss0h4k","5e3040a2d1a553000cc9147b","fixation","img/fixation.png","null","","test","","","","","",""
"381.09999999403954","186759","pSARL_v2","pSARL_v28bss0h4k","5e3040a2d1a553000cc9147b","freq","img/green_2bandit_b2.png","70","70","test","1","48","48","3","",""
"null","187194","pSARL_v2","pSARL_v28bss0h4k","5e3040a2d1a553000cc9147b","freq_resp","img/green_2bandit_b.png","70","70","test","","","","3","",""
"null","187365","pSARL_v2","pSARL_v28bss0h4k","5e3040a2d1a553000cc9147b","fixation","img/fixation.png","null","","test","","","","","",""
"366.90000000596046","187735","pSARL_v2","pSARL_v28bss0h4k","5e3040a2d1a553000cc9147b","freq","img/green_2bandit_b2.png","70","70","test","1","49","49","3","",""
"null","188177","pSARL_v2","pSARL_v28bss0h4k","5e3040a2d1a553000cc9147b","freq_resp","img/green_2bandit_b.png","70","70","test","","","","3","",""
"null","188348","pSARL_v2","pSARL_v28bss0h4k","5e3040a2d1a553000cc9147b","fixation","img/fixation.png","null","","test","","","","","",""
"423.89999997615814","188776","pSARL_v2","pSARL_v28bss0h4k","5e3040a2d1a553000cc9147b","infreq","img/orange_2bandit_b2.png","68","68","test","1","50","50","3","",""
"null","189173","pSARL_v2","pSARL_v28bss0h4k","5e3040a2d1a553000cc9147b","infreq_resp","img/orange_2bandit_b.png","68","68","test","","","","3","",""
"null","189344","pSARL_v2","pSARL_v28bss0h4k","5e3040a2d1a553000cc9147b","fixation","img/fixation.png","null","","test","","","","","",""
"436","189782","pSARL_v2","pSARL_v28bss0h4k","5e3040a2d1a553000cc9147b","freq","img/green_2bandit_b2.png","70","70","test","1","51","51","3","",""
"null","190166","pSARL_v2","pSARL_v28bss0h4k","5e3040a2d1a553000cc9147b","freq_resp","img/green_2bandit_b.png","70","70","test","","","","3","",""
"null","190336","pSARL_v2","pSARL_v28bss0h4k","5e3040a2d1a553000cc9147b","fixation","img/fixation.png","null","","test","","","","","",""
"317.09999999403954","190659","pSARL_v2","pSARL_v28bss0h4k","5e3040a2d1a553000cc9147b","freq","img/green_2bandit_b2.png","70","70","test","1","52","52","3","",""
"null","191160","pSARL_v2","pSARL_v28bss0h4k","5e3040a2d1a553000cc9147b","freq_resp","img/green_2bandit_b.png","70","70","test","","","","3","",""
"null","191331","pSARL_v2","pSARL_v28bss0h4k","5e3040a2d1a553000cc9147b","fixation","img/fixation.png","null","","test","","","","","",""
"337.19999998807907","191674","pSARL_v2","pSARL_v28bss0h4k","5e3040a2d1a553000cc9147b","freq","img/green_2bandit_b2.png","70","70","test","1","53","53","3","",""
"null","192156","pSARL_v2","pSARL_v28bss0h4k","5e3040a2d1a553000cc9147b","freq_resp","img/green_2bandit_b.png","70","70","test","","","","3","",""
"null","192324","pSARL_v2","pSARL_v28bss0h4k","5e3040a2d1a553000cc9147b","fixation","img/fixation.png","null","","test","","","","","",""
"288.5","192618","pSARL_v2","pSARL_v28bss0h4k","5e3040a2d1a553000cc9147b","freq","img/green_2bandit_b2.png","70","70","test","1","54","54","3","",""
"null","193149","pSARL_v2","pSARL_v28bss0h4k","5e3040a2d1a553000cc9147b","freq_resp","img/green_2bandit_b.png","70","70","test","","","","3","",""
"null","193321","pSARL_v2","pSARL_v28bss0h4k","5e3040a2d1a553000cc9147b","fixation","img/fixation.png","null","","test","","","","","",""
"324.2999999821186","193651","pSARL_v2","pSARL_v28bss0h4k","5e3040a2d1a553000cc9147b","freq","img/green_2bandit_b2.png","70","70","test","1","55","55","3","",""
"null","194144","pSARL_v2","pSARL_v28bss0h4k","5e3040a2d1a553000cc9147b","freq_resp","img/green_2bandit_b.png","70","70","test","","","","3","",""
"null","194314","pSARL_v2","pSARL_v28bss0h4k","5e3040a2d1a553000cc9147b","fixation","img/fixation.png","null","","test","","","","","",""
"290.60000002384186","194607","pSARL_v2","pSARL_v28bss0h4k","5e3040a2d1a553000cc9147b","freq","img/green_2bandit_b2.png","70","70","test","1","56","56","3","",""
"null","195137","pSARL_v2","pSARL_v28bss0h4k","5e3040a2d1a553000cc9147b","freq_resp","img/green_2bandit_b.png","70","70","test","","","","3","",""
"null","195307","pSARL_v2","pSARL_v28bss0h4k","5e3040a2d1a553000cc9147b","fixation","img/fixation.png","null","","test","","","","","",""
"287.7999999821186","195599","pSARL_v2","pSARL_v28bss0h4k","5e3040a2d1a553000cc9147b","freq","img/green_2bandit_b2.png","70","70","test","1","57","57","3","",""
"null","196129","pSARL_v2","pSARL_v28bss0h4k","5e3040a2d1a553000cc9147b","freq_resp","img/green_2bandit_b.png","70","70","test","","","","3","",""
"null","196297","pSARL_v2","pSARL_v28bss0h4k","5e3040a2d1a553000cc9147b","fixation","img/fixation.png","null","","test","","","","","",""
"419.90000000596046","196722","pSARL_v2","pSARL_v28bss0h4k","5e3040a2d1a553000cc9147b","infreq","img/orange_2bandit_b2.png","68","68","test","1","58","58","3","",""
"null","197124","pSARL_v2","pSARL_v28bss0h4k","5e3040a2d1a553000cc9147b","infreq_resp","img/orange_2bandit_b.png","68","68","test","","","","3","",""
"null","197295","pSARL_v2","pSARL_v28bss0h4k","5e3040a2d1a553000cc9147b","fixation","img/fixation.png","null","","test","","","","","",""
"405.09999999403954","197703","pSARL_v2","pSARL_v28bss0h4k","5e3040a2d1a553000cc9147b","freq","img/green_2bandit_b2.png","70","70","test","1","59","59","3","",""
"null","198116","pSARL_v2","pSARL_v28bss0h4k","5e3040a2d1a553000cc9147b","freq_resp","img/green_2bandit_b.png","70","70","test","","","","3","",""
"null","198286","pSARL_v2","pSARL_v28bss0h4k","5e3040a2d1a553000cc9147b","fixation","img/fixation.png","null","","test","","","","","",""
"406.90000000596046","198698","pSARL_v2","pSARL_v28bss0h4k","5e3040a2d1a553000cc9147b","freq","img/green_2bandit_b2.png","70","70","test","1","60","60","3","",""
"null","199106","pSARL_v2","pSARL_v28bss0h4k","5e3040a2d1a553000cc9147b","freq_resp","img/green_2bandit_b.png","70","70","test","","","","3","",""
"null","199278","pSARL_v2","pSARL_v28bss0h4k","5e3040a2d1a553000cc9147b","fixation","img/fixation.png","null","","test","","","","","",""
"302","199582","pSARL_v2","pSARL_v28bss0h4k","5e3040a2d1a553000cc9147b","freq","img/green_2bandit_b2.png","70","70","test","1","61","61","3","",""
"null","200097","pSARL_v2","pSARL_v28bss0h4k","5e3040a2d1a553000cc9147b","freq_resp","img/green_2bandit_b.png","70","70","test","","","","3","",""
"null","200269","pSARL_v2","pSARL_v28bss0h4k","5e3040a2d1a553000cc9147b","fixation","img/fixation.png","null","","test","","","","","",""
"278.89999997615814","200554","pSARL_v2","pSARL_v28bss0h4k","5e3040a2d1a553000cc9147b","freq","img/green_2bandit_b2.png","70","70","test","1","62","62","3","",""
"null","201093","pSARL_v2","pSARL_v28bss0h4k","5e3040a2d1a553000cc9147b","freq_resp","img/green_2bandit_b.png","70","70","test","","","","3","",""
"null","201263","pSARL_v2","pSARL_v28bss0h4k","5e3040a2d1a553000cc9147b","fixation","img/fixation.png","null","","test","","","","","",""
"284.7000000178814","201552","pSARL_v2","pSARL_v28bss0h4k","5e3040a2d1a553000cc9147b","freq","img/green_2bandit_b2.png","70","70","test","1","63","63","3","",""
"null","202085","pSARL_v2","pSARL_v28bss0h4k","5e3040a2d1a553000cc9147b","freq_resp","img/green_2bandit_b.png","70","70","test","","","","3","",""
"null","202252","pSARL_v2","pSARL_v28bss0h4k","5e3040a2d1a553000cc9147b","fixation","img/fixation.png","null","","test","","","","","",""
"288.40000000596046","202543","pSARL_v2","pSARL_v28bss0h4k","5e3040a2d1a553000cc9147b","freq","img/green_2bandit_b2.png","70","70","test","1","64","64","3","",""
"null","203066","pSARL_v2","pSARL_v28bss0h4k","5e3040a2d1a553000cc9147b","freq_resp","img/green_2bandit_b.png","70","70","test","","","","3","",""
"null","203236","pSARL_v2","pSARL_v28bss0h4k","5e3040a2d1a553000cc9147b","fixation","img/fixation.png","null","","test","","","","","",""
"312.80000001192093","203554","pSARL_v2","pSARL_v28bss0h4k","5e3040a2d1a553000cc9147b","freq","img/green_2bandit_b2.png","70","70","test","1","65","65","3","",""
"null","204058","pSARL_v2","pSARL_v28bss0h4k","5e3040a2d1a553000cc9147b","freq_resp","img/green_2bandit_b.png","70","70","test","","","","3","",""
"null","204230","pSARL_v2","pSARL_v28bss0h4k","5e3040a2d1a553000cc9147b","fixation","img/fixation.png","null","","test","","","","","",""
"334.10000002384186","204570","pSARL_v2","pSARL_v28bss0h4k","5e3040a2d1a553000cc9147b","freq","img/green_2bandit_b2.png","70","70","test","1","66","66","3","",""
"null","205050","pSARL_v2","pSARL_v28bss0h4k","5e3040a2d1a553000cc9147b","freq_resp","img/green_2bandit_b.png","70","70","test","","","","3","",""
"null","205220","pSARL_v2","pSARL_v28bss0h4k","5e3040a2d1a553000cc9147b","fixation","img/fixation.png","null","","test","","","","","",""
"480.60000002384186","205706","pSARL_v2","pSARL_v28bss0h4k","5e3040a2d1a553000cc9147b","reward","img/slot.png","74","","test","","","","","",""
"null","206463","pSARL_v2","pSARL_v28bss0h4k","5e3040a2d1a553000cc9147b","points","<div class=""verylowPoints""> -7 </div>","null","na","test","","","","3","-7","2"
"373.09999999403954","206839","pSARL_v2","pSARL_v28bss0h4k","5e3040a2d1a553000cc9147b","freq","img/green_2bandit_b2.png","70","70","test","1","67","67","4","",""
"null","207282","pSARL_v2","pSARL_v28bss0h4k","5e3040a2d1a553000cc9147b","freq_resp","img/green_2bandit_b.png","70","70","test","","","","4","",""
"null","207440","pSARL_v2","pSARL_v28bss0h4k","5e3040a2d1a553000cc9147b","fixation","img/fixation.png","null","","test","","","","","",""
"315.5","207762","pSARL_v2","pSARL_v28bss0h4k","5e3040a2d1a553000cc9147b","freq","img/green_2bandit_b2.png","70","70","test","1","68","68","4","",""
"null","208263","pSARL_v2","pSARL_v28bss0h4k","5e3040a2d1a553000cc9147b","freq_resp","img/green_2bandit_b.png","70","70","test","","","","4","",""
"null","208433","pSARL_v2","pSARL_v28bss0h4k","5e3040a2d1a553000cc9147b","fixation","img/fixation.png","null","","test","","","","","",""
"338.40000000596046","208778","pSARL_v2","pSARL_v28bss0h4k","5e3040a2d1a553000cc9147b","freq","img/green_2bandit_b2.png","70","70","test","1","69","69","4","",""
"null","209253","pSARL_v2","pSARL_v28bss0h4k","5e3040a2d1a553000cc9147b","freq_resp","img/green_2bandit_b.png","70","70","test","","","","4","",""
"null","209423","pSARL_v2","pSARL_v28bss0h4k","5e3040a2d1a553000cc9147b","fixation","img/fixation.png","null","","test","","","","","",""
"269.69999998807907","209698","pSARL_v2","pSARL_v28bss0h4k","5e3040a2d1a553000cc9147b","freq","img/green_2bandit_b2.png","70","70","test","1","70","70","4","",""
"null","210246","pSARL_v2","pSARL_v28bss0h4k","5e3040a2d1a553000cc9147b","freq_resp","img/green_2bandit_b.png","70","70","test","","","","4","",""
"null","210404","pSARL_v2","pSARL_v28bss0h4k","5e3040a2d1a553000cc9147b","fixation","img/fixation.png","null","","test","","","","","",""
"272.09999999403954","210680","pSARL_v2","pSARL_v28bss0h4k","5e3040a2d1a553000cc9147b","freq","img/green_2bandit_b2.png","70","70","test","1","71","71","4","",""
"null","211216","pSARL_v2","pSARL_v28bss0h4k","5e3040a2d1a553000cc9147b","freq_resp","img/green_2bandit_b.png","70","70","test","","","","4","",""
"null","211387","pSARL_v2","pSARL_v28bss0h4k","5e3040a2d1a553000cc9147b","fixation","img/fixation.png","null","","test","","","","","",""
"273.59999999403954","211667","pSARL_v2","pSARL_v28bss0h4k","5e3040a2d1a553000cc9147b","freq","img/green_2bandit_b2.png","70","70","test","1","72","72","4","",""
"null","212211","pSARL_v2","pSARL_v28bss0h4k","5e3040a2d1a553000cc9147b","freq_resp","img/green_2bandit_b.png","70","70","test","","","","4","",""
"null","212382","pSARL_v2","pSARL_v28bss0h4k","5e3040a2d1a553000cc9147b","fixation","img/fixation.png","null","","test","","","","","",""
"301.90000000596046","212687","pSARL_v2","pSARL_v28bss0h4k","5e3040a2d1a553000cc9147b","freq","img/green_2bandit_b2.png","70","70","test","1","73","73","4","",""
"null","213201","pSARL_v2","pSARL_v28bss0h4k","5e3040a2d1a553000cc9147b","freq_resp","img/green_2bandit_b.png","70","70","test","","","","4","",""
"null","213370","pSARL_v2","pSARL_v28bss0h4k","5e3040a2d1a553000cc9147b","fixation","img/fixation.png","null","","test","","","","","",""
"291.19999998807907","213667","pSARL_v2","pSARL_v28bss0h4k","5e3040a2d1a553000cc9147b","freq","img/green_2bandit_b2.png","70","70","test","1","74","74","4","",""
"null","214190","pSARL_v2","pSARL_v28bss0h4k","5e3040a2d1a553000cc9147b","freq_resp","img/green_2bandit_b.png","70","70","test","","","","4","",""
"null","214362","pSARL_v2","pSARL_v28bss0h4k","5e3040a2d1a553000cc9147b","fixation","img/fixation.png","null","","test","","","","","",""
"250.80000001192093","214618","pSARL_v2","pSARL_v28bss0h4k","5e3040a2d1a553000cc9147b","freq","img/green_2bandit_b2.png","70","70","test","1","75","75","4","",""
"null","215183","pSARL_v2","pSARL_v28bss0h4k","5e3040a2d1a553000cc9147b","freq_resp","img/green_2bandit_b.png","70","70","test","","","","4","",""
"null","215354","pSARL_v2","pSARL_v28bss0h4k","5e3040a2d1a553000cc9147b","fixation","img/fixation.png","null","","test","","","","","",""
"281.5","215642","pSARL_v2","pSARL_v28bss0h4k","5e3040a2d1a553000cc9147b","infreq","img/orange_2bandit_b2.png","70","68","test","0","76","76","4","",""
"null","216171","pSARL_v2","pSARL_v28bss0h4k","5e3040a2d1a553000cc9147b","infreq_resp","img/orange_2bandit_b.png","70","68","test","","","","4","",""
"null","216329","pSARL_v2","pSARL_v28bss0h4k","5e3040a2d1a553000cc9147b","fixation","img/fixation.png","null","","test","","","","","",""
"371.80000001192093","216706","pSARL_v2","pSARL_v28bss0h4k","5e3040a2d1a553000cc9147b","freq","img/green_2bandit_b2.png","70","70","test","1","77","77","4","",""
"null","217151","pSARL_v2","pSARL_v28bss0h4k","5e3040a2d1a553000cc9147b","freq_resp","img/green_2bandit_b.png","70","70","test","","","","4","",""
"null","217320","pSARL_v2","pSARL_v28bss0h4k","5e3040a2d1a553000cc9147b","fixation","img/fixation.png","null","","test","","","","","",""
"356.80000001192093","217682","pSARL_v2","pSARL_v28bss0h4k","5e3040a2d1a553000cc9147b","freq","img/green_2bandit_b2.png","70","70","test","1","78","78","4","",""
"null","218142","pSARL_v2","pSARL_v28bss0h4k","5e3040a2d1a553000cc9147b","freq_resp","img/green_2bandit_b.png","70","70","test","","","","4","",""
"null","218299","pSARL_v2","pSARL_v28bss0h4k","5e3040a2d1a553000cc9147b","fixation","img/fixation.png","null","","test","","","","","",""
"321.69999998807907","218626","pSARL_v2","pSARL_v28bss0h4k","5e3040a2d1a553000cc9147b","freq","img/green_2bandit_b2.png","70","70","test","1","79","79","4","",""
"null","219122","pSARL_v2","pSARL_v28bss0h4k","5e3040a2d1a553000cc9147b","freq_resp","img/green_2bandit_b.png","70","70","test","","","","4","",""
"null","219291","pSARL_v2","pSARL_v28bss0h4k","5e3040a2d1a553000cc9147b","fixation","img/fixation.png","null","","test","","","","","",""
"305.7000000178814","219602","pSARL_v2","pSARL_v28bss0h4k","5e3040a2d1a553000cc9147b","freq","img/green_2bandit_b2.png","70","70","test","1","80","80","4","",""
"null","220113","pSARL_v2","pSARL_v28bss0h4k","5e3040a2d1a553000cc9147b","freq_resp","img/green_2bandit_b.png","70","70","test","","","","4","",""
"null","220283","pSARL_v2","pSARL_v28bss0h4k","5e3040a2d1a553000cc9147b","fixation","img/fixation.png","null","","test","","","","","",""
"321.7000000178814","220610","pSARL_v2","pSARL_v28bss0h4k","5e3040a2d1a553000cc9147b","freq","img/green_2bandit_b2.png","70","70","test","1","81","81","4","",""
"null","221099","pSARL_v2","pSARL_v28bss0h4k","5e3040a2d1a553000cc9147b","freq_resp","img/green_2bandit_b.png","70","70","test","","","","4","",""
"null","221258","pSARL_v2","pSARL_v28bss0h4k","5e3040a2d1a553000cc9147b","fixation","img/fixation.png","null","","test","","","","","",""
"298.80000001192093","221562","pSARL_v2","pSARL_v28bss0h4k","5e3040a2d1a553000cc9147b","freq","img/green_2bandit_b2.png","70","70","test","1","82","82","4","",""
"null","222080","pSARL_v2","pSARL_v28bss0h4k","5e3040a2d1a553000cc9147b","freq_resp","img/green_2bandit_b.png","70","70","test","","","","4","",""
"null","222250","pSARL_v2","pSARL_v28bss0h4k","5e3040a2d1a553000cc9147b","fixation","img/fixation.png","null","","test","","","","","",""
"315","222571","pSARL_v2","pSARL_v28bss0h4k","5e3040a2d1a553000cc9147b","freq","img/green_2bandit_b2.png","70","70","test","1","83","83","4","",""
"null","223072","pSARL_v2","pSARL_v28bss0h4k","5e3040a2d1a553000cc9147b","freq_resp","img/green_2bandit_b.png","70","70","test","","","","4","",""
"null","223241","pSARL_v2","pSARL_v28bss0h4k","5e3040a2d1a553000cc9147b","fixation","img/fixation.png","null","","test","","","","","",""
"259.90000000596046","223507","pSARL_v2","pSARL_v28bss0h4k","5e3040a2d1a553000cc9147b","freq","img/green_2bandit_b2.png","70","70","test","1","84","84","4","",""
"null","224066","pSARL_v2","pSARL_v28bss0h4k","5e3040a2d1a553000cc9147b","freq_resp","img/green_2bandit_b.png","70","70","test","","","","4","",""
"null","224235","pSARL_v2","pSARL_v28bss0h4k","5e3040a2d1a553000cc9147b","fixation","img/fixation.png","null","","test","","","","","",""
"336.5","224578","pSARL_v2","pSARL_v28bss0h4k","5e3040a2d1a553000cc9147b","freq","img/green_2bandit_b2.png","70","70","test","1","85","85","4","",""
"null","225057","pSARL_v2","pSARL_v28bss0h4k","5e3040a2d1a553000cc9147b","freq_resp","img/green_2bandit_b.png","70","70","test","","","","4","",""
"null","225226","pSARL_v2","pSARL_v28bss0h4k","5e3040a2d1a553000cc9147b","fixation","img/fixation.png","null","","test","","","","","",""
"362.90000000596046","225594","pSARL_v2","pSARL_v28bss0h4k","5e3040a2d1a553000cc9147b","infreq","img/orange_2bandit_b2.png","68","68","test","1","86","86","4","",""
"null","226052","pSARL_v2","pSARL_v28bss0h4k","5e3040a2d1a553000cc9147b","infreq_resp","img/orange_2bandit_b.png","68","68","test","","","","4","",""
"null","226209","pSARL_v2","pSARL_v28bss0h4k","5e3040a2d1a553000cc9147b","fixation","img/fixation.png","null","","test","","","","","",""
"395.80000001192093","226611","pSARL_v2","pSARL_v28bss0h4k","5e3040a2d1a553000cc9147b","freq","img/green_2bandit_b2.png","70","70","test","1","87","87","4","",""
"null","227032","pSARL_v2","pSARL_v28bss0h4k","5e3040a2d1a553000cc9147b","freq_resp","img/green_2bandit_b.png","70","70","test","","","","4","",""
"null","227203","pSARL_v2","pSARL_v28bss0h4k","5e3040a2d1a553000cc9147b","fixation","img/fixation.png","null","","test","","","","","",""
"281.60000002384186","227490","pSARL_v2","pSARL_v28bss0h4k","5e3040a2d1a553000cc9147b","freq","img/green_2bandit_b2.png","70","70","test","1","88","88","4","",""
"null","228022","pSARL_v2","pSARL_v28bss0h4k","5e3040a2d1a553000cc9147b","freq_resp","img/green_2bandit_b.png","70","70","test","","","","4","",""
"null","228191","pSARL_v2","pSARL_v28bss0h4k","5e3040a2d1a553000cc9147b","fixation","img/fixation.png","null","","test","","","","","",""
"453.60000002384186","228650","pSARL_v2","pSARL_v28bss0h4k","5e3040a2d1a553000cc9147b","reward","img/slot.png","74","","test","","","","","",""
"null","229418","pSARL_v2","pSARL_v28bss0h4k","5e3040a2d1a553000cc9147b","points","<div class=""verylowPoints""> -3 </div>","null","na","test","","","","4","-3","3"
"338.30000001192093","229759","pSARL_v2","pSARL_v28bss0h4k","5e3040a2d1a553000cc9147b","freq","img/green_2bandit_b2.png","70","70","test","1","89","89","5","",""
"null","230235","pSARL_v2","pSARL_v28bss0h4k","5e3040a2d1a553000cc9147b","freq_resp","img/green_2bandit_b.png","70","70","test","","","","5","",""
"null","230403","pSARL_v2","pSARL_v28bss0h4k","5e3040a2d1a553000cc9147b","fixation","img/fixation.png","null","","test","","","","","",""
"287.39999997615814","230693","pSARL_v2","pSARL_v28bss0h4k","5e3040a2d1a553000cc9147b","freq","img/green_2bandit_b2.png","70","70","test","1","90","90","5","",""
"null","231212","pSARL_v2","pSARL_v28bss0h4k","5e3040a2d1a553000cc9147b","freq_resp","img/green_2bandit_b.png","70","70","test","","","","5","",""
"null","231381","pSARL_v2","pSARL_v28bss0h4k","5e3040a2d1a553000cc9147b","fixation","img/fixation.png","null","","test","","","","","",""
"326.90000000596046","231710","pSARL_v2","pSARL_v28bss0h4k","5e3040a2d1a553000cc9147b","freq","img/green_2bandit_b2.png","70","70","test","1","91","91","5","",""
"null","232203","pSARL_v2","pSARL_v28bss0h4k","5e3040a2d1a553000cc9147b","freq_resp","img/green_2bandit_b.png","70","70","test","","","","5","",""
"null","232373","pSARL_v2","pSARL_v28bss0h4k","5e3040a2d1a553000cc9147b","fixation","img/fixation.png","null","","test","","","","","",""
"295.90000000596046","232675","pSARL_v2","pSARL_v28bss0h4k","5e3040a2d1a553000cc9147b","freq","img/green_2bandit_b2.png","70","70","test","1","92","92","5","",""
"null","233195","pSARL_v2","pSARL_v28bss0h4k","5e3040a2d1a553000cc9147b","freq_resp","img/green_2bandit_b.png","70","70","test","","","","5","",""
"null","233366","pSARL_v2","pSARL_v28bss0h4k","5e3040a2d1a553000cc9147b","fixation","img/fixation.png","null","","test","","","","","",""
"269.30000001192093","233643","pSARL_v2","pSARL_v28bss0h4k","5e3040a2d1a553000cc9147b","freq","img/green_2bandit_b2.png","70","70","test","1","93","93","5","",""
"null","234187","pSARL_v2","pSARL_v28bss0h4k","5e3040a2d1a553000cc9147b","freq_resp","img/green_2bandit_b.png","70","70","test","","","","5","",""
"null","234356","pSARL_v2","pSARL_v28bss0h4k","5e3040a2d1a553000cc9147b","fixation","img/fixation.png","null","","test","","","","","",""
"263.7999999821186","234623","pSARL_v2","pSARL_v28bss0h4k","5e3040a2d1a553000cc9147b","freq","img/green_2bandit_b2.png","70","70","test","1","94","94","5","",""
"null","235177","pSARL_v2","pSARL_v28bss0h4k","5e3040a2d1a553000cc9147b","freq_resp","img/green_2bandit_b.png","70","70","test","","","","5","",""
"null","235348","pSARL_v2","pSARL_v28bss0h4k","5e3040a2d1a553000cc9147b","fixation","img/fixation.png","null","","test","","","","","",""
"272.60000002384186","235626","pSARL_v2","pSARL_v28bss0h4k","5e3040a2d1a553000cc9147b","freq","img/green_2bandit_b2.png","70","70","test","1","95","95","5","",""
"null","236159","pSARL_v2","pSARL_v28bss0h4k","5e3040a2d1a553000cc9147b","freq_resp","img/green_2bandit_b.png","70","70","test","","","","5","",""
"null","236331","pSARL_v2","pSARL_v28bss0h4k","5e3040a2d1a553000cc9147b","fixation","img/fixation.png","null","","test","","","","","",""
"297.19999998807907","236631","pSARL_v2","pSARL_v28bss0h4k","5e3040a2d1a553000cc9147b","freq","img/green_2bandit_b2.png","70","70","test","1","96","96","5","",""
"null","237149","pSARL_v2","pSARL_v28bss0h4k","5e3040a2d1a553000cc9147b","freq_resp","img/green_2bandit_b.png","70","70","test","","","","5","",""
"null","237307","pSARL_v2","pSARL_v28bss0h4k","5e3040a2d1a553000cc9147b","fixation","img/fixation.png","null","","test","","","","","",""
"296.2000000178814","237610","pSARL_v2","pSARL_v28bss0h4k","5e3040a2d1a553000cc9147b","freq","img/green_2bandit_b2.png","70","70","test","1","97","97","5","",""
"null","238127","pSARL_v2","pSARL_v28bss0h4k","5e3040a2d1a553000cc9147b","freq_resp","img/green_2bandit_b.png","70","70","test","","","","5","",""
"null","238298","pSARL_v2","pSARL_v28bss0h4k","5e3040a2d1a553000cc9147b","fixation","img/fixation.png","null","","test","","","","","",""
"313.7999999821186","238614","pSARL_v2","pSARL_v28bss0h4k","5e3040a2d1a553000cc9147b","freq","img/green_2bandit_b2.png","70","70","test","1","98","98","5","",""
"null","239107","pSARL_v2","pSARL_v28bss0h4k","5e3040a2d1a553000cc9147b","freq_resp","img/green_2bandit_b.png","70","70","test","","","","5","",""
"null","239278","pSARL_v2","pSARL_v28bss0h4k","5e3040a2d1a553000cc9147b","fixation","img/fixation.png","null","","test","","","","","",""
"293.7999999821186","239574","pSARL_v2","pSARL_v28bss0h4k","5e3040a2d1a553000cc9147b","freq","img/green_2bandit_b2.png","70","70","test","1","99","99","5","",""
"null","240088","pSARL_v2","pSARL_v28bss0h4k","5e3040a2d1a553000cc9147b","freq_resp","img/green_2bandit_b.png","70","70","test","","","","5","",""
"null","240258","pSARL_v2","pSARL_v28bss0h4k","5e3040a2d1a553000cc9147b","fixation","img/fixation.png","null","","test","","","","","",""
"298.10000002384186","240560","pSARL_v2","pSARL_v28bss0h4k","5e3040a2d1a553000cc9147b","freq","img/green_2bandit_b2.png","70","70","test","1","100","100","5","",""
"null","241079","pSARL_v2","pSARL_v28bss0h4k","5e3040a2d1a553000cc9147b","freq_resp","img/green_2bandit_b.png","70","70","test","","","","5","",""
"null","241251","pSARL_v2","pSARL_v28bss0h4k","5e3040a2d1a553000cc9147b","fixation","img/fixation.png","null","","test","","","","","",""
"297.80000001192093","241554","pSARL_v2","pSARL_v28bss0h4k","5e3040a2d1a553000cc9147b","freq","img/green_2bandit_b2.png","70","70","test","1","101","101","5","",""
"null","242069","pSARL_v2","pSARL_v28bss0h4k","5e3040a2d1a553000cc9147b","freq_resp","img/green_2bandit_b.png","70","70","test","","","","5","",""
"null","242228","pSARL_v2","pSARL_v28bss0h4k","5e3040a2d1a553000cc9147b","fixation","img/fixation.png","null","","test","","","","","",""
"271.90000000596046","242502","pSARL_v2","pSARL_v28bss0h4k","5e3040a2d1a553000cc9147b","freq","img/green_2bandit_b2.png","70","70","test","1","102","102","5","",""
"null","243049","pSARL_v2","pSARL_v28bss0h4k","5e3040a2d1a553000cc9147b","freq_resp","img/green_2bandit_b.png","70","70","test","","","","5","",""
"null","243206","pSARL_v2","pSARL_v28bss0h4k","5e3040a2d1a553000cc9147b","fixation","img/fixation.png","null","","test","","","","","",""
"277.90000000596046","243487","pSARL_v2","pSARL_v28bss0h4k","5e3040a2d1a553000cc9147b","freq","img/green_2bandit_b2.png","70","70","test","1","103","103","5","",""
"null","244012","pSARL_v2","pSARL_v28bss0h4k","5e3040a2d1a553000cc9147b","freq_resp","img/green_2bandit_b.png","70","70","test","","","","5","",""
"null","244170","pSARL_v2","pSARL_v28bss0h4k","5e3040a2d1a553000cc9147b","fixation","img/fixation.png","null","","test","","","","","",""
"274.19999998807907","244451","pSARL_v2","pSARL_v28bss0h4k","5e3040a2d1a553000cc9147b","infreq","img/orange_2bandit_b2.png","70","68","test","0","104","104","5","",""
"null","244982","pSARL_v2","pSARL_v28bss0h4k","5e3040a2d1a553000cc9147b","infreq_resp","img/orange_2bandit_b.png","70","68","test","","","","5","",""
"null","245138","pSARL_v2","pSARL_v28bss0h4k","5e3040a2d1a553000cc9147b","fixation","img/fixation.png","null","","test","","","","","",""
"306.19999998807907","245449","pSARL_v2","pSARL_v28bss0h4k","5e3040a2d1a553000cc9147b","infreq","img/orange_2bandit_b2.png","70","68","test","0","105","105","5","",""
"null","245959","pSARL_v2","pSARL_v28bss0h4k","5e3040a2d1a553000cc9147b","infreq_resp","img/orange_2bandit_b.png","70","68","test","","","","5","",""
"null","246129","pSARL_v2","pSARL_v28bss0h4k","5e3040a2d1a553000cc9147b","fixation","img/fixation.png","null","","test","","","","","",""
"435.60000002384186","246570","pSARL_v2","pSARL_v28bss0h4k","5e3040a2d1a553000cc9147b","freq","img/green_2bandit_b2.png","70","70","test","1","106","106","5","",""
"null","246950","pSARL_v2","pSARL_v28bss0h4k","5e3040a2d1a553000cc9147b","freq_resp","img/green_2bandit_b.png","70","70","test","","","","5","",""
"null","247106","pSARL_v2","pSARL_v28bss0h4k","5e3040a2d1a553000cc9147b","fixation","img/fixation.png","null","","test","","","","","",""
"297.5","247407","pSARL_v2","pSARL_v28bss0h4k","5e3040a2d1a553000cc9147b","freq","img/green_2bandit_b2.png","70","70","test","1","107","107","5","",""
"null","247927","pSARL_v2","pSARL_v28bss0h4k","5e3040a2d1a553000cc9147b","freq_resp","img/green_2bandit_b.png","70","70","test","","","","5","",""
"null","248094","pSARL_v2","pSARL_v28bss0h4k","5e3040a2d1a553000cc9147b","fixation","img/fixation.png","null","","test","","","","","",""
"422.5","248523","pSARL_v2","pSARL_v28bss0h4k","5e3040a2d1a553000cc9147b","reward","img/slot.png","74","","test","","","","","",""
"null","249288","pSARL_v2","pSARL_v28bss0h4k","5e3040a2d1a553000cc9147b","points","<div class=""veryhighPoints""> +1 </div>","null","na","test","","","","5","1","4"
"476.90000000596046","249770","pSARL_v2","pSARL_v28bss0h4k","5e3040a2d1a553000cc9147b","freq","img/green_2bandit_b2.png","70","70","test","1","108","108","6","",""
"null","250111","pSARL_v2","pSARL_v28bss0h4k","5e3040a2d1a553000cc9147b","freq_resp","img/green_2bandit_b.png","70","70","test","","","","6","",""
"null","250267","pSARL_v2","pSARL_v28bss0h4k","5e3040a2d1a553000cc9147b","fixation","img/fixation.png","null","","test","","","","","",""
"481.59999999403954","250755","pSARL_v2","pSARL_v28bss0h4k","5e3040a2d1a553000cc9147b","infreq","img/orange_2bandit_b2.png","68","68","test","1","109","109","6","",""
"null","251090","pSARL_v2","pSARL_v28bss0h4k","5e3040a2d1a553000cc9147b","infreq_resp","img/orange_2bandit_b.png","68","68","test","","","","6","",""
"null","251245","pSARL_v2","pSARL_v28bss0h4k","5e3040a2d1a553000cc9147b","fixation","img/fixation.png","null","","test","","","","","",""
"407.19999998807907","251658","pSARL_v2","pSARL_v28bss0h4k","5e3040a2d1a553000cc9147b","freq","img/green_2bandit_b2.png","70","70","test","1","110","110","6","",""
"null","252068","pSARL_v2","pSARL_v28bss0h4k","5e3040a2d1a553000cc9147b","freq_resp","img/green_2bandit_b.png","70","70","test","","","","6","",""
"null","252235","pSARL_v2","pSARL_v28bss0h4k","5e3040a2d1a553000cc9147b","fixation","img/fixation.png","null","","test","","","","","",""
"329.40000000596046","252570","pSARL_v2","pSARL_v28bss0h4k","5e3040a2d1a553000cc9147b","freq","img/green_2bandit_b2.png","70","70","test","1","111","111","6","",""
"null","253061","pSARL_v2","pSARL_v28bss0h4k","5e3040a2d1a553000cc9147b","freq_resp","img/green_2bandit_b.png","70","70","test","","","","6","",""
"null","253229","pSARL_v2","pSARL_v28bss0h4k","5e3040a2d1a553000cc9147b","fixation","img/fixation.png","null","","test","","","","","",""
"311.59999999403954","253547","pSARL_v2","pSARL_v28bss0h4k","5e3040a2d1a553000cc9147b","freq","img/green_2bandit_b2.png","70","70","test","1","112","112","6","",""
"null","254051","pSARL_v2","pSARL_v28bss0h4k","5e3040a2d1a553000cc9147b","freq_resp","img/green_2bandit_b.png","70","70","test","","","","6","",""
"null","254221","pSARL_v2","pSARL_v28bss0h4k","5e3040a2d1a553000cc9147b","fixation","img/fixation.png","null","","test","","","","","",""
"311.5","254538","pSARL_v2","pSARL_v28bss0h4k","5e3040a2d1a553000cc9147b","freq","img/green_2bandit_b2.png","70","70","test","1","113","113","6","",""
"null","255041","pSARL_v2","pSARL_v28bss0h4k","5e3040a2d1a553000cc9147b","freq_resp","img/green_2bandit_b.png","70","70","test","","","","6","",""
"null","255214","pSARL_v2","pSARL_v28bss0h4k","5e3040a2d1a553000cc9147b","fixation","img/fixation.png","null","","test","","","","","",""
"318.30000001192093","255538","pSARL_v2","pSARL_v28bss0h4k","5e3040a2d1a553000cc9147b","freq","img/green_2bandit_b2.png","70","70","test","1","114","114","6","",""
"null","256036","pSARL_v2","pSARL_v28bss0h4k","5e3040a2d1a553000cc9147b","freq_resp","img/green_2bandit_b.png","70","70","test","","","","6","",""
"null","256192","pSARL_v2","pSARL_v28bss0h4k","5e3040a2d1a553000cc9147b","fixation","img/fixation.png","null","","test","","","","","",""
"284.5","256482","pSARL_v2","pSARL_v28bss0h4k","5e3040a2d1a553000cc9147b","freq","img/green_2bandit_b2.png","70","70","test","1","115","115","6","",""
"null","257017","pSARL_v2","pSARL_v28bss0h4k","5e3040a2d1a553000cc9147b","freq_resp","img/green_2bandit_b.png","70","70","test","","","","6","",""
"null","257172","pSARL_v2","pSARL_v28bss0h4k","5e3040a2d1a553000cc9147b","fixation","img/fixation.png","null","","test","","","","","",""
"312.60000002384186","257490","pSARL_v2","pSARL_v28bss0h4k","5e3040a2d1a553000cc9147b","freq","img/green_2bandit_b2.png","70","70","test","1","116","116","6","",""
"null","257996","pSARL_v2","pSARL_v28bss0h4k","5e3040a2d1a553000cc9147b","freq_resp","img/green_2bandit_b.png","70","70","test","","","","6","",""
"null","258166","pSARL_v2","pSARL_v28bss0h4k","5e3040a2d1a553000cc9147b","fixation","img/fixation.png","null","","test","","","","","",""
"358.60000002384186","258530","pSARL_v2","pSARL_v28bss0h4k","5e3040a2d1a553000cc9147b","freq","img/green_2bandit_b2.png","70","70","test","1","117","117","6","",""
"null","258990","pSARL_v2","pSARL_v28bss0h4k","5e3040a2d1a553000cc9147b","freq_resp","img/green_2bandit_b.png","70","70","test","","","","6","",""
"null","259159","pSARL_v2","pSARL_v28bss0h4k","5e3040a2d1a553000cc9147b","fixation","img/fixation.png","null","","test","","","","","",""
"301.60000002384186","259466","pSARL_v2","pSARL_v28bss0h4k","5e3040a2d1a553000cc9147b","freq","img/green_2bandit_b2.png","70","70","test","1","118","118","6","",""
"null","259984","pSARL_v2","pSARL_v28bss0h4k","5e3040a2d1a553000cc9147b","freq_resp","img/green_2bandit_b.png","70","70","test","","","","6","",""
"null","260151","pSARL_v2","pSARL_v28bss0h4k","5e3040a2d1a553000cc9147b","fixation","img/fixation.png","null","","test","","","","","",""
"309.5","260467","pSARL_v2","pSARL_v28bss0h4k","5e3040a2d1a553000cc9147b","freq","img/green_2bandit_b2.png","70","70","test","1","119","119","6","",""
"null","260976","pSARL_v2","pSARL_v28bss0h4k","5e3040a2d1a553000cc9147b","freq_resp","img/green_2bandit_b.png","70","70","test","","","","6","",""
"null","261144","pSARL_v2","pSARL_v28bss0h4k","5e3040a2d1a553000cc9147b","fixation","img/fixation.png","null","","test","","","","","",""
"292.5","261442","pSARL_v2","pSARL_v28bss0h4k","5e3040a2d1a553000cc9147b","freq","img/green_2bandit_b2.png","70","70","test","1","120","120","6","",""
"null","261970","pSARL_v2","pSARL_v28bss0h4k","5e3040a2d1a553000cc9147b","freq_resp","img/green_2bandit_b.png","70","70","test","","","","6","",""
"null","262136","pSARL_v2","pSARL_v28bss0h4k","5e3040a2d1a553000cc9147b","fixation","img/fixation.png","null","","test","","","","","",""
"380.40000000596046","262522","pSARL_v2","pSARL_v28bss0h4k","5e3040a2d1a553000cc9147b","infreq","img/orange_2bandit_b2.png","68","68","test","1","121","121","6","",""
"null","262956","pSARL_v2","pSARL_v28bss0h4k","5e3040a2d1a553000cc9147b","infreq_resp","img/orange_2bandit_b.png","68","68","test","","","","6","",""
"null","263114","pSARL_v2","pSARL_v28bss0h4k","5e3040a2d1a553000cc9147b","fixation","img/fixation.png","null","","test","","","","","",""
"402.7000000178814","263522","pSARL_v2","pSARL_v28bss0h4k","5e3040a2d1a553000cc9147b","infreq","img/orange_2bandit_b2.png","68","68","test","1","122","122","6","",""
"null","263938","pSARL_v2","pSARL_v28bss0h4k","5e3040a2d1a553000cc9147b","infreq_resp","img/orange_2bandit_b.png","68","68","test","","","","6","",""
"null","264109","pSARL_v2","pSARL_v28bss0h4k","5e3040a2d1a553000cc9147b","fixation","img/fixation.png","null","","test","","","","","",""
"312.09999999403954","264427","pSARL_v2","pSARL_v28bss0h4k","5e3040a2d1a553000cc9147b","freq","img/green_2bandit_b2.png","70","70","test","1","123","123","6","",""
"null","264928","pSARL_v2","pSARL_v28bss0h4k","5e3040a2d1a553000cc9147b","freq_resp","img/green_2bandit_b.png","70","70","test","","","","6","",""
"null","265085","pSARL_v2","pSARL_v28bss0h4k","5e3040a2d1a553000cc9147b","fixation","img/fixation.png","null","","test","","","","","",""
"303.59999999403954","265394","pSARL_v2","pSARL_v28bss0h4k","5e3040a2d1a553000cc9147b","freq","img/green_2bandit_b2.png","70","70","test","1","124","124","6","",""
"null","265904","pSARL_v2","pSARL_v28bss0h4k","5e3040a2d1a553000cc9147b","freq_resp","img/green_2bandit_b.png","70","70","test","","","","6","",""
"null","266062","pSARL_v2","pSARL_v28bss0h4k","5e3040a2d1a553000cc9147b","fixation","img/fixation.png","null","","test","","","","","",""
"294.30000001192093","266362","pSARL_v2","pSARL_v28bss0h4k","5e3040a2d1a553000cc9147b","freq","img/green_2bandit_b2.png","70","70","test","1","125","125","6","",""
"null","266883","pSARL_v2","pSARL_v28bss0h4k","5e3040a2d1a553000cc9147b","freq_resp","img/green_2bandit_b.png","70","70","test","","","","6","",""
"null","267039","pSARL_v2","pSARL_v28bss0h4k","5e3040a2d1a553000cc9147b","fixation","img/fixation.png","null","","test","","","","","",""
"294.2000000178814","267338","pSARL_v2","pSARL_v28bss0h4k","5e3040a2d1a553000cc9147b","freq","img/green_2bandit_b2.png","70","70","test","1","126","126","6","",""
"null","267850","pSARL_v2","pSARL_v28bss0h4k","5e3040a2d1a553000cc9147b","freq_resp","img/green_2bandit_b.png","70","70","test","","","","6","",""
"null","268006","pSARL_v2","pSARL_v28bss0h4k","5e3040a2d1a553000cc9147b","fixation","img/fixation.png","null","","test","","","","","",""
"262.19999998807907","268274","pSARL_v2","pSARL_v28bss0h4k","5e3040a2d1a553000cc9147b","freq","img/green_2bandit_b2.png","70","70","test","1","127","127","6","",""
"null","268826","pSARL_v2","pSARL_v28bss0h4k","5e3040a2d1a553000cc9147b","freq_resp","img/green_2bandit_b.png","70","70","test","","","","6","",""
"null","268985","pSARL_v2","pSARL_v28bss0h4k","5e3040a2d1a553000cc9147b","fixation","img/fixation.png","null","","test","","","","","",""
"507.7000000178814","269499","pSARL_v2","pSARL_v28bss0h4k","5e3040a2d1a553000cc9147b","reward","img/slot.png","74","","test","","","","","",""
"null","270253","pSARL_v2","pSARL_v28bss0h4k","5e3040a2d1a553000cc9147b","points","<div class=""verylowPoints""> -7 </div>","null","na","test","","","","6","-7","5"
"359.30000001192093","270618","pSARL_v2","pSARL_v28bss0h4k","5e3040a2d1a553000cc9147b","freq","img/green_2bandit_b2.png","70","70","test","1","128","128","7","",""
"null","271073","pSARL_v2","pSARL_v28bss0h4k","5e3040a2d1a553000cc9147b","freq_resp","img/green_2bandit_b.png","70","70","test","","","","7","",""
"null","271228","pSARL_v2","pSARL_v28bss0h4k","5e3040a2d1a553000cc9147b","fixation","img/fixation.png","null","","test","","","","","",""
"273.2000000178814","271507","pSARL_v2","pSARL_v28bss0h4k","5e3040a2d1a553000cc9147b","freq","img/green_2bandit_b2.png","70","70","test","1","129","129","7","",""
"null","272051","pSARL_v2","pSARL_v28bss0h4k","5e3040a2d1a553000cc9147b","freq_resp","img/green_2bandit_b.png","70","70","test","","","","7","",""
"null","272204","pSARL_v2","pSARL_v28bss0h4k","5e3040a2d1a553000cc9147b","fixation","img/fixation.png","null","","test","","","","","",""
"280.5","272491","pSARL_v2","pSARL_v28bss0h4k","5e3040a2d1a553000cc9147b","freq","img/green_2bandit_b2.png","70","70","test","1","130","130","7","",""
"null","273027","pSARL_v2","pSARL_v28bss0h4k","5e3040a2d1a553000cc9147b","freq_resp","img/green_2bandit_b.png","70","70","test","","","","7","",""
"null","273199","pSARL_v2","pSARL_v28bss0h4k","5e3040a2d1a553000cc9147b","fixation","img/fixation.png","null","","test","","","","","",""
"318.40000000596046","273522","pSARL_v2","pSARL_v28bss0h4k","5e3040a2d1a553000cc9147b","freq","img/green_2bandit_b2.png","70","70","test","1","131","131","7","",""
"null","274024","pSARL_v2","pSARL_v28bss0h4k","5e3040a2d1a553000cc9147b","freq_resp","img/green_2bandit_b.png","70","70","test","","","","7","",""
"null","274194","pSARL_v2","pSARL_v28bss0h4k","5e3040a2d1a553000cc9147b","fixation","img/fixation.png","null","","test","","","","","",""
"410.7999999821186","274611","pSARL_v2","pSARL_v28bss0h4k","5e3040a2d1a553000cc9147b","infreq","img/orange_2bandit_b2.png","68","68","test","1","132","132","7","",""
"null","275017","pSARL_v2","pSARL_v28bss0h4k","5e3040a2d1a553000cc9147b","infreq_resp","img/orange_2bandit_b.png","68","68","test","","","","7","",""
"null","275189","pSARL_v2","pSARL_v28bss0h4k","5e3040a2d1a553000cc9147b","fixation","img/fixation.png","null","","test","","","","","",""
"384.40000000596046","275579","pSARL_v2","pSARL_v28bss0h4k","5e3040a2d1a553000cc9147b","freq","img/green_2bandit_b2.png","70","70","test","1","133","133","7","",""
"null","276007","pSARL_v2","pSARL_v28bss0h4k","5e3040a2d1a553000cc9147b","freq_resp","img/green_2bandit_b.png","70","70","test","","","","7","",""
"null","276177","pSARL_v2","pSARL_v28bss0h4k","5e3040a2d1a553000cc9147b","fixation","img/fixation.png","null","","test","","","","","",""
"387.7000000178814","276570","pSARL_v2","pSARL_v28bss0h4k","5e3040a2d1a553000cc9147b","freq","img/green_2bandit_b2.png","70","70","test","1","134","134","7","",""
"null","276995","pSARL_v2","pSARL_v28bss0h4k","5e3040a2d1a553000cc9147b","freq_resp","img/green_2bandit_b.png","70","70","test","","","","7","",""
"null","277152","pSARL_v2","pSARL_v28bss0h4k","5e3040a2d1a553000cc9147b","fixation","img/fixation.png","null","","test","","","","","",""
"300.09999999403954","277458","pSARL_v2","pSARL_v28bss0h4k","5e3040a2d1a553000cc9147b","freq","img/green_2bandit_b2.png","70","70","test","1","135","135","7","",""
"null","277969","pSARL_v2","pSARL_v28bss0h4k","5e3040a2d1a553000cc9147b","freq_resp","img/green_2bandit_b.png","70","70","test","","","","7","",""
"null","278141","pSARL_v2","pSARL_v28bss0h4k","5e3040a2d1a553000cc9147b","fixation","img/fixation.png","null","","test","","","","","",""
"406.10000002384186","278551","pSARL_v2","pSARL_v28bss0h4k","5e3040a2d1a553000cc9147b","infreq","img/orange_2bandit_b2.png","68","68","test","1","136","136","7","",""
"null","278962","pSARL_v2","pSARL_v28bss0h4k","5e3040a2d1a553000cc9147b","infreq_resp","img/orange_2bandit_b.png","68","68","test","","","","7","",""
"null","279119","pSARL_v2","pSARL_v28bss0h4k","5e3040a2d1a553000cc9147b","fixation","img/fixation.png","null","","test","","","","","",""
"317.60000002384186","279442","pSARL_v2","pSARL_v28bss0h4k","5e3040a2d1a553000cc9147b","freq","img/green_2bandit_b2.png","70","70","test","1","137","137","7","",""
"null","279941","pSARL_v2","pSARL_v28bss0h4k","5e3040a2d1a553000cc9147b","freq_resp","img/green_2bandit_b.png","70","70","test","","","","7","",""
"null","280111","pSARL_v2","pSARL_v28bss0h4k","5e3040a2d1a553000cc9147b","fixation","img/fixation.png","null","","test","","","","","",""
"293.5","280410","pSARL_v2","pSARL_v28bss0h4k","5e3040a2d1a553000cc9147b","freq","img/green_2bandit_b2.png","70","70","test","1","138","138","7","",""
"null","280928","pSARL_v2","pSARL_v28bss0h4k","5e3040a2d1a553000cc9147b","freq_resp","img/green_2bandit_b.png","70","70","test","","","","7","",""
"null","281098","pSARL_v2","pSARL_v28bss0h4k","5e3040a2d1a553000cc9147b","fixation","img/fixation.png","null","","test","","","","","",""
"266.2999999821186","281370","pSARL_v2","pSARL_v28bss0h4k","5e3040a2d1a553000cc9147b","freq","img/green_2bandit_b2.png","70","70","test","1","139","139","7","",""
"null","281916","pSARL_v2","pSARL_v28bss0h4k","5e3040a2d1a553000cc9147b","freq_resp","img/green_2bandit_b.png","70","70","test","","","","7","",""
"null","282072","pSARL_v2","pSARL_v28bss0h4k","5e3040a2d1a553000cc9147b","fixation","img/fixation.png","null","","test","","","","","",""
"308.09999999403954","282383","pSARL_v2","pSARL_v28bss0h4k","5e3040a2d1a553000cc9147b","freq","img/green_2bandit_b2.png","70","70","test","1","140","140","7","",""
"null","282880","pSARL_v2","pSARL_v28bss0h4k","5e3040a2d1a553000cc9147b","freq_resp","img/green_2bandit_b.png","70","70","test","","","","7","",""
"null","283051","pSARL_v2","pSARL_v28bss0h4k","5e3040a2d1a553000cc9147b","fixation","img/fixation.png","null","","test","","","","","",""
"328.90000000596046","283383","pSARL_v2","pSARL_v28bss0h4k","5e3040a2d1a553000cc9147b","freq","img/green_2bandit_b2.png","70","70","test","1","141","141","7","",""
"null","283875","pSARL_v2","pSARL_v28bss0h4k","5e3040a2d1a553000cc9147b","freq_resp","img/green_2bandit_b.png","70","70","test","","","","7","",""
"null","284045","pSARL_v2","pSARL_v28bss0h4k","5e3040a2d1a553000cc9147b","fixation","img/fixation.png","null","","test","","","","","",""
"303","284351","pSARL_v2","pSARL_v28bss0h4k","5e3040a2d1a553000cc9147b","freq","img/green_2bandit_b2.png","70","70","test","1","142","142","7","",""
"null","284867","pSARL_v2","pSARL_v28bss0h4k","5e3040a2d1a553000cc9147b","freq_resp","img/green_2bandit_b.png","70","70","test","","","","7","",""
"null","285037","pSARL_v2","pSARL_v28bss0h4k","5e3040a2d1a553000cc9147b","fixation","img/fixation.png","null","","test","","","","","",""
"311","285351","pSARL_v2","pSARL_v28bss0h4k","5e3040a2d1a553000cc9147b","freq","img/green_2bandit_b2.png","70","70","test","1","143","143","7","",""
"null","285859","pSARL_v2","pSARL_v28bss0h4k","5e3040a2d1a553000cc9147b","freq_resp","img/green_2bandit_b.png","70","70","test","","","","7","",""
"null","286018","pSARL_v2","pSARL_v28bss0h4k","5e3040a2d1a553000cc9147b","fixation","img/fixation.png","null","","test","","","","","",""
"313.7999999821186","286335","pSARL_v2","pSARL_v28bss0h4k","5e3040a2d1a553000cc9147b","freq","img/green_2bandit_b2.png","70","70","test","1","144","144","7","",""
"null","286835","pSARL_v2","pSARL_v28bss0h4k","5e3040a2d1a553000cc9147b","freq_resp","img/green_2bandit_b.png","70","70","test","","","","7","",""
"null","286992","pSARL_v2","pSARL_v28bss0h4k","5e3040a2d1a553000cc9147b","fixation","img/fixation.png","null","","test","","","","","",""
"339.59999999403954","287335","pSARL_v2","pSARL_v28bss0h4k","5e3040a2d1a553000cc9147b","freq","img/green_2bandit_b2.png","70","70","test","1","145","145","7","",""
"null","287813","pSARL_v2","pSARL_v28bss0h4k","5e3040a2d1a553000cc9147b","freq_resp","img/green_2bandit_b.png","70","70","test","","","","7","",""
"null","287969","pSARL_v2","pSARL_v28bss0h4k","5e3040a2d1a553000cc9147b","fixation","img/fixation.png","null","","test","","","","","",""
"354.7999999821186","288327","pSARL_v2","pSARL_v28bss0h4k","5e3040a2d1a553000cc9147b","freq","img/green_2bandit_b2.png","70","70","test","1","146","146","7","",""
"null","288791","pSARL_v2","pSARL_v28bss0h4k","5e3040a2d1a553000cc9147b","freq_resp","img/green_2bandit_b.png","70","70","test","","","","7","",""
"null","288959","pSARL_v2","pSARL_v28bss0h4k","5e3040a2d1a553000cc9147b","fixation","img/fixation.png","null","","test","","","","","",""
"309.59999999403954","289274","pSARL_v2","pSARL_v28bss0h4k","5e3040a2d1a553000cc9147b","freq","img/green_2bandit_b2.png","70","70","test","1","147","147","7","",""
"null","289782","pSARL_v2","pSARL_v28bss0h4k","5e3040a2d1a553000cc9147b","freq_resp","img/green_2bandit_b.png","70","70","test","","","","7","",""
"null","289953","pSARL_v2","pSARL_v28bss0h4k","5e3040a2d1a553000cc9147b","fixation","img/fixation.png","null","","test","","","","","",""
"315","290271","pSARL_v2","pSARL_v28bss0h4k","5e3040a2d1a553000cc9147b","freq","img/green_2bandit_b2.png","70","70","test","1","148","148","7","",""
"null","290763","pSARL_v2","pSARL_v28bss0h4k","5e3040a2d1a553000cc9147b","freq_resp","img/green_2bandit_b.png","70","70","test","","","","7","",""
"null","290934","pSARL_v2","pSARL_v28bss0h4k","5e3040a2d1a553000cc9147b","fixation","img/fixation.png","null","","test","","","","","",""
"438.2000000178814","291376","pSARL_v2","pSARL_v28bss0h4k","5e3040a2d1a553000cc9147b","reward","img/slot.png","74","","test","","","","","",""
"null","292143","pSARL_v2","pSARL_v28bss0h4k","5e3040a2d1a553000cc9147b","points","<div class=""verylowPoints""> -6 </div>","null","na","test","","","","7","-6","6"
"317.7000000178814","292466","pSARL_v2","pSARL_v28bss0h4k","5e3040a2d1a553000cc9147b","freq","img/green_2bandit_b2.png","70","70","test","1","149","149","8","",""
"null","292962","pSARL_v2","pSARL_v28bss0h4k","5e3040a2d1a553000cc9147b","freq_resp","img/green_2bandit_b.png","70","70","test","","","","8","",""
"null","293120","pSARL_v2","pSARL_v28bss0h4k","5e3040a2d1a553000cc9147b","fixation","img/fixation.png","null","","test","","","","","",""
"300.5","293426","pSARL_v2","pSARL_v28bss0h4k","5e3040a2d1a553000cc9147b","freq","img/green_2bandit_b2.png","70","70","test","1","150","150","8","",""
"null","293940","pSARL_v2","pSARL_v28bss0h4k","5e3040a2d1a553000cc9147b","freq_resp","img/green_2bandit_b.png","70","70","test","","","","8","",""
"null","294111","pSARL_v2","pSARL_v28bss0h4k","5e3040a2d1a553000cc9147b","fixation","img/fixation.png","null","","test","","","","","",""
"333.30000001192093","294450","pSARL_v2","pSARL_v28bss0h4k","5e3040a2d1a553000cc9147b","freq","img/green_2bandit_b2.png","70","70","test","1","151","151","8","",""
"null","294933","pSARL_v2","pSARL_v28bss0h4k","5e3040a2d1a553000cc9147b","freq_resp","img/green_2bandit_b.png","70","70","test","","","","8","",""
"null","295102","pSARL_v2","pSARL_v28bss0h4k","5e3040a2d1a553000cc9147b","fixation","img/fixation.png","null","","test","","","","","",""
"285.7999999821186","295391","pSARL_v2","pSARL_v28bss0h4k","5e3040a2d1a553000cc9147b","freq","img/green_2bandit_b2.png","70","70","test","1","152","152","8","",""
"null","295923","pSARL_v2","pSARL_v28bss0h4k","5e3040a2d1a553000cc9147b","freq_resp","img/green_2bandit_b.png","70","70","test","","","","8","",""
"null","296077","pSARL_v2","pSARL_v28bss0h4k","5e3040a2d1a553000cc9147b","fixation","img/fixation.png","null","","test","","","","","",""
"326.89999997615814","296407","pSARL_v2","pSARL_v28bss0h4k","5e3040a2d1a553000cc9147b","freq","img/green_2bandit_b2.png","70","70","test","1","153","153","8","",""
"null","296901","pSARL_v2","pSARL_v28bss0h4k","5e3040a2d1a553000cc9147b","freq_resp","img/green_2bandit_b.png","70","70","test","","","","8","",""
"null","297069","pSARL_v2","pSARL_v28bss0h4k","5e3040a2d1a553000cc9147b","fixation","img/fixation.png","null","","test","","","","","",""
"303.39999997615814","297379","pSARL_v2","pSARL_v28bss0h4k","5e3040a2d1a553000cc9147b","freq","img/green_2bandit_b2.png","70","70","test","1","154","154","8","",""
"null","297891","pSARL_v2","pSARL_v28bss0h4k","5e3040a2d1a553000cc9147b","freq_resp","img/green_2bandit_b.png","70","70","test","","","","8","",""
"null","298058","pSARL_v2","pSARL_v28bss0h4k","5e3040a2d1a553000cc9147b","fixation","img/fixation.png","null","","test","","","","","",""
"290.19999998807907","298351","pSARL_v2","pSARL_v28bss0h4k","5e3040a2d1a553000cc9147b","freq","img/green_2bandit_b2.png","70","70","test","1","155","155","8","",""
"null","298867","pSARL_v2","pSARL_v28bss0h4k","5e3040a2d1a553000cc9147b","freq_resp","img/green_2bandit_b.png","70","70","test","","","","8","",""
"null","299034","pSARL_v2","pSARL_v28bss0h4k","5e3040a2d1a553000cc9147b","fixation","img/fixation.png","null","","test","","","","","",""
"305.69999998807907","299344","pSARL_v2","pSARL_v28bss0h4k","5e3040a2d1a553000cc9147b","freq","img/green_2bandit_b2.png","70","70","test","1","156","156","8","",""
"null","299844","pSARL_v2","pSARL_v28bss0h4k","5e3040a2d1a553000cc9147b","freq_resp","img/green_2bandit_b.png","70","70","test","","","","8","",""
"null","300014","pSARL_v2","pSARL_v28bss0h4k","5e3040a2d1a553000cc9147b","fixation","img/fixation.png","null","","test","","","","","",""
"294.59999999403954","300314","pSARL_v2","pSARL_v28bss0h4k","5e3040a2d1a553000cc9147b","freq","img/green_2bandit_b2.png","70","70","test","1","157","157","8","",""
"null","300835","pSARL_v2","pSARL_v28bss0h4k","5e3040a2d1a553000cc9147b","freq_resp","img/green_2bandit_b.png","70","70","test","","","","8","",""
"null","301004","pSARL_v2","pSARL_v28bss0h4k","5e3040a2d1a553000cc9147b","fixation","img/fixation.png","null","","test","","","","","",""
"392.2000000178814","301402","pSARL_v2","pSARL_v28bss0h4k","5e3040a2d1a553000cc9147b","infreq","img/orange_2bandit_b2.png","68","68","test","1","158","158","8","",""
"null","301826","pSARL_v2","pSARL_v28bss0h4k","5e3040a2d1a553000cc9147b","infreq_resp","img/orange_2bandit_b.png","68","68","test","","","","8","",""
"null","301996","pSARL_v2","pSARL_v28bss0h4k","5e3040a2d1a553000cc9147b","fixation","img/fixation.png","null","","test","","","","","",""
"337.19999998807907","302339","pSARL_v2","pSARL_v28bss0h4k","5e3040a2d1a553000cc9147b","freq","img/green_2bandit_b2.png","70","70","test","1","159","159","8","",""
"null","302817","pSARL_v2","pSARL_v28bss0h4k","5e3040a2d1a553000cc9147b","freq_resp","img/green_2bandit_b.png","70","70","test","","","","8","",""
"null","302986","pSARL_v2","pSARL_v28bss0h4k","5e3040a2d1a553000cc9147b","fixation","img/fixation.png","null","","test","","","","","",""
"282.2000000178814","303274","pSARL_v2","pSARL_v28bss0h4k","5e3040a2d1a553000cc9147b","freq","img/green_2bandit_b2.png","70","70","test","1","160","160","8","",""
"null","303812","pSARL_v2","pSARL_v28bss0h4k","5e3040a2d1a553000cc9147b","freq_resp","img/green_2bandit_b.png","70","70","test","","","","8","",""
"null","303983","pSARL_v2","pSARL_v28bss0h4k","5e3040a2d1a553000cc9147b","fixation","img/fixation.png","null","","test","","","","","",""
"308.5","304298","pSARL_v2","pSARL_v28bss0h4k","5e3040a2d1a553000cc9147b","freq","img/green_2bandit_b2.png","70","70","test","1","161","161","8","",""
"null","304799","pSARL_v2","pSARL_v28bss0h4k","5e3040a2d1a553000cc9147b","freq_resp","img/green_2bandit_b.png","70","70","test","","","","8","",""
"null","304955","pSARL_v2","pSARL_v28bss0h4k","5e3040a2d1a553000cc9147b","fixation","img/fixation.png","null","","test","","","","","",""
"320.90000000596046","305282","pSARL_v2","pSARL_v28bss0h4k","5e3040a2d1a553000cc9147b","freq","img/green_2bandit_b2.png","70","70","test","1","162","162","8","",""
"null","305775","pSARL_v2","pSARL_v28bss0h4k","5e3040a2d1a553000cc9147b","freq_resp","img/green_2bandit_b.png","70","70","test","","","","8","",""
"null","305948","pSARL_v2","pSARL_v28bss0h4k","5e3040a2d1a553000cc9147b","fixation","img/fixation.png","null","","test","","","","","",""
"343.19999998807907","306299","pSARL_v2","pSARL_v28bss0h4k","5e3040a2d1a553000cc9147b","freq","img/green_2bandit_b2.png","70","70","test","1","163","163","8","",""
"null","306765","pSARL_v2","pSARL_v28bss0h4k","5e3040a2d1a553000cc9147b","freq_resp","img/green_2bandit_b.png","70","70","test","","","","8","",""
"null","306922","pSARL_v2","pSARL_v28bss0h4k","5e3040a2d1a553000cc9147b","fixation","img/fixation.png","null","","test","","","","","",""
"288.90000000596046","307218","pSARL_v2","pSARL_v28bss0h4k","5e3040a2d1a553000cc9147b","freq","img/green_2bandit_b2.png","70","70","test","1","164","164","8","",""
"null","307750","pSARL_v2","pSARL_v28bss0h4k","5e3040a2d1a553000cc9147b","freq_resp","img/green_2bandit_b.png","70","70","test","","","","8","",""
"null","307921","pSARL_v2","pSARL_v28bss0h4k","5e3040a2d1a553000cc9147b","fixation","img/fixation.png","null","","test","","","","","",""
"307.39999997615814","308234","pSARL_v2","pSARL_v28bss0h4k","5e3040a2d1a553000cc9147b","freq","img/green_2bandit_b2.png","70","70","test","1","165","165","8","",""
"null","308741","pSARL_v2","pSARL_v28bss0h4k","5e3040a2d1a553000cc9147b","freq_resp","img/green_2bandit_b.png","70","70","test","","","","8","",""
"null","308914","pSARL_v2","pSARL_v28bss0h4k","5e3040a2d1a553000cc9147b","fixation","img/fixation.png","null","","test","","","","","",""
"345.60000002384186","309266","pSARL_v2","pSARL_v28bss0h4k","5e3040a2d1a553000cc9147b","freq","img/green_2bandit_b2.png","70","70","test","1","166","166","8","",""
"null","309733","pSARL_v2","pSARL_v28bss0h4k","5e3040a2d1a553000cc9147b","freq_resp","img/green_2bandit_b.png","70","70","test","","","","8","",""
"null","309903","pSARL_v2","pSARL_v28bss0h4k","5e3040a2d1a553000cc9147b","fixation","img/fixation.png","null","","test","","","","","",""
"308.5","310218","pSARL_v2","pSARL_v28bss0h4k","5e3040a2d1a553000cc9147b","freq","img/green_2bandit_b2.png","70","70","test","1","167","167","8","",""
"null","310724","pSARL_v2","pSARL_v28bss0h4k","5e3040a2d1a553000cc9147b","freq_resp","img/green_2bandit_b.png","70","70","test","","","","8","",""
"null","310880","pSARL_v2","pSARL_v28bss0h4k","5e3040a2d1a553000cc9147b","fixation","img/fixation.png","null","","test","","","","","",""
"306.19999998807907","311190","pSARL_v2","pSARL_v28bss0h4k","5e3040a2d1a553000cc9147b","freq","img/green_2bandit_b2.png","70","70","test","1","168","168","8","",""
"null","311701","pSARL_v2","pSARL_v28bss0h4k","5e3040a2d1a553000cc9147b","freq_resp","img/green_2bandit_b.png","70","70","test","","","","8","",""
"null","311859","pSARL_v2","pSARL_v28bss0h4k","5e3040a2d1a553000cc9147b","fixation","img/fixation.png","null","","test","","","","","",""
"312.60000002384186","312178","pSARL_v2","pSARL_v28bss0h4k","5e3040a2d1a553000cc9147b","freq","img/green_2bandit_b2.png","70","70","test","1","169","169","8","",""
"null","312677","pSARL_v2","pSARL_v28bss0h4k","5e3040a2d1a553000cc9147b","freq_resp","img/green_2bandit_b.png","70","70","test","","","","8","",""
"null","312836","pSARL_v2","pSARL_v28bss0h4k","5e3040a2d1a553000cc9147b","fixation","img/fixation.png","null","","test","","","","","",""
"424.59999999403954","313266","pSARL_v2","pSARL_v28bss0h4k","5e3040a2d1a553000cc9147b","infreq","img/orange_2bandit_b2.png","68","68","test","1","170","170","8","",""
"null","313653","pSARL_v2","pSARL_v28bss0h4k","5e3040a2d1a553000cc9147b","infreq_resp","img/orange_2bandit_b.png","68","68","test","","","","8","",""
"null","313811","pSARL_v2","pSARL_v28bss0h4k","5e3040a2d1a553000cc9147b","fixation","img/fixation.png","null","","test","","","","","",""
"329.2000000178814","314146","pSARL_v2","pSARL_v28bss0h4k","5e3040a2d1a553000cc9147b","freq","img/green_2bandit_b2.png","70","70","test","1","171","171","8","",""
"null","314629","pSARL_v2","pSARL_v28bss0h4k","5e3040a2d1a553000cc9147b","freq_resp","img/green_2bandit_b.png","70","70","test","","","","8","",""
"null","314788","pSARL_v2","pSARL_v28bss0h4k","5e3040a2d1a553000cc9147b","fixation","img/fixation.png","null","","test","","","","","",""
"270.90000000596046","315062","pSARL_v2","pSARL_v28bss0h4k","5e3040a2d1a553000cc9147b","freq","img/green_2bandit_b2.png","70","70","test","1","172","172","8","",""
"null","315596","pSARL_v2","pSARL_v28bss0h4k","5e3040a2d1a553000cc9147b","freq_resp","img/green_2bandit_b.png","70","70","test","","","","8","",""
"null","315754","pSARL_v2","pSARL_v28bss0h4k","5e3040a2d1a553000cc9147b","fixation","img/fixation.png","null","","test","","","","","",""
"266.5","316026","pSARL_v2","pSARL_v28bss0h4k","5e3040a2d1a553000cc9147b","freq","img/green_2bandit_b2.png","70","70","test","1","173","173","8","",""
"null","316575","pSARL_v2","pSARL_v28bss0h4k","5e3040a2d1a553000cc9147b","freq_resp","img/green_2bandit_b.png","70","70","test","","","","8","",""
"null","316734","pSARL_v2","pSARL_v28bss0h4k","5e3040a2d1a553000cc9147b","fixation","img/fixation.png","null","","test","","","","","",""
"525.5999999940395","317266","pSARL_v2","pSARL_v28bss0h4k","5e3040a2d1a553000cc9147b","reward","img/slot.png","74","","test","","","","","",""
"null","318024","pSARL_v2","pSARL_v28bss0h4k","5e3040a2d1a553000cc9147b","points","<div class=""verylowPoints""> -4 </div>","null","na","test","","","","8","-4","7"
"356.5","318385","pSARL_v2","pSARL_v28bss0h4k","5e3040a2d1a553000cc9147b","freq","img/green_2bandit_b2.png","70","70","test","1","174","174","9","",""
"null","318844","pSARL_v2","pSARL_v28bss0h4k","5e3040a2d1a553000cc9147b","freq_resp","img/green_2bandit_b.png","70","70","test","","","","9","",""
"null","319015","pSARL_v2","pSARL_v28bss0h4k","5e3040a2d1a553000cc9147b","fixation","img/fixation.png","null","","test","","","","","",""
"316.40000000596046","319339","pSARL_v2","pSARL_v28bss0h4k","5e3040a2d1a553000cc9147b","freq","img/green_2bandit_b2.png","70","70","test","1","175","175","9","",""
"null","319837","pSARL_v2","pSARL_v28bss0h4k","5e3040a2d1a553000cc9147b","freq_resp","img/green_2bandit_b.png","70","70","test","","","","9","",""
"null","320009","pSARL_v2","pSARL_v28bss0h4k","5e3040a2d1a553000cc9147b","fixation","img/fixation.png","null","","test","","","","","",""
"489.40000000596046","320505","pSARL_v2","pSARL_v28bss0h4k","5e3040a2d1a553000cc9147b","infreq","img/orange_2bandit_b2.png","68","68","test","1","176","176","9","",""
"null","320829","pSARL_v2","pSARL_v28bss0h4k","5e3040a2d1a553000cc9147b","infreq_resp","img/orange_2bandit_b.png","68","68","test","","","","9","",""
"null","320998","pSARL_v2","pSARL_v28bss0h4k","5e3040a2d1a553000cc9147b","fixation","img/fixation.png","null","","test","","","","","",""
"390.40000000596046","321391","pSARL_v2","pSARL_v28bss0h4k","5e3040a2d1a553000cc9147b","freq","img/green_2bandit_b2.png","70","70","test","1","177","177","9","",""
"null","321820","pSARL_v2","pSARL_v28bss0h4k","5e3040a2d1a553000cc9147b","freq_resp","img/green_2bandit_b.png","70","70","test","","","","9","",""
"null","321991","pSARL_v2","pSARL_v28bss0h4k","5e3040a2d1a553000cc9147b","fixation","img/fixation.png","null","","test","","","","","",""
"381.30000001192093","322379","pSARL_v2","pSARL_v28bss0h4k","5e3040a2d1a553000cc9147b","freq","img/green_2bandit_b2.png","70","70","test","1","178","178","9","",""
"null","322816","pSARL_v2","pSARL_v28bss0h4k","5e3040a2d1a553000cc9147b","freq_resp","img/green_2bandit_b.png","70","70","test","","","","9","",""
"null","322986","pSARL_v2","pSARL_v28bss0h4k","5e3040a2d1a553000cc9147b","fixation","img/fixation.png","null","","test","","","","","",""
"281","323271","pSARL_v2","pSARL_v28bss0h4k","5e3040a2d1a553000cc9147b","freq","img/green_2bandit_b2.png","70","70","test","1","179","179","9","",""
"null","323806","pSARL_v2","pSARL_v28bss0h4k","5e3040a2d1a553000cc9147b","freq_resp","img/green_2bandit_b.png","70","70","test","","","","9","",""
"null","323976","pSARL_v2","pSARL_v28bss0h4k","5e3040a2d1a553000cc9147b","fixation","img/fixation.png","null","","test","","","","","",""
"290.90000000596046","324270","pSARL_v2","pSARL_v28bss0h4k","5e3040a2d1a553000cc9147b","infreq","img/orange_2bandit_b2.png","70","68","test","0","180","180","9","",""
"null","324799","pSARL_v2","pSARL_v28bss0h4k","5e3040a2d1a553000cc9147b","infreq_resp","img/orange_2bandit_b.png","70","68","test","","","","9","",""
"null","324971","pSARL_v2","pSARL_v28bss0h4k","5e3040a2d1a553000cc9147b","fixation","img/fixation.png","null","","test","","","","","",""
"383.90000000596046","325358","pSARL_v2","pSARL_v28bss0h4k","5e3040a2d1a553000cc9147b","freq","img/green_2bandit_b2.png","70","70","test","1","181","181","9","",""
"null","325791","pSARL_v2","pSARL_v28bss0h4k","5e3040a2d1a553000cc9147b","freq_resp","img/green_2bandit_b.png","70","70","test","","","","9","",""
"null","325948","pSARL_v2","pSARL_v28bss0h4k","5e3040a2d1a553000cc9147b","fixation","img/fixation.png","null","","test","","","","","",""
"319.30000001192093","326274","pSARL_v2","pSARL_v28bss0h4k","5e3040a2d1a553000cc9147b","freq","img/green_2bandit_b2.png","70","70","test","1","182","182","9","",""
"null","326768","pSARL_v2","pSARL_v28bss0h4k","5e3040a2d1a553000cc9147b","freq_resp","img/green_2bandit_b.png","70","70","test","","","","9","",""
"null","326940","pSARL_v2","pSARL_v28bss0h4k","5e3040a2d1a553000cc9147b","fixation","img/fixation.png","null","","test","","","","","",""
"407.69999998807907","327355","pSARL_v2","pSARL_v28bss0h4k","5e3040a2d1a553000cc9147b","infreq","img/orange_2bandit_b2.png","68","68","test","1","183","183","9","",""
"null","327761","pSARL_v2","pSARL_v28bss0h4k","5e3040a2d1a553000cc9147b","infreq_resp","img/orange_2bandit_b.png","68","68","test","","","","9","",""
"null","327928","pSARL_v2","pSARL_v28bss0h4k","5e3040a2d1a553000cc9147b","fixation","img/fixation.png","null","","test","","","","","",""
"420","328354","pSARL_v2","pSARL_v28bss0h4k","5e3040a2d1a553000cc9147b","freq","img/green_2bandit_b2.png","70","70","test","1","184","184","9","",""
"null","328742","pSARL_v2","pSARL_v28bss0h4k","5e3040a2d1a553000cc9147b","freq_resp","img/green_2bandit_b.png","70","70","test","","","","9","",""
"null","328913","pSARL_v2","pSARL_v28bss0h4k","5e3040a2d1a553000cc9147b","fixation","img/fixation.png","null","","test","","","","","",""
"306.7000000178814","329222","pSARL_v2","pSARL_v28bss0h4k","5e3040a2d1a553000cc9147b","freq","img/green_2bandit_b2.png","70","70","test","1","185","185","9","",""
"null","329720","pSARL_v2","pSARL_v28bss0h4k","5e3040a2d1a553000cc9147b","freq_resp","img/green_2bandit_b.png","70","70","test","","","","9","",""
"null","329878","pSARL_v2","pSARL_v28bss0h4k","5e3040a2d1a553000cc9147b","fixation","img/fixation.png","null","","test","","","","","",""
"286.19999998807907","330170","pSARL_v2","pSARL_v28bss0h4k","5e3040a2d1a553000cc9147b","freq","img/green_2bandit_b2.png","70","70","test","1","186","186","9","",""
"null","330699","pSARL_v2","pSARL_v28bss0h4k","5e3040a2d1a553000cc9147b","freq_resp","img/green_2bandit_b.png","70","70","test","","","","9","",""
"null","330856","pSARL_v2","pSARL_v28bss0h4k","5e3040a2d1a553000cc9147b","fixation","img/fixation.png","null","","test","","","","","",""
"300.5","331160","pSARL_v2","pSARL_v28bss0h4k","5e3040a2d1a553000cc9147b","freq","img/green_2bandit_b2.png","70","70","test","1","187","187","9","",""
"null","331675","pSARL_v2","pSARL_v28bss0h4k","5e3040a2d1a553000cc9147b","freq_resp","img/green_2bandit_b.png","70","70","test","","","","9","",""
"null","331835","pSARL_v2","pSARL_v28bss0h4k","5e3040a2d1a553000cc9147b","fixation","img/fixation.png","null","","test","","","","","",""
"303.90000000596046","332146","pSARL_v2","pSARL_v28bss0h4k","5e3040a2d1a553000cc9147b","freq","img/green_2bandit_b2.png","70","70","test","1","188","188","9","",""
"null","332659","pSARL_v2","pSARL_v28bss0h4k","5e3040a2d1a553000cc9147b","freq_resp","img/green_2bandit_b.png","70","70","test","","","","9","",""
"null","332830","pSARL_v2","pSARL_v28bss0h4k","5e3040a2d1a553000cc9147b","fixation","img/fixation.png","null","","test","","","","","",""
"341.09999999403954","333174","pSARL_v2","pSARL_v28bss0h4k","5e3040a2d1a553000cc9147b","freq","img/green_2bandit_b2.png","70","70","test","1","189","189","9","",""
"null","333653","pSARL_v2","pSARL_v28bss0h4k","5e3040a2d1a553000cc9147b","freq_resp","img/green_2bandit_b.png","70","70","test","","","","9","",""
"null","333811","pSARL_v2","pSARL_v28bss0h4k","5e3040a2d1a553000cc9147b","fixation","img/fixation.png","null","","test","","","","","",""
"296.5","334114","pSARL_v2","pSARL_v28bss0h4k","5e3040a2d1a553000cc9147b","freq","img/green_2bandit_b2.png","70","70","test","1","190","190","9","",""
"null","334633","pSARL_v2","pSARL_v28bss0h4k","5e3040a2d1a553000cc9147b","freq_resp","img/green_2bandit_b.png","70","70","test","","","","9","",""
"null","334803","pSARL_v2","pSARL_v28bss0h4k","5e3040a2d1a553000cc9147b","fixation","img/fixation.png","null","","test","","","","","",""
"304","335111","pSARL_v2","pSARL_v28bss0h4k","5e3040a2d1a553000cc9147b","freq","img/green_2bandit_b2.png","70","70","test","1","191","191","9","",""
"null","335628","pSARL_v2","pSARL_v28bss0h4k","5e3040a2d1a553000cc9147b","freq_resp","img/green_2bandit_b.png","70","70","test","","","","9","",""
"null","335798","pSARL_v2","pSARL_v28bss0h4k","5e3040a2d1a553000cc9147b","fixation","img/fixation.png","null","","test","","","","","",""
"318.5","336122","pSARL_v2","pSARL_v28bss0h4k","5e3040a2d1a553000cc9147b","freq","img/green_2bandit_b2.png","70","70","test","1","192","192","9","",""
"null","336620","pSARL_v2","pSARL_v28bss0h4k","5e3040a2d1a553000cc9147b","freq_resp","img/green_2bandit_b.png","70","70","test","","","","9","",""
"null","336788","pSARL_v2","pSARL_v28bss0h4k","5e3040a2d1a553000cc9147b","fixation","img/fixation.png","null","","test","","","","","",""
"311.89999997615814","337106","pSARL_v2","pSARL_v28bss0h4k","5e3040a2d1a553000cc9147b","freq","img/green_2bandit_b2.png","70","70","test","1","193","193","9","",""
"null","337614","pSARL_v2","pSARL_v28bss0h4k","5e3040a2d1a553000cc9147b","freq_resp","img/green_2bandit_b.png","70","70","test","","","","9","",""
"null","337784","pSARL_v2","pSARL_v28bss0h4k","5e3040a2d1a553000cc9147b","fixation","img/fixation.png","null","","test","","","","","",""
"291.80000001192093","338081","pSARL_v2","pSARL_v28bss0h4k","5e3040a2d1a553000cc9147b","freq","img/green_2bandit_b2.png","70","70","test","1","194","194","9","",""
"null","338606","pSARL_v2","pSARL_v28bss0h4k","5e3040a2d1a553000cc9147b","freq_resp","img/green_2bandit_b.png","70","70","test","","","","9","",""
"null","338776","pSARL_v2","pSARL_v28bss0h4k","5e3040a2d1a553000cc9147b","fixation","img/fixation.png","null","","test","","","","","",""
"307.7000000178814","339090","pSARL_v2","pSARL_v28bss0h4k","5e3040a2d1a553000cc9147b","freq","img/green_2bandit_b2.png","70","70","test","1","195","195","9","",""
"null","339598","pSARL_v2","pSARL_v28bss0h4k","5e3040a2d1a553000cc9147b","freq_resp","img/green_2bandit_b.png","70","70","test","","","","9","",""
"null","339767","pSARL_v2","pSARL_v28bss0h4k","5e3040a2d1a553000cc9147b","fixation","img/fixation.png","null","","test","","","","","",""
"284.5","340058","pSARL_v2","pSARL_v28bss0h4k","5e3040a2d1a553000cc9147b","freq","img/green_2bandit_b2.png","70","70","test","1","196","196","9","",""
"null","340593","pSARL_v2","pSARL_v28bss0h4k","5e3040a2d1a553000cc9147b","freq_resp","img/green_2bandit_b.png","70","70","test","","","","9","",""
"null","340763","pSARL_v2","pSARL_v28bss0h4k","5e3040a2d1a553000cc9147b","fixation","img/fixation.png","null","","test","","","","","",""
"449","341218","pSARL_v2","pSARL_v28bss0h4k","5e3040a2d1a553000cc9147b","reward","img/slot.png","74","","test","","","","","",""
"null","341986","pSARL_v2","pSARL_v28bss0h4k","5e3040a2d1a553000cc9147b","points","<div class=""verylowPoints""> -3 </div>","null","na","test","","","","9","-3","8"
"353.7999999821186","342342","pSARL_v2","pSARL_v28bss0h4k","5e3040a2d1a553000cc9147b","freq","img/green_2bandit_b2.png","70","70","test","1","197","197","10","",""
"null","342809","pSARL_v2","pSARL_v28bss0h4k","5e3040a2d1a553000cc9147b","freq_resp","img/green_2bandit_b.png","70","70","test","","","","10","",""
"null","342978","pSARL_v2","pSARL_v28bss0h4k","5e3040a2d1a553000cc9147b","fixation","img/fixation.png","null","","test","","","","","",""
"273.09999999403954","343254","pSARL_v2","pSARL_v28bss0h4k","5e3040a2d1a553000cc9147b","freq","img/green_2bandit_b2.png","70","70","test","1","198","198","10","",""
"null","343802","pSARL_v2","pSARL_v28bss0h4k","5e3040a2d1a553000cc9147b","freq_resp","img/green_2bandit_b.png","70","70","test","","","","10","",""
"null","343972","pSARL_v2","pSARL_v28bss0h4k","5e3040a2d1a553000cc9147b","fixation","img/fixation.png","null","","test","","","","","",""
"319.7000000178814","344298","pSARL_v2","pSARL_v28bss0h4k","5e3040a2d1a553000cc9147b","freq","img/green_2bandit_b2.png","70","70","test","1","199","199","10","",""
"null","344792","pSARL_v2","pSARL_v28bss0h4k","5e3040a2d1a553000cc9147b","freq_resp","img/green_2bandit_b.png","70","70","test","","","","10","",""
"null","344945","pSARL_v2","pSARL_v28bss0h4k","5e3040a2d1a553000cc9147b","fixation","img/fixation.png","null","","test","","","","","",""
"282","345231","pSARL_v2","pSARL_v28bss0h4k","5e3040a2d1a553000cc9147b","freq","img/green_2bandit_b2.png","70","70","test","1","200","200","10","",""
"null","345753","pSARL_v2","pSARL_v28bss0h4k","5e3040a2d1a553000cc9147b","freq_resp","img/green_2bandit_b.png","70","70","test","","","","10","",""
"null","345910","pSARL_v2","pSARL_v28bss0h4k","5e3040a2d1a553000cc9147b","fixation","img/fixation.png","null","","test","","","","","",""
"326.2000000178814","346242","pSARL_v2","pSARL_v28bss0h4k","5e3040a2d1a553000cc9147b","freq","img/green_2bandit_b2.png","70","70","test","1","201","201","10","",""
"null","346736","pSARL_v2","pSARL_v28bss0h4k","5e3040a2d1a553000cc9147b","freq_resp","img/green_2bandit_b.png","70","70","test","","","","10","",""
"null","346905","pSARL_v2","pSARL_v28bss0h4k","5e3040a2d1a553000cc9147b","fixation","img/fixation.png","null","","test","","","","","",""
"274.5","347186","pSARL_v2","pSARL_v28bss0h4k","5e3040a2d1a553000cc9147b","freq","img/green_2bandit_b2.png","70","70","test","1","202","202","10","",""
"null","347731","pSARL_v2","pSARL_v28bss0h4k","5e3040a2d1a553000cc9147b","freq_resp","img/green_2bandit_b.png","70","70","test","","","","10","",""
"null","347899","pSARL_v2","pSARL_v28bss0h4k","5e3040a2d1a553000cc9147b","fixation","img/fixation.png","null","","test","","","","","",""
"296.59999999403954","348202","pSARL_v2","pSARL_v28bss0h4k","5e3040a2d1a553000cc9147b","freq","img/green_2bandit_b2.png","70","70","test","1","203","203","10","",""
"null","348719","pSARL_v2","pSARL_v28bss0h4k","5e3040a2d1a553000cc9147b","freq_resp","img/green_2bandit_b.png","70","70","test","","","","10","",""
"null","348879","pSARL_v2","pSARL_v28bss0h4k","5e3040a2d1a553000cc9147b","fixation","img/fixation.png","null","","test","","","","","",""
"259.40000000596046","349143","pSARL_v2","pSARL_v28bss0h4k","5e3040a2d1a553000cc9147b","freq","img/green_2bandit_b2.png","70","70","test","1","204","204","10","",""
"null","349699","pSARL_v2","pSARL_v28bss0h4k","5e3040a2d1a553000cc9147b","freq_resp","img/green_2bandit_b.png","70","70","test","","","","10","",""
"null","349855","pSARL_v2","pSARL_v28bss0h4k","5e3040a2d1a553000cc9147b","fixation","img/fixation.png","null","","test","","","","","",""
"292.7000000178814","350154","pSARL_v2","pSARL_v28bss0h4k","5e3040a2d1a553000cc9147b","freq","img/green_2bandit_b2.png","70","70","test","1","205","205","10","",""
"null","350674","pSARL_v2","pSARL_v28bss0h4k","5e3040a2d1a553000cc9147b","freq_resp","img/green_2bandit_b.png","70","70","test","","","","10","",""
"null","350845","pSARL_v2","pSARL_v28bss0h4k","5e3040a2d1a553000cc9147b","fixation","img/fixation.png","null","","test","","","","","",""
