"rt","time_elapsed","expId","subject","prolificID","trialType","stimulus","key_press","corrresp","phase","corr","trialNum","attentionRunNum","blockNum","points","rlNum"
"8113.5","8121","pSARL_v2","pSARL_v2lhplc307","5dce29700ad506063969a4a5","","","","","","","","","","",""
"","11262","pSARL_v2","pSARL_v2lhplc307","5dce29700ad506063969a4a5","fullscreen","","","","","","","","","",""
"66196.19999998808","77462","pSARL_v2","pSARL_v2lhplc307","5dce29700ad506063969a4a5","","","","","","","","","","",""
"null","78278","pSARL_v2","pSARL_v2lhplc307","5dce29700ad506063969a4a5","freqPrac","img/orange_2bandit_a2.png","null","70","prac","0","","","","",""
"null","79296","pSARL_v2","pSARL_v2lhplc307","5dce29700ad506063969a4a5","feedback","img/tooSlow.png","null","na","prac","","","","","",""
"null","79463","pSARL_v2","pSARL_v2lhplc307","5dce29700ad506063969a4a5","fixation","img/fixation.png","null","","prac","","","","","",""
"741.7000000178814","80211","pSARL_v2","pSARL_v2lhplc307","5dce29700ad506063969a4a5","infreqPrac","img/green_2bandit_a2.png","68","68","prac","1","","","","",""
"741.7000000178814","80277","pSARL_v2","pSARL_v2lhplc307","5dce29700ad506063969a4a5","infreqPrac_resp","img/green_2bandit_a.png","68","68","prac","","","","","",""
"null","80435","pSARL_v2","pSARL_v2lhplc307","5dce29700ad506063969a4a5","fixation","img/fixation.png","null","","prac","","","","","",""
"649.1999999880791","81091","pSARL_v2","pSARL_v2lhplc307","5dce29700ad506063969a4a5","freqPrac","img/orange_2bandit_a2.png","70","70","prac","1","","","","",""
"649.1999999880791","81253","pSARL_v2","pSARL_v2lhplc307","5dce29700ad506063969a4a5","freqPrac_resp","img/orange_2bandit_a.png","70","70","prac","","","","","",""
"null","81423","pSARL_v2","pSARL_v2lhplc307","5dce29700ad506063969a4a5","fixation","img/fixation.png","null","","prac","","","","","",""
"596.2000000178814","82022","pSARL_v2","pSARL_v2lhplc307","5dce29700ad506063969a4a5","infreqPrac","img/green_2bandit_a2.png","68","68","prac","1","","","","",""
"596.2000000178814","82238","pSARL_v2","pSARL_v2lhplc307","5dce29700ad506063969a4a5","infreqPrac_resp","img/green_2bandit_a.png","68","68","prac","","","","","",""
"null","82402","pSARL_v2","pSARL_v2lhplc307","5dce29700ad506063969a4a5","fixation","img/fixation.png","null","","prac","","","","","",""
"401.59999999403954","82810","pSARL_v2","pSARL_v2lhplc307","5dce29700ad506063969a4a5","infreqPrac","img/green_2bandit_a2.png","68","68","prac","1","","","","",""
"401.59999999403954","83225","pSARL_v2","pSARL_v2lhplc307","5dce29700ad506063969a4a5","infreqPrac_resp","img/green_2bandit_a.png","68","68","prac","","","","","",""
"null","83397","pSARL_v2","pSARL_v2lhplc307","5dce29700ad506063969a4a5","fixation","img/fixation.png","null","","prac","","","","","",""
"398.10000002384186","83801","pSARL_v2","pSARL_v2lhplc307","5dce29700ad506063969a4a5","infreqPrac","img/green_2bandit_a2.png","68","68","prac","1","","","","",""
"398.10000002384186","84208","pSARL_v2","pSARL_v2lhplc307","5dce29700ad506063969a4a5","infreqPrac_resp","img/green_2bandit_a.png","68","68","prac","","","","","",""
"null","84367","pSARL_v2","pSARL_v2lhplc307","5dce29700ad506063969a4a5","fixation","img/fixation.png","null","","prac","","","","","",""
"461.19999998807907","84834","pSARL_v2","pSARL_v2lhplc307","5dce29700ad506063969a4a5","freqPrac","img/orange_2bandit_a2.png","70","70","prac","1","","","","",""
"461.19999998807907","85187","pSARL_v2","pSARL_v2lhplc307","5dce29700ad506063969a4a5","freqPrac_resp","img/orange_2bandit_a.png","70","70","prac","","","","","",""
"null","85361","pSARL_v2","pSARL_v2lhplc307","5dce29700ad506063969a4a5","fixation","img/fixation.png","null","","prac","","","","","",""
"490","85855","pSARL_v2","pSARL_v2lhplc307","5dce29700ad506063969a4a5","infreqPrac","img/green_2bandit_a2.png","68","68","prac","1","","","","",""
"490","86186","pSARL_v2","pSARL_v2lhplc307","5dce29700ad506063969a4a5","infreqPrac_resp","img/green_2bandit_a.png","68","68","prac","","","","","",""
"null","86346","pSARL_v2","pSARL_v2lhplc307","5dce29700ad506063969a4a5","fixation","img/fixation.png","null","","prac","","","","","",""
"416.90000000596046","86767","pSARL_v2","pSARL_v2lhplc307","5dce29700ad506063969a4a5","freqPrac","img/orange_2bandit_a2.png","68","70","prac","0","","","","",""
"416.90000000596046","87161","pSARL_v2","pSARL_v2lhplc307","5dce29700ad506063969a4a5","freqPrac_resp","img/orange_2bandit_a.png","68","70","prac","","","","","",""
"null","88177","pSARL_v2","pSARL_v2lhplc307","5dce29700ad506063969a4a5","feedback","img/wrongKey.png","null","na","prac","","","","","",""
"null","88335","pSARL_v2","pSARL_v2lhplc307","5dce29700ad506063969a4a5","fixation","img/fixation.png","null","","prac","","","","","",""
"555.5","88896","pSARL_v2","pSARL_v2lhplc307","5dce29700ad506063969a4a5","freqPrac","img/orange_2bandit_a2.png","70","70","prac","1","","","","",""
"555.5","89152","pSARL_v2","pSARL_v2lhplc307","5dce29700ad506063969a4a5","freqPrac_resp","img/orange_2bandit_a.png","70","70","prac","","","","","",""
"null","89324","pSARL_v2","pSARL_v2lhplc307","5dce29700ad506063969a4a5","fixation","img/fixation.png","null","","prac","","","","","",""
"49137.89999997616","138467","pSARL_v2","pSARL_v2lhplc307","5dce29700ad506063969a4a5","","","","","prac","","","","","",""
"640.5999999940395","139111","pSARL_v2","pSARL_v2lhplc307","5dce29700ad506063969a4a5","rewardPractice","img/slot.png","74","","prac","","","","","",""
"null","139871","pSARL_v2","pSARL_v2lhplc307","5dce29700ad506063969a4a5","feedback","<div class=""veryhighPoints""> +15 </div>","null","na","prac","","","","","",""
"null","140026","pSARL_v2","pSARL_v2lhplc307","5dce29700ad506063969a4a5","fixation","img/fixation.png","null","","prac","","","","","",""
"13362.699999988079","153394","pSARL_v2","pSARL_v2lhplc307","5dce29700ad506063969a4a5","","","","","prac","","","","","",""
"657.2999999821186","154058","pSARL_v2","pSARL_v2lhplc307","5dce29700ad506063969a4a5","freq","img/orange_2bandit_a2.png","70","70","test","1","1","1","1","",""
"null","154212","pSARL_v2","pSARL_v2lhplc307","5dce29700ad506063969a4a5","freq_resp","img/orange_2bandit_a.png","70","70","test","","","","1","",""
"null","154369","pSARL_v2","pSARL_v2lhplc307","5dce29700ad506063969a4a5","fixation","img/fixation.png","null","","test","","","","","",""
"393.90000000596046","154766","pSARL_v2","pSARL_v2lhplc307","5dce29700ad506063969a4a5","freq","img/orange_2bandit_a2.png","70","70","test","1","2","2","1","",""
"null","155187","pSARL_v2","pSARL_v2lhplc307","5dce29700ad506063969a4a5","freq_resp","img/orange_2bandit_a.png","70","70","test","","","","1","",""
"null","155346","pSARL_v2","pSARL_v2lhplc307","5dce29700ad506063969a4a5","fixation","img/fixation.png","null","","test","","","","","",""
"490","155842","pSARL_v2","pSARL_v2lhplc307","5dce29700ad506063969a4a5","freq","img/orange_2bandit_a2.png","70","70","test","1","3","3","1","",""
"null","156160","pSARL_v2","pSARL_v2lhplc307","5dce29700ad506063969a4a5","freq_resp","img/orange_2bandit_a.png","70","70","test","","","","1","",""
"null","156332","pSARL_v2","pSARL_v2lhplc307","5dce29700ad506063969a4a5","fixation","img/fixation.png","null","","test","","","","","",""
"414.40000000596046","156753","pSARL_v2","pSARL_v2lhplc307","5dce29700ad506063969a4a5","freq","img/orange_2bandit_a2.png","70","70","test","1","4","4","1","",""
"null","157156","pSARL_v2","pSARL_v2lhplc307","5dce29700ad506063969a4a5","freq_resp","img/orange_2bandit_a.png","70","70","test","","","","1","",""
"null","157329","pSARL_v2","pSARL_v2lhplc307","5dce29700ad506063969a4a5","fixation","img/fixation.png","null","","test","","","","","",""
"393.90000000596046","157727","pSARL_v2","pSARL_v2lhplc307","5dce29700ad506063969a4a5","freq","img/orange_2bandit_a2.png","70","70","test","1","5","5","1","",""
"null","158144","pSARL_v2","pSARL_v2lhplc307","5dce29700ad506063969a4a5","freq_resp","img/orange_2bandit_a.png","70","70","test","","","","1","",""
"null","158313","pSARL_v2","pSARL_v2lhplc307","5dce29700ad506063969a4a5","fixation","img/fixation.png","null","","test","","","","","",""
"561.8000000119209","158879","pSARL_v2","pSARL_v2lhplc307","5dce29700ad506063969a4a5","infreq","img/green_2bandit_a2.png","68","68","test","1","6","6","1","",""
"null","159136","pSARL_v2","pSARL_v2lhplc307","5dce29700ad506063969a4a5","infreq_resp","img/green_2bandit_a.png","68","68","test","","","","1","",""
"null","159293","pSARL_v2","pSARL_v2lhplc307","5dce29700ad506063969a4a5","fixation","img/fixation.png","null","","test","","","","","",""
"398.69999998807907","159698","pSARL_v2","pSARL_v2lhplc307","5dce29700ad506063969a4a5","infreq","img/green_2bandit_a2.png","68","68","test","1","7","7","1","",""
"null","160113","pSARL_v2","pSARL_v2lhplc307","5dce29700ad506063969a4a5","infreq_resp","img/green_2bandit_a.png","68","68","test","","","","1","",""
"null","160276","pSARL_v2","pSARL_v2lhplc307","5dce29700ad506063969a4a5","fixation","img/fixation.png","null","","test","","","","","",""
"503.7000000178814","160788","pSARL_v2","pSARL_v2lhplc307","5dce29700ad506063969a4a5","freq","img/orange_2bandit_a2.png","70","70","test","1","8","8","1","",""
"null","161101","pSARL_v2","pSARL_v2lhplc307","5dce29700ad506063969a4a5","freq_resp","img/orange_2bandit_a.png","70","70","test","","","","1","",""
"null","161264","pSARL_v2","pSARL_v2lhplc307","5dce29700ad506063969a4a5","fixation","img/fixation.png","null","","test","","","","","",""
"499.90000000596046","161770","pSARL_v2","pSARL_v2lhplc307","5dce29700ad506063969a4a5","freq","img/orange_2bandit_a2.png","70","70","test","1","9","9","1","",""
"null","162090","pSARL_v2","pSARL_v2lhplc307","5dce29700ad506063969a4a5","freq_resp","img/orange_2bandit_a.png","70","70","test","","","","1","",""
"null","162254","pSARL_v2","pSARL_v2lhplc307","5dce29700ad506063969a4a5","fixation","img/fixation.png","null","","test","","","","","",""
"460.69999998807907","162722","pSARL_v2","pSARL_v2lhplc307","5dce29700ad506063969a4a5","freq","img/orange_2bandit_a2.png","70","70","test","1","10","10","1","",""
"null","163070","pSARL_v2","pSARL_v2lhplc307","5dce29700ad506063969a4a5","freq_resp","img/orange_2bandit_a.png","70","70","test","","","","1","",""
"null","163228","pSARL_v2","pSARL_v2lhplc307","5dce29700ad506063969a4a5","fixation","img/fixation.png","null","","test","","","","","",""
"406","163639","pSARL_v2","pSARL_v2lhplc307","5dce29700ad506063969a4a5","freq","img/orange_2bandit_a2.png","70","70","test","1","11","11","1","",""
"null","164047","pSARL_v2","pSARL_v2lhplc307","5dce29700ad506063969a4a5","freq_resp","img/orange_2bandit_a.png","70","70","test","","","","1","",""
"null","164206","pSARL_v2","pSARL_v2lhplc307","5dce29700ad506063969a4a5","fixation","img/fixation.png","null","","test","","","","","",""
"437.59999999403954","164646","pSARL_v2","pSARL_v2lhplc307","5dce29700ad506063969a4a5","freq","img/orange_2bandit_a2.png","70","70","test","1","12","12","1","",""
"null","165018","pSARL_v2","pSARL_v2lhplc307","5dce29700ad506063969a4a5","freq_resp","img/orange_2bandit_a.png","70","70","test","","","","1","",""
"null","165176","pSARL_v2","pSARL_v2lhplc307","5dce29700ad506063969a4a5","fixation","img/fixation.png","null","","test","","","","","",""
"378.7999999821186","165562","pSARL_v2","pSARL_v2lhplc307","5dce29700ad506063969a4a5","freq","img/orange_2bandit_a2.png","70","70","test","1","13","13","1","",""
"null","166003","pSARL_v2","pSARL_v2lhplc307","5dce29700ad506063969a4a5","freq_resp","img/orange_2bandit_a.png","70","70","test","","","","1","",""
"null","166177","pSARL_v2","pSARL_v2lhplc307","5dce29700ad506063969a4a5","fixation","img/fixation.png","null","","test","","","","","",""
"425.7000000178814","166606","pSARL_v2","pSARL_v2lhplc307","5dce29700ad506063969a4a5","freq","img/orange_2bandit_a2.png","70","70","test","1","14","14","1","",""
"null","167001","pSARL_v2","pSARL_v2lhplc307","5dce29700ad506063969a4a5","freq_resp","img/orange_2bandit_a.png","70","70","test","","","","1","",""
"null","167169","pSARL_v2","pSARL_v2lhplc307","5dce29700ad506063969a4a5","fixation","img/fixation.png","null","","test","","","","","",""
"379","167554","pSARL_v2","pSARL_v2lhplc307","5dce29700ad506063969a4a5","freq","img/orange_2bandit_a2.png","70","70","test","1","15","15","1","",""
"null","167982","pSARL_v2","pSARL_v2lhplc307","5dce29700ad506063969a4a5","freq_resp","img/orange_2bandit_a.png","70","70","test","","","","1","",""
"null","168142","pSARL_v2","pSARL_v2lhplc307","5dce29700ad506063969a4a5","fixation","img/fixation.png","null","","test","","","","","",""
"413.2999999821186","168562","pSARL_v2","pSARL_v2lhplc307","5dce29700ad506063969a4a5","freq","img/orange_2bandit_a2.png","70","70","test","1","16","16","1","",""
"null","168964","pSARL_v2","pSARL_v2lhplc307","5dce29700ad506063969a4a5","freq_resp","img/orange_2bandit_a.png","70","70","test","","","","1","",""
"null","169121","pSARL_v2","pSARL_v2lhplc307","5dce29700ad506063969a4a5","fixation","img/fixation.png","null","","test","","","","","",""
"426.5","169554","pSARL_v2","pSARL_v2lhplc307","5dce29700ad506063969a4a5","freq","img/orange_2bandit_a2.png","70","70","test","1","17","17","1","",""
"null","169933","pSARL_v2","pSARL_v2lhplc307","5dce29700ad506063969a4a5","freq_resp","img/orange_2bandit_a.png","70","70","test","","","","1","",""
"null","170106","pSARL_v2","pSARL_v2lhplc307","5dce29700ad506063969a4a5","fixation","img/fixation.png","null","","test","","","","","",""
"367.90000000596046","170478","pSARL_v2","pSARL_v2lhplc307","5dce29700ad506063969a4a5","freq","img/orange_2bandit_a2.png","70","70","test","1","18","18","1","",""
"null","170925","pSARL_v2","pSARL_v2lhplc307","5dce29700ad506063969a4a5","freq_resp","img/orange_2bandit_a.png","70","70","test","","","","1","",""
"null","171086","pSARL_v2","pSARL_v2lhplc307","5dce29700ad506063969a4a5","fixation","img/fixation.png","null","","test","","","","","",""
"412.59999999403954","171502","pSARL_v2","pSARL_v2lhplc307","5dce29700ad506063969a4a5","freq","img/orange_2bandit_a2.png","70","70","test","1","19","19","1","",""
"null","171903","pSARL_v2","pSARL_v2lhplc307","5dce29700ad506063969a4a5","freq_resp","img/orange_2bandit_a.png","70","70","test","","","","1","",""
"null","172068","pSARL_v2","pSARL_v2lhplc307","5dce29700ad506063969a4a5","fixation","img/fixation.png","null","","test","","","","","",""
"358.7999999821186","172434","pSARL_v2","pSARL_v2lhplc307","5dce29700ad506063969a4a5","freq","img/orange_2bandit_a2.png","70","70","test","1","20","20","1","",""
"null","172895","pSARL_v2","pSARL_v2lhplc307","5dce29700ad506063969a4a5","freq_resp","img/orange_2bandit_a.png","70","70","test","","","","1","",""
"null","173048","pSARL_v2","pSARL_v2lhplc307","5dce29700ad506063969a4a5","fixation","img/fixation.png","null","","test","","","","","",""
"371.69999998807907","173426","pSARL_v2","pSARL_v2lhplc307","5dce29700ad506063969a4a5","freq","img/orange_2bandit_a2.png","70","70","test","1","21","21","1","",""
"null","173869","pSARL_v2","pSARL_v2lhplc307","5dce29700ad506063969a4a5","freq_resp","img/orange_2bandit_a.png","70","70","test","","","","1","",""
"null","174029","pSARL_v2","pSARL_v2lhplc307","5dce29700ad506063969a4a5","fixation","img/fixation.png","null","","test","","","","","",""
"542.4000000059605","174575","pSARL_v2","pSARL_v2lhplc307","5dce29700ad506063969a4a5","reward","img/slot.png","74","","test","","","","","",""
"null","175338","pSARL_v2","pSARL_v2lhplc307","5dce29700ad506063969a4a5","points","<div class=""verylowPoints""> -6 </div>","null","na","test","","","","1","-6","0"
"609.7999999821186","175954","pSARL_v2","pSARL_v2lhplc307","5dce29700ad506063969a4a5","freq","img/orange_2bandit_a2.png","70","70","test","1","22","22","2","",""
"null","176157","pSARL_v2","pSARL_v2lhplc307","5dce29700ad506063969a4a5","freq_resp","img/orange_2bandit_a.png","70","70","test","","","","2","",""
"null","176329","pSARL_v2","pSARL_v2lhplc307","5dce29700ad506063969a4a5","fixation","img/fixation.png","null","","test","","","","","",""
"354.19999998807907","176689","pSARL_v2","pSARL_v2lhplc307","5dce29700ad506063969a4a5","infreq","img/green_2bandit_a2.png","70","68","test","0","23","23","2","",""
"null","177141","pSARL_v2","pSARL_v2lhplc307","5dce29700ad506063969a4a5","infreq_resp","img/green_2bandit_a.png","70","68","test","","","","2","",""
"null","177300","pSARL_v2","pSARL_v2lhplc307","5dce29700ad506063969a4a5","fixation","img/fixation.png","null","","test","","","","","",""
"518.0999999940395","177823","pSARL_v2","pSARL_v2lhplc307","5dce29700ad506063969a4a5","freq","img/orange_2bandit_a2.png","70","70","test","1","24","24","2","",""
"null","178115","pSARL_v2","pSARL_v2lhplc307","5dce29700ad506063969a4a5","freq_resp","img/orange_2bandit_a.png","70","70","test","","","","2","",""
"null","178277","pSARL_v2","pSARL_v2lhplc307","5dce29700ad506063969a4a5","fixation","img/fixation.png","null","","test","","","","","",""
"445.09999999403954","178727","pSARL_v2","pSARL_v2lhplc307","5dce29700ad506063969a4a5","freq","img/orange_2bandit_a2.png","70","70","test","1","25","25","2","",""
"null","179097","pSARL_v2","pSARL_v2lhplc307","5dce29700ad506063969a4a5","freq_resp","img/orange_2bandit_a.png","70","70","test","","","","2","",""
"null","179259","pSARL_v2","pSARL_v2lhplc307","5dce29700ad506063969a4a5","fixation","img/fixation.png","null","","test","","","","","",""
"336.30000001192093","179602","pSARL_v2","pSARL_v2lhplc307","5dce29700ad506063969a4a5","freq","img/orange_2bandit_a2.png","70","70","test","1","26","26","2","",""
"null","180072","pSARL_v2","pSARL_v2lhplc307","5dce29700ad506063969a4a5","freq_resp","img/orange_2bandit_a.png","70","70","test","","","","2","",""
"null","180229","pSARL_v2","pSARL_v2lhplc307","5dce29700ad506063969a4a5","fixation","img/fixation.png","null","","test","","","","","",""
"366.80000001192093","180602","pSARL_v2","pSARL_v2lhplc307","5dce29700ad506063969a4a5","freq","img/orange_2bandit_a2.png","70","70","test","1","27","27","2","",""
"null","181052","pSARL_v2","pSARL_v2lhplc307","5dce29700ad506063969a4a5","freq_resp","img/orange_2bandit_a.png","70","70","test","","","","2","",""
"null","181213","pSARL_v2","pSARL_v2lhplc307","5dce29700ad506063969a4a5","fixation","img/fixation.png","null","","test","","","","","",""
"366.69999998807907","181586","pSARL_v2","pSARL_v2lhplc307","5dce29700ad506063969a4a5","freq","img/orange_2bandit_a2.png","70","70","test","1","28","28","2","",""
"null","182032","pSARL_v2","pSARL_v2lhplc307","5dce29700ad506063969a4a5","freq_resp","img/orange_2bandit_a.png","70","70","test","","","","2","",""
"null","182199","pSARL_v2","pSARL_v2lhplc307","5dce29700ad506063969a4a5","fixation","img/fixation.png","null","","test","","","","","",""
"324.40000000596046","182530","pSARL_v2","pSARL_v2lhplc307","5dce29700ad506063969a4a5","freq","img/orange_2bandit_a2.png","70","70","test","1","29","29","2","",""
"null","183014","pSARL_v2","pSARL_v2lhplc307","5dce29700ad506063969a4a5","freq_resp","img/orange_2bandit_a.png","70","70","test","","","","2","",""
"null","183176","pSARL_v2","pSARL_v2lhplc307","5dce29700ad506063969a4a5","fixation","img/fixation.png","null","","test","","","","","",""
"330.69999998807907","183510","pSARL_v2","pSARL_v2lhplc307","5dce29700ad506063969a4a5","freq","img/orange_2bandit_a2.png","70","70","test","1","30","30","2","",""
"null","183986","pSARL_v2","pSARL_v2lhplc307","5dce29700ad506063969a4a5","freq_resp","img/orange_2bandit_a.png","70","70","test","","","","2","",""
"null","184145","pSARL_v2","pSARL_v2lhplc307","5dce29700ad506063969a4a5","fixation","img/fixation.png","null","","test","","","","","",""
"315.2999999821186","184467","pSARL_v2","pSARL_v2lhplc307","5dce29700ad506063969a4a5","freq","img/orange_2bandit_a2.png","70","70","test","1","31","31","2","",""
"null","184968","pSARL_v2","pSARL_v2lhplc307","5dce29700ad506063969a4a5","freq_resp","img/orange_2bandit_a.png","70","70","test","","","","2","",""
"null","185125","pSARL_v2","pSARL_v2lhplc307","5dce29700ad506063969a4a5","fixation","img/fixation.png","null","","test","","","","","",""
"230.80000001192093","185362","pSARL_v2","pSARL_v2lhplc307","5dce29700ad506063969a4a5","freq","img/orange_2bandit_a2.png","70","70","test","1","32","32","2","",""
"null","185949","pSARL_v2","pSARL_v2lhplc307","5dce29700ad506063969a4a5","freq_resp","img/orange_2bandit_a.png","70","70","test","","","","2","",""
"null","186106","pSARL_v2","pSARL_v2lhplc307","5dce29700ad506063969a4a5","fixation","img/fixation.png","null","","test","","","","","",""
"369.90000000596046","186482","pSARL_v2","pSARL_v2lhplc307","5dce29700ad506063969a4a5","freq","img/orange_2bandit_a2.png","70","70","test","1","33","33","2","",""
"null","186919","pSARL_v2","pSARL_v2lhplc307","5dce29700ad506063969a4a5","freq_resp","img/orange_2bandit_a.png","70","70","test","","","","2","",""
"null","187081","pSARL_v2","pSARL_v2lhplc307","5dce29700ad506063969a4a5","fixation","img/fixation.png","null","","test","","","","","",""
"322.69999998807907","187410","pSARL_v2","pSARL_v2lhplc307","5dce29700ad506063969a4a5","freq","img/orange_2bandit_a2.png","70","70","test","1","34","34","2","",""
"null","187902","pSARL_v2","pSARL_v2lhplc307","5dce29700ad506063969a4a5","freq_resp","img/orange_2bandit_a.png","70","70","test","","","","2","",""
"null","188060","pSARL_v2","pSARL_v2lhplc307","5dce29700ad506063969a4a5","fixation","img/fixation.png","null","","test","","","","","",""
"407.09999999403954","188471","pSARL_v2","pSARL_v2lhplc307","5dce29700ad506063969a4a5","freq","img/orange_2bandit_a2.png","70","70","test","1","35","35","2","",""
"null","188874","pSARL_v2","pSARL_v2lhplc307","5dce29700ad506063969a4a5","freq_resp","img/orange_2bandit_a.png","70","70","test","","","","2","",""
"null","189034","pSARL_v2","pSARL_v2lhplc307","5dce29700ad506063969a4a5","fixation","img/fixation.png","null","","test","","","","","",""
"538.5","189579","pSARL_v2","pSARL_v2lhplc307","5dce29700ad506063969a4a5","infreq","img/green_2bandit_a2.png","68","68","test","1","36","36","2","",""
"null","189849","pSARL_v2","pSARL_v2lhplc307","5dce29700ad506063969a4a5","infreq_resp","img/green_2bandit_a.png","68","68","test","","","","2","",""
"null","190017","pSARL_v2","pSARL_v2lhplc307","5dce29700ad506063969a4a5","fixation","img/fixation.png","null","","test","","","","","",""
"459","190482","pSARL_v2","pSARL_v2lhplc307","5dce29700ad506063969a4a5","freq","img/orange_2bandit_a2.png","70","70","test","1","37","37","2","",""
"null","190841","pSARL_v2","pSARL_v2lhplc307","5dce29700ad506063969a4a5","freq_resp","img/orange_2bandit_a.png","70","70","test","","","","2","",""
"null","190998","pSARL_v2","pSARL_v2lhplc307","5dce29700ad506063969a4a5","fixation","img/fixation.png","null","","test","","","","","",""
"374.19999998807907","191378","pSARL_v2","pSARL_v2lhplc307","5dce29700ad506063969a4a5","freq","img/orange_2bandit_a2.png","70","70","test","1","38","38","2","",""
"null","191811","pSARL_v2","pSARL_v2lhplc307","5dce29700ad506063969a4a5","freq_resp","img/orange_2bandit_a.png","70","70","test","","","","2","",""
"null","191982","pSARL_v2","pSARL_v2lhplc307","5dce29700ad506063969a4a5","fixation","img/fixation.png","null","","test","","","","","",""
"317.2999999821186","192307","pSARL_v2","pSARL_v2lhplc307","5dce29700ad506063969a4a5","freq","img/orange_2bandit_a2.png","70","70","test","1","39","39","2","",""
"null","192794","pSARL_v2","pSARL_v2lhplc307","5dce29700ad506063969a4a5","freq_resp","img/orange_2bandit_a.png","70","70","test","","","","2","",""
"null","192951","pSARL_v2","pSARL_v2lhplc307","5dce29700ad506063969a4a5","fixation","img/fixation.png","null","","test","","","","","",""
"333.40000000596046","193291","pSARL_v2","pSARL_v2lhplc307","5dce29700ad506063969a4a5","freq","img/orange_2bandit_a2.png","70","70","test","1","40","40","2","",""
"null","193764","pSARL_v2","pSARL_v2lhplc307","5dce29700ad506063969a4a5","freq_resp","img/orange_2bandit_a.png","70","70","test","","","","2","",""
"null","193936","pSARL_v2","pSARL_v2lhplc307","5dce29700ad506063969a4a5","fixation","img/fixation.png","null","","test","","","","","",""
"347.2999999821186","194290","pSARL_v2","pSARL_v2lhplc307","5dce29700ad506063969a4a5","freq","img/orange_2bandit_a2.png","70","70","test","1","41","41","2","",""
"null","194751","pSARL_v2","pSARL_v2lhplc307","5dce29700ad506063969a4a5","freq_resp","img/orange_2bandit_a.png","70","70","test","","","","2","",""
"null","194918","pSARL_v2","pSARL_v2lhplc307","5dce29700ad506063969a4a5","fixation","img/fixation.png","null","","test","","","","","",""
"333.59999999403954","195259","pSARL_v2","pSARL_v2lhplc307","5dce29700ad506063969a4a5","freq","img/orange_2bandit_a2.png","70","70","test","1","42","42","2","",""
"null","195735","pSARL_v2","pSARL_v2lhplc307","5dce29700ad506063969a4a5","freq_resp","img/orange_2bandit_a.png","70","70","test","","","","2","",""
"null","195903","pSARL_v2","pSARL_v2lhplc307","5dce29700ad506063969a4a5","fixation","img/fixation.png","null","","test","","","","","",""
"340.39999997615814","196247","pSARL_v2","pSARL_v2lhplc307","5dce29700ad506063969a4a5","freq","img/orange_2bandit_a2.png","70","70","test","1","43","43","2","",""
"null","196718","pSARL_v2","pSARL_v2lhplc307","5dce29700ad506063969a4a5","freq_resp","img/orange_2bandit_a.png","70","70","test","","","","2","",""
"null","196876","pSARL_v2","pSARL_v2lhplc307","5dce29700ad506063969a4a5","fixation","img/fixation.png","null","","test","","","","","",""
"607.0999999940395","197491","pSARL_v2","pSARL_v2lhplc307","5dce29700ad506063969a4a5","reward","img/slot.png","74","","test","","","","","",""
"null","198248","pSARL_v2","pSARL_v2lhplc307","5dce29700ad506063969a4a5","points","<div class=""verylowPoints""> -11 </div>","null","na","test","","","","2","-11","1"
"null","199061","pSARL_v2","pSARL_v2lhplc307","5dce29700ad506063969a4a5","freq","img/orange_2bandit_a2.png","null","70","test","0","44","44","3","",""
"null","199216","pSARL_v2","pSARL_v2lhplc307","5dce29700ad506063969a4a5","fixation","img/fixation.png","null","","test","","","","","",""
"163.40000000596046","199388","pSARL_v2","pSARL_v2lhplc307","5dce29700ad506063969a4a5","freq","img/orange_2bandit_a2.png","70","70","test","1","45","45","3","",""
"null","200045","pSARL_v2","pSARL_v2lhplc307","5dce29700ad506063969a4a5","freq_resp","img/orange_2bandit_a.png","70","70","test","","","","3","",""
"null","200214","pSARL_v2","pSARL_v2lhplc307","5dce29700ad506063969a4a5","fixation","img/fixation.png","null","","test","","","","","",""
"661.9000000059605","200883","pSARL_v2","pSARL_v2lhplc307","5dce29700ad506063969a4a5","freq","img/orange_2bandit_a2.png","70","70","test","1","46","46","3","",""
"null","201029","pSARL_v2","pSARL_v2lhplc307","5dce29700ad506063969a4a5","freq_resp","img/orange_2bandit_a.png","70","70","test","","","","3","",""
"null","201197","pSARL_v2","pSARL_v2lhplc307","5dce29700ad506063969a4a5","fixation","img/fixation.png","null","","test","","","","","",""
"646.5999999940395","201851","pSARL_v2","pSARL_v2lhplc307","5dce29700ad506063969a4a5","freq","img/orange_2bandit_a2.png","70","70","test","1","47","47","3","",""
"null","202020","pSARL_v2","pSARL_v2lhplc307","5dce29700ad506063969a4a5","freq_resp","img/orange_2bandit_a.png","70","70","test","","","","3","",""
"null","202188","pSARL_v2","pSARL_v2lhplc307","5dce29700ad506063969a4a5","fixation","img/fixation.png","null","","test","","","","","",""
"423.90000000596046","202618","pSARL_v2","pSARL_v2lhplc307","5dce29700ad506063969a4a5","freq","img/orange_2bandit_a2.png","70","70","test","1","48","48","3","",""
"null","203001","pSARL_v2","pSARL_v2lhplc307","5dce29700ad506063969a4a5","freq_resp","img/orange_2bandit_a.png","70","70","test","","","","3","",""
"null","203170","pSARL_v2","pSARL_v2lhplc307","5dce29700ad506063969a4a5","fixation","img/fixation.png","null","","test","","","","","",""
"282.09999999403954","203459","pSARL_v2","pSARL_v2lhplc307","5dce29700ad506063969a4a5","freq","img/orange_2bandit_a2.png","70","70","test","1","49","49","3","",""
"null","203990","pSARL_v2","pSARL_v2lhplc307","5dce29700ad506063969a4a5","freq_resp","img/orange_2bandit_a.png","70","70","test","","","","3","",""
"null","204160","pSARL_v2","pSARL_v2lhplc307","5dce29700ad506063969a4a5","fixation","img/fixation.png","null","","test","","","","","",""
"107","204272","pSARL_v2","pSARL_v2lhplc307","5dce29700ad506063969a4a5","freq","img/orange_2bandit_a2.png","70","70","test","1","50","50","3","",""
"null","204986","pSARL_v2","pSARL_v2lhplc307","5dce29700ad506063969a4a5","freq_resp","img/orange_2bandit_a.png","70","70","test","","","","3","",""
"null","205142","pSARL_v2","pSARL_v2lhplc307","5dce29700ad506063969a4a5","fixation","img/fixation.png","null","","test","","","","","",""
"180.69999998807907","205332","pSARL_v2","pSARL_v2lhplc307","5dce29700ad506063969a4a5","freq","img/orange_2bandit_a2.png","70","70","test","1","51","51","3","",""
"null","205969","pSARL_v2","pSARL_v2lhplc307","5dce29700ad506063969a4a5","freq_resp","img/orange_2bandit_a.png","70","70","test","","","","3","",""
"null","206133","pSARL_v2","pSARL_v2lhplc307","5dce29700ad506063969a4a5","fixation","img/fixation.png","null","","test","","","","","",""
"598.2000000178814","206739","pSARL_v2","pSARL_v2lhplc307","5dce29700ad506063969a4a5","freq","img/orange_2bandit_a2.png","70","70","test","1","52","52","3","",""
"null","206948","pSARL_v2","pSARL_v2lhplc307","5dce29700ad506063969a4a5","freq_resp","img/orange_2bandit_a.png","70","70","test","","","","3","",""
"null","207105","pSARL_v2","pSARL_v2lhplc307","5dce29700ad506063969a4a5","fixation","img/fixation.png","null","","test","","","","","",""
"490.90000000596046","207602","pSARL_v2","pSARL_v2lhplc307","5dce29700ad506063969a4a5","freq","img/orange_2bandit_a2.png","70","70","test","1","53","53","3","",""
"null","207920","pSARL_v2","pSARL_v2lhplc307","5dce29700ad506063969a4a5","freq_resp","img/orange_2bandit_a.png","70","70","test","","","","3","",""
"null","208078","pSARL_v2","pSARL_v2lhplc307","5dce29700ad506063969a4a5","fixation","img/fixation.png","null","","test","","","","","",""
"428.09999999403954","208511","pSARL_v2","pSARL_v2lhplc307","5dce29700ad506063969a4a5","freq","img/orange_2bandit_a2.png","70","70","test","1","54","54","3","",""
"null","208890","pSARL_v2","pSARL_v2lhplc307","5dce29700ad506063969a4a5","freq_resp","img/orange_2bandit_a.png","70","70","test","","","","3","",""
"null","209048","pSARL_v2","pSARL_v2lhplc307","5dce29700ad506063969a4a5","fixation","img/fixation.png","null","","test","","","","","",""
"354.90000000596046","209411","pSARL_v2","pSARL_v2lhplc307","5dce29700ad506063969a4a5","freq","img/orange_2bandit_a2.png","70","70","test","1","55","55","3","",""
"null","209862","pSARL_v2","pSARL_v2lhplc307","5dce29700ad506063969a4a5","freq_resp","img/orange_2bandit_a.png","70","70","test","","","","3","",""
"null","210020","pSARL_v2","pSARL_v2lhplc307","5dce29700ad506063969a4a5","fixation","img/fixation.png","null","","test","","","","","",""
"222.7000000178814","210247","pSARL_v2","pSARL_v2lhplc307","5dce29700ad506063969a4a5","freq","img/orange_2bandit_a2.png","70","70","test","1","56","56","3","",""
"null","210836","pSARL_v2","pSARL_v2lhplc307","5dce29700ad506063969a4a5","freq_resp","img/orange_2bandit_a.png","70","70","test","","","","3","",""
"null","210995","pSARL_v2","pSARL_v2lhplc307","5dce29700ad506063969a4a5","fixation","img/fixation.png","null","","test","","","","","",""
"231.80000001192093","211232","pSARL_v2","pSARL_v2lhplc307","5dce29700ad506063969a4a5","freq","img/orange_2bandit_a2.png","70","70","test","1","57","57","3","",""
"null","211818","pSARL_v2","pSARL_v2lhplc307","5dce29700ad506063969a4a5","freq_resp","img/orange_2bandit_a.png","70","70","test","","","","3","",""
"null","211986","pSARL_v2","pSARL_v2lhplc307","5dce29700ad506063969a4a5","fixation","img/fixation.png","null","","test","","","","","",""
"320.59999999403954","212311","pSARL_v2","pSARL_v2lhplc307","5dce29700ad506063969a4a5","infreq","img/green_2bandit_a2.png","70","68","test","0","58","58","3","",""
"null","212810","pSARL_v2","pSARL_v2lhplc307","5dce29700ad506063969a4a5","infreq_resp","img/green_2bandit_a.png","70","68","test","","","","3","",""
"null","212983","pSARL_v2","pSARL_v2lhplc307","5dce29700ad506063969a4a5","fixation","img/fixation.png","null","","test","","","","","",""
"523.3999999761581","213513","pSARL_v2","pSARL_v2lhplc307","5dce29700ad506063969a4a5","freq","img/orange_2bandit_a2.png","70","70","test","1","59","59","3","",""
"null","213803","pSARL_v2","pSARL_v2lhplc307","5dce29700ad506063969a4a5","freq_resp","img/orange_2bandit_a.png","70","70","test","","","","3","",""
"null","213969","pSARL_v2","pSARL_v2lhplc307","5dce29700ad506063969a4a5","fixation","img/fixation.png","null","","test","","","","","",""
"417.5","214391","pSARL_v2","pSARL_v2lhplc307","5dce29700ad506063969a4a5","freq","img/orange_2bandit_a2.png","70","70","test","1","60","60","3","",""
"null","214788","pSARL_v2","pSARL_v2lhplc307","5dce29700ad506063969a4a5","freq_resp","img/orange_2bandit_a.png","70","70","test","","","","3","",""
"null","214946","pSARL_v2","pSARL_v2lhplc307","5dce29700ad506063969a4a5","fixation","img/fixation.png","null","","test","","","","","",""
"375.80000001192093","215327","pSARL_v2","pSARL_v2lhplc307","5dce29700ad506063969a4a5","freq","img/orange_2bandit_a2.png","70","70","test","1","61","61","3","",""
"null","215757","pSARL_v2","pSARL_v2lhplc307","5dce29700ad506063969a4a5","freq_resp","img/orange_2bandit_a.png","70","70","test","","","","3","",""
"null","215919","pSARL_v2","pSARL_v2lhplc307","5dce29700ad506063969a4a5","fixation","img/fixation.png","null","","test","","","","","",""
"388.40000000596046","216311","pSARL_v2","pSARL_v2lhplc307","5dce29700ad506063969a4a5","freq","img/orange_2bandit_a2.png","70","70","test","1","62","62","3","",""
"null","216736","pSARL_v2","pSARL_v2lhplc307","5dce29700ad506063969a4a5","freq_resp","img/orange_2bandit_a.png","70","70","test","","","","3","",""
"null","216903","pSARL_v2","pSARL_v2lhplc307","5dce29700ad506063969a4a5","fixation","img/fixation.png","null","","test","","","","","",""
"379.39999997615814","217288","pSARL_v2","pSARL_v2lhplc307","5dce29700ad506063969a4a5","freq","img/orange_2bandit_a2.png","70","70","test","1","63","63","3","",""
"null","217721","pSARL_v2","pSARL_v2lhplc307","5dce29700ad506063969a4a5","freq_resp","img/orange_2bandit_a.png","70","70","test","","","","3","",""
"null","217889","pSARL_v2","pSARL_v2lhplc307","5dce29700ad506063969a4a5","fixation","img/fixation.png","null","","test","","","","","",""
"402.09999999403954","218295","pSARL_v2","pSARL_v2lhplc307","5dce29700ad506063969a4a5","freq","img/orange_2bandit_a2.png","70","70","test","1","64","64","3","",""
"null","218706","pSARL_v2","pSARL_v2lhplc307","5dce29700ad506063969a4a5","freq_resp","img/orange_2bandit_a.png","70","70","test","","","","3","",""
"null","218873","pSARL_v2","pSARL_v2lhplc307","5dce29700ad506063969a4a5","fixation","img/fixation.png","null","","test","","","","","",""
"530.5999999940395","219407","pSARL_v2","pSARL_v2lhplc307","5dce29700ad506063969a4a5","infreq","img/green_2bandit_a2.png","68","68","test","1","65","65","3","",""
"null","219681","pSARL_v2","pSARL_v2lhplc307","5dce29700ad506063969a4a5","infreq_resp","img/green_2bandit_a.png","68","68","test","","","","3","",""
"null","219842","pSARL_v2","pSARL_v2lhplc307","5dce29700ad506063969a4a5","fixation","img/fixation.png","null","","test","","","","","",""
"417.2999999821186","220267","pSARL_v2","pSARL_v2lhplc307","5dce29700ad506063969a4a5","freq","img/orange_2bandit_a2.png","70","70","test","1","66","66","3","",""
"null","220656","pSARL_v2","pSARL_v2lhplc307","5dce29700ad506063969a4a5","freq_resp","img/orange_2bandit_a.png","70","70","test","","","","3","",""
"null","220822","pSARL_v2","pSARL_v2lhplc307","5dce29700ad506063969a4a5","fixation","img/fixation.png","null","","test","","","","","",""
"533.5","221358","pSARL_v2","pSARL_v2lhplc307","5dce29700ad506063969a4a5","reward","img/slot.png","74","","test","","","","","",""
"null","222117","pSARL_v2","pSARL_v2lhplc307","5dce29700ad506063969a4a5","points","<div class=""verylowPoints""> -7 </div>","null","na","test","","","","3","-7","2"
"703","222826","pSARL_v2","pSARL_v2lhplc307","5dce29700ad506063969a4a5","freq","img/orange_2bandit_a2.png","70","70","test","1","67","67","4","",""
"null","222935","pSARL_v2","pSARL_v2lhplc307","5dce29700ad506063969a4a5","freq_resp","img/orange_2bandit_a.png","70","70","test","","","","4","",""
"null","223091","pSARL_v2","pSARL_v2lhplc307","5dce29700ad506063969a4a5","fixation","img/fixation.png","null","","test","","","","","",""
"528.6999999880791","223623","pSARL_v2","pSARL_v2lhplc307","5dce29700ad506063969a4a5","freq","img/orange_2bandit_a2.png","70","70","test","1","68","68","4","",""
"null","223914","pSARL_v2","pSARL_v2lhplc307","5dce29700ad506063969a4a5","freq_resp","img/orange_2bandit_a.png","70","70","test","","","","4","",""
"null","224084","pSARL_v2","pSARL_v2lhplc307","5dce29700ad506063969a4a5","fixation","img/fixation.png","null","","test","","","","","",""
"590.4000000059605","224679","pSARL_v2","pSARL_v2lhplc307","5dce29700ad506063969a4a5","freq","img/orange_2bandit_a2.png","70","70","test","1","69","69","4","",""
"null","224897","pSARL_v2","pSARL_v2lhplc307","5dce29700ad506063969a4a5","freq_resp","img/orange_2bandit_a.png","70","70","test","","","","4","",""
"null","225068","pSARL_v2","pSARL_v2lhplc307","5dce29700ad506063969a4a5","fixation","img/fixation.png","null","","test","","","","","",""
"431.5","225506","pSARL_v2","pSARL_v2lhplc307","5dce29700ad506063969a4a5","freq","img/orange_2bandit_a2.png","70","70","test","1","70","70","4","",""
"null","225893","pSARL_v2","pSARL_v2lhplc307","5dce29700ad506063969a4a5","freq_resp","img/orange_2bandit_a.png","70","70","test","","","","4","",""
"null","226065","pSARL_v2","pSARL_v2lhplc307","5dce29700ad506063969a4a5","fixation","img/fixation.png","null","","test","","","","","",""
"426","226498","pSARL_v2","pSARL_v2lhplc307","5dce29700ad506063969a4a5","freq","img/orange_2bandit_a2.png","70","70","test","1","71","71","4","",""
"null","226879","pSARL_v2","pSARL_v2lhplc307","5dce29700ad506063969a4a5","freq_resp","img/orange_2bandit_a.png","70","70","test","","","","4","",""
"null","227037","pSARL_v2","pSARL_v2lhplc307","5dce29700ad506063969a4a5","fixation","img/fixation.png","null","","test","","","","","",""
"389.40000000596046","227432","pSARL_v2","pSARL_v2lhplc307","5dce29700ad506063969a4a5","freq","img/orange_2bandit_a2.png","70","70","test","1","72","72","4","",""
"null","227859","pSARL_v2","pSARL_v2lhplc307","5dce29700ad506063969a4a5","freq_resp","img/orange_2bandit_a.png","70","70","test","","","","4","",""
"null","228017","pSARL_v2","pSARL_v2lhplc307","5dce29700ad506063969a4a5","fixation","img/fixation.png","null","","test","","","","","",""
"425.5","228448","pSARL_v2","pSARL_v2lhplc307","5dce29700ad506063969a4a5","freq","img/orange_2bandit_a2.png","70","70","test","1","73","73","4","",""
"null","228832","pSARL_v2","pSARL_v2lhplc307","5dce29700ad506063969a4a5","freq_resp","img/orange_2bandit_a.png","70","70","test","","","","4","",""
"null","228992","pSARL_v2","pSARL_v2lhplc307","5dce29700ad506063969a4a5","fixation","img/fixation.png","null","","test","","","","","",""
"355","229355","pSARL_v2","pSARL_v2lhplc307","5dce29700ad506063969a4a5","infreq","img/green_2bandit_a2.png","70","68","test","0","74","74","4","",""
"null","229810","pSARL_v2","pSARL_v2lhplc307","5dce29700ad506063969a4a5","infreq_resp","img/green_2bandit_a.png","70","68","test","","","","4","",""
"null","229969","pSARL_v2","pSARL_v2lhplc307","5dce29700ad506063969a4a5","fixation","img/fixation.png","null","","test","","","","","",""
"529.9000000059605","230504","pSARL_v2","pSARL_v2lhplc307","5dce29700ad506063969a4a5","freq","img/orange_2bandit_a2.png","70","70","test","1","75","75","4","",""
"null","230793","pSARL_v2","pSARL_v2lhplc307","5dce29700ad506063969a4a5","freq_resp","img/orange_2bandit_a.png","70","70","test","","","","4","",""
"null","230952","pSARL_v2","pSARL_v2lhplc307","5dce29700ad506063969a4a5","fixation","img/fixation.png","null","","test","","","","","",""
"387.69999998807907","231346","pSARL_v2","pSARL_v2lhplc307","5dce29700ad506063969a4a5","freq","img/orange_2bandit_a2.png","70","70","test","1","76","76","4","",""
"null","231764","pSARL_v2","pSARL_v2lhplc307","5dce29700ad506063969a4a5","freq_resp","img/orange_2bandit_a.png","70","70","test","","","","4","",""
"null","231922","pSARL_v2","pSARL_v2lhplc307","5dce29700ad506063969a4a5","fixation","img/fixation.png","null","","test","","","","","",""
"362.2999999821186","232289","pSARL_v2","pSARL_v2lhplc307","5dce29700ad506063969a4a5","freq","img/orange_2bandit_a2.png","70","70","test","1","77","77","4","",""
"null","232741","pSARL_v2","pSARL_v2lhplc307","5dce29700ad506063969a4a5","freq_resp","img/orange_2bandit_a.png","70","70","test","","","","4","",""
"null","232901","pSARL_v2","pSARL_v2lhplc307","5dce29700ad506063969a4a5","fixation","img/fixation.png","null","","test","","","","","",""
"446.09999999403954","233354","pSARL_v2","pSARL_v2lhplc307","5dce29700ad506063969a4a5","freq","img/orange_2bandit_a2.png","70","70","test","1","78","78","4","",""
"null","233718","pSARL_v2","pSARL_v2lhplc307","5dce29700ad506063969a4a5","freq_resp","img/orange_2bandit_a.png","70","70","test","","","","4","",""
"null","233890","pSARL_v2","pSARL_v2lhplc307","5dce29700ad506063969a4a5","fixation","img/fixation.png","null","","test","","","","","",""
"298.09999999403954","234194","pSARL_v2","pSARL_v2lhplc307","5dce29700ad506063969a4a5","freq","img/orange_2bandit_a2.png","70","70","test","1","79","79","4","",""
"null","234712","pSARL_v2","pSARL_v2lhplc307","5dce29700ad506063969a4a5","freq_resp","img/orange_2bandit_a.png","70","70","test","","","","4","",""
"null","234881","pSARL_v2","pSARL_v2lhplc307","5dce29700ad506063969a4a5","fixation","img/fixation.png","null","","test","","","","","",""
"259.09999999403954","235147","pSARL_v2","pSARL_v2lhplc307","5dce29700ad506063969a4a5","freq","img/orange_2bandit_a2.png","70","70","test","1","80","80","4","",""
"null","235701","pSARL_v2","pSARL_v2lhplc307","5dce29700ad506063969a4a5","freq_resp","img/orange_2bandit_a.png","70","70","test","","","","4","",""
"null","235855","pSARL_v2","pSARL_v2lhplc307","5dce29700ad506063969a4a5","fixation","img/fixation.png","null","","test","","","","","",""
"397.09999999403954","236259","pSARL_v2","pSARL_v2lhplc307","5dce29700ad506063969a4a5","freq","img/orange_2bandit_a2.png","70","70","test","1","81","81","4","",""
"null","236671","pSARL_v2","pSARL_v2lhplc307","5dce29700ad506063969a4a5","freq_resp","img/orange_2bandit_a.png","70","70","test","","","","4","",""
"null","236827","pSARL_v2","pSARL_v2lhplc307","5dce29700ad506063969a4a5","fixation","img/fixation.png","null","","test","","","","","",""
"360.19999998807907","237192","pSARL_v2","pSARL_v2lhplc307","5dce29700ad506063969a4a5","freq","img/orange_2bandit_a2.png","70","70","test","1","82","82","4","",""
"null","237645","pSARL_v2","pSARL_v2lhplc307","5dce29700ad506063969a4a5","freq_resp","img/orange_2bandit_a.png","70","70","test","","","","4","",""
"null","237803","pSARL_v2","pSARL_v2lhplc307","5dce29700ad506063969a4a5","fixation","img/fixation.png","null","","test","","","","","",""
"407.09999999403954","238216","pSARL_v2","pSARL_v2lhplc307","5dce29700ad506063969a4a5","freq","img/orange_2bandit_a2.png","70","70","test","1","83","83","4","",""
"null","238620","pSARL_v2","pSARL_v2lhplc307","5dce29700ad506063969a4a5","freq_resp","img/orange_2bandit_a.png","70","70","test","","","","4","",""
"null","238780","pSARL_v2","pSARL_v2lhplc307","5dce29700ad506063969a4a5","fixation","img/fixation.png","null","","test","","","","","",""
"575.1999999880791","239362","pSARL_v2","pSARL_v2lhplc307","5dce29700ad506063969a4a5","infreq","img/green_2bandit_a2.png","68","68","test","1","84","84","4","",""
"null","239607","pSARL_v2","pSARL_v2lhplc307","5dce29700ad506063969a4a5","infreq_resp","img/green_2bandit_a.png","68","68","test","","","","4","",""
"null","239766","pSARL_v2","pSARL_v2lhplc307","5dce29700ad506063969a4a5","fixation","img/fixation.png","null","","test","","","","","",""
"396.40000000596046","240167","pSARL_v2","pSARL_v2lhplc307","5dce29700ad506063969a4a5","freq","img/orange_2bandit_a2.png","70","70","test","1","85","85","4","",""
"null","240588","pSARL_v2","pSARL_v2lhplc307","5dce29700ad506063969a4a5","freq_resp","img/orange_2bandit_a.png","70","70","test","","","","4","",""
"null","240747","pSARL_v2","pSARL_v2lhplc307","5dce29700ad506063969a4a5","fixation","img/fixation.png","null","","test","","","","","",""
"288.90000000596046","241040","pSARL_v2","pSARL_v2lhplc307","5dce29700ad506063969a4a5","freq","img/orange_2bandit_a2.png","70","70","test","1","86","86","4","",""
"null","241557","pSARL_v2","pSARL_v2lhplc307","5dce29700ad506063969a4a5","freq_resp","img/orange_2bandit_a.png","70","70","test","","","","4","",""
"null","241728","pSARL_v2","pSARL_v2lhplc307","5dce29700ad506063969a4a5","fixation","img/fixation.png","null","","test","","","","","",""
"250.7000000178814","241982","pSARL_v2","pSARL_v2lhplc307","5dce29700ad506063969a4a5","freq","img/orange_2bandit_a2.png","70","70","test","1","87","87","4","",""
"null","242550","pSARL_v2","pSARL_v2lhplc307","5dce29700ad506063969a4a5","freq_resp","img/orange_2bandit_a.png","70","70","test","","","","4","",""
"null","242705","pSARL_v2","pSARL_v2lhplc307","5dce29700ad506063969a4a5","fixation","img/fixation.png","null","","test","","","","","",""
"353.7000000178814","243063","pSARL_v2","pSARL_v2lhplc307","5dce29700ad506063969a4a5","freq","img/orange_2bandit_a2.png","70","70","test","1","88","88","4","",""
"null","243517","pSARL_v2","pSARL_v2lhplc307","5dce29700ad506063969a4a5","freq_resp","img/orange_2bandit_a.png","70","70","test","","","","4","",""
"null","243675","pSARL_v2","pSARL_v2lhplc307","5dce29700ad506063969a4a5","fixation","img/fixation.png","null","","test","","","","","",""
"352.09999999403954","244031","pSARL_v2","pSARL_v2lhplc307","5dce29700ad506063969a4a5","freq","img/orange_2bandit_a2.png","70","70","test","1","89","89","4","",""
"null","244488","pSARL_v2","pSARL_v2lhplc307","5dce29700ad506063969a4a5","freq_resp","img/orange_2bandit_a.png","70","70","test","","","","4","",""
"null","244642","pSARL_v2","pSARL_v2lhplc307","5dce29700ad506063969a4a5","fixation","img/fixation.png","null","","test","","","","","",""
"441.90000000596046","245088","pSARL_v2","pSARL_v2lhplc307","5dce29700ad506063969a4a5","freq","img/orange_2bandit_a2.png","70","70","test","1","90","90","4","",""
"null","245454","pSARL_v2","pSARL_v2lhplc307","5dce29700ad506063969a4a5","freq_resp","img/orange_2bandit_a.png","70","70","test","","","","4","",""
"null","245611","pSARL_v2","pSARL_v2lhplc307","5dce29700ad506063969a4a5","fixation","img/fixation.png","null","","test","","","","","",""
"409.59999999403954","246026","pSARL_v2","pSARL_v2lhplc307","5dce29700ad506063969a4a5","freq","img/orange_2bandit_a2.png","70","70","test","1","91","91","4","",""
"null","246428","pSARL_v2","pSARL_v2lhplc307","5dce29700ad506063969a4a5","freq_resp","img/orange_2bandit_a.png","70","70","test","","","","4","",""
"null","246600","pSARL_v2","pSARL_v2lhplc307","5dce29700ad506063969a4a5","fixation","img/fixation.png","null","","test","","","","","",""
"539.2999999821186","247144","pSARL_v2","pSARL_v2lhplc307","5dce29700ad506063969a4a5","reward","img/slot.png","74","","test","","","","","",""
"null","247910","pSARL_v2","pSARL_v2lhplc307","5dce29700ad506063969a4a5","points","<div class=""verylowPoints""> -3 </div>","null","na","test","","","","4","-3","3"
"687","248604","pSARL_v2","pSARL_v2lhplc307","5dce29700ad506063969a4a5","freq","img/orange_2bandit_a2.png","70","70","test","1","92","92","5","",""
"null","248731","pSARL_v2","pSARL_v2lhplc307","5dce29700ad506063969a4a5","freq_resp","img/orange_2bandit_a.png","70","70","test","","","","5","",""
"null","248898","pSARL_v2","pSARL_v2lhplc307","5dce29700ad506063969a4a5","fixation","img/fixation.png","null","","test","","","","","",""
"466","249373","pSARL_v2","pSARL_v2lhplc307","5dce29700ad506063969a4a5","freq","img/orange_2bandit_a2.png","70","70","test","1","93","93","5","",""
"null","249715","pSARL_v2","pSARL_v2lhplc307","5dce29700ad506063969a4a5","freq_resp","img/orange_2bandit_a.png","70","70","test","","","","5","",""
"null","249874","pSARL_v2","pSARL_v2lhplc307","5dce29700ad506063969a4a5","fixation","img/fixation.png","null","","test","","","","","",""
"417.30000001192093","250299","pSARL_v2","pSARL_v2lhplc307","5dce29700ad506063969a4a5","freq","img/orange_2bandit_a2.png","70","70","test","1","94","94","5","",""
"null","250688","pSARL_v2","pSARL_v2lhplc307","5dce29700ad506063969a4a5","freq_resp","img/orange_2bandit_a.png","70","70","test","","","","5","",""
"null","250845","pSARL_v2","pSARL_v2lhplc307","5dce29700ad506063969a4a5","fixation","img/fixation.png","null","","test","","","","","",""
"510.59999999403954","251363","pSARL_v2","pSARL_v2lhplc307","5dce29700ad506063969a4a5","infreq","img/green_2bandit_a2.png","68","68","test","1","95","95","5","",""
"null","251662","pSARL_v2","pSARL_v2lhplc307","5dce29700ad506063969a4a5","infreq_resp","img/green_2bandit_a.png","68","68","test","","","","5","",""
"null","251835","pSARL_v2","pSARL_v2lhplc307","5dce29700ad506063969a4a5","fixation","img/fixation.png","null","","test","","","","","",""
"576.7999999821186","252419","pSARL_v2","pSARL_v2lhplc307","5dce29700ad506063969a4a5","freq","img/orange_2bandit_a2.png","70","70","test","1","96","96","5","",""
"null","252647","pSARL_v2","pSARL_v2lhplc307","5dce29700ad506063969a4a5","freq_resp","img/orange_2bandit_a.png","70","70","test","","","","5","",""
"null","252814","pSARL_v2","pSARL_v2lhplc307","5dce29700ad506063969a4a5","fixation","img/fixation.png","null","","test","","","","","",""
"534.7999999821186","253355","pSARL_v2","pSARL_v2lhplc307","5dce29700ad506063969a4a5","infreq","img/green_2bandit_a2.png","68","68","test","1","97","97","5","",""
"null","253624","pSARL_v2","pSARL_v2lhplc307","5dce29700ad506063969a4a5","infreq_resp","img/green_2bandit_a.png","68","68","test","","","","5","",""
"null","253780","pSARL_v2","pSARL_v2lhplc307","5dce29700ad506063969a4a5","fixation","img/fixation.png","null","","test","","","","","",""
"504.7000000178814","254291","pSARL_v2","pSARL_v2lhplc307","5dce29700ad506063969a4a5","freq","img/orange_2bandit_a2.png","70","70","test","1","98","98","5","",""
"null","254593","pSARL_v2","pSARL_v2lhplc307","5dce29700ad506063969a4a5","freq_resp","img/orange_2bandit_a.png","70","70","test","","","","5","",""
"null","254747","pSARL_v2","pSARL_v2lhplc307","5dce29700ad506063969a4a5","fixation","img/fixation.png","null","","test","","","","","",""
"344.40000000596046","255095","pSARL_v2","pSARL_v2lhplc307","5dce29700ad506063969a4a5","freq","img/orange_2bandit_a2.png","70","70","test","1","99","99","5","",""
"null","255561","pSARL_v2","pSARL_v2lhplc307","5dce29700ad506063969a4a5","freq_resp","img/orange_2bandit_a.png","70","70","test","","","","5","",""
"null","255734","pSARL_v2","pSARL_v2lhplc307","5dce29700ad506063969a4a5","fixation","img/fixation.png","null","","test","","","","","",""
"254","255995","pSARL_v2","pSARL_v2lhplc307","5dce29700ad506063969a4a5","freq","img/orange_2bandit_a2.png","70","70","test","1","100","100","5","",""
"null","256554","pSARL_v2","pSARL_v2lhplc307","5dce29700ad506063969a4a5","freq_resp","img/orange_2bandit_a.png","70","70","test","","","","5","",""
"null","256726","pSARL_v2","pSARL_v2lhplc307","5dce29700ad506063969a4a5","fixation","img/fixation.png","null","","test","","","","","",""
"261.69999998807907","256995","pSARL_v2","pSARL_v2lhplc307","5dce29700ad506063969a4a5","freq","img/orange_2bandit_a2.png","70","70","test","1","101","101","5","",""
"null","257551","pSARL_v2","pSARL_v2lhplc307","5dce29700ad506063969a4a5","freq_resp","img/orange_2bandit_a.png","70","70","test","","","","5","",""
"null","257710","pSARL_v2","pSARL_v2lhplc307","5dce29700ad506063969a4a5","fixation","img/fixation.png","null","","test","","","","","",""
"390.09999999403954","258107","pSARL_v2","pSARL_v2lhplc307","5dce29700ad506063969a4a5","freq","img/orange_2bandit_a2.png","70","70","test","1","102","102","5","",""
"null","258523","pSARL_v2","pSARL_v2lhplc307","5dce29700ad506063969a4a5","freq_resp","img/orange_2bandit_a.png","70","70","test","","","","5","",""
"null","258687","pSARL_v2","pSARL_v2lhplc307","5dce29700ad506063969a4a5","fixation","img/fixation.png","null","","test","","","","","",""
"373.40000000596046","259067","pSARL_v2","pSARL_v2lhplc307","5dce29700ad506063969a4a5","freq","img/orange_2bandit_a2.png","70","70","test","1","103","103","5","",""
"null","259511","pSARL_v2","pSARL_v2lhplc307","5dce29700ad506063969a4a5","freq_resp","img/orange_2bandit_a.png","70","70","test","","","","5","",""
"null","259668","pSARL_v2","pSARL_v2lhplc307","5dce29700ad506063969a4a5","fixation","img/fixation.png","null","","test","","","","","",""
"336.90000000596046","260011","pSARL_v2","pSARL_v2lhplc307","5dce29700ad506063969a4a5","freq","img/orange_2bandit_a2.png","70","70","test","1","104","104","5","",""
"null","260480","pSARL_v2","pSARL_v2lhplc307","5dce29700ad506063969a4a5","freq_resp","img/orange_2bandit_a.png","70","70","test","","","","5","",""
"null","260639","pSARL_v2","pSARL_v2lhplc307","5dce29700ad506063969a4a5","fixation","img/fixation.png","null","","test","","","","","",""
"308.90000000596046","260951","pSARL_v2","pSARL_v2lhplc307","5dce29700ad506063969a4a5","freq","img/orange_2bandit_a2.png","70","70","test","1","105","105","5","",""
"null","261464","pSARL_v2","pSARL_v2lhplc307","5dce29700ad506063969a4a5","freq_resp","img/orange_2bandit_a.png","70","70","test","","","","5","",""
"null","261632","pSARL_v2","pSARL_v2lhplc307","5dce29700ad506063969a4a5","fixation","img/fixation.png","null","","test","","","","","",""
"212.09999999403954","261848","pSARL_v2","pSARL_v2lhplc307","5dce29700ad506063969a4a5","freq","img/orange_2bandit_a2.png","70","70","test","1","106","106","5","",""
"null","262448","pSARL_v2","pSARL_v2lhplc307","5dce29700ad506063969a4a5","freq_resp","img/orange_2bandit_a.png","70","70","test","","","","5","",""
"null","262614","pSARL_v2","pSARL_v2lhplc307","5dce29700ad506063969a4a5","fixation","img/fixation.png","null","","test","","","","","",""
"366.80000001192093","262987","pSARL_v2","pSARL_v2lhplc307","5dce29700ad506063969a4a5","freq","img/orange_2bandit_a2.png","70","70","test","1","107","107","5","",""
"null","263434","pSARL_v2","pSARL_v2lhplc307","5dce29700ad506063969a4a5","freq_resp","img/orange_2bandit_a.png","70","70","test","","","","5","",""
"null","263591","pSARL_v2","pSARL_v2lhplc307","5dce29700ad506063969a4a5","fixation","img/fixation.png","null","","test","","","","","",""
"381.39999997615814","263977","pSARL_v2","pSARL_v2lhplc307","5dce29700ad506063969a4a5","freq","img/orange_2bandit_a2.png","70","70","test","1","108","108","5","",""
"null","264405","pSARL_v2","pSARL_v2lhplc307","5dce29700ad506063969a4a5","freq_resp","img/orange_2bandit_a.png","70","70","test","","","","5","",""
"null","264578","pSARL_v2","pSARL_v2lhplc307","5dce29700ad506063969a4a5","fixation","img/fixation.png","null","","test","","","","","",""
"385.69999998807907","264970","pSARL_v2","pSARL_v2lhplc307","5dce29700ad506063969a4a5","freq","img/orange_2bandit_a2.png","70","70","test","1","109","109","5","",""
"null","265402","pSARL_v2","pSARL_v2lhplc307","5dce29700ad506063969a4a5","freq_resp","img/orange_2bandit_a.png","70","70","test","","","","5","",""
"null","265561","pSARL_v2","pSARL_v2lhplc307","5dce29700ad506063969a4a5","fixation","img/fixation.png","null","","test","","","","","",""
"403","265969","pSARL_v2","pSARL_v2lhplc307","5dce29700ad506063969a4a5","freq","img/orange_2bandit_a2.png","70","70","test","1","110","110","5","",""
"null","266380","pSARL_v2","pSARL_v2lhplc307","5dce29700ad506063969a4a5","freq_resp","img/orange_2bandit_a.png","70","70","test","","","","5","",""
"null","266540","pSARL_v2","pSARL_v2lhplc307","5dce29700ad506063969a4a5","fixation","img/fixation.png","null","","test","","","","","",""
"383.30000001192093","266927","pSARL_v2","pSARL_v2lhplc307","5dce29700ad506063969a4a5","freq","img/orange_2bandit_a2.png","70","70","test","1","111","111","5","",""
"null","267363","pSARL_v2","pSARL_v2lhplc307","5dce29700ad506063969a4a5","freq_resp","img/orange_2bandit_a.png","70","70","test","","","","5","",""
"null","267522","pSARL_v2","pSARL_v2lhplc307","5dce29700ad506063969a4a5","fixation","img/fixation.png","null","","test","","","","","",""
"369.40000000596046","267899","pSARL_v2","pSARL_v2lhplc307","5dce29700ad506063969a4a5","infreq","img/green_2bandit_a2.png","70","68","test","0","112","112","5","",""
"null","268342","pSARL_v2","pSARL_v2lhplc307","5dce29700ad506063969a4a5","infreq_resp","img/green_2bandit_a.png","70","68","test","","","","5","",""
"null","268496","pSARL_v2","pSARL_v2lhplc307","5dce29700ad506063969a4a5","fixation","img/fixation.png","null","","test","","","","","",""
"612.8000000119209","269115","pSARL_v2","pSARL_v2lhplc307","5dce29700ad506063969a4a5","freq","img/orange_2bandit_a2.png","70","70","test","1","113","113","5","",""
"null","269320","pSARL_v2","pSARL_v2lhplc307","5dce29700ad506063969a4a5","freq_resp","img/orange_2bandit_a.png","70","70","test","","","","5","",""
"null","269487","pSARL_v2","pSARL_v2lhplc307","5dce29700ad506063969a4a5","fixation","img/fixation.png","null","","test","","","","","",""
"468.40000000596046","269959","pSARL_v2","pSARL_v2lhplc307","5dce29700ad506063969a4a5","freq","img/orange_2bandit_a2.png","70","70","test","1","114","114","5","",""
"null","270306","pSARL_v2","pSARL_v2lhplc307","5dce29700ad506063969a4a5","freq_resp","img/orange_2bandit_a.png","70","70","test","","","","5","",""
"null","270478","pSARL_v2","pSARL_v2lhplc307","5dce29700ad506063969a4a5","fixation","img/fixation.png","null","","test","","","","","",""
"502.40000000596046","270983","pSARL_v2","pSARL_v2lhplc307","5dce29700ad506063969a4a5","reward","img/slot.png","74","","test","","","","","",""
"null","271739","pSARL_v2","pSARL_v2lhplc307","5dce29700ad506063969a4a5","points","<div class=""veryhighPoints""> +1 </div>","null","na","test","","","","5","1","4"
"570","272315","pSARL_v2","pSARL_v2lhplc307","5dce29700ad506063969a4a5","freq","img/orange_2bandit_a2.png","70","70","test","1","115","115","6","",""
"null","272556","pSARL_v2","pSARL_v2lhplc307","5dce29700ad506063969a4a5","freq_resp","img/orange_2bandit_a.png","70","70","test","","","","6","",""
"null","272714","pSARL_v2","pSARL_v2lhplc307","5dce29700ad506063969a4a5","fixation","img/fixation.png","null","","test","","","","","",""
"370.09999999403954","273089","pSARL_v2","pSARL_v2lhplc307","5dce29700ad506063969a4a5","freq","img/orange_2bandit_a2.png","70","70","test","1","116","116","6","",""
"null","273526","pSARL_v2","pSARL_v2lhplc307","5dce29700ad506063969a4a5","freq_resp","img/orange_2bandit_a.png","70","70","test","","","","6","",""
"null","273695","pSARL_v2","pSARL_v2lhplc307","5dce29700ad506063969a4a5","fixation","img/fixation.png","null","","test","","","","","",""
"372.40000000596046","274073","pSARL_v2","pSARL_v2lhplc307","5dce29700ad506063969a4a5","freq","img/orange_2bandit_a2.png","70","70","test","1","117","117","6","",""
"null","274504","pSARL_v2","pSARL_v2lhplc307","5dce29700ad506063969a4a5","freq_resp","img/orange_2bandit_a.png","70","70","test","","","","6","",""
"null","274666","pSARL_v2","pSARL_v2lhplc307","5dce29700ad506063969a4a5","fixation","img/fixation.png","null","","test","","","","","",""
"330.09999999403954","275004","pSARL_v2","pSARL_v2lhplc307","5dce29700ad506063969a4a5","freq","img/orange_2bandit_a2.png","70","70","test","1","118","118","6","",""
"null","275494","pSARL_v2","pSARL_v2lhplc307","5dce29700ad506063969a4a5","freq_resp","img/orange_2bandit_a.png","70","70","test","","","","6","",""
"null","275664","pSARL_v2","pSARL_v2lhplc307","5dce29700ad506063969a4a5","fixation","img/fixation.png","null","","test","","","","","",""
"380","276047","pSARL_v2","pSARL_v2lhplc307","5dce29700ad506063969a4a5","infreq","img/green_2bandit_a2.png","70","68","test","0","119","119","6","",""
"null","276478","pSARL_v2","pSARL_v2lhplc307","5dce29700ad506063969a4a5","infreq_resp","img/green_2bandit_a.png","70","68","test","","","","6","",""
"null","276647","pSARL_v2","pSARL_v2lhplc307","5dce29700ad506063969a4a5","fixation","img/fixation.png","null","","test","","","","","",""
"509.09999999403954","277162","pSARL_v2","pSARL_v2lhplc307","5dce29700ad506063969a4a5","freq","img/orange_2bandit_a2.png","70","70","test","1","120","120","6","",""
"null","277461","pSARL_v2","pSARL_v2lhplc307","5dce29700ad506063969a4a5","freq_resp","img/orange_2bandit_a.png","70","70","test","","","","6","",""
"null","277630","pSARL_v2","pSARL_v2lhplc307","5dce29700ad506063969a4a5","fixation","img/fixation.png","null","","test","","","","","",""
"422.30000001192093","278055","pSARL_v2","pSARL_v2lhplc307","5dce29700ad506063969a4a5","freq","img/orange_2bandit_a2.png","70","70","test","1","121","121","6","",""
"null","278451","pSARL_v2","pSARL_v2lhplc307","5dce29700ad506063969a4a5","freq_resp","img/orange_2bandit_a.png","70","70","test","","","","6","",""
"null","278615","pSARL_v2","pSARL_v2lhplc307","5dce29700ad506063969a4a5","fixation","img/fixation.png","null","","test","","","","","",""
"381.2999999821186","279002","pSARL_v2","pSARL_v2lhplc307","5dce29700ad506063969a4a5","freq","img/orange_2bandit_a2.png","70","70","test","1","122","122","6","",""
"null","279433","pSARL_v2","pSARL_v2lhplc307","5dce29700ad506063969a4a5","freq_resp","img/orange_2bandit_a.png","70","70","test","","","","6","",""
"null","279587","pSARL_v2","pSARL_v2lhplc307","5dce29700ad506063969a4a5","fixation","img/fixation.png","null","","test","","","","","",""
"393.7000000178814","279988","pSARL_v2","pSARL_v2lhplc307","5dce29700ad506063969a4a5","freq","img/orange_2bandit_a2.png","70","70","test","1","123","123","6","",""
"null","280400","pSARL_v2","pSARL_v2lhplc307","5dce29700ad506063969a4a5","freq_resp","img/orange_2bandit_a.png","70","70","test","","","","6","",""
"null","280569","pSARL_v2","pSARL_v2lhplc307","5dce29700ad506063969a4a5","fixation","img/fixation.png","null","","test","","","","","",""
"419.90000000596046","280995","pSARL_v2","pSARL_v2lhplc307","5dce29700ad506063969a4a5","freq","img/orange_2bandit_a2.png","70","70","test","1","124","124","6","",""
"null","281388","pSARL_v2","pSARL_v2lhplc307","5dce29700ad506063969a4a5","freq_resp","img/orange_2bandit_a.png","70","70","test","","","","6","",""
"null","281556","pSARL_v2","pSARL_v2lhplc307","5dce29700ad506063969a4a5","fixation","img/fixation.png","null","","test","","","","","",""
"367.80000001192093","281930","pSARL_v2","pSARL_v2lhplc307","5dce29700ad506063969a4a5","freq","img/orange_2bandit_a2.png","70","70","test","1","125","125","6","",""
"null","282378","pSARL_v2","pSARL_v2lhplc307","5dce29700ad506063969a4a5","freq_resp","img/orange_2bandit_a.png","70","70","test","","","","6","",""
"null","282547","pSARL_v2","pSARL_v2lhplc307","5dce29700ad506063969a4a5","fixation","img/fixation.png","null","","test","","","","","",""
"233.2000000178814","282787","pSARL_v2","pSARL_v2lhplc307","5dce29700ad506063969a4a5","freq","img/orange_2bandit_a2.png","70","70","test","1","126","126","6","",""
"null","283359","pSARL_v2","pSARL_v2lhplc307","5dce29700ad506063969a4a5","freq_resp","img/orange_2bandit_a.png","70","70","test","","","","6","",""
"null","283518","pSARL_v2","pSARL_v2lhplc307","5dce29700ad506063969a4a5","fixation","img/fixation.png","null","","test","","","","","",""
"229.89999997615814","283755","pSARL_v2","pSARL_v2lhplc307","5dce29700ad506063969a4a5","freq","img/orange_2bandit_a2.png","70","70","test","1","127","127","6","",""
"null","284335","pSARL_v2","pSARL_v2lhplc307","5dce29700ad506063969a4a5","freq_resp","img/orange_2bandit_a.png","70","70","test","","","","6","",""
"null","284489","pSARL_v2","pSARL_v2lhplc307","5dce29700ad506063969a4a5","fixation","img/fixation.png","null","","test","","","","","",""
"395.09999999403954","284891","pSARL_v2","pSARL_v2lhplc307","5dce29700ad506063969a4a5","freq","img/orange_2bandit_a2.png","70","70","test","1","128","128","6","",""
"null","285306","pSARL_v2","pSARL_v2lhplc307","5dce29700ad506063969a4a5","freq_resp","img/orange_2bandit_a.png","70","70","test","","","","6","",""
"null","285473","pSARL_v2","pSARL_v2lhplc307","5dce29700ad506063969a4a5","fixation","img/fixation.png","null","","test","","","","","",""
"370.7999999821186","285847","pSARL_v2","pSARL_v2lhplc307","5dce29700ad506063969a4a5","freq","img/orange_2bandit_a2.png","70","70","test","1","129","129","6","",""
"null","286296","pSARL_v2","pSARL_v2lhplc307","5dce29700ad506063969a4a5","freq_resp","img/orange_2bandit_a.png","70","70","test","","","","6","",""
"null","286457","pSARL_v2","pSARL_v2lhplc307","5dce29700ad506063969a4a5","fixation","img/fixation.png","null","","test","","","","","",""
"370.30000001192093","286831","pSARL_v2","pSARL_v2lhplc307","5dce29700ad506063969a4a5","freq","img/orange_2bandit_a2.png","70","70","test","1","130","130","6","",""
"null","287282","pSARL_v2","pSARL_v2lhplc307","5dce29700ad506063969a4a5","freq_resp","img/orange_2bandit_a.png","70","70","test","","","","6","",""
"null","287441","pSARL_v2","pSARL_v2lhplc307","5dce29700ad506063969a4a5","fixation","img/fixation.png","null","","test","","","","","",""
"266.19999998807907","287715","pSARL_v2","pSARL_v2lhplc307","5dce29700ad506063969a4a5","infreq","img/green_2bandit_a2.png","70","68","test","0","131","131","6","",""
"null","288258","pSARL_v2","pSARL_v2lhplc307","5dce29700ad506063969a4a5","infreq_resp","img/green_2bandit_a.png","70","68","test","","","","6","",""
"null","288431","pSARL_v2","pSARL_v2lhplc307","5dce29700ad506063969a4a5","fixation","img/fixation.png","null","","test","","","","","",""
"645.1999999880791","289083","pSARL_v2","pSARL_v2lhplc307","5dce29700ad506063969a4a5","freq","img/orange_2bandit_a2.png","70","70","test","1","132","132","6","",""
"null","289256","pSARL_v2","pSARL_v2lhplc307","5dce29700ad506063969a4a5","freq_resp","img/orange_2bandit_a.png","70","70","test","","","","6","",""
"null","289426","pSARL_v2","pSARL_v2lhplc307","5dce29700ad506063969a4a5","fixation","img/fixation.png","null","","test","","","","","",""
"481.90000000596046","289911","pSARL_v2","pSARL_v2lhplc307","5dce29700ad506063969a4a5","freq","img/orange_2bandit_a2.png","70","70","test","1","133","133","6","",""
"null","290236","pSARL_v2","pSARL_v2lhplc307","5dce29700ad506063969a4a5","freq_resp","img/orange_2bandit_a.png","70","70","test","","","","6","",""
"null","290395","pSARL_v2","pSARL_v2lhplc307","5dce29700ad506063969a4a5","fixation","img/fixation.png","null","","test","","","","","",""
"369","290771","pSARL_v2","pSARL_v2lhplc307","5dce29700ad506063969a4a5","freq","img/orange_2bandit_a2.png","70","70","test","1","134","134","6","",""
"null","291214","pSARL_v2","pSARL_v2lhplc307","5dce29700ad506063969a4a5","freq_resp","img/orange_2bandit_a.png","70","70","test","","","","6","",""
"null","291377","pSARL_v2","pSARL_v2lhplc307","5dce29700ad506063969a4a5","fixation","img/fixation.png","null","","test","","","","","",""
"380","291763","pSARL_v2","pSARL_v2lhplc307","5dce29700ad506063969a4a5","freq","img/orange_2bandit_a2.png","70","70","test","1","135","135","6","",""
"null","292200","pSARL_v2","pSARL_v2lhplc307","5dce29700ad506063969a4a5","freq_resp","img/orange_2bandit_a.png","70","70","test","","","","6","",""
"null","292361","pSARL_v2","pSARL_v2lhplc307","5dce29700ad506063969a4a5","fixation","img/fixation.png","null","","test","","","","","",""
"354.5","292723","pSARL_v2","pSARL_v2lhplc307","5dce29700ad506063969a4a5","freq","img/orange_2bandit_a2.png","70","70","test","1","136","136","6","",""
"null","293186","pSARL_v2","pSARL_v2lhplc307","5dce29700ad506063969a4a5","freq_resp","img/orange_2bandit_a.png","70","70","test","","","","6","",""
"null","293359","pSARL_v2","pSARL_v2lhplc307","5dce29700ad506063969a4a5","fixation","img/fixation.png","null","","test","","","","","",""
"508.40000000596046","293871","pSARL_v2","pSARL_v2lhplc307","5dce29700ad506063969a4a5","reward","img/slot.png","74","","test","","","","","",""
"null","294629","pSARL_v2","pSARL_v2lhplc307","5dce29700ad506063969a4a5","points","<div class=""verylowPoints""> -7 </div>","null","na","test","","","","6","-7","5"
"456","295091","pSARL_v2","pSARL_v2lhplc307","5dce29700ad506063969a4a5","freq","img/orange_2bandit_a2.png","70","70","test","1","137","137","7","",""
"null","295450","pSARL_v2","pSARL_v2lhplc307","5dce29700ad506063969a4a5","freq_resp","img/orange_2bandit_a.png","70","70","test","","","","7","",""
"null","295611","pSARL_v2","pSARL_v2lhplc307","5dce29700ad506063969a4a5","fixation","img/fixation.png","null","","test","","","","","",""
"376.80000001192093","295991","pSARL_v2","pSARL_v2lhplc307","5dce29700ad506063969a4a5","freq","img/orange_2bandit_a2.png","70","70","test","1","138","138","7","",""
"null","296426","pSARL_v2","pSARL_v2lhplc307","5dce29700ad506063969a4a5","freq_resp","img/orange_2bandit_a.png","70","70","test","","","","7","",""
"null","296587","pSARL_v2","pSARL_v2lhplc307","5dce29700ad506063969a4a5","fixation","img/fixation.png","null","","test","","","","","",""
"353.2999999821186","296946","pSARL_v2","pSARL_v2lhplc307","5dce29700ad506063969a4a5","freq","img/orange_2bandit_a2.png","70","70","test","1","139","139","7","",""
"null","297412","pSARL_v2","pSARL_v2lhplc307","5dce29700ad506063969a4a5","freq_resp","img/orange_2bandit_a.png","70","70","test","","","","7","",""
"null","297585","pSARL_v2","pSARL_v2lhplc307","5dce29700ad506063969a4a5","fixation","img/fixation.png","null","","test","","","","","",""
"274.90000000596046","297867","pSARL_v2","pSARL_v2lhplc307","5dce29700ad506063969a4a5","freq","img/orange_2bandit_a2.png","70","70","test","1","140","140","7","",""
"null","298409","pSARL_v2","pSARL_v2lhplc307","5dce29700ad506063969a4a5","freq_resp","img/orange_2bandit_a.png","70","70","test","","","","7","",""
"null","298580","pSARL_v2","pSARL_v2lhplc307","5dce29700ad506063969a4a5","fixation","img/fixation.png","null","","test","","","","","",""
"337.30000001192093","298923","pSARL_v2","pSARL_v2lhplc307","5dce29700ad506063969a4a5","freq","img/orange_2bandit_a2.png","70","70","test","1","141","141","7","",""
"null","299392","pSARL_v2","pSARL_v2lhplc307","5dce29700ad506063969a4a5","freq_resp","img/orange_2bandit_a.png","70","70","test","","","","7","",""
"null","299549","pSARL_v2","pSARL_v2lhplc307","5dce29700ad506063969a4a5","fixation","img/fixation.png","null","","test","","","","","",""
"430.59999999403954","299983","pSARL_v2","pSARL_v2lhplc307","5dce29700ad506063969a4a5","freq","img/orange_2bandit_a2.png","70","70","test","1","142","142","7","",""
"null","300371","pSARL_v2","pSARL_v2lhplc307","5dce29700ad506063969a4a5","freq_resp","img/orange_2bandit_a.png","70","70","test","","","","7","",""
"null","300531","pSARL_v2","pSARL_v2lhplc307","5dce29700ad506063969a4a5","fixation","img/fixation.png","null","","test","","","","","",""
"377.40000000596046","300916","pSARL_v2","pSARL_v2lhplc307","5dce29700ad506063969a4a5","freq","img/orange_2bandit_a2.png","70","70","test","1","143","143","7","",""
"null","301352","pSARL_v2","pSARL_v2lhplc307","5dce29700ad506063969a4a5","freq_resp","img/orange_2bandit_a.png","70","70","test","","","","7","",""
"null","301508","pSARL_v2","pSARL_v2lhplc307","5dce29700ad506063969a4a5","fixation","img/fixation.png","null","","test","","","","","",""
"552.0999999940395","302064","pSARL_v2","pSARL_v2lhplc307","5dce29700ad506063969a4a5","infreq","img/green_2bandit_a2.png","68","68","test","1","144","144","7","",""
"null","302318","pSARL_v2","pSARL_v2lhplc307","5dce29700ad506063969a4a5","infreq_resp","img/green_2bandit_a.png","68","68","test","","","","7","",""
"null","302490","pSARL_v2","pSARL_v2lhplc307","5dce29700ad506063969a4a5","fixation","img/fixation.png","null","","test","","","","","",""
"null","303301","pSARL_v2","pSARL_v2lhplc307","5dce29700ad506063969a4a5","infreq","img/green_2bandit_a2.png","null","68","test","0","145","145","7","",""
"null","303468","pSARL_v2","pSARL_v2lhplc307","5dce29700ad506063969a4a5","fixation","img/fixation.png","null","","test","","","","","",""
"734.8000000119209","304208","pSARL_v2","pSARL_v2lhplc307","5dce29700ad506063969a4a5","freq","img/orange_2bandit_a2.png","70","70","test","1","146","146","7","",""
"null","304287","pSARL_v2","pSARL_v2lhplc307","5dce29700ad506063969a4a5","freq_resp","img/orange_2bandit_a.png","70","70","test","","","","7","",""
"null","304448","pSARL_v2","pSARL_v2lhplc307","5dce29700ad506063969a4a5","fixation","img/fixation.png","null","","test","","","","","",""
"515.7999999821186","304971","pSARL_v2","pSARL_v2lhplc307","5dce29700ad506063969a4a5","freq","img/orange_2bandit_a2.png","70","70","test","1","147","147","7","",""
"null","305262","pSARL_v2","pSARL_v2lhplc307","5dce29700ad506063969a4a5","freq_resp","img/orange_2bandit_a.png","70","70","test","","","","7","",""
"null","305417","pSARL_v2","pSARL_v2lhplc307","5dce29700ad506063969a4a5","fixation","img/fixation.png","null","","test","","","","","",""
"403.89999997615814","305827","pSARL_v2","pSARL_v2lhplc307","5dce29700ad506063969a4a5","freq","img/orange_2bandit_a2.png","70","70","test","1","148","148","7","",""
"null","306239","pSARL_v2","pSARL_v2lhplc307","5dce29700ad506063969a4a5","freq_resp","img/orange_2bandit_a.png","70","70","test","","","","7","",""
"null","306407","pSARL_v2","pSARL_v2lhplc307","5dce29700ad506063969a4a5","fixation","img/fixation.png","null","","test","","","","","",""
"382","306795","pSARL_v2","pSARL_v2lhplc307","5dce29700ad506063969a4a5","freq","img/orange_2bandit_a2.png","70","70","test","1","149","149","7","",""
"null","307222","pSARL_v2","pSARL_v2lhplc307","5dce29700ad506063969a4a5","freq_resp","img/orange_2bandit_a.png","70","70","test","","","","7","",""
"null","307391","pSARL_v2","pSARL_v2lhplc307","5dce29700ad506063969a4a5","fixation","img/fixation.png","null","","test","","","","","",""
"382","307778","pSARL_v2","pSARL_v2lhplc307","5dce29700ad506063969a4a5","freq","img/orange_2bandit_a2.png","70","70","test","1","150","150","7","",""
"null","308203","pSARL_v2","pSARL_v2lhplc307","5dce29700ad506063969a4a5","freq_resp","img/orange_2bandit_a.png","70","70","test","","","","7","",""
"null","308374","pSARL_v2","pSARL_v2lhplc307","5dce29700ad506063969a4a5","fixation","img/fixation.png","null","","test","","","","","",""
"398.59999999403954","308778","pSARL_v2","pSARL_v2lhplc307","5dce29700ad506063969a4a5","freq","img/orange_2bandit_a2.png","70","70","test","1","151","151","7","",""
"null","309190","pSARL_v2","pSARL_v2lhplc307","5dce29700ad506063969a4a5","freq_resp","img/orange_2bandit_a.png","70","70","test","","","","7","",""
"null","309358","pSARL_v2","pSARL_v2lhplc307","5dce29700ad506063969a4a5","fixation","img/fixation.png","null","","test","","","","","",""
"438.7999999821186","309803","pSARL_v2","pSARL_v2lhplc307","5dce29700ad506063969a4a5","freq","img/orange_2bandit_a2.png","70","70","test","1","152","152","7","",""
"null","310175","pSARL_v2","pSARL_v2lhplc307","5dce29700ad506063969a4a5","freq_resp","img/orange_2bandit_a.png","70","70","test","","","","7","",""
"null","310343","pSARL_v2","pSARL_v2lhplc307","5dce29700ad506063969a4a5","fixation","img/fixation.png","null","","test","","","","","",""
"380.7999999821186","310731","pSARL_v2","pSARL_v2lhplc307","5dce29700ad506063969a4a5","freq","img/orange_2bandit_a2.png","70","70","test","1","153","153","7","",""
"null","311172","pSARL_v2","pSARL_v2lhplc307","5dce29700ad506063969a4a5","freq_resp","img/orange_2bandit_a.png","70","70","test","","","","7","",""
"null","311341","pSARL_v2","pSARL_v2lhplc307","5dce29700ad506063969a4a5","fixation","img/fixation.png","null","","test","","","","","",""
"374.69999998807907","311720","pSARL_v2","pSARL_v2lhplc307","5dce29700ad506063969a4a5","freq","img/orange_2bandit_a2.png","70","70","test","1","154","154","7","",""
"null","312152","pSARL_v2","pSARL_v2lhplc307","5dce29700ad506063969a4a5","freq_resp","img/orange_2bandit_a.png","70","70","test","","","","7","",""
"null","312306","pSARL_v2","pSARL_v2lhplc307","5dce29700ad506063969a4a5","fixation","img/fixation.png","null","","test","","","","","",""
"370.40000000596046","312681","pSARL_v2","pSARL_v2lhplc307","5dce29700ad506063969a4a5","freq","img/orange_2bandit_a2.png","70","70","test","1","155","155","7","",""
"null","313126","pSARL_v2","pSARL_v2lhplc307","5dce29700ad506063969a4a5","freq_resp","img/orange_2bandit_a.png","70","70","test","","","","7","",""
"null","313294","pSARL_v2","pSARL_v2lhplc307","5dce29700ad506063969a4a5","fixation","img/fixation.png","null","","test","","","","","",""
"341.5","313641","pSARL_v2","pSARL_v2lhplc307","5dce29700ad506063969a4a5","freq","img/orange_2bandit_a2.png","70","70","test","1","156","156","7","",""
"null","314115","pSARL_v2","pSARL_v2lhplc307","5dce29700ad506063969a4a5","freq_resp","img/orange_2bandit_a.png","70","70","test","","","","7","",""
"null","314273","pSARL_v2","pSARL_v2lhplc307","5dce29700ad506063969a4a5","fixation","img/fixation.png","null","","test","","","","","",""
"379.2999999821186","314656","pSARL_v2","pSARL_v2lhplc307","5dce29700ad506063969a4a5","freq","img/orange_2bandit_a2.png","70","70","test","1","157","157","7","",""
"null","315093","pSARL_v2","pSARL_v2lhplc307","5dce29700ad506063969a4a5","freq_resp","img/orange_2bandit_a.png","70","70","test","","","","7","",""
"null","315263","pSARL_v2","pSARL_v2lhplc307","5dce29700ad506063969a4a5","fixation","img/fixation.png","null","","test","","","","","",""
"356.80000001192093","315626","pSARL_v2","pSARL_v2lhplc307","5dce29700ad506063969a4a5","freq","img/orange_2bandit_a2.png","70","70","test","1","158","158","7","",""
"null","316081","pSARL_v2","pSARL_v2lhplc307","5dce29700ad506063969a4a5","freq_resp","img/orange_2bandit_a.png","70","70","test","","","","7","",""
"null","316243","pSARL_v2","pSARL_v2lhplc307","5dce29700ad506063969a4a5","fixation","img/fixation.png","null","","test","","","","","",""
"304.90000000596046","316551","pSARL_v2","pSARL_v2lhplc307","5dce29700ad506063969a4a5","freq","img/orange_2bandit_a2.png","70","70","test","1","159","159","7","",""
"null","317062","pSARL_v2","pSARL_v2lhplc307","5dce29700ad506063969a4a5","freq_resp","img/orange_2bandit_a.png","70","70","test","","","","7","",""
"null","317236","pSARL_v2","pSARL_v2lhplc307","5dce29700ad506063969a4a5","fixation","img/fixation.png","null","","test","","","","","",""
"351.19999998807907","317591","pSARL_v2","pSARL_v2lhplc307","5dce29700ad506063969a4a5","freq","img/orange_2bandit_a2.png","70","70","test","1","160","160","7","",""
"null","318046","pSARL_v2","pSARL_v2lhplc307","5dce29700ad506063969a4a5","freq_resp","img/orange_2bandit_a.png","70","70","test","","","","7","",""
"null","318212","pSARL_v2","pSARL_v2lhplc307","5dce29700ad506063969a4a5","fixation","img/fixation.png","null","","test","","","","","",""
"544","318764","pSARL_v2","pSARL_v2lhplc307","5dce29700ad506063969a4a5","reward","img/slot.png","74","","test","","","","","",""
"null","319526","pSARL_v2","pSARL_v2lhplc307","5dce29700ad506063969a4a5","points","<div class=""verylowPoints""> -6 </div>","null","na","test","","","","7","-6","6"
"710.5999999940395","320243","pSARL_v2","pSARL_v2lhplc307","5dce29700ad506063969a4a5","freq","img/orange_2bandit_a2.png","70","70","test","1","161","161","8","",""
"null","320336","pSARL_v2","pSARL_v2lhplc307","5dce29700ad506063969a4a5","freq_resp","img/orange_2bandit_a.png","70","70","test","","","","8","",""
"null","320493","pSARL_v2","pSARL_v2lhplc307","5dce29700ad506063969a4a5","fixation","img/fixation.png","null","","test","","","","","",""
"503.09999999403954","321003","pSARL_v2","pSARL_v2lhplc307","5dce29700ad506063969a4a5","freq","img/orange_2bandit_a2.png","70","70","test","1","162","162","8","",""
"null","321306","pSARL_v2","pSARL_v2lhplc307","5dce29700ad506063969a4a5","freq_resp","img/orange_2bandit_a.png","70","70","test","","","","8","",""
"null","321464","pSARL_v2","pSARL_v2lhplc307","5dce29700ad506063969a4a5","fixation","img/fixation.png","null","","test","","","","","",""
"428.69999998807907","321899","pSARL_v2","pSARL_v2lhplc307","5dce29700ad506063969a4a5","freq","img/orange_2bandit_a2.png","70","70","test","1","163","163","8","",""
"null","322292","pSARL_v2","pSARL_v2lhplc307","5dce29700ad506063969a4a5","freq_resp","img/orange_2bandit_a.png","70","70","test","","","","8","",""
"null","322452","pSARL_v2","pSARL_v2lhplc307","5dce29700ad506063969a4a5","fixation","img/fixation.png","null","","test","","","","","",""
"455.2999999821186","322914","pSARL_v2","pSARL_v2lhplc307","5dce29700ad506063969a4a5","freq","img/orange_2bandit_a2.png","70","70","test","1","164","164","8","",""
"null","323271","pSARL_v2","pSARL_v2lhplc307","5dce29700ad506063969a4a5","freq_resp","img/orange_2bandit_a.png","70","70","test","","","","8","",""
"null","323435","pSARL_v2","pSARL_v2lhplc307","5dce29700ad506063969a4a5","fixation","img/fixation.png","null","","test","","","","","",""
"410","323852","pSARL_v2","pSARL_v2lhplc307","5dce29700ad506063969a4a5","freq","img/orange_2bandit_a2.png","70","70","test","1","165","165","8","",""
"null","324255","pSARL_v2","pSARL_v2lhplc307","5dce29700ad506063969a4a5","freq_resp","img/orange_2bandit_a.png","70","70","test","","","","8","",""
"null","324413","pSARL_v2","pSARL_v2lhplc307","5dce29700ad506063969a4a5","fixation","img/fixation.png","null","","test","","","","","",""
"391.19999998807907","324811","pSARL_v2","pSARL_v2lhplc307","5dce29700ad506063969a4a5","infreq","img/green_2bandit_a2.png","70","68","test","0","166","166","8","",""
"null","325235","pSARL_v2","pSARL_v2lhplc307","5dce29700ad506063969a4a5","infreq_resp","img/green_2bandit_a.png","70","68","test","","","","8","",""
"null","325395","pSARL_v2","pSARL_v2lhplc307","5dce29700ad506063969a4a5","fixation","img/fixation.png","null","","test","","","","","",""
"368.69999998807907","325771","pSARL_v2","pSARL_v2lhplc307","5dce29700ad506063969a4a5","freq","img/orange_2bandit_a2.png","70","70","test","1","167","167","8","",""
"null","326218","pSARL_v2","pSARL_v2lhplc307","5dce29700ad506063969a4a5","freq_resp","img/orange_2bandit_a.png","70","70","test","","","","8","",""
"null","326377","pSARL_v2","pSARL_v2lhplc307","5dce29700ad506063969a4a5","fixation","img/fixation.png","null","","test","","","","","",""
"394.69999998807907","326778","pSARL_v2","pSARL_v2lhplc307","5dce29700ad506063969a4a5","freq","img/orange_2bandit_a2.png","70","70","test","1","168","168","8","",""
"null","327202","pSARL_v2","pSARL_v2lhplc307","5dce29700ad506063969a4a5","freq_resp","img/orange_2bandit_a.png","70","70","test","","","","8","",""
"null","327361","pSARL_v2","pSARL_v2lhplc307","5dce29700ad506063969a4a5","fixation","img/fixation.png","null","","test","","","","","",""
"339.5","327705","pSARL_v2","pSARL_v2lhplc307","5dce29700ad506063969a4a5","freq","img/orange_2bandit_a2.png","70","70","test","1","169","169","8","",""
"null","328176","pSARL_v2","pSARL_v2lhplc307","5dce29700ad506063969a4a5","freq_resp","img/orange_2bandit_a.png","70","70","test","","","","8","",""
"null","328332","pSARL_v2","pSARL_v2lhplc307","5dce29700ad506063969a4a5","fixation","img/fixation.png","null","","test","","","","","",""
"271.30000001192093","328607","pSARL_v2","pSARL_v2lhplc307","5dce29700ad506063969a4a5","freq","img/orange_2bandit_a2.png","70","70","test","1","170","170","8","",""
"null","329143","pSARL_v2","pSARL_v2lhplc307","5dce29700ad506063969a4a5","freq_resp","img/orange_2bandit_a.png","70","70","test","","","","8","",""
"null","329301","pSARL_v2","pSARL_v2lhplc307","5dce29700ad506063969a4a5","fixation","img/fixation.png","null","","test","","","","","",""
"301.80000001192093","329607","pSARL_v2","pSARL_v2lhplc307","5dce29700ad506063969a4a5","freq","img/orange_2bandit_a2.png","70","70","test","1","171","171","8","",""
"null","330126","pSARL_v2","pSARL_v2lhplc307","5dce29700ad506063969a4a5","freq_resp","img/orange_2bandit_a.png","70","70","test","","","","8","",""
"null","330284","pSARL_v2","pSARL_v2lhplc307","5dce29700ad506063969a4a5","fixation","img/fixation.png","null","","test","","","","","",""
"503.19999998807907","330792","pSARL_v2","pSARL_v2lhplc307","5dce29700ad506063969a4a5","infreq","img/green_2bandit_a2.png","68","68","test","1","172","172","8","",""
"null","331103","pSARL_v2","pSARL_v2lhplc307","5dce29700ad506063969a4a5","infreq_resp","img/green_2bandit_a.png","68","68","test","","","","8","",""
"null","331265","pSARL_v2","pSARL_v2lhplc307","5dce29700ad506063969a4a5","fixation","img/fixation.png","null","","test","","","","","",""
"473.69999998807907","331744","pSARL_v2","pSARL_v2lhplc307","5dce29700ad506063969a4a5","freq","img/orange_2bandit_a2.png","70","70","test","1","173","173","8","",""
"null","332080","pSARL_v2","pSARL_v2lhplc307","5dce29700ad506063969a4a5","freq_resp","img/orange_2bandit_a.png","70","70","test","","","","8","",""
"null","332240","pSARL_v2","pSARL_v2lhplc307","5dce29700ad506063969a4a5","fixation","img/fixation.png","null","","test","","","","","",""
"523.5999999940395","332767","pSARL_v2","pSARL_v2lhplc307","5dce29700ad506063969a4a5","freq","img/orange_2bandit_a2.png","70","70","test","1","174","174","8","",""
"null","333050","pSARL_v2","pSARL_v2lhplc307","5dce29700ad506063969a4a5","freq_resp","img/orange_2bandit_a.png","70","70","test","","","","8","",""
"null","333211","pSARL_v2","pSARL_v2lhplc307","5dce29700ad506063969a4a5","fixation","img/fixation.png","null","","test","","","","","",""
"385.19999998807907","333603","pSARL_v2","pSARL_v2lhplc307","5dce29700ad506063969a4a5","freq","img/orange_2bandit_a2.png","70","70","test","1","175","175","8","",""
"null","334023","pSARL_v2","pSARL_v2lhplc307","5dce29700ad506063969a4a5","freq_resp","img/orange_2bandit_a.png","70","70","test","","","","8","",""
"null","334191","pSARL_v2","pSARL_v2lhplc307","5dce29700ad506063969a4a5","fixation","img/fixation.png","null","","test","","","","","",""
"405","334601","pSARL_v2","pSARL_v2lhplc307","5dce29700ad506063969a4a5","freq","img/orange_2bandit_a2.png","70","70","test","1","176","176","8","",""
"null","335010","pSARL_v2","pSARL_v2lhplc307","5dce29700ad506063969a4a5","freq_resp","img/orange_2bandit_a.png","70","70","test","","","","8","",""
"null","335174","pSARL_v2","pSARL_v2lhplc307","5dce29700ad506063969a4a5","fixation","img/fixation.png","null","","test","","","","","",""
"382.2999999821186","335563","pSARL_v2","pSARL_v2lhplc307","5dce29700ad506063969a4a5","freq","img/orange_2bandit_a2.png","70","70","test","1","177","177","8","",""
"null","335994","pSARL_v2","pSARL_v2lhplc307","5dce29700ad506063969a4a5","freq_resp","img/orange_2bandit_a.png","70","70","test","","","","8","",""
"null","336161","pSARL_v2","pSARL_v2lhplc307","5dce29700ad506063969a4a5","fixation","img/fixation.png","null","","test","","","","","",""
"379.39999997615814","336546","pSARL_v2","pSARL_v2lhplc307","5dce29700ad506063969a4a5","freq","img/orange_2bandit_a2.png","70","70","test","1","178","178","8","",""
"null","336977","pSARL_v2","pSARL_v2lhplc307","5dce29700ad506063969a4a5","freq_resp","img/orange_2bandit_a.png","70","70","test","","","","8","",""
"null","337145","pSARL_v2","pSARL_v2lhplc307","5dce29700ad506063969a4a5","fixation","img/fixation.png","null","","test","","","","","",""
"386.7999999821186","337536","pSARL_v2","pSARL_v2lhplc307","5dce29700ad506063969a4a5","freq","img/orange_2bandit_a2.png","70","70","test","1","179","179","8","",""
"null","337961","pSARL_v2","pSARL_v2lhplc307","5dce29700ad506063969a4a5","freq_resp","img/orange_2bandit_a.png","70","70","test","","","","8","",""
"null","338127","pSARL_v2","pSARL_v2lhplc307","5dce29700ad506063969a4a5","fixation","img/fixation.png","null","","test","","","","","",""
"421.69999998807907","338555","pSARL_v2","pSARL_v2lhplc307","5dce29700ad506063969a4a5","freq","img/orange_2bandit_a2.png","70","70","test","1","180","180","8","",""
"null","338944","pSARL_v2","pSARL_v2lhplc307","5dce29700ad506063969a4a5","freq_resp","img/orange_2bandit_a.png","70","70","test","","","","8","",""
"null","339102","pSARL_v2","pSARL_v2lhplc307","5dce29700ad506063969a4a5","fixation","img/fixation.png","null","","test","","","","","",""
"381.7999999821186","339491","pSARL_v2","pSARL_v2lhplc307","5dce29700ad506063969a4a5","freq","img/orange_2bandit_a2.png","70","70","test","1","181","181","8","",""
"null","339928","pSARL_v2","pSARL_v2lhplc307","5dce29700ad506063969a4a5","freq_resp","img/orange_2bandit_a.png","70","70","test","","","","8","",""
"null","340098","pSARL_v2","pSARL_v2lhplc307","5dce29700ad506063969a4a5","fixation","img/fixation.png","null","","test","","","","","",""
"385.7999999821186","340491","pSARL_v2","pSARL_v2lhplc307","5dce29700ad506063969a4a5","freq","img/orange_2bandit_a2.png","70","70","test","1","182","182","8","",""
"null","340912","pSARL_v2","pSARL_v2lhplc307","5dce29700ad506063969a4a5","freq_resp","img/orange_2bandit_a.png","70","70","test","","","","8","",""
"null","341073","pSARL_v2","pSARL_v2lhplc307","5dce29700ad506063969a4a5","fixation","img/fixation.png","null","","test","","","","","",""
"299.2999999821186","341379","pSARL_v2","pSARL_v2lhplc307","5dce29700ad506063969a4a5","freq","img/orange_2bandit_a2.png","70","70","test","1","183","183","8","",""
"null","341886","pSARL_v2","pSARL_v2lhplc307","5dce29700ad506063969a4a5","freq_resp","img/orange_2bandit_a.png","70","70","test","","","","8","",""
"null","342045","pSARL_v2","pSARL_v2lhplc307","5dce29700ad506063969a4a5","fixation","img/fixation.png","null","","test","","","","","",""
"543.9000000059605","342595","pSARL_v2","pSARL_v2lhplc307","5dce29700ad506063969a4a5","reward","img/slot.png","74","","test","","","","","",""
"null","343366","pSARL_v2","pSARL_v2lhplc307","5dce29700ad506063969a4a5","points","<div class=""verylowPoints""> -4 </div>","null","na","test","","","","8","-4","7"
"646","344015","pSARL_v2","pSARL_v2lhplc307","5dce29700ad506063969a4a5","freq","img/orange_2bandit_a2.png","70","70","test","1","184","184","9","",""
"null","344179","pSARL_v2","pSARL_v2lhplc307","5dce29700ad506063969a4a5","freq_resp","img/orange_2bandit_a.png","70","70","test","","","","9","",""
"null","344349","pSARL_v2","pSARL_v2lhplc307","5dce29700ad506063969a4a5","fixation","img/fixation.png","null","","test","","","","","",""
"439","344795","pSARL_v2","pSARL_v2lhplc307","5dce29700ad506063969a4a5","freq","img/orange_2bandit_a2.png","70","70","test","1","185","185","9","",""
"null","345169","pSARL_v2","pSARL_v2lhplc307","5dce29700ad506063969a4a5","freq_resp","img/orange_2bandit_a.png","70","70","test","","","","9","",""
"null","345328","pSARL_v2","pSARL_v2lhplc307","5dce29700ad506063969a4a5","fixation","img/fixation.png","null","","test","","","","","",""
"364.10000002384186","345699","pSARL_v2","pSARL_v2lhplc307","5dce29700ad506063969a4a5","freq","img/orange_2bandit_a2.png","70","70","test","1","186","186","9","",""
"null","346155","pSARL_v2","pSARL_v2lhplc307","5dce29700ad506063969a4a5","freq_resp","img/orange_2bandit_a.png","70","70","test","","","","9","",""
"null","346309","pSARL_v2","pSARL_v2lhplc307","5dce29700ad506063969a4a5","fixation","img/fixation.png","null","","test","","","","","",""
"375.09999999403954","346688","pSARL_v2","pSARL_v2lhplc307","5dce29700ad506063969a4a5","freq","img/orange_2bandit_a2.png","70","70","test","1","187","187","9","",""
"null","347122","pSARL_v2","pSARL_v2lhplc307","5dce29700ad506063969a4a5","freq_resp","img/orange_2bandit_a.png","70","70","test","","","","9","",""
"null","347280","pSARL_v2","pSARL_v2lhplc307","5dce29700ad506063969a4a5","fixation","img/fixation.png","null","","test","","","","","",""
"411.5","347698","pSARL_v2","pSARL_v2lhplc307","5dce29700ad506063969a4a5","freq","img/orange_2bandit_a2.png","70","70","test","1","188","188","9","",""
"null","348105","pSARL_v2","pSARL_v2lhplc307","5dce29700ad506063969a4a5","freq_resp","img/orange_2bandit_a.png","70","70","test","","","","9","",""
"null","348261","pSARL_v2","pSARL_v2lhplc307","5dce29700ad506063969a4a5","fixation","img/fixation.png","null","","test","","","","","",""
"359.09999999403954","348623","pSARL_v2","pSARL_v2lhplc307","5dce29700ad506063969a4a5","freq","img/orange_2bandit_a2.png","70","70","test","1","189","189","9","",""
"null","349073","pSARL_v2","pSARL_v2lhplc307","5dce29700ad506063969a4a5","freq_resp","img/orange_2bandit_a.png","70","70","test","","","","9","",""
"null","349234","pSARL_v2","pSARL_v2lhplc307","5dce29700ad506063969a4a5","fixation","img/fixation.png","null","","test","","","","","",""
"354","349595","pSARL_v2","pSARL_v2lhplc307","5dce29700ad506063969a4a5","freq","img/orange_2bandit_a2.png","70","70","test","1","190","190","9","",""
"null","350058","pSARL_v2","pSARL_v2lhplc307","5dce29700ad506063969a4a5","freq_resp","img/orange_2bandit_a.png","70","70","test","","","","9","",""
"null","350218","pSARL_v2","pSARL_v2lhplc307","5dce29700ad506063969a4a5","fixation","img/fixation.png","null","","test","","","","","",""
"489.39999997615814","350713","pSARL_v2","pSARL_v2lhplc307","5dce29700ad506063969a4a5","infreq","img/green_2bandit_a2.png","68","68","test","1","191","191","9","",""
"null","351032","pSARL_v2","pSARL_v2lhplc307","5dce29700ad506063969a4a5","infreq_resp","img/green_2bandit_a.png","68","68","test","","","","9","",""
"null","351191","pSARL_v2","pSARL_v2lhplc307","5dce29700ad506063969a4a5","fixation","img/fixation.png","null","","test","","","","","",""
"397.5","351595","pSARL_v2","pSARL_v2lhplc307","5dce29700ad506063969a4a5","freq","img/orange_2bandit_a2.png","70","70","test","1","192","192","9","",""
"null","352011","pSARL_v2","pSARL_v2lhplc307","5dce29700ad506063969a4a5","freq_resp","img/orange_2bandit_a.png","70","70","test","","","","9","",""
"null","352170","pSARL_v2","pSARL_v2lhplc307","5dce29700ad506063969a4a5","fixation","img/fixation.png","null","","test","","","","","",""
"273.7000000178814","352450","pSARL_v2","pSARL_v2lhplc307","5dce29700ad506063969a4a5","freq","img/orange_2bandit_a2.png","70","70","test","1","193","193","9","",""
"null","352995","pSARL_v2","pSARL_v2lhplc307","5dce29700ad506063969a4a5","freq_resp","img/orange_2bandit_a.png","70","70","test","","","","9","",""
"null","353168","pSARL_v2","pSARL_v2lhplc307","5dce29700ad506063969a4a5","fixation","img/fixation.png","null","","test","","","","","",""
"260.40000000596046","353436","pSARL_v2","pSARL_v2lhplc307","5dce29700ad506063969a4a5","infreq","img/green_2bandit_a2.png","70","68","test","0","194","194","9","",""
"null","353991","pSARL_v2","pSARL_v2lhplc307","5dce29700ad506063969a4a5","infreq_resp","img/green_2bandit_a.png","70","68","test","","","","9","",""
"null","354150","pSARL_v2","pSARL_v2lhplc307","5dce29700ad506063969a4a5","fixation","img/fixation.png","null","","test","","","","","",""
"525.6999999880791","354680","pSARL_v2","pSARL_v2lhplc307","5dce29700ad506063969a4a5","infreq","img/green_2bandit_a2.png","68","68","test","1","195","195","9","",""
"null","354971","pSARL_v2","pSARL_v2lhplc307","5dce29700ad506063969a4a5","infreq_resp","img/green_2bandit_a.png","68","68","test","","","","9","",""
"null","355141","pSARL_v2","pSARL_v2lhplc307","5dce29700ad506063969a4a5","fixation","img/fixation.png","null","","test","","","","","",""
"503.60000002384186","355651","pSARL_v2","pSARL_v2lhplc307","5dce29700ad506063969a4a5","freq","img/orange_2bandit_a2.png","70","70","test","1","196","196","9","",""
"null","355954","pSARL_v2","pSARL_v2lhplc307","5dce29700ad506063969a4a5","freq_resp","img/orange_2bandit_a.png","70","70","test","","","","9","",""
"null","356108","pSARL_v2","pSARL_v2lhplc307","5dce29700ad506063969a4a5","fixation","img/fixation.png","null","","test","","","","","",""
"448.19999998807907","356563","pSARL_v2","pSARL_v2lhplc307","5dce29700ad506063969a4a5","freq","img/orange_2bandit_a2.png","70","70","test","1","197","197","9","",""
"null","356929","pSARL_v2","pSARL_v2lhplc307","5dce29700ad506063969a4a5","freq_resp","img/orange_2bandit_a.png","70","70","test","","","","9","",""
"null","357089","pSARL_v2","pSARL_v2lhplc307","5dce29700ad506063969a4a5","fixation","img/fixation.png","null","","test","","","","","",""
"403.40000000596046","357499","pSARL_v2","pSARL_v2lhplc307","5dce29700ad506063969a4a5","freq","img/orange_2bandit_a2.png","70","70","test","1","198","198","9","",""
"null","357902","pSARL_v2","pSARL_v2lhplc307","5dce29700ad506063969a4a5","freq_resp","img/orange_2bandit_a.png","70","70","test","","","","9","",""
"null","358058","pSARL_v2","pSARL_v2lhplc307","5dce29700ad506063969a4a5","fixation","img/fixation.png","null","","test","","","","","",""
"385.7999999821186","358448","pSARL_v2","pSARL_v2lhplc307","5dce29700ad506063969a4a5","freq","img/orange_2bandit_a2.png","70","70","test","1","199","199","9","",""
"null","358880","pSARL_v2","pSARL_v2lhplc307","5dce29700ad506063969a4a5","freq_resp","img/orange_2bandit_a.png","70","70","test","","","","9","",""
"null","359042","pSARL_v2","pSARL_v2lhplc307","5dce29700ad506063969a4a5","fixation","img/fixation.png","null","","test","","","","","",""
"363","359411","pSARL_v2","pSARL_v2lhplc307","5dce29700ad506063969a4a5","freq","img/orange_2bandit_a2.png","70","70","test","1","200","200","9","",""
"null","359856","pSARL_v2","pSARL_v2lhplc307","5dce29700ad506063969a4a5","freq_resp","img/orange_2bandit_a.png","70","70","test","","","","9","",""
"null","360014","pSARL_v2","pSARL_v2lhplc307","5dce29700ad506063969a4a5","fixation","img/fixation.png","null","","test","","","","","",""
"302.5","360323","pSARL_v2","pSARL_v2lhplc307","5dce29700ad506063969a4a5","freq","img/orange_2bandit_a2.png","70","70","test","1","201","201","9","",""
"null","360826","pSARL_v2","pSARL_v2lhplc307","5dce29700ad506063969a4a5","freq_resp","img/orange_2bandit_a.png","70","70","test","","","","9","",""
"null","360986","pSARL_v2","pSARL_v2lhplc307","5dce29700ad506063969a4a5","fixation","img/fixation.png","null","","test","","","","","",""
"362.5","361355","pSARL_v2","pSARL_v2lhplc307","5dce29700ad506063969a4a5","freq","img/orange_2bandit_a2.png","70","70","test","1","202","202","9","",""
"null","361812","pSARL_v2","pSARL_v2lhplc307","5dce29700ad506063969a4a5","freq_resp","img/orange_2bandit_a.png","70","70","test","","","","9","",""
"null","361970","pSARL_v2","pSARL_v2lhplc307","5dce29700ad506063969a4a5","fixation","img/fixation.png","null","","test","","","","","",""
"425.2999999821186","362403","pSARL_v2","pSARL_v2lhplc307","5dce29700ad506063969a4a5","freq","img/orange_2bandit_a2.png","70","70","test","1","203","203","9","",""
"null","362787","pSARL_v2","pSARL_v2lhplc307","5dce29700ad506063969a4a5","freq_resp","img/orange_2bandit_a.png","70","70","test","","","","9","",""
"null","362959","pSARL_v2","pSARL_v2lhplc307","5dce29700ad506063969a4a5","fixation","img/fixation.png","null","","test","","","","","",""
"405.19999998807907","363371","pSARL_v2","pSARL_v2lhplc307","5dce29700ad506063969a4a5","freq","img/orange_2bandit_a2.png","70","70","test","1","204","204","9","",""
"null","363782","pSARL_v2","pSARL_v2lhplc307","5dce29700ad506063969a4a5","freq_resp","img/orange_2bandit_a.png","70","70","test","","","","9","",""
"null","363956","pSARL_v2","pSARL_v2lhplc307","5dce29700ad506063969a4a5","fixation","img/fixation.png","null","","test","","","","","",""
"384.19999998807907","364347","pSARL_v2","pSARL_v2lhplc307","5dce29700ad506063969a4a5","freq","img/orange_2bandit_a2.png","70","70","test","1","205","205","9","",""
"null","364779","pSARL_v2","pSARL_v2lhplc307","5dce29700ad506063969a4a5","freq_resp","img/orange_2bandit_a.png","70","70","test","","","","9","",""
"null","364937","pSARL_v2","pSARL_v2lhplc307","5dce29700ad506063969a4a5","fixation","img/fixation.png","null","","test","","","","","",""
"314.19999998807907","365256","pSARL_v2","pSARL_v2lhplc307","5dce29700ad506063969a4a5","freq","img/orange_2bandit_a2.png","70","70","test","1","206","206","9","",""
