"rt","time_elapsed","expId","subject","prolificID","trialType","stimulus","key_press","corrresp","phase","corr","trialNum","attentionRunNum","blockNum","points","rlNum"
"8971.800000011921","8979","pSARL_v2","pSARL_v2xnqf7m77","65071c1f0e39b433b4340a85","","","","","","","","","","",""
"","12253","pSARL_v2","pSARL_v2xnqf7m77","65071c1f0e39b433b4340a85","fullscreen","","","","","","","","","",""
"62395.30000001192","74655","pSARL_v2","pSARL_v2xnqf7m77","65071c1f0e39b433b4340a85","","","","","","","","","","",""
"53.5","74714","pSARL_v2","pSARL_v2xnqf7m77","65071c1f0e39b433b4340a85","freqPrac","img/orange_2bandit_b2.png","68","70","prac","0","","","","",""
"53.5","75469","pSARL_v2","pSARL_v2xnqf7m77","65071c1f0e39b433b4340a85","freqPrac_resp","img/orange_2bandit_b.png","68","70","prac","","","","","",""
"null","76482","pSARL_v2","pSARL_v2xnqf7m77","65071c1f0e39b433b4340a85","feedback","img/wrongKey.png","null","na","prac","","","","","",""
"null","76640","pSARL_v2","pSARL_v2xnqf7m77","65071c1f0e39b433b4340a85","fixation","img/fixation.png","null","","prac","","","","","",""
"638.4000000059605","77283","pSARL_v2","pSARL_v2xnqf7m77","65071c1f0e39b433b4340a85","infreqPrac","img/green_2bandit_b2.png","68","68","prac","1","","","","",""
"638.4000000059605","77459","pSARL_v2","pSARL_v2xnqf7m77","65071c1f0e39b433b4340a85","infreqPrac_resp","img/green_2bandit_b.png","68","68","prac","","","","","",""
"null","77618","pSARL_v2","pSARL_v2xnqf7m77","65071c1f0e39b433b4340a85","fixation","img/fixation.png","null","","prac","","","","","",""
"745","78368","pSARL_v2","pSARL_v2xnqf7m77","65071c1f0e39b433b4340a85","freqPrac","img/orange_2bandit_b2.png","70","70","prac","1","","","","",""
"745","78430","pSARL_v2","pSARL_v2xnqf7m77","65071c1f0e39b433b4340a85","freqPrac_resp","img/orange_2bandit_b.png","70","70","prac","","","","","",""
"null","78600","pSARL_v2","pSARL_v2xnqf7m77","65071c1f0e39b433b4340a85","fixation","img/fixation.png","null","","prac","","","","","",""
"496","79101","pSARL_v2","pSARL_v2xnqf7m77","65071c1f0e39b433b4340a85","infreqPrac","img/green_2bandit_b2.png","68","68","prac","1","","","","",""
"496","79411","pSARL_v2","pSARL_v2xnqf7m77","65071c1f0e39b433b4340a85","infreqPrac_resp","img/green_2bandit_b.png","68","68","prac","","","","","",""
"null","79578","pSARL_v2","pSARL_v2xnqf7m77","65071c1f0e39b433b4340a85","fixation","img/fixation.png","null","","prac","","","","","",""
"381.7000000178814","79964","pSARL_v2","pSARL_v2xnqf7m77","65071c1f0e39b433b4340a85","infreqPrac","img/green_2bandit_b2.png","68","68","prac","1","","","","",""
"381.7000000178814","80389","pSARL_v2","pSARL_v2xnqf7m77","65071c1f0e39b433b4340a85","infreqPrac_resp","img/green_2bandit_b.png","68","68","prac","","","","","",""
"null","80548","pSARL_v2","pSARL_v2xnqf7m77","65071c1f0e39b433b4340a85","fixation","img/fixation.png","null","","prac","","","","","",""
"314.90000000596046","80868","pSARL_v2","pSARL_v2xnqf7m77","65071c1f0e39b433b4340a85","infreqPrac","img/green_2bandit_b2.png","68","68","prac","1","","","","",""
"314.90000000596046","81359","pSARL_v2","pSARL_v2xnqf7m77","65071c1f0e39b433b4340a85","infreqPrac_resp","img/green_2bandit_b.png","68","68","prac","","","","","",""
"null","81514","pSARL_v2","pSARL_v2xnqf7m77","65071c1f0e39b433b4340a85","fixation","img/fixation.png","null","","prac","","","","","",""
"302","81820","pSARL_v2","pSARL_v2xnqf7m77","65071c1f0e39b433b4340a85","freqPrac","img/orange_2bandit_b2.png","70","70","prac","1","","","","",""
"302","82324","pSARL_v2","pSARL_v2xnqf7m77","65071c1f0e39b433b4340a85","freqPrac_resp","img/orange_2bandit_b.png","70","70","prac","","","","","",""
"null","82480","pSARL_v2","pSARL_v2xnqf7m77","65071c1f0e39b433b4340a85","fixation","img/fixation.png","null","","prac","","","","","",""
"406.19999998807907","82891","pSARL_v2","pSARL_v2xnqf7m77","65071c1f0e39b433b4340a85","infreqPrac","img/green_2bandit_b2.png","70","68","prac","0","","","","",""
"406.19999998807907","83294","pSARL_v2","pSARL_v2xnqf7m77","65071c1f0e39b433b4340a85","infreqPrac_resp","img/green_2bandit_b.png","70","68","prac","","","","","",""
"null","84302","pSARL_v2","pSARL_v2xnqf7m77","65071c1f0e39b433b4340a85","feedback","img/wrongKey.png","null","na","prac","","","","","",""
"null","84473","pSARL_v2","pSARL_v2xnqf7m77","65071c1f0e39b433b4340a85","fixation","img/fixation.png","null","","prac","","","","","",""
"517","84995","pSARL_v2","pSARL_v2xnqf7m77","65071c1f0e39b433b4340a85","freqPrac","img/orange_2bandit_b2.png","70","70","prac","1","","","","",""
"517","85297","pSARL_v2","pSARL_v2xnqf7m77","65071c1f0e39b433b4340a85","freqPrac_resp","img/orange_2bandit_b.png","70","70","prac","","","","","",""
"null","85454","pSARL_v2","pSARL_v2xnqf7m77","65071c1f0e39b433b4340a85","fixation","img/fixation.png","null","","prac","","","","","",""
"380","85839","pSARL_v2","pSARL_v2xnqf7m77","65071c1f0e39b433b4340a85","freqPrac","img/orange_2bandit_b2.png","70","70","prac","1","","","","",""
"380","86266","pSARL_v2","pSARL_v2xnqf7m77","65071c1f0e39b433b4340a85","freqPrac_resp","img/orange_2bandit_b.png","70","70","prac","","","","","",""
"null","86425","pSARL_v2","pSARL_v2xnqf7m77","65071c1f0e39b433b4340a85","fixation","img/fixation.png","null","","prac","","","","","",""
"25399.5","111829","pSARL_v2","pSARL_v2xnqf7m77","65071c1f0e39b433b4340a85","","","","","prac","","","","","",""
"1031.5999999940395","112865","pSARL_v2","pSARL_v2xnqf7m77","65071c1f0e39b433b4340a85","rewardPractice","img/slot.png","74","","prac","","","","","",""
"null","113634","pSARL_v2","pSARL_v2xnqf7m77","65071c1f0e39b433b4340a85","feedback","<div class=""veryhighPoints""> +15 </div>","null","na","prac","","","","","",""
"null","113801","pSARL_v2","pSARL_v2xnqf7m77","65071c1f0e39b433b4340a85","fixation","img/fixation.png","null","","prac","","","","","",""
"4337.299999982119","118142","pSARL_v2","pSARL_v2xnqf7m77","65071c1f0e39b433b4340a85","","","","","prac","","","","","",""
"null","118956","pSARL_v2","pSARL_v2xnqf7m77","65071c1f0e39b433b4340a85","freq","img/orange_2bandit_b2.png","null","70","test","0","1","1","1","",""
"null","119114","pSARL_v2","pSARL_v2xnqf7m77","65071c1f0e39b433b4340a85","fixation","img/fixation.png","null","","test","","","","","",""
"400.30000001192093","119519","pSARL_v2","pSARL_v2xnqf7m77","65071c1f0e39b433b4340a85","freq","img/orange_2bandit_b2.png","70","70","test","1","2","2","1","",""
"null","119938","pSARL_v2","pSARL_v2xnqf7m77","65071c1f0e39b433b4340a85","freq_resp","img/orange_2bandit_b.png","70","70","test","","","","1","",""
"null","120107","pSARL_v2","pSARL_v2xnqf7m77","65071c1f0e39b433b4340a85","fixation","img/fixation.png","null","","test","","","","","",""
"448.30000001192093","120559","pSARL_v2","pSARL_v2xnqf7m77","65071c1f0e39b433b4340a85","infreq","img/green_2bandit_b2.png","68","68","test","1","3","3","1","",""
"null","120929","pSARL_v2","pSARL_v2xnqf7m77","65071c1f0e39b433b4340a85","infreq_resp","img/green_2bandit_b.png","68","68","test","","","","1","",""
"null","121084","pSARL_v2","pSARL_v2xnqf7m77","65071c1f0e39b433b4340a85","fixation","img/fixation.png","null","","test","","","","","",""
"440","121529","pSARL_v2","pSARL_v2xnqf7m77","65071c1f0e39b433b4340a85","freq","img/orange_2bandit_b2.png","70","70","test","1","4","4","1","",""
"null","121909","pSARL_v2","pSARL_v2xnqf7m77","65071c1f0e39b433b4340a85","freq_resp","img/orange_2bandit_b.png","70","70","test","","","","1","",""
"null","122063","pSARL_v2","pSARL_v2xnqf7m77","65071c1f0e39b433b4340a85","fixation","img/fixation.png","null","","test","","","","","",""
"379.40000000596046","122446","pSARL_v2","pSARL_v2xnqf7m77","65071c1f0e39b433b4340a85","freq","img/orange_2bandit_b2.png","70","70","test","1","5","5","1","",""
"null","122875","pSARL_v2","pSARL_v2xnqf7m77","65071c1f0e39b433b4340a85","freq_resp","img/orange_2bandit_b.png","70","70","test","","","","1","",""
"null","123045","pSARL_v2","pSARL_v2xnqf7m77","65071c1f0e39b433b4340a85","fixation","img/fixation.png","null","","test","","","","","",""
"474.09999999403954","123524","pSARL_v2","pSARL_v2xnqf7m77","65071c1f0e39b433b4340a85","freq","img/orange_2bandit_b2.png","70","70","test","1","6","6","1","",""
"null","123865","pSARL_v2","pSARL_v2xnqf7m77","65071c1f0e39b433b4340a85","freq_resp","img/orange_2bandit_b.png","70","70","test","","","","1","",""
"null","124021","pSARL_v2","pSARL_v2xnqf7m77","65071c1f0e39b433b4340a85","fixation","img/fixation.png","null","","test","","","","","",""
"388.90000000596046","124415","pSARL_v2","pSARL_v2xnqf7m77","65071c1f0e39b433b4340a85","infreq","img/green_2bandit_b2.png","68","68","test","1","7","7","1","",""
"null","124834","pSARL_v2","pSARL_v2xnqf7m77","65071c1f0e39b433b4340a85","infreq_resp","img/green_2bandit_b.png","68","68","test","","","","1","",""
"null","124989","pSARL_v2","pSARL_v2xnqf7m77","65071c1f0e39b433b4340a85","fixation","img/fixation.png","null","","test","","","","","",""
"417.80000001192093","125411","pSARL_v2","pSARL_v2xnqf7m77","65071c1f0e39b433b4340a85","freq","img/orange_2bandit_b2.png","70","70","test","1","8","8","1","",""
"null","125805","pSARL_v2","pSARL_v2xnqf7m77","65071c1f0e39b433b4340a85","freq_resp","img/orange_2bandit_b.png","70","70","test","","","","1","",""
"null","125974","pSARL_v2","pSARL_v2xnqf7m77","65071c1f0e39b433b4340a85","fixation","img/fixation.png","null","","test","","","","","",""
"364.40000000596046","126343","pSARL_v2","pSARL_v2xnqf7m77","65071c1f0e39b433b4340a85","freq","img/orange_2bandit_b2.png","70","70","test","1","9","9","1","",""
"null","126783","pSARL_v2","pSARL_v2xnqf7m77","65071c1f0e39b433b4340a85","freq_resp","img/orange_2bandit_b.png","70","70","test","","","","1","",""
"null","126953","pSARL_v2","pSARL_v2xnqf7m77","65071c1f0e39b433b4340a85","fixation","img/fixation.png","null","","test","","","","","",""
"361.40000000596046","127318","pSARL_v2","pSARL_v2xnqf7m77","65071c1f0e39b433b4340a85","freq","img/orange_2bandit_b2.png","68","70","test","0","10","10","1","",""
"null","127762","pSARL_v2","pSARL_v2xnqf7m77","65071c1f0e39b433b4340a85","freq_resp","img/orange_2bandit_b.png","68","70","test","","","","1","",""
"null","127933","pSARL_v2","pSARL_v2xnqf7m77","65071c1f0e39b433b4340a85","fixation","img/fixation.png","null","","test","","","","","",""
"422.69999998807907","128360","pSARL_v2","pSARL_v2xnqf7m77","65071c1f0e39b433b4340a85","freq","img/orange_2bandit_b2.png","70","70","test","1","11","11","1","",""
"null","128753","pSARL_v2","pSARL_v2xnqf7m77","65071c1f0e39b433b4340a85","freq_resp","img/orange_2bandit_b.png","70","70","test","","","","1","",""
"null","128912","pSARL_v2","pSARL_v2xnqf7m77","65071c1f0e39b433b4340a85","fixation","img/fixation.png","null","","test","","","","","",""
"334.5","129251","pSARL_v2","pSARL_v2xnqf7m77","65071c1f0e39b433b4340a85","freq","img/orange_2bandit_b2.png","70","70","test","1","12","12","1","",""
"null","129722","pSARL_v2","pSARL_v2xnqf7m77","65071c1f0e39b433b4340a85","freq_resp","img/orange_2bandit_b.png","70","70","test","","","","1","",""
"null","129879","pSARL_v2","pSARL_v2xnqf7m77","65071c1f0e39b433b4340a85","fixation","img/fixation.png","null","","test","","","","","",""
"355.5","130239","pSARL_v2","pSARL_v2xnqf7m77","65071c1f0e39b433b4340a85","freq","img/orange_2bandit_b2.png","70","70","test","1","13","13","1","",""
"null","130703","pSARL_v2","pSARL_v2xnqf7m77","65071c1f0e39b433b4340a85","freq_resp","img/orange_2bandit_b.png","70","70","test","","","","1","",""
"null","130859","pSARL_v2","pSARL_v2xnqf7m77","65071c1f0e39b433b4340a85","fixation","img/fixation.png","null","","test","","","","","",""
"378","131242","pSARL_v2","pSARL_v2xnqf7m77","65071c1f0e39b433b4340a85","freq","img/orange_2bandit_b2.png","70","70","test","1","14","14","1","",""
"null","131683","pSARL_v2","pSARL_v2xnqf7m77","65071c1f0e39b433b4340a85","freq_resp","img/orange_2bandit_b.png","70","70","test","","","","1","",""
"null","131842","pSARL_v2","pSARL_v2xnqf7m77","65071c1f0e39b433b4340a85","fixation","img/fixation.png","null","","test","","","","","",""
"348.7000000178814","132195","pSARL_v2","pSARL_v2xnqf7m77","65071c1f0e39b433b4340a85","freq","img/orange_2bandit_b2.png","70","70","test","1","15","15","1","",""
"null","132661","pSARL_v2","pSARL_v2xnqf7m77","65071c1f0e39b433b4340a85","freq_resp","img/orange_2bandit_b.png","70","70","test","","","","1","",""
"null","132831","pSARL_v2","pSARL_v2xnqf7m77","65071c1f0e39b433b4340a85","fixation","img/fixation.png","null","","test","","","","","",""
"336.90000000596046","133174","pSARL_v2","pSARL_v2xnqf7m77","65071c1f0e39b433b4340a85","freq","img/orange_2bandit_b2.png","70","70","test","1","16","16","1","",""
"null","133644","pSARL_v2","pSARL_v2xnqf7m77","65071c1f0e39b433b4340a85","freq_resp","img/orange_2bandit_b.png","70","70","test","","","","1","",""
"null","133813","pSARL_v2","pSARL_v2xnqf7m77","65071c1f0e39b433b4340a85","fixation","img/fixation.png","null","","test","","","","","",""
"410.5","134227","pSARL_v2","pSARL_v2xnqf7m77","65071c1f0e39b433b4340a85","infreq","img/green_2bandit_b2.png","68","68","test","1","17","17","1","",""
"null","134626","pSARL_v2","pSARL_v2xnqf7m77","65071c1f0e39b433b4340a85","infreq_resp","img/green_2bandit_b.png","68","68","test","","","","1","",""
"null","134784","pSARL_v2","pSARL_v2xnqf7m77","65071c1f0e39b433b4340a85","fixation","img/fixation.png","null","","test","","","","","",""
"333.09999999403954","135121","pSARL_v2","pSARL_v2xnqf7m77","65071c1f0e39b433b4340a85","freq","img/orange_2bandit_b2.png","68","70","test","0","18","18","1","",""
"null","135596","pSARL_v2","pSARL_v2xnqf7m77","65071c1f0e39b433b4340a85","freq_resp","img/orange_2bandit_b.png","68","70","test","","","","1","",""
"null","135754","pSARL_v2","pSARL_v2xnqf7m77","65071c1f0e39b433b4340a85","fixation","img/fixation.png","null","","test","","","","","",""
"385.60000002384186","136144","pSARL_v2","pSARL_v2xnqf7m77","65071c1f0e39b433b4340a85","freq","img/orange_2bandit_b2.png","70","70","test","1","19","19","1","",""
"null","136567","pSARL_v2","pSARL_v2xnqf7m77","65071c1f0e39b433b4340a85","freq_resp","img/orange_2bandit_b.png","70","70","test","","","","1","",""
"null","136737","pSARL_v2","pSARL_v2xnqf7m77","65071c1f0e39b433b4340a85","fixation","img/fixation.png","null","","test","","","","","",""
"438.69999998807907","137180","pSARL_v2","pSARL_v2xnqf7m77","65071c1f0e39b433b4340a85","freq","img/orange_2bandit_b2.png","70","70","test","1","20","20","1","",""
"null","137550","pSARL_v2","pSARL_v2xnqf7m77","65071c1f0e39b433b4340a85","freq_resp","img/orange_2bandit_b.png","70","70","test","","","","1","",""
"null","137718","pSARL_v2","pSARL_v2xnqf7m77","65071c1f0e39b433b4340a85","fixation","img/fixation.png","null","","test","","","","","",""
"610.2000000178814","138332","pSARL_v2","pSARL_v2xnqf7m77","65071c1f0e39b433b4340a85","reward","img/slot.png","74","","test","","","","","",""
"null","139091","pSARL_v2","pSARL_v2xnqf7m77","65071c1f0e39b433b4340a85","points","<div class=""verylowPoints""> -6 </div>","null","na","test","","","","1","-6","0"
"null","139897","pSARL_v2","pSARL_v2xnqf7m77","65071c1f0e39b433b4340a85","freq","img/orange_2bandit_b2.png","null","70","test","0","21","21","2","",""
"null","140052","pSARL_v2","pSARL_v2xnqf7m77","65071c1f0e39b433b4340a85","fixation","img/fixation.png","null","","test","","","","","",""
"220.5","140277","pSARL_v2","pSARL_v2xnqf7m77","65071c1f0e39b433b4340a85","freq","img/orange_2bandit_b2.png","70","70","test","1","22","22","2","",""
"null","140863","pSARL_v2","pSARL_v2xnqf7m77","65071c1f0e39b433b4340a85","freq_resp","img/orange_2bandit_b.png","70","70","test","","","","2","",""
"null","141019","pSARL_v2","pSARL_v2xnqf7m77","65071c1f0e39b433b4340a85","fixation","img/fixation.png","null","","test","","","","","",""
"405","141428","pSARL_v2","pSARL_v2xnqf7m77","65071c1f0e39b433b4340a85","freq","img/orange_2bandit_b2.png","70","70","test","1","23","23","2","",""
"null","141833","pSARL_v2","pSARL_v2xnqf7m77","65071c1f0e39b433b4340a85","freq_resp","img/orange_2bandit_b.png","70","70","test","","","","2","",""
"null","142004","pSARL_v2","pSARL_v2xnqf7m77","65071c1f0e39b433b4340a85","fixation","img/fixation.png","null","","test","","","","","",""
"107.40000000596046","142116","pSARL_v2","pSARL_v2xnqf7m77","65071c1f0e39b433b4340a85","freq","img/orange_2bandit_b2.png","70","70","test","1","24","24","2","",""
"null","142815","pSARL_v2","pSARL_v2xnqf7m77","65071c1f0e39b433b4340a85","freq_resp","img/orange_2bandit_b.png","70","70","test","","","","2","",""
"null","142973","pSARL_v2","pSARL_v2xnqf7m77","65071c1f0e39b433b4340a85","fixation","img/fixation.png","null","","test","","","","","",""
"600.1000000238419","143578","pSARL_v2","pSARL_v2xnqf7m77","65071c1f0e39b433b4340a85","freq","img/orange_2bandit_b2.png","70","70","test","1","25","25","2","",""
"null","143783","pSARL_v2","pSARL_v2xnqf7m77","65071c1f0e39b433b4340a85","freq_resp","img/orange_2bandit_b.png","70","70","test","","","","2","",""
"null","143943","pSARL_v2","pSARL_v2xnqf7m77","65071c1f0e39b433b4340a85","fixation","img/fixation.png","null","","test","","","","","",""
"278.59999999403954","144226","pSARL_v2","pSARL_v2xnqf7m77","65071c1f0e39b433b4340a85","freq","img/orange_2bandit_b2.png","70","70","test","1","26","26","2","",""
"null","144755","pSARL_v2","pSARL_v2xnqf7m77","65071c1f0e39b433b4340a85","freq_resp","img/orange_2bandit_b.png","70","70","test","","","","2","",""
"null","144912","pSARL_v2","pSARL_v2xnqf7m77","65071c1f0e39b433b4340a85","fixation","img/fixation.png","null","","test","","","","","",""
"40.400000005960464","144957","pSARL_v2","pSARL_v2xnqf7m77","65071c1f0e39b433b4340a85","freq","img/orange_2bandit_b2.png","70","70","test","1","27","27","2","",""
"null","145737","pSARL_v2","pSARL_v2xnqf7m77","65071c1f0e39b433b4340a85","freq_resp","img/orange_2bandit_b.png","70","70","test","","","","2","",""
"null","145895","pSARL_v2","pSARL_v2xnqf7m77","65071c1f0e39b433b4340a85","fixation","img/fixation.png","null","","test","","","","","",""
"97.60000002384186","145999","pSARL_v2","pSARL_v2xnqf7m77","65071c1f0e39b433b4340a85","infreq","img/green_2bandit_b2.png","70","68","test","0","28","28","2","",""
"null","146718","pSARL_v2","pSARL_v2xnqf7m77","65071c1f0e39b433b4340a85","infreq_resp","img/green_2bandit_b.png","70","68","test","","","","2","",""
"null","146875","pSARL_v2","pSARL_v2xnqf7m77","65071c1f0e39b433b4340a85","fixation","img/fixation.png","null","","test","","","","","",""
"448.09999999403954","147328","pSARL_v2","pSARL_v2xnqf7m77","65071c1f0e39b433b4340a85","infreq","img/green_2bandit_b2.png","68","68","test","1","29","29","2","",""
"null","147688","pSARL_v2","pSARL_v2xnqf7m77","65071c1f0e39b433b4340a85","infreq_resp","img/green_2bandit_b.png","68","68","test","","","","2","",""
"null","147844","pSARL_v2","pSARL_v2xnqf7m77","65071c1f0e39b433b4340a85","fixation","img/fixation.png","null","","test","","","","","",""
"390.5","148239","pSARL_v2","pSARL_v2xnqf7m77","65071c1f0e39b433b4340a85","freq","img/orange_2bandit_b2.png","68","70","test","0","30","30","2","",""
"null","148653","pSARL_v2","pSARL_v2xnqf7m77","65071c1f0e39b433b4340a85","freq_resp","img/orange_2bandit_b.png","68","70","test","","","","2","",""
"null","148811","pSARL_v2","pSARL_v2xnqf7m77","65071c1f0e39b433b4340a85","fixation","img/fixation.png","null","","test","","","","","",""
"509.39999997615814","149324","pSARL_v2","pSARL_v2xnqf7m77","65071c1f0e39b433b4340a85","infreq","img/green_2bandit_b2.png","70","68","test","0","31","31","2","",""
"null","149633","pSARL_v2","pSARL_v2xnqf7m77","65071c1f0e39b433b4340a85","infreq_resp","img/green_2bandit_b.png","70","68","test","","","","2","",""
"null","149804","pSARL_v2","pSARL_v2xnqf7m77","65071c1f0e39b433b4340a85","fixation","img/fixation.png","null","","test","","","","","",""
"494.5","150304","pSARL_v2","pSARL_v2xnqf7m77","65071c1f0e39b433b4340a85","freq","img/orange_2bandit_b2.png","70","70","test","1","32","32","2","",""
"null","150615","pSARL_v2","pSARL_v2xnqf7m77","65071c1f0e39b433b4340a85","freq_resp","img/orange_2bandit_b.png","70","70","test","","","","2","",""
"null","150772","pSARL_v2","pSARL_v2xnqf7m77","65071c1f0e39b433b4340a85","fixation","img/fixation.png","null","","test","","","","","",""
"467.90000000596046","151244","pSARL_v2","pSARL_v2xnqf7m77","65071c1f0e39b433b4340a85","freq","img/orange_2bandit_b2.png","70","70","test","1","33","33","2","",""
"null","151583","pSARL_v2","pSARL_v2xnqf7m77","65071c1f0e39b433b4340a85","freq_resp","img/orange_2bandit_b.png","70","70","test","","","","2","",""
"null","151740","pSARL_v2","pSARL_v2xnqf7m77","65071c1f0e39b433b4340a85","fixation","img/fixation.png","null","","test","","","","","",""
"391.5","152136","pSARL_v2","pSARL_v2xnqf7m77","65071c1f0e39b433b4340a85","freq","img/orange_2bandit_b2.png","70","70","test","1","34","34","2","",""
"null","152553","pSARL_v2","pSARL_v2xnqf7m77","65071c1f0e39b433b4340a85","freq_resp","img/orange_2bandit_b.png","70","70","test","","","","2","",""
"null","152710","pSARL_v2","pSARL_v2xnqf7m77","65071c1f0e39b433b4340a85","fixation","img/fixation.png","null","","test","","","","","",""
"352.5","153067","pSARL_v2","pSARL_v2xnqf7m77","65071c1f0e39b433b4340a85","freq","img/orange_2bandit_b2.png","70","70","test","1","35","35","2","",""
"null","153522","pSARL_v2","pSARL_v2xnqf7m77","65071c1f0e39b433b4340a85","freq_resp","img/orange_2bandit_b.png","70","70","test","","","","2","",""
"null","153692","pSARL_v2","pSARL_v2xnqf7m77","65071c1f0e39b433b4340a85","fixation","img/fixation.png","null","","test","","","","","",""
"280.7000000178814","153977","pSARL_v2","pSARL_v2xnqf7m77","65071c1f0e39b433b4340a85","freq","img/orange_2bandit_b2.png","70","70","test","1","36","36","2","",""
"null","154505","pSARL_v2","pSARL_v2xnqf7m77","65071c1f0e39b433b4340a85","freq_resp","img/orange_2bandit_b.png","70","70","test","","","","2","",""
"null","154661","pSARL_v2","pSARL_v2xnqf7m77","65071c1f0e39b433b4340a85","fixation","img/fixation.png","null","","test","","","","","",""
"307","154974","pSARL_v2","pSARL_v2xnqf7m77","65071c1f0e39b433b4340a85","freq","img/orange_2bandit_b2.png","70","70","test","1","37","37","2","",""
"null","155476","pSARL_v2","pSARL_v2xnqf7m77","65071c1f0e39b433b4340a85","freq_resp","img/orange_2bandit_b.png","70","70","test","","","","2","",""
"null","155631","pSARL_v2","pSARL_v2xnqf7m77","65071c1f0e39b433b4340a85","fixation","img/fixation.png","null","","test","","","","","",""
"290.40000000596046","155925","pSARL_v2","pSARL_v2xnqf7m77","65071c1f0e39b433b4340a85","freq","img/orange_2bandit_b2.png","70","70","test","1","38","38","2","",""
"null","156441","pSARL_v2","pSARL_v2xnqf7m77","65071c1f0e39b433b4340a85","freq_resp","img/orange_2bandit_b.png","70","70","test","","","","2","",""
"null","156600","pSARL_v2","pSARL_v2xnqf7m77","65071c1f0e39b433b4340a85","fixation","img/fixation.png","null","","test","","","","","",""
"335.5","156940","pSARL_v2","pSARL_v2xnqf7m77","65071c1f0e39b433b4340a85","freq","img/orange_2bandit_b2.png","70","70","test","1","39","39","2","",""
"null","157423","pSARL_v2","pSARL_v2xnqf7m77","65071c1f0e39b433b4340a85","freq_resp","img/orange_2bandit_b.png","70","70","test","","","","2","",""
"null","157594","pSARL_v2","pSARL_v2xnqf7m77","65071c1f0e39b433b4340a85","fixation","img/fixation.png","null","","test","","","","","",""
"322.2000000178814","157920","pSARL_v2","pSARL_v2xnqf7m77","65071c1f0e39b433b4340a85","freq","img/orange_2bandit_b2.png","70","70","test","1","40","40","2","",""
"null","158405","pSARL_v2","pSARL_v2xnqf7m77","65071c1f0e39b433b4340a85","freq_resp","img/orange_2bandit_b.png","70","70","test","","","","2","",""
"null","158562","pSARL_v2","pSARL_v2xnqf7m77","65071c1f0e39b433b4340a85","fixation","img/fixation.png","null","","test","","","","","",""
"463.80000001192093","159032","pSARL_v2","pSARL_v2xnqf7m77","65071c1f0e39b433b4340a85","freq","img/orange_2bandit_b2.png","70","70","test","1","41","41","2","",""
"null","159382","pSARL_v2","pSARL_v2xnqf7m77","65071c1f0e39b433b4340a85","freq_resp","img/orange_2bandit_b.png","70","70","test","","","","2","",""
"null","159551","pSARL_v2","pSARL_v2xnqf7m77","65071c1f0e39b433b4340a85","fixation","img/fixation.png","null","","test","","","","","",""
"269.80000001192093","159826","pSARL_v2","pSARL_v2xnqf7m77","65071c1f0e39b433b4340a85","freq","img/orange_2bandit_b2.png","70","70","test","1","42","42","2","",""
"null","160366","pSARL_v2","pSARL_v2xnqf7m77","65071c1f0e39b433b4340a85","freq_resp","img/orange_2bandit_b.png","70","70","test","","","","2","",""
"null","160536","pSARL_v2","pSARL_v2xnqf7m77","65071c1f0e39b433b4340a85","fixation","img/fixation.png","null","","test","","","","","",""
"595.8000000119209","161136","pSARL_v2","pSARL_v2xnqf7m77","65071c1f0e39b433b4340a85","reward","img/slot.png","74","","test","","","","","",""
"null","161898","pSARL_v2","pSARL_v2xnqf7m77","65071c1f0e39b433b4340a85","points","<div class=""verylowPoints""> -11 </div>","null","na","test","","","","2","-11","1"
"586.4000000059605","162489","pSARL_v2","pSARL_v2xnqf7m77","65071c1f0e39b433b4340a85","freq","img/orange_2bandit_b2.png","70","70","test","1","43","43","3","",""
"null","162720","pSARL_v2","pSARL_v2xnqf7m77","65071c1f0e39b433b4340a85","freq_resp","img/orange_2bandit_b.png","70","70","test","","","","3","",""
"null","162876","pSARL_v2","pSARL_v2xnqf7m77","65071c1f0e39b433b4340a85","fixation","img/fixation.png","null","","test","","","","","",""
"428.5","163308","pSARL_v2","pSARL_v2xnqf7m77","65071c1f0e39b433b4340a85","freq","img/orange_2bandit_b2.png","70","70","test","1","44","44","3","",""
"null","163685","pSARL_v2","pSARL_v2xnqf7m77","65071c1f0e39b433b4340a85","freq_resp","img/orange_2bandit_b.png","70","70","test","","","","3","",""
"null","163843","pSARL_v2","pSARL_v2xnqf7m77","65071c1f0e39b433b4340a85","fixation","img/fixation.png","null","","test","","","","","",""
"349.2999999821186","164197","pSARL_v2","pSARL_v2xnqf7m77","65071c1f0e39b433b4340a85","freq","img/orange_2bandit_b2.png","70","70","test","1","45","45","3","",""
"null","164668","pSARL_v2","pSARL_v2xnqf7m77","65071c1f0e39b433b4340a85","freq_resp","img/orange_2bandit_b.png","70","70","test","","","","3","",""
"null","164839","pSARL_v2","pSARL_v2xnqf7m77","65071c1f0e39b433b4340a85","fixation","img/fixation.png","null","","test","","","","","",""
"344.40000000596046","165188","pSARL_v2","pSARL_v2xnqf7m77","65071c1f0e39b433b4340a85","freq","img/orange_2bandit_b2.png","70","70","test","1","46","46","3","",""
"null","165657","pSARL_v2","pSARL_v2xnqf7m77","65071c1f0e39b433b4340a85","freq_resp","img/orange_2bandit_b.png","70","70","test","","","","3","",""
"null","165828","pSARL_v2","pSARL_v2xnqf7m77","65071c1f0e39b433b4340a85","fixation","img/fixation.png","null","","test","","","","","",""
"245.60000002384186","166077","pSARL_v2","pSARL_v2xnqf7m77","65071c1f0e39b433b4340a85","freq","img/orange_2bandit_b2.png","70","70","test","1","47","47","3","",""
"null","166639","pSARL_v2","pSARL_v2xnqf7m77","65071c1f0e39b433b4340a85","freq_resp","img/orange_2bandit_b.png","70","70","test","","","","3","",""
"null","166796","pSARL_v2","pSARL_v2xnqf7m77","65071c1f0e39b433b4340a85","fixation","img/fixation.png","null","","test","","","","","",""
"206.19999998807907","167008","pSARL_v2","pSARL_v2xnqf7m77","65071c1f0e39b433b4340a85","infreq","img/green_2bandit_b2.png","70","68","test","0","48","48","3","",""
"null","167620","pSARL_v2","pSARL_v2xnqf7m77","65071c1f0e39b433b4340a85","infreq_resp","img/green_2bandit_b.png","70","68","test","","","","3","",""
"null","167777","pSARL_v2","pSARL_v2xnqf7m77","65071c1f0e39b433b4340a85","fixation","img/fixation.png","null","","test","","","","","",""
"420.09999999403954","168203","pSARL_v2","pSARL_v2xnqf7m77","65071c1f0e39b433b4340a85","freq","img/orange_2bandit_b2.png","70","70","test","1","49","49","3","",""
"null","168587","pSARL_v2","pSARL_v2xnqf7m77","65071c1f0e39b433b4340a85","freq_resp","img/orange_2bandit_b.png","70","70","test","","","","3","",""
"null","168757","pSARL_v2","pSARL_v2xnqf7m77","65071c1f0e39b433b4340a85","fixation","img/fixation.png","null","","test","","","","","",""
"394.89999997615814","169156","pSARL_v2","pSARL_v2xnqf7m77","65071c1f0e39b433b4340a85","infreq","img/green_2bandit_b2.png","68","68","test","1","50","50","3","",""
"null","169569","pSARL_v2","pSARL_v2xnqf7m77","65071c1f0e39b433b4340a85","infreq_resp","img/green_2bandit_b.png","68","68","test","","","","3","",""
"null","169738","pSARL_v2","pSARL_v2xnqf7m77","65071c1f0e39b433b4340a85","fixation","img/fixation.png","null","","test","","","","","",""
"471.10000002384186","170213","pSARL_v2","pSARL_v2xnqf7m77","65071c1f0e39b433b4340a85","freq","img/orange_2bandit_b2.png","70","70","test","1","51","51","3","",""
"null","170547","pSARL_v2","pSARL_v2xnqf7m77","65071c1f0e39b433b4340a85","freq_resp","img/orange_2bandit_b.png","70","70","test","","","","3","",""
"null","170716","pSARL_v2","pSARL_v2xnqf7m77","65071c1f0e39b433b4340a85","fixation","img/fixation.png","null","","test","","","","","",""
"362.09999999403954","171083","pSARL_v2","pSARL_v2xnqf7m77","65071c1f0e39b433b4340a85","freq","img/orange_2bandit_b2.png","70","70","test","1","52","52","3","",""
"null","171533","pSARL_v2","pSARL_v2xnqf7m77","65071c1f0e39b433b4340a85","freq_resp","img/orange_2bandit_b.png","70","70","test","","","","3","",""
"null","171702","pSARL_v2","pSARL_v2xnqf7m77","65071c1f0e39b433b4340a85","fixation","img/fixation.png","null","","test","","","","","",""
"284.80000001192093","171991","pSARL_v2","pSARL_v2xnqf7m77","65071c1f0e39b433b4340a85","freq","img/orange_2bandit_b2.png","70","70","test","1","53","53","3","",""
"null","172522","pSARL_v2","pSARL_v2xnqf7m77","65071c1f0e39b433b4340a85","freq_resp","img/orange_2bandit_b.png","70","70","test","","","","3","",""
"null","172692","pSARL_v2","pSARL_v2xnqf7m77","65071c1f0e39b433b4340a85","fixation","img/fixation.png","null","","test","","","","","",""
"361","173057","pSARL_v2","pSARL_v2xnqf7m77","65071c1f0e39b433b4340a85","freq","img/orange_2bandit_b2.png","70","70","test","1","54","54","3","",""
"null","173503","pSARL_v2","pSARL_v2xnqf7m77","65071c1f0e39b433b4340a85","freq_resp","img/orange_2bandit_b.png","70","70","test","","","","3","",""
"null","173673","pSARL_v2","pSARL_v2xnqf7m77","65071c1f0e39b433b4340a85","fixation","img/fixation.png","null","","test","","","","","",""
"310.90000000596046","173990","pSARL_v2","pSARL_v2xnqf7m77","65071c1f0e39b433b4340a85","freq","img/orange_2bandit_b2.png","70","70","test","1","55","55","3","",""
"null","174494","pSARL_v2","pSARL_v2xnqf7m77","65071c1f0e39b433b4340a85","freq_resp","img/orange_2bandit_b.png","70","70","test","","","","3","",""
"null","174662","pSARL_v2","pSARL_v2xnqf7m77","65071c1f0e39b433b4340a85","fixation","img/fixation.png","null","","test","","","","","",""
"273.59999999403954","174940","pSARL_v2","pSARL_v2xnqf7m77","65071c1f0e39b433b4340a85","freq","img/orange_2bandit_b2.png","70","70","test","1","56","56","3","",""
"null","175472","pSARL_v2","pSARL_v2xnqf7m77","65071c1f0e39b433b4340a85","freq_resp","img/orange_2bandit_b.png","70","70","test","","","","3","",""
"null","175642","pSARL_v2","pSARL_v2xnqf7m77","65071c1f0e39b433b4340a85","fixation","img/fixation.png","null","","test","","","","","",""
"267","175913","pSARL_v2","pSARL_v2xnqf7m77","65071c1f0e39b433b4340a85","freq","img/orange_2bandit_b2.png","70","70","test","1","57","57","3","",""
"null","176455","pSARL_v2","pSARL_v2xnqf7m77","65071c1f0e39b433b4340a85","freq_resp","img/orange_2bandit_b.png","70","70","test","","","","3","",""
"null","176613","pSARL_v2","pSARL_v2xnqf7m77","65071c1f0e39b433b4340a85","fixation","img/fixation.png","null","","test","","","","","",""
"137.59999999403954","176754","pSARL_v2","pSARL_v2xnqf7m77","65071c1f0e39b433b4340a85","freq","img/orange_2bandit_b2.png","70","70","test","1","58","58","3","",""
"null","177422","pSARL_v2","pSARL_v2xnqf7m77","65071c1f0e39b433b4340a85","freq_resp","img/orange_2bandit_b.png","70","70","test","","","","3","",""
"null","177580","pSARL_v2","pSARL_v2xnqf7m77","65071c1f0e39b433b4340a85","fixation","img/fixation.png","null","","test","","","","","",""
"80.80000001192093","177665","pSARL_v2","pSARL_v2xnqf7m77","65071c1f0e39b433b4340a85","freq","img/orange_2bandit_b2.png","70","70","test","1","59","59","3","",""
"null","178395","pSARL_v2","pSARL_v2xnqf7m77","65071c1f0e39b433b4340a85","freq_resp","img/orange_2bandit_b.png","70","70","test","","","","3","",""
"null","178552","pSARL_v2","pSARL_v2xnqf7m77","65071c1f0e39b433b4340a85","fixation","img/fixation.png","null","","test","","","","","",""
"131.40000000596046","178688","pSARL_v2","pSARL_v2xnqf7m77","65071c1f0e39b433b4340a85","freq","img/orange_2bandit_b2.png","70","70","test","1","60","60","3","",""
"null","179369","pSARL_v2","pSARL_v2xnqf7m77","65071c1f0e39b433b4340a85","freq_resp","img/orange_2bandit_b.png","70","70","test","","","","3","",""
"null","179537","pSARL_v2","pSARL_v2xnqf7m77","65071c1f0e39b433b4340a85","fixation","img/fixation.png","null","","test","","","","","",""
"250.5","179792","pSARL_v2","pSARL_v2xnqf7m77","65071c1f0e39b433b4340a85","freq","img/orange_2bandit_b2.png","70","70","test","1","61","61","3","",""
"null","180348","pSARL_v2","pSARL_v2xnqf7m77","65071c1f0e39b433b4340a85","freq_resp","img/orange_2bandit_b.png","70","70","test","","","","3","",""
"null","180508","pSARL_v2","pSARL_v2xnqf7m77","65071c1f0e39b433b4340a85","fixation","img/fixation.png","null","","test","","","","","",""
"343.80000001192093","180856","pSARL_v2","pSARL_v2xnqf7m77","65071c1f0e39b433b4340a85","freq","img/orange_2bandit_b2.png","70","70","test","1","62","62","3","",""
"null","181329","pSARL_v2","pSARL_v2xnqf7m77","65071c1f0e39b433b4340a85","freq_resp","img/orange_2bandit_b.png","70","70","test","","","","3","",""
"null","181485","pSARL_v2","pSARL_v2xnqf7m77","65071c1f0e39b433b4340a85","fixation","img/fixation.png","null","","test","","","","","",""
"181.40000000596046","181671","pSARL_v2","pSARL_v2xnqf7m77","65071c1f0e39b433b4340a85","freq","img/orange_2bandit_b2.png","70","70","test","1","63","63","3","",""
"null","182299","pSARL_v2","pSARL_v2xnqf7m77","65071c1f0e39b433b4340a85","freq_resp","img/orange_2bandit_b.png","70","70","test","","","","3","",""
"null","182468","pSARL_v2","pSARL_v2xnqf7m77","65071c1f0e39b433b4340a85","fixation","img/fixation.png","null","","test","","","","","",""
"239.69999998807907","182712","pSARL_v2","pSARL_v2xnqf7m77","65071c1f0e39b433b4340a85","freq","img/orange_2bandit_b2.png","70","70","test","1","64","64","3","",""
"null","183290","pSARL_v2","pSARL_v2xnqf7m77","65071c1f0e39b433b4340a85","freq_resp","img/orange_2bandit_b.png","70","70","test","","","","3","",""
"null","183448","pSARL_v2","pSARL_v2xnqf7m77","65071c1f0e39b433b4340a85","fixation","img/fixation.png","null","","test","","","","","",""
"197.10000002384186","183650","pSARL_v2","pSARL_v2xnqf7m77","65071c1f0e39b433b4340a85","freq","img/orange_2bandit_b2.png","70","70","test","1","65","65","3","",""
"null","184271","pSARL_v2","pSARL_v2xnqf7m77","65071c1f0e39b433b4340a85","freq_resp","img/orange_2bandit_b.png","70","70","test","","","","3","",""
"null","184426","pSARL_v2","pSARL_v2xnqf7m77","65071c1f0e39b433b4340a85","fixation","img/fixation.png","null","","test","","","","","",""
"231.80000001192093","184662","pSARL_v2","pSARL_v2xnqf7m77","65071c1f0e39b433b4340a85","freq","img/orange_2bandit_b2.png","70","70","test","1","66","66","3","",""
"null","185240","pSARL_v2","pSARL_v2xnqf7m77","65071c1f0e39b433b4340a85","freq_resp","img/orange_2bandit_b.png","70","70","test","","","","3","",""
"null","185396","pSARL_v2","pSARL_v2xnqf7m77","65071c1f0e39b433b4340a85","fixation","img/fixation.png","null","","test","","","","","",""
"485.09999999403954","185885","pSARL_v2","pSARL_v2xnqf7m77","65071c1f0e39b433b4340a85","reward","img/slot.png","74","","test","","","","","",""
"null","186644","pSARL_v2","pSARL_v2xnqf7m77","65071c1f0e39b433b4340a85","points","<div class=""verylowPoints""> -7 </div>","null","na","test","","","","3","-7","2"
"273.90000000596046","186921","pSARL_v2","pSARL_v2xnqf7m77","65071c1f0e39b433b4340a85","freq","img/orange_2bandit_b2.png","70","70","test","1","67","67","4","",""
"null","187468","pSARL_v2","pSARL_v2xnqf7m77","65071c1f0e39b433b4340a85","freq_resp","img/orange_2bandit_b.png","70","70","test","","","","4","",""
"null","187626","pSARL_v2","pSARL_v2xnqf7m77","65071c1f0e39b433b4340a85","fixation","img/fixation.png","null","","test","","","","","",""
"253.40000000596046","187884","pSARL_v2","pSARL_v2xnqf7m77","65071c1f0e39b433b4340a85","freq","img/orange_2bandit_b2.png","70","70","test","1","68","68","4","",""
"null","188444","pSARL_v2","pSARL_v2xnqf7m77","65071c1f0e39b433b4340a85","freq_resp","img/orange_2bandit_b.png","70","70","test","","","","4","",""
"null","188614","pSARL_v2","pSARL_v2xnqf7m77","65071c1f0e39b433b4340a85","fixation","img/fixation.png","null","","test","","","","","",""
"109.5","188728","pSARL_v2","pSARL_v2xnqf7m77","65071c1f0e39b433b4340a85","freq","img/orange_2bandit_b2.png","70","70","test","1","69","69","4","",""
"null","189424","pSARL_v2","pSARL_v2xnqf7m77","65071c1f0e39b433b4340a85","freq_resp","img/orange_2bandit_b.png","70","70","test","","","","4","",""
"null","189582","pSARL_v2","pSARL_v2xnqf7m77","65071c1f0e39b433b4340a85","fixation","img/fixation.png","null","","test","","","","","",""
"110.60000002384186","189697","pSARL_v2","pSARL_v2xnqf7m77","65071c1f0e39b433b4340a85","infreq","img/green_2bandit_b2.png","70","68","test","0","70","70","4","",""
"null","190392","pSARL_v2","pSARL_v2xnqf7m77","65071c1f0e39b433b4340a85","infreq_resp","img/green_2bandit_b.png","70","68","test","","","","4","",""
"null","190549","pSARL_v2","pSARL_v2xnqf7m77","65071c1f0e39b433b4340a85","fixation","img/fixation.png","null","","test","","","","","",""
"339.80000001192093","190893","pSARL_v2","pSARL_v2xnqf7m77","65071c1f0e39b433b4340a85","freq","img/orange_2bandit_b2.png","70","70","test","1","71","71","4","",""
"null","191373","pSARL_v2","pSARL_v2xnqf7m77","65071c1f0e39b433b4340a85","freq_resp","img/orange_2bandit_b.png","70","70","test","","","","4","",""
"null","191531","pSARL_v2","pSARL_v2xnqf7m77","65071c1f0e39b433b4340a85","fixation","img/fixation.png","null","","test","","","","","",""
"310.80000001192093","191846","pSARL_v2","pSARL_v2xnqf7m77","65071c1f0e39b433b4340a85","freq","img/orange_2bandit_b2.png","70","70","test","1","72","72","4","",""
"null","192345","pSARL_v2","pSARL_v2xnqf7m77","65071c1f0e39b433b4340a85","freq_resp","img/orange_2bandit_b.png","70","70","test","","","","4","",""
"null","192511","pSARL_v2","pSARL_v2xnqf7m77","65071c1f0e39b433b4340a85","fixation","img/fixation.png","null","","test","","","","","",""
"284.39999997615814","192800","pSARL_v2","pSARL_v2xnqf7m77","65071c1f0e39b433b4340a85","freq","img/orange_2bandit_b2.png","70","70","test","1","73","73","4","",""
"null","193323","pSARL_v2","pSARL_v2xnqf7m77","65071c1f0e39b433b4340a85","freq_resp","img/orange_2bandit_b.png","70","70","test","","","","4","",""
"null","193479","pSARL_v2","pSARL_v2xnqf7m77","65071c1f0e39b433b4340a85","fixation","img/fixation.png","null","","test","","","","","",""
"315.39999997615814","193799","pSARL_v2","pSARL_v2xnqf7m77","65071c1f0e39b433b4340a85","freq","img/orange_2bandit_b2.png","70","70","test","1","74","74","4","",""
"null","194303","pSARL_v2","pSARL_v2xnqf7m77","65071c1f0e39b433b4340a85","freq_resp","img/orange_2bandit_b.png","70","70","test","","","","4","",""
"null","194474","pSARL_v2","pSARL_v2xnqf7m77","65071c1f0e39b433b4340a85","fixation","img/fixation.png","null","","test","","","","","",""
"252.7999999821186","194732","pSARL_v2","pSARL_v2xnqf7m77","65071c1f0e39b433b4340a85","freq","img/orange_2bandit_b2.png","70","70","test","1","75","75","4","",""
"null","195296","pSARL_v2","pSARL_v2xnqf7m77","65071c1f0e39b433b4340a85","freq_resp","img/orange_2bandit_b.png","70","70","test","","","","4","",""
"null","195465","pSARL_v2","pSARL_v2xnqf7m77","65071c1f0e39b433b4340a85","fixation","img/fixation.png","null","","test","","","","","",""
"107.19999998807907","195577","pSARL_v2","pSARL_v2xnqf7m77","65071c1f0e39b433b4340a85","freq","img/orange_2bandit_b2.png","70","70","test","1","76","76","4","",""
"null","196278","pSARL_v2","pSARL_v2xnqf7m77","65071c1f0e39b433b4340a85","freq_resp","img/orange_2bandit_b.png","70","70","test","","","","4","",""
"null","196438","pSARL_v2","pSARL_v2xnqf7m77","65071c1f0e39b433b4340a85","fixation","img/fixation.png","null","","test","","","","","",""
"171","196614","pSARL_v2","pSARL_v2xnqf7m77","65071c1f0e39b433b4340a85","infreq","img/green_2bandit_b2.png","70","68","test","0","77","77","4","",""
"null","197262","pSARL_v2","pSARL_v2xnqf7m77","65071c1f0e39b433b4340a85","infreq_resp","img/green_2bandit_b.png","70","68","test","","","","4","",""
"null","197432","pSARL_v2","pSARL_v2xnqf7m77","65071c1f0e39b433b4340a85","fixation","img/fixation.png","null","","test","","","","","",""
"436.2000000178814","197876","pSARL_v2","pSARL_v2xnqf7m77","65071c1f0e39b433b4340a85","infreq","img/green_2bandit_b2.png","68","68","test","1","78","78","4","",""
"null","198256","pSARL_v2","pSARL_v2xnqf7m77","65071c1f0e39b433b4340a85","infreq_resp","img/green_2bandit_b.png","68","68","test","","","","4","",""
"null","198411","pSARL_v2","pSARL_v2xnqf7m77","65071c1f0e39b433b4340a85","fixation","img/fixation.png","null","","test","","","","","",""
"501.2000000178814","198917","pSARL_v2","pSARL_v2xnqf7m77","65071c1f0e39b433b4340a85","freq","img/orange_2bandit_b2.png","70","70","test","1","79","79","4","",""
"null","199231","pSARL_v2","pSARL_v2xnqf7m77","65071c1f0e39b433b4340a85","freq_resp","img/orange_2bandit_b.png","70","70","test","","","","4","",""
"null","199402","pSARL_v2","pSARL_v2xnqf7m77","65071c1f0e39b433b4340a85","fixation","img/fixation.png","null","","test","","","","","",""
"376.40000000596046","199782","pSARL_v2","pSARL_v2xnqf7m77","65071c1f0e39b433b4340a85","freq","img/orange_2bandit_b2.png","70","70","test","1","80","80","4","",""
"null","200222","pSARL_v2","pSARL_v2xnqf7m77","65071c1f0e39b433b4340a85","freq_resp","img/orange_2bandit_b.png","70","70","test","","","","4","",""
"null","200380","pSARL_v2","pSARL_v2xnqf7m77","65071c1f0e39b433b4340a85","fixation","img/fixation.png","null","","test","","","","","",""
"397.69999998807907","200782","pSARL_v2","pSARL_v2xnqf7m77","65071c1f0e39b433b4340a85","freq","img/orange_2bandit_b2.png","70","70","test","1","81","81","4","",""
"null","201189","pSARL_v2","pSARL_v2xnqf7m77","65071c1f0e39b433b4340a85","freq_resp","img/orange_2bandit_b.png","70","70","test","","","","4","",""
"null","201359","pSARL_v2","pSARL_v2xnqf7m77","65071c1f0e39b433b4340a85","fixation","img/fixation.png","null","","test","","","","","",""
"413.10000002384186","201777","pSARL_v2","pSARL_v2xnqf7m77","65071c1f0e39b433b4340a85","freq","img/orange_2bandit_b2.png","70","70","test","1","82","82","4","",""
"null","202171","pSARL_v2","pSARL_v2xnqf7m77","65071c1f0e39b433b4340a85","freq_resp","img/orange_2bandit_b.png","70","70","test","","","","4","",""
"null","202329","pSARL_v2","pSARL_v2xnqf7m77","65071c1f0e39b433b4340a85","fixation","img/fixation.png","null","","test","","","","","",""
"372.09999999403954","202706","pSARL_v2","pSARL_v2xnqf7m77","65071c1f0e39b433b4340a85","freq","img/orange_2bandit_b2.png","70","70","test","1","83","83","4","",""
"null","203140","pSARL_v2","pSARL_v2xnqf7m77","65071c1f0e39b433b4340a85","freq_resp","img/orange_2bandit_b.png","70","70","test","","","","4","",""
"null","203309","pSARL_v2","pSARL_v2xnqf7m77","65071c1f0e39b433b4340a85","fixation","img/fixation.png","null","","test","","","","","",""
"391.90000000596046","203707","pSARL_v2","pSARL_v2xnqf7m77","65071c1f0e39b433b4340a85","freq","img/orange_2bandit_b2.png","70","70","test","1","84","84","4","",""
"null","204131","pSARL_v2","pSARL_v2xnqf7m77","65071c1f0e39b433b4340a85","freq_resp","img/orange_2bandit_b.png","70","70","test","","","","4","",""
"null","204287","pSARL_v2","pSARL_v2xnqf7m77","65071c1f0e39b433b4340a85","fixation","img/fixation.png","null","","test","","","","","",""
"431.2000000178814","204723","pSARL_v2","pSARL_v2xnqf7m77","65071c1f0e39b433b4340a85","freq","img/orange_2bandit_b2.png","70","70","test","1","85","85","4","",""
"null","205098","pSARL_v2","pSARL_v2xnqf7m77","65071c1f0e39b433b4340a85","freq_resp","img/orange_2bandit_b.png","70","70","test","","","","4","",""
"null","205255","pSARL_v2","pSARL_v2xnqf7m77","65071c1f0e39b433b4340a85","fixation","img/fixation.png","null","","test","","","","","",""
"416","205676","pSARL_v2","pSARL_v2xnqf7m77","65071c1f0e39b433b4340a85","freq","img/orange_2bandit_b2.png","70","70","test","1","86","86","4","",""
"null","206070","pSARL_v2","pSARL_v2xnqf7m77","65071c1f0e39b433b4340a85","freq_resp","img/orange_2bandit_b.png","70","70","test","","","","4","",""
"null","206243","pSARL_v2","pSARL_v2xnqf7m77","65071c1f0e39b433b4340a85","fixation","img/fixation.png","null","","test","","","","","",""
"642.4000000059605","206891","pSARL_v2","pSARL_v2xnqf7m77","65071c1f0e39b433b4340a85","reward","img/slot.png","74","","test","","","","","",""
"null","207661","pSARL_v2","pSARL_v2xnqf7m77","65071c1f0e39b433b4340a85","points","<div class=""verylowPoints""> -3 </div>","null","na","test","","","","4","-3","3"
"427.39999997615814","208093","pSARL_v2","pSARL_v2xnqf7m77","65071c1f0e39b433b4340a85","freq","img/orange_2bandit_b2.png","70","70","test","1","87","87","5","",""
"null","208473","pSARL_v2","pSARL_v2xnqf7m77","65071c1f0e39b433b4340a85","freq_resp","img/orange_2bandit_b.png","70","70","test","","","","5","",""
"null","208642","pSARL_v2","pSARL_v2xnqf7m77","65071c1f0e39b433b4340a85","fixation","img/fixation.png","null","","test","","","","","",""
"399","209046","pSARL_v2","pSARL_v2xnqf7m77","65071c1f0e39b433b4340a85","freq","img/orange_2bandit_b2.png","70","70","test","1","88","88","5","",""
"null","209468","pSARL_v2","pSARL_v2xnqf7m77","65071c1f0e39b433b4340a85","freq_resp","img/orange_2bandit_b.png","70","70","test","","","","5","",""
"null","209637","pSARL_v2","pSARL_v2xnqf7m77","65071c1f0e39b433b4340a85","fixation","img/fixation.png","null","","test","","","","","",""
"532.8000000119209","210175","pSARL_v2","pSARL_v2xnqf7m77","65071c1f0e39b433b4340a85","infreq","img/green_2bandit_b2.png","68","68","test","1","89","89","5","",""
"null","210454","pSARL_v2","pSARL_v2xnqf7m77","65071c1f0e39b433b4340a85","infreq_resp","img/green_2bandit_b.png","68","68","test","","","","5","",""
"null","210613","pSARL_v2","pSARL_v2xnqf7m77","65071c1f0e39b433b4340a85","fixation","img/fixation.png","null","","test","","","","","",""
"465.2999999821186","211082","pSARL_v2","pSARL_v2xnqf7m77","65071c1f0e39b433b4340a85","freq","img/orange_2bandit_b2.png","70","70","test","1","90","90","5","",""
"null","211428","pSARL_v2","pSARL_v2xnqf7m77","65071c1f0e39b433b4340a85","freq_resp","img/orange_2bandit_b.png","70","70","test","","","","5","",""
"null","211597","pSARL_v2","pSARL_v2xnqf7m77","65071c1f0e39b433b4340a85","fixation","img/fixation.png","null","","test","","","","","",""
"394.2999999821186","211996","pSARL_v2","pSARL_v2xnqf7m77","65071c1f0e39b433b4340a85","freq","img/orange_2bandit_b2.png","70","70","test","1","91","91","5","",""
"null","212417","pSARL_v2","pSARL_v2xnqf7m77","65071c1f0e39b433b4340a85","freq_resp","img/orange_2bandit_b.png","70","70","test","","","","5","",""
"null","212574","pSARL_v2","pSARL_v2xnqf7m77","65071c1f0e39b433b4340a85","fixation","img/fixation.png","null","","test","","","","","",""
"587.2000000178814","213166","pSARL_v2","pSARL_v2xnqf7m77","65071c1f0e39b433b4340a85","freq","img/orange_2bandit_b2.png","70","70","test","1","92","92","5","",""
"null","213398","pSARL_v2","pSARL_v2xnqf7m77","65071c1f0e39b433b4340a85","freq_resp","img/orange_2bandit_b.png","70","70","test","","","","5","",""
"null","213566","pSARL_v2","pSARL_v2xnqf7m77","65071c1f0e39b433b4340a85","fixation","img/fixation.png","null","","test","","","","","",""
"438.09999999403954","214011","pSARL_v2","pSARL_v2xnqf7m77","65071c1f0e39b433b4340a85","freq","img/orange_2bandit_b2.png","70","70","test","1","93","93","5","",""
"null","214379","pSARL_v2","pSARL_v2xnqf7m77","65071c1f0e39b433b4340a85","freq_resp","img/orange_2bandit_b.png","70","70","test","","","","5","",""
"null","214536","pSARL_v2","pSARL_v2xnqf7m77","65071c1f0e39b433b4340a85","fixation","img/fixation.png","null","","test","","","","","",""
"459.09999999403954","215000","pSARL_v2","pSARL_v2xnqf7m77","65071c1f0e39b433b4340a85","freq","img/orange_2bandit_b2.png","70","70","test","1","94","94","5","",""
"null","215347","pSARL_v2","pSARL_v2xnqf7m77","65071c1f0e39b433b4340a85","freq_resp","img/orange_2bandit_b.png","70","70","test","","","","5","",""
"null","215503","pSARL_v2","pSARL_v2xnqf7m77","65071c1f0e39b433b4340a85","fixation","img/fixation.png","null","","test","","","","","",""
"334.90000000596046","215843","pSARL_v2","pSARL_v2xnqf7m77","65071c1f0e39b433b4340a85","freq","img/orange_2bandit_b2.png","70","70","test","1","95","95","5","",""
"null","216316","pSARL_v2","pSARL_v2xnqf7m77","65071c1f0e39b433b4340a85","freq_resp","img/orange_2bandit_b.png","70","70","test","","","","5","",""
"null","216484","pSARL_v2","pSARL_v2xnqf7m77","65071c1f0e39b433b4340a85","fixation","img/fixation.png","null","","test","","","","","",""
"382.90000000596046","216871","pSARL_v2","pSARL_v2xnqf7m77","65071c1f0e39b433b4340a85","freq","img/orange_2bandit_b2.png","70","70","test","1","96","96","5","",""
"null","217304","pSARL_v2","pSARL_v2xnqf7m77","65071c1f0e39b433b4340a85","freq_resp","img/orange_2bandit_b.png","70","70","test","","","","5","",""
"null","217460","pSARL_v2","pSARL_v2xnqf7m77","65071c1f0e39b433b4340a85","fixation","img/fixation.png","null","","test","","","","","",""
"394.5","217859","pSARL_v2","pSARL_v2xnqf7m77","65071c1f0e39b433b4340a85","freq","img/orange_2bandit_b2.png","70","70","test","1","97","97","5","",""
"null","218284","pSARL_v2","pSARL_v2xnqf7m77","65071c1f0e39b433b4340a85","freq_resp","img/orange_2bandit_b.png","70","70","test","","","","5","",""
"null","218453","pSARL_v2","pSARL_v2xnqf7m77","65071c1f0e39b433b4340a85","fixation","img/fixation.png","null","","test","","","","","",""
"425.89999997615814","218884","pSARL_v2","pSARL_v2xnqf7m77","65071c1f0e39b433b4340a85","freq","img/orange_2bandit_b2.png","70","70","test","1","98","98","5","",""
"null","219268","pSARL_v2","pSARL_v2xnqf7m77","65071c1f0e39b433b4340a85","freq_resp","img/orange_2bandit_b.png","70","70","test","","","","5","",""
"null","219425","pSARL_v2","pSARL_v2xnqf7m77","65071c1f0e39b433b4340a85","fixation","img/fixation.png","null","","test","","","","","",""
"385.40000000596046","219815","pSARL_v2","pSARL_v2xnqf7m77","65071c1f0e39b433b4340a85","freq","img/orange_2bandit_b2.png","70","70","test","1","99","99","5","",""
"null","220239","pSARL_v2","pSARL_v2xnqf7m77","65071c1f0e39b433b4340a85","freq_resp","img/orange_2bandit_b.png","70","70","test","","","","5","",""
"null","220406","pSARL_v2","pSARL_v2xnqf7m77","65071c1f0e39b433b4340a85","fixation","img/fixation.png","null","","test","","","","","",""
"495.30000001192093","220907","pSARL_v2","pSARL_v2xnqf7m77","65071c1f0e39b433b4340a85","freq","img/orange_2bandit_b2.png","70","70","test","1","100","100","5","",""
"null","221220","pSARL_v2","pSARL_v2xnqf7m77","65071c1f0e39b433b4340a85","freq_resp","img/orange_2bandit_b.png","70","70","test","","","","5","",""
"null","221390","pSARL_v2","pSARL_v2xnqf7m77","65071c1f0e39b433b4340a85","fixation","img/fixation.png","null","","test","","","","","",""
"542.0999999940395","221938","pSARL_v2","pSARL_v2xnqf7m77","65071c1f0e39b433b4340a85","freq","img/orange_2bandit_b2.png","70","70","test","1","101","101","5","",""
"null","222205","pSARL_v2","pSARL_v2xnqf7m77","65071c1f0e39b433b4340a85","freq_resp","img/orange_2bandit_b.png","70","70","test","","","","5","",""
"null","222374","pSARL_v2","pSARL_v2xnqf7m77","65071c1f0e39b433b4340a85","fixation","img/fixation.png","null","","test","","","","","",""
"577.1999999880791","222956","pSARL_v2","pSARL_v2xnqf7m77","65071c1f0e39b433b4340a85","freq","img/orange_2bandit_b2.png","70","70","test","1","102","102","5","",""
"null","223186","pSARL_v2","pSARL_v2xnqf7m77","65071c1f0e39b433b4340a85","freq_resp","img/orange_2bandit_b.png","70","70","test","","","","5","",""
"null","223345","pSARL_v2","pSARL_v2xnqf7m77","65071c1f0e39b433b4340a85","fixation","img/fixation.png","null","","test","","","","","",""
"475.40000000596046","223825","pSARL_v2","pSARL_v2xnqf7m77","65071c1f0e39b433b4340a85","freq","img/orange_2bandit_b2.png","70","70","test","1","103","103","5","",""
"null","224159","pSARL_v2","pSARL_v2xnqf7m77","65071c1f0e39b433b4340a85","freq_resp","img/orange_2bandit_b.png","70","70","test","","","","5","",""
"null","224315","pSARL_v2","pSARL_v2xnqf7m77","65071c1f0e39b433b4340a85","fixation","img/fixation.png","null","","test","","","","","",""
"641.3999999761581","224961","pSARL_v2","pSARL_v2xnqf7m77","65071c1f0e39b433b4340a85","infreq","img/green_2bandit_b2.png","68","68","test","1","104","104","5","",""
"null","225136","pSARL_v2","pSARL_v2xnqf7m77","65071c1f0e39b433b4340a85","infreq_resp","img/green_2bandit_b.png","68","68","test","","","","5","",""
"null","225304","pSARL_v2","pSARL_v2xnqf7m77","65071c1f0e39b433b4340a85","fixation","img/fixation.png","null","","test","","","","","",""
"621.2000000178814","225930","pSARL_v2","pSARL_v2xnqf7m77","65071c1f0e39b433b4340a85","freq","img/orange_2bandit_b2.png","70","70","test","1","105","105","5","",""
"null","226115","pSARL_v2","pSARL_v2xnqf7m77","65071c1f0e39b433b4340a85","freq_resp","img/orange_2bandit_b.png","70","70","test","","","","5","",""
"null","226273","pSARL_v2","pSARL_v2xnqf7m77","65071c1f0e39b433b4340a85","fixation","img/fixation.png","null","","test","","","","","",""
"null","227092","pSARL_v2","pSARL_v2xnqf7m77","65071c1f0e39b433b4340a85","freq","img/orange_2bandit_b2.png","null","70","test","0","106","106","5","",""
"null","227248","pSARL_v2","pSARL_v2xnqf7m77","65071c1f0e39b433b4340a85","fixation","img/fixation.png","null","","test","","","","","",""
"97.89999997615814","227351","pSARL_v2","pSARL_v2xnqf7m77","65071c1f0e39b433b4340a85","freq","img/orange_2bandit_b2.png","70","70","test","1","107","107","5","",""
"null","228059","pSARL_v2","pSARL_v2xnqf7m77","65071c1f0e39b433b4340a85","freq_resp","img/orange_2bandit_b.png","70","70","test","","","","5","",""
"null","228218","pSARL_v2","pSARL_v2xnqf7m77","65071c1f0e39b433b4340a85","fixation","img/fixation.png","null","","test","","","","","",""
"300.60000002384186","228523","pSARL_v2","pSARL_v2xnqf7m77","65071c1f0e39b433b4340a85","freq","img/orange_2bandit_b2.png","70","70","test","1","108","108","5","",""
"null","229040","pSARL_v2","pSARL_v2xnqf7m77","65071c1f0e39b433b4340a85","freq_resp","img/orange_2bandit_b.png","70","70","test","","","","5","",""
"null","229210","pSARL_v2","pSARL_v2xnqf7m77","65071c1f0e39b433b4340a85","fixation","img/fixation.png","null","","test","","","","","",""
"507.5","229722","pSARL_v2","pSARL_v2xnqf7m77","65071c1f0e39b433b4340a85","reward","img/slot.png","74","","test","","","","","",""
"null","230483","pSARL_v2","pSARL_v2xnqf7m77","65071c1f0e39b433b4340a85","points","<div class=""veryhighPoints""> +1 </div>","null","na","test","","","","5","1","4"
"317.2000000178814","230805","pSARL_v2","pSARL_v2xnqf7m77","65071c1f0e39b433b4340a85","freq","img/orange_2bandit_b2.png","70","70","test","1","109","109","6","",""
"null","231303","pSARL_v2","pSARL_v2xnqf7m77","65071c1f0e39b433b4340a85","freq_resp","img/orange_2bandit_b.png","70","70","test","","","","6","",""
"null","231474","pSARL_v2","pSARL_v2xnqf7m77","65071c1f0e39b433b4340a85","fixation","img/fixation.png","null","","test","","","","","",""
"102.7000000178814","231581","pSARL_v2","pSARL_v2xnqf7m77","65071c1f0e39b433b4340a85","freq","img/orange_2bandit_b2.png","70","70","test","1","110","110","6","",""
"null","232297","pSARL_v2","pSARL_v2xnqf7m77","65071c1f0e39b433b4340a85","freq_resp","img/orange_2bandit_b.png","70","70","test","","","","6","",""
"null","232453","pSARL_v2","pSARL_v2xnqf7m77","65071c1f0e39b433b4340a85","fixation","img/fixation.png","null","","test","","","","","",""
"293.2000000178814","232750","pSARL_v2","pSARL_v2xnqf7m77","65071c1f0e39b433b4340a85","freq","img/orange_2bandit_b2.png","70","70","test","1","111","111","6","",""
"null","233264","pSARL_v2","pSARL_v2xnqf7m77","65071c1f0e39b433b4340a85","freq_resp","img/orange_2bandit_b.png","70","70","test","","","","6","",""
"null","233420","pSARL_v2","pSARL_v2xnqf7m77","65071c1f0e39b433b4340a85","fixation","img/fixation.png","null","","test","","","","","",""
"190","233617","pSARL_v2","pSARL_v2xnqf7m77","65071c1f0e39b433b4340a85","infreq","img/green_2bandit_b2.png","70","68","test","0","112","112","6","",""
"null","234238","pSARL_v2","pSARL_v2xnqf7m77","65071c1f0e39b433b4340a85","infreq_resp","img/green_2bandit_b.png","70","68","test","","","","6","",""
"null","234408","pSARL_v2","pSARL_v2xnqf7m77","65071c1f0e39b433b4340a85","fixation","img/fixation.png","null","","test","","","","","",""
"344","234757","pSARL_v2","pSARL_v2xnqf7m77","65071c1f0e39b433b4340a85","freq","img/orange_2bandit_b2.png","70","70","test","1","113","113","6","",""
"null","235226","pSARL_v2","pSARL_v2xnqf7m77","65071c1f0e39b433b4340a85","freq_resp","img/orange_2bandit_b.png","70","70","test","","","","6","",""
"null","235394","pSARL_v2","pSARL_v2xnqf7m77","65071c1f0e39b433b4340a85","fixation","img/fixation.png","null","","test","","","","","",""
"305.09999999403954","235704","pSARL_v2","pSARL_v2xnqf7m77","65071c1f0e39b433b4340a85","freq","img/orange_2bandit_b2.png","70","70","test","1","114","114","6","",""
"null","236211","pSARL_v2","pSARL_v2xnqf7m77","65071c1f0e39b433b4340a85","freq_resp","img/orange_2bandit_b.png","70","70","test","","","","6","",""
"null","236379","pSARL_v2","pSARL_v2xnqf7m77","65071c1f0e39b433b4340a85","fixation","img/fixation.png","null","","test","","","","","",""
"299","236682","pSARL_v2","pSARL_v2xnqf7m77","65071c1f0e39b433b4340a85","freq","img/orange_2bandit_b2.png","70","70","test","1","115","115","6","",""
"null","237201","pSARL_v2","pSARL_v2xnqf7m77","65071c1f0e39b433b4340a85","freq_resp","img/orange_2bandit_b.png","70","70","test","","","","6","",""
"null","237372","pSARL_v2","pSARL_v2xnqf7m77","65071c1f0e39b433b4340a85","fixation","img/fixation.png","null","","test","","","","","",""
"254.40000000596046","237631","pSARL_v2","pSARL_v2xnqf7m77","65071c1f0e39b433b4340a85","freq","img/orange_2bandit_b2.png","70","70","test","1","116","116","6","",""
"null","238192","pSARL_v2","pSARL_v2xnqf7m77","65071c1f0e39b433b4340a85","freq_resp","img/orange_2bandit_b.png","70","70","test","","","","6","",""
"null","238363","pSARL_v2","pSARL_v2xnqf7m77","65071c1f0e39b433b4340a85","fixation","img/fixation.png","null","","test","","","","","",""
"366.7000000178814","238735","pSARL_v2","pSARL_v2xnqf7m77","65071c1f0e39b433b4340a85","freq","img/orange_2bandit_b2.png","70","70","test","1","117","117","6","",""
"null","239183","pSARL_v2","pSARL_v2xnqf7m77","65071c1f0e39b433b4340a85","freq_resp","img/orange_2bandit_b.png","70","70","test","","","","6","",""
"null","239339","pSARL_v2","pSARL_v2xnqf7m77","65071c1f0e39b433b4340a85","fixation","img/fixation.png","null","","test","","","","","",""
"349.90000000596046","239694","pSARL_v2","pSARL_v2xnqf7m77","65071c1f0e39b433b4340a85","freq","img/orange_2bandit_b2.png","70","70","test","1","118","118","6","",""
"null","240161","pSARL_v2","pSARL_v2xnqf7m77","65071c1f0e39b433b4340a85","freq_resp","img/orange_2bandit_b.png","70","70","test","","","","6","",""
"null","240317","pSARL_v2","pSARL_v2xnqf7m77","65071c1f0e39b433b4340a85","fixation","img/fixation.png","null","","test","","","","","",""
"235.40000000596046","240556","pSARL_v2","pSARL_v2xnqf7m77","65071c1f0e39b433b4340a85","freq","img/orange_2bandit_b2.png","70","70","test","1","119","119","6","",""
"null","241128","pSARL_v2","pSARL_v2xnqf7m77","65071c1f0e39b433b4340a85","freq_resp","img/orange_2bandit_b.png","70","70","test","","","","6","",""
"null","241298","pSARL_v2","pSARL_v2xnqf7m77","65071c1f0e39b433b4340a85","fixation","img/fixation.png","null","","test","","","","","",""
"312.59999999403954","241614","pSARL_v2","pSARL_v2xnqf7m77","65071c1f0e39b433b4340a85","freq","img/orange_2bandit_b2.png","70","70","test","1","120","120","6","",""
"null","242114","pSARL_v2","pSARL_v2xnqf7m77","65071c1f0e39b433b4340a85","freq_resp","img/orange_2bandit_b.png","70","70","test","","","","6","",""
"null","242271","pSARL_v2","pSARL_v2xnqf7m77","65071c1f0e39b433b4340a85","fixation","img/fixation.png","null","","test","","","","","",""
"313.7999999821186","242589","pSARL_v2","pSARL_v2xnqf7m77","65071c1f0e39b433b4340a85","freq","img/orange_2bandit_b2.png","70","70","test","1","121","121","6","",""
"null","243080","pSARL_v2","pSARL_v2xnqf7m77","65071c1f0e39b433b4340a85","freq_resp","img/orange_2bandit_b.png","70","70","test","","","","6","",""
"null","243251","pSARL_v2","pSARL_v2xnqf7m77","65071c1f0e39b433b4340a85","fixation","img/fixation.png","null","","test","","","","","",""
"286.40000000596046","243542","pSARL_v2","pSARL_v2xnqf7m77","65071c1f0e39b433b4340a85","freq","img/orange_2bandit_b2.png","70","70","test","1","122","122","6","",""
"null","244066","pSARL_v2","pSARL_v2xnqf7m77","65071c1f0e39b433b4340a85","freq_resp","img/orange_2bandit_b.png","70","70","test","","","","6","",""
"null","244233","pSARL_v2","pSARL_v2xnqf7m77","65071c1f0e39b433b4340a85","fixation","img/fixation.png","null","","test","","","","","",""
"129","244367","pSARL_v2","pSARL_v2xnqf7m77","65071c1f0e39b433b4340a85","infreq","img/green_2bandit_b2.png","70","68","test","0","123","123","6","",""
"null","245053","pSARL_v2","pSARL_v2xnqf7m77","65071c1f0e39b433b4340a85","infreq_resp","img/green_2bandit_b.png","70","68","test","","","","6","",""
"null","245209","pSARL_v2","pSARL_v2xnqf7m77","65071c1f0e39b433b4340a85","fixation","img/fixation.png","null","","test","","","","","",""
"395.80000001192093","245609","pSARL_v2","pSARL_v2xnqf7m77","65071c1f0e39b433b4340a85","freq","img/orange_2bandit_b2.png","70","70","test","1","124","124","6","",""
"null","246034","pSARL_v2","pSARL_v2xnqf7m77","65071c1f0e39b433b4340a85","freq_resp","img/orange_2bandit_b.png","70","70","test","","","","6","",""
"null","246191","pSARL_v2","pSARL_v2xnqf7m77","65071c1f0e39b433b4340a85","fixation","img/fixation.png","null","","test","","","","","",""
"343.80000001192093","246540","pSARL_v2","pSARL_v2xnqf7m77","65071c1f0e39b433b4340a85","freq","img/orange_2bandit_b2.png","70","70","test","1","125","125","6","",""
"null","247015","pSARL_v2","pSARL_v2xnqf7m77","65071c1f0e39b433b4340a85","freq_resp","img/orange_2bandit_b.png","70","70","test","","","","6","",""
"null","247185","pSARL_v2","pSARL_v2xnqf7m77","65071c1f0e39b433b4340a85","fixation","img/fixation.png","null","","test","","","","","",""
"368","247557","pSARL_v2","pSARL_v2xnqf7m77","65071c1f0e39b433b4340a85","freq","img/orange_2bandit_b2.png","70","70","test","1","126","126","6","",""
"null","248008","pSARL_v2","pSARL_v2xnqf7m77","65071c1f0e39b433b4340a85","freq_resp","img/orange_2bandit_b.png","70","70","test","","","","6","",""
"null","248177","pSARL_v2","pSARL_v2xnqf7m77","65071c1f0e39b433b4340a85","fixation","img/fixation.png","null","","test","","","","","",""
"328.90000000596046","248510","pSARL_v2","pSARL_v2xnqf7m77","65071c1f0e39b433b4340a85","freq","img/orange_2bandit_b2.png","70","70","test","1","127","127","6","",""
"null","248997","pSARL_v2","pSARL_v2xnqf7m77","65071c1f0e39b433b4340a85","freq_resp","img/orange_2bandit_b.png","70","70","test","","","","6","",""
"null","249154","pSARL_v2","pSARL_v2xnqf7m77","65071c1f0e39b433b4340a85","fixation","img/fixation.png","null","","test","","","","","",""
"433.40000000596046","249592","pSARL_v2","pSARL_v2xnqf7m77","65071c1f0e39b433b4340a85","freq","img/orange_2bandit_b2.png","70","70","test","1","128","128","6","",""
"null","249965","pSARL_v2","pSARL_v2xnqf7m77","65071c1f0e39b433b4340a85","freq_resp","img/orange_2bandit_b.png","70","70","test","","","","6","",""
"null","250135","pSARL_v2","pSARL_v2xnqf7m77","65071c1f0e39b433b4340a85","fixation","img/fixation.png","null","","test","","","","","",""
"588","250728","pSARL_v2","pSARL_v2xnqf7m77","65071c1f0e39b433b4340a85","reward","img/slot.png","74","","test","","","","","",""
"null","251496","pSARL_v2","pSARL_v2xnqf7m77","65071c1f0e39b433b4340a85","points","<div class=""verylowPoints""> -7 </div>","null","na","test","","","","6","-7","5"
"179.80000001192093","251681","pSARL_v2","pSARL_v2xnqf7m77","65071c1f0e39b433b4340a85","freq","img/orange_2bandit_b2.png","70","70","test","1","129","129","7","",""
"null","252319","pSARL_v2","pSARL_v2xnqf7m77","65071c1f0e39b433b4340a85","freq_resp","img/orange_2bandit_b.png","70","70","test","","","","7","",""
"null","252488","pSARL_v2","pSARL_v2xnqf7m77","65071c1f0e39b433b4340a85","fixation","img/fixation.png","null","","test","","","","","",""
"97.40000000596046","252589","pSARL_v2","pSARL_v2xnqf7m77","65071c1f0e39b433b4340a85","freq","img/orange_2bandit_b2.png","70","70","test","1","130","130","7","",""
"null","253299","pSARL_v2","pSARL_v2xnqf7m77","65071c1f0e39b433b4340a85","freq_resp","img/orange_2bandit_b.png","70","70","test","","","","7","",""
"null","253457","pSARL_v2","pSARL_v2xnqf7m77","65071c1f0e39b433b4340a85","fixation","img/fixation.png","null","","test","","","","","",""
"327.10000002384186","253789","pSARL_v2","pSARL_v2xnqf7m77","65071c1f0e39b433b4340a85","freq","img/orange_2bandit_b2.png","70","70","test","1","131","131","7","",""
"null","254281","pSARL_v2","pSARL_v2xnqf7m77","65071c1f0e39b433b4340a85","freq_resp","img/orange_2bandit_b.png","70","70","test","","","","7","",""
"null","254452","pSARL_v2","pSARL_v2xnqf7m77","65071c1f0e39b433b4340a85","fixation","img/fixation.png","null","","test","","","","","",""
"303.90000000596046","254761","pSARL_v2","pSARL_v2xnqf7m77","65071c1f0e39b433b4340a85","freq","img/orange_2bandit_b2.png","70","70","test","1","132","132","7","",""
"null","255272","pSARL_v2","pSARL_v2xnqf7m77","65071c1f0e39b433b4340a85","freq_resp","img/orange_2bandit_b.png","70","70","test","","","","7","",""
"null","255441","pSARL_v2","pSARL_v2xnqf7m77","65071c1f0e39b433b4340a85","fixation","img/fixation.png","null","","test","","","","","",""
"292.19999998807907","255740","pSARL_v2","pSARL_v2xnqf7m77","65071c1f0e39b433b4340a85","freq","img/orange_2bandit_b2.png","70","70","test","1","133","133","7","",""
"null","256251","pSARL_v2","pSARL_v2xnqf7m77","65071c1f0e39b433b4340a85","freq_resp","img/orange_2bandit_b.png","70","70","test","","","","7","",""
"null","256411","pSARL_v2","pSARL_v2xnqf7m77","65071c1f0e39b433b4340a85","fixation","img/fixation.png","null","","test","","","","","",""
"320.5","256737","pSARL_v2","pSARL_v2xnqf7m77","65071c1f0e39b433b4340a85","freq","img/orange_2bandit_b2.png","70","70","test","1","134","134","7","",""
"null","257232","pSARL_v2","pSARL_v2xnqf7m77","65071c1f0e39b433b4340a85","freq_resp","img/orange_2bandit_b.png","70","70","test","","","","7","",""
"null","257390","pSARL_v2","pSARL_v2xnqf7m77","65071c1f0e39b433b4340a85","fixation","img/fixation.png","null","","test","","","","","",""
"377.90000000596046","257772","pSARL_v2","pSARL_v2xnqf7m77","65071c1f0e39b433b4340a85","freq","img/orange_2bandit_b2.png","70","70","test","1","135","135","7","",""
"null","258202","pSARL_v2","pSARL_v2xnqf7m77","65071c1f0e39b433b4340a85","freq_resp","img/orange_2bandit_b.png","70","70","test","","","","7","",""
"null","258372","pSARL_v2","pSARL_v2xnqf7m77","65071c1f0e39b433b4340a85","fixation","img/fixation.png","null","","test","","","","","",""
"330.2000000178814","258706","pSARL_v2","pSARL_v2xnqf7m77","65071c1f0e39b433b4340a85","freq","img/orange_2bandit_b2.png","70","70","test","1","136","136","7","",""
"null","259187","pSARL_v2","pSARL_v2xnqf7m77","65071c1f0e39b433b4340a85","freq_resp","img/orange_2bandit_b.png","70","70","test","","","","7","",""
"null","259356","pSARL_v2","pSARL_v2xnqf7m77","65071c1f0e39b433b4340a85","fixation","img/fixation.png","null","","test","","","","","",""
"362.60000002384186","259723","pSARL_v2","pSARL_v2xnqf7m77","65071c1f0e39b433b4340a85","freq","img/orange_2bandit_b2.png","70","70","test","1","137","137","7","",""
"null","260177","pSARL_v2","pSARL_v2xnqf7m77","65071c1f0e39b433b4340a85","freq_resp","img/orange_2bandit_b.png","70","70","test","","","","7","",""
"null","260335","pSARL_v2","pSARL_v2xnqf7m77","65071c1f0e39b433b4340a85","fixation","img/fixation.png","null","","test","","","","","",""
"397.40000000596046","260737","pSARL_v2","pSARL_v2xnqf7m77","65071c1f0e39b433b4340a85","freq","img/orange_2bandit_b2.png","70","70","test","1","138","138","7","",""
"null","261154","pSARL_v2","pSARL_v2xnqf7m77","65071c1f0e39b433b4340a85","freq_resp","img/orange_2bandit_b.png","70","70","test","","","","7","",""
"null","261311","pSARL_v2","pSARL_v2xnqf7m77","65071c1f0e39b433b4340a85","fixation","img/fixation.png","null","","test","","","","","",""
"378.30000001192093","261693","pSARL_v2","pSARL_v2xnqf7m77","65071c1f0e39b433b4340a85","freq","img/orange_2bandit_b2.png","70","70","test","1","139","139","7","",""
"null","262132","pSARL_v2","pSARL_v2xnqf7m77","65071c1f0e39b433b4340a85","freq_resp","img/orange_2bandit_b.png","70","70","test","","","","7","",""
"null","262289","pSARL_v2","pSARL_v2xnqf7m77","65071c1f0e39b433b4340a85","fixation","img/fixation.png","null","","test","","","","","",""
"526.4000000059605","262820","pSARL_v2","pSARL_v2xnqf7m77","65071c1f0e39b433b4340a85","freq","img/orange_2bandit_b2.png","70","70","test","1","140","140","7","",""
"null","263098","pSARL_v2","pSARL_v2xnqf7m77","65071c1f0e39b433b4340a85","freq_resp","img/orange_2bandit_b.png","70","70","test","","","","7","",""
"null","263255","pSARL_v2","pSARL_v2xnqf7m77","65071c1f0e39b433b4340a85","fixation","img/fixation.png","null","","test","","","","","",""
"410.60000002384186","263672","pSARL_v2","pSARL_v2xnqf7m77","65071c1f0e39b433b4340a85","freq","img/orange_2bandit_b2.png","70","70","test","1","141","141","7","",""
"null","264081","pSARL_v2","pSARL_v2xnqf7m77","65071c1f0e39b433b4340a85","freq_resp","img/orange_2bandit_b.png","70","70","test","","","","7","",""
"null","264239","pSARL_v2","pSARL_v2xnqf7m77","65071c1f0e39b433b4340a85","fixation","img/fixation.png","null","","test","","","","","",""
"403.40000000596046","264647","pSARL_v2","pSARL_v2xnqf7m77","65071c1f0e39b433b4340a85","freq","img/orange_2bandit_b2.png","70","70","test","1","142","142","7","",""
"null","265062","pSARL_v2","pSARL_v2xnqf7m77","65071c1f0e39b433b4340a85","freq_resp","img/orange_2bandit_b.png","70","70","test","","","","7","",""
"null","265219","pSARL_v2","pSARL_v2xnqf7m77","65071c1f0e39b433b4340a85","fixation","img/fixation.png","null","","test","","","","","",""
"432.5","265656","pSARL_v2","pSARL_v2xnqf7m77","65071c1f0e39b433b4340a85","infreq","img/green_2bandit_b2.png","68","68","test","1","143","143","7","",""
"null","266028","pSARL_v2","pSARL_v2xnqf7m77","65071c1f0e39b433b4340a85","infreq_resp","img/green_2bandit_b.png","68","68","test","","","","7","",""
"null","266185","pSARL_v2","pSARL_v2xnqf7m77","65071c1f0e39b433b4340a85","fixation","img/fixation.png","null","","test","","","","","",""
"450.2999999821186","266641","pSARL_v2","pSARL_v2xnqf7m77","65071c1f0e39b433b4340a85","freq","img/orange_2bandit_b2.png","70","70","test","1","144","144","7","",""
"null","267002","pSARL_v2","pSARL_v2xnqf7m77","65071c1f0e39b433b4340a85","freq_resp","img/orange_2bandit_b.png","70","70","test","","","","7","",""
"null","267159","pSARL_v2","pSARL_v2xnqf7m77","65071c1f0e39b433b4340a85","fixation","img/fixation.png","null","","test","","","","","",""
"309.2999999821186","267473","pSARL_v2","pSARL_v2xnqf7m77","65071c1f0e39b433b4340a85","freq","img/orange_2bandit_b2.png","70","70","test","1","145","145","7","",""
"null","267982","pSARL_v2","pSARL_v2xnqf7m77","65071c1f0e39b433b4340a85","freq_resp","img/orange_2bandit_b.png","70","70","test","","","","7","",""
"null","268140","pSARL_v2","pSARL_v2xnqf7m77","65071c1f0e39b433b4340a85","fixation","img/fixation.png","null","","test","","","","","",""
"130.7000000178814","268275","pSARL_v2","pSARL_v2xnqf7m77","65071c1f0e39b433b4340a85","freq","img/orange_2bandit_b2.png","70","70","test","1","146","146","7","",""
"null","268952","pSARL_v2","pSARL_v2xnqf7m77","65071c1f0e39b433b4340a85","freq_resp","img/orange_2bandit_b.png","70","70","test","","","","7","",""
"null","269122","pSARL_v2","pSARL_v2xnqf7m77","65071c1f0e39b433b4340a85","fixation","img/fixation.png","null","","test","","","","","",""
"257.5","269384","pSARL_v2","pSARL_v2xnqf7m77","65071c1f0e39b433b4340a85","freq","img/orange_2bandit_b2.png","70","70","test","1","147","147","7","",""
"null","269943","pSARL_v2","pSARL_v2xnqf7m77","65071c1f0e39b433b4340a85","freq_resp","img/orange_2bandit_b.png","70","70","test","","","","7","",""
"null","270113","pSARL_v2","pSARL_v2xnqf7m77","65071c1f0e39b433b4340a85","fixation","img/fixation.png","null","","test","","","","","",""
"257.10000002384186","270374","pSARL_v2","pSARL_v2xnqf7m77","65071c1f0e39b433b4340a85","freq","img/orange_2bandit_b2.png","70","70","test","1","148","148","7","",""
"null","270928","pSARL_v2","pSARL_v2xnqf7m77","65071c1f0e39b433b4340a85","freq_resp","img/orange_2bandit_b.png","70","70","test","","","","7","",""
"null","271083","pSARL_v2","pSARL_v2xnqf7m77","65071c1f0e39b433b4340a85","fixation","img/fixation.png","null","","test","","","","","",""
"244.10000002384186","271332","pSARL_v2","pSARL_v2xnqf7m77","65071c1f0e39b433b4340a85","infreq","img/green_2bandit_b2.png","70","68","test","0","149","149","7","",""
"null","271896","pSARL_v2","pSARL_v2xnqf7m77","65071c1f0e39b433b4340a85","infreq_resp","img/green_2bandit_b.png","70","68","test","","","","7","",""
"null","272052","pSARL_v2","pSARL_v2xnqf7m77","65071c1f0e39b433b4340a85","fixation","img/fixation.png","null","","test","","","","","",""
"290.09999999403954","272347","pSARL_v2","pSARL_v2xnqf7m77","65071c1f0e39b433b4340a85","freq","img/orange_2bandit_b2.png","70","70","test","1","150","150","7","",""
"null","272867","pSARL_v2","pSARL_v2xnqf7m77","65071c1f0e39b433b4340a85","freq_resp","img/orange_2bandit_b.png","70","70","test","","","","7","",""
"null","273037","pSARL_v2","pSARL_v2xnqf7m77","65071c1f0e39b433b4340a85","fixation","img/fixation.png","null","","test","","","","","",""
"440.40000000596046","273483","pSARL_v2","pSARL_v2xnqf7m77","65071c1f0e39b433b4340a85","freq","img/orange_2bandit_b2.png","70","70","test","1","151","151","7","",""
"null","273859","pSARL_v2","pSARL_v2xnqf7m77","65071c1f0e39b433b4340a85","freq_resp","img/orange_2bandit_b.png","70","70","test","","","","7","",""
"null","274016","pSARL_v2","pSARL_v2xnqf7m77","65071c1f0e39b433b4340a85","fixation","img/fixation.png","null","","test","","","","","",""
"409.10000002384186","274429","pSARL_v2","pSARL_v2xnqf7m77","65071c1f0e39b433b4340a85","freq","img/orange_2bandit_b2.png","70","70","test","1","152","152","7","",""
"null","274831","pSARL_v2","pSARL_v2xnqf7m77","65071c1f0e39b433b4340a85","freq_resp","img/orange_2bandit_b.png","70","70","test","","","","7","",""
"null","275001","pSARL_v2","pSARL_v2xnqf7m77","65071c1f0e39b433b4340a85","fixation","img/fixation.png","null","","test","","","","","",""
"466","275472","pSARL_v2","pSARL_v2xnqf7m77","65071c1f0e39b433b4340a85","freq","img/orange_2bandit_b2.png","70","70","test","1","153","153","7","",""
"null","275816","pSARL_v2","pSARL_v2xnqf7m77","65071c1f0e39b433b4340a85","freq_resp","img/orange_2bandit_b.png","70","70","test","","","","7","",""
"null","275984","pSARL_v2","pSARL_v2xnqf7m77","65071c1f0e39b433b4340a85","fixation","img/fixation.png","null","","test","","","","","",""
"378.30000001192093","276366","pSARL_v2","pSARL_v2xnqf7m77","65071c1f0e39b433b4340a85","freq","img/orange_2bandit_b2.png","70","70","test","1","154","154","7","",""
"null","276799","pSARL_v2","pSARL_v2xnqf7m77","65071c1f0e39b433b4340a85","freq_resp","img/orange_2bandit_b.png","70","70","test","","","","7","",""
"null","276954","pSARL_v2","pSARL_v2xnqf7m77","65071c1f0e39b433b4340a85","fixation","img/fixation.png","null","","test","","","","","",""
"661.4000000059605","277622","pSARL_v2","pSARL_v2xnqf7m77","65071c1f0e39b433b4340a85","reward","img/slot.png","74","","test","","","","","",""
"null","278386","pSARL_v2","pSARL_v2xnqf7m77","65071c1f0e39b433b4340a85","points","<div class=""verylowPoints""> -6 </div>","null","na","test","","","","7","-6","6"
"457.59999999403954","278848","pSARL_v2","pSARL_v2xnqf7m77","65071c1f0e39b433b4340a85","freq","img/orange_2bandit_b2.png","70","70","test","1","155","155","8","",""
"null","279209","pSARL_v2","pSARL_v2xnqf7m77","65071c1f0e39b433b4340a85","freq_resp","img/orange_2bandit_b.png","70","70","test","","","","8","",""
"null","279378","pSARL_v2","pSARL_v2xnqf7m77","65071c1f0e39b433b4340a85","fixation","img/fixation.png","null","","test","","","","","",""
"348.2999999821186","279730","pSARL_v2","pSARL_v2xnqf7m77","65071c1f0e39b433b4340a85","freq","img/orange_2bandit_b2.png","70","70","test","1","156","156","8","",""
"null","280194","pSARL_v2","pSARL_v2xnqf7m77","65071c1f0e39b433b4340a85","freq_resp","img/orange_2bandit_b.png","70","70","test","","","","8","",""
"null","280362","pSARL_v2","pSARL_v2xnqf7m77","65071c1f0e39b433b4340a85","fixation","img/fixation.png","null","","test","","","","","",""
"317.2999999821186","280684","pSARL_v2","pSARL_v2xnqf7m77","65071c1f0e39b433b4340a85","freq","img/orange_2bandit_b2.png","70","70","test","1","157","157","8","",""
"null","281186","pSARL_v2","pSARL_v2xnqf7m77","65071c1f0e39b433b4340a85","freq_resp","img/orange_2bandit_b.png","70","70","test","","","","8","",""
"null","281344","pSARL_v2","pSARL_v2xnqf7m77","65071c1f0e39b433b4340a85","fixation","img/fixation.png","null","","test","","","","","",""
"331.69999998807907","281681","pSARL_v2","pSARL_v2xnqf7m77","65071c1f0e39b433b4340a85","freq","img/orange_2bandit_b2.png","70","70","test","1","158","158","8","",""
"null","282159","pSARL_v2","pSARL_v2xnqf7m77","65071c1f0e39b433b4340a85","freq_resp","img/orange_2bandit_b.png","70","70","test","","","","8","",""
"null","282328","pSARL_v2","pSARL_v2xnqf7m77","65071c1f0e39b433b4340a85","fixation","img/fixation.png","null","","test","","","","","",""
"367.09999999403954","282700","pSARL_v2","pSARL_v2xnqf7m77","65071c1f0e39b433b4340a85","freq","img/orange_2bandit_b2.png","70","70","test","1","159","159","8","",""
"null","283142","pSARL_v2","pSARL_v2xnqf7m77","65071c1f0e39b433b4340a85","freq_resp","img/orange_2bandit_b.png","70","70","test","","","","8","",""
"null","283312","pSARL_v2","pSARL_v2xnqf7m77","65071c1f0e39b433b4340a85","fixation","img/fixation.png","null","","test","","","","","",""
"469","283786","pSARL_v2","pSARL_v2xnqf7m77","65071c1f0e39b433b4340a85","infreq","img/green_2bandit_b2.png","68","68","test","1","160","160","8","",""
"null","284123","pSARL_v2","pSARL_v2xnqf7m77","65071c1f0e39b433b4340a85","infreq_resp","img/green_2bandit_b.png","68","68","test","","","","8","",""
"null","284283","pSARL_v2","pSARL_v2xnqf7m77","65071c1f0e39b433b4340a85","fixation","img/fixation.png","null","","test","","","","","",""
"339.69999998807907","284628","pSARL_v2","pSARL_v2xnqf7m77","65071c1f0e39b433b4340a85","freq","img/orange_2bandit_b2.png","70","70","test","1","161","161","8","",""
"null","285104","pSARL_v2","pSARL_v2xnqf7m77","65071c1f0e39b433b4340a85","freq_resp","img/orange_2bandit_b.png","70","70","test","","","","8","",""
"null","285272","pSARL_v2","pSARL_v2xnqf7m77","65071c1f0e39b433b4340a85","fixation","img/fixation.png","null","","test","","","","","",""
"284.69999998807907","285562","pSARL_v2","pSARL_v2xnqf7m77","65071c1f0e39b433b4340a85","freq","img/orange_2bandit_b2.png","70","70","test","1","162","162","8","",""
"null","286088","pSARL_v2","pSARL_v2xnqf7m77","65071c1f0e39b433b4340a85","freq_resp","img/orange_2bandit_b.png","70","70","test","","","","8","",""
"null","286244","pSARL_v2","pSARL_v2xnqf7m77","65071c1f0e39b433b4340a85","fixation","img/fixation.png","null","","test","","","","","",""
"287.40000000596046","286538","pSARL_v2","pSARL_v2xnqf7m77","65071c1f0e39b433b4340a85","freq","img/orange_2bandit_b2.png","70","70","test","1","163","163","8","",""
"null","287066","pSARL_v2","pSARL_v2xnqf7m77","65071c1f0e39b433b4340a85","freq_resp","img/orange_2bandit_b.png","70","70","test","","","","8","",""
"null","287223","pSARL_v2","pSARL_v2xnqf7m77","65071c1f0e39b433b4340a85","fixation","img/fixation.png","null","","test","","","","","",""
"374.89999997615814","287604","pSARL_v2","pSARL_v2xnqf7m77","65071c1f0e39b433b4340a85","freq","img/orange_2bandit_b2.png","70","70","test","1","164","164","8","",""
"null","288044","pSARL_v2","pSARL_v2xnqf7m77","65071c1f0e39b433b4340a85","freq_resp","img/orange_2bandit_b.png","70","70","test","","","","8","",""
"null","288213","pSARL_v2","pSARL_v2xnqf7m77","65071c1f0e39b433b4340a85","fixation","img/fixation.png","null","","test","","","","","",""
"223.5","288441","pSARL_v2","pSARL_v2xnqf7m77","65071c1f0e39b433b4340a85","freq","img/orange_2bandit_b2.png","70","70","test","1","165","165","8","",""
"null","289035","pSARL_v2","pSARL_v2xnqf7m77","65071c1f0e39b433b4340a85","freq_resp","img/orange_2bandit_b.png","70","70","test","","","","8","",""
"null","289192","pSARL_v2","pSARL_v2xnqf7m77","65071c1f0e39b433b4340a85","fixation","img/fixation.png","null","","test","","","","","",""
"266.2000000178814","289463","pSARL_v2","pSARL_v2xnqf7m77","65071c1f0e39b433b4340a85","freq","img/orange_2bandit_b2.png","70","70","test","1","166","166","8","",""
"null","290005","pSARL_v2","pSARL_v2xnqf7m77","65071c1f0e39b433b4340a85","freq_resp","img/orange_2bandit_b.png","70","70","test","","","","8","",""
"null","290161","pSARL_v2","pSARL_v2xnqf7m77","65071c1f0e39b433b4340a85","fixation","img/fixation.png","null","","test","","","","","",""
"263.39999997615814","290430","pSARL_v2","pSARL_v2xnqf7m77","65071c1f0e39b433b4340a85","freq","img/orange_2bandit_b2.png","70","70","test","1","167","167","8","",""
"null","290984","pSARL_v2","pSARL_v2xnqf7m77","65071c1f0e39b433b4340a85","freq_resp","img/orange_2bandit_b.png","70","70","test","","","","8","",""
"null","291144","pSARL_v2","pSARL_v2xnqf7m77","65071c1f0e39b433b4340a85","fixation","img/fixation.png","null","","test","","","","","",""
"399.80000001192093","291549","pSARL_v2","pSARL_v2xnqf7m77","65071c1f0e39b433b4340a85","freq","img/orange_2bandit_b2.png","70","70","test","1","168","168","8","",""
"null","291954","pSARL_v2","pSARL_v2xnqf7m77","65071c1f0e39b433b4340a85","freq_resp","img/orange_2bandit_b.png","70","70","test","","","","8","",""
"null","292110","pSARL_v2","pSARL_v2xnqf7m77","65071c1f0e39b433b4340a85","fixation","img/fixation.png","null","","test","","","","","",""
"398","292514","pSARL_v2","pSARL_v2xnqf7m77","65071c1f0e39b433b4340a85","freq","img/orange_2bandit_b2.png","70","70","test","1","169","169","8","",""
"null","292936","pSARL_v2","pSARL_v2xnqf7m77","65071c1f0e39b433b4340a85","freq_resp","img/orange_2bandit_b.png","70","70","test","","","","8","",""
"null","293108","pSARL_v2","pSARL_v2xnqf7m77","65071c1f0e39b433b4340a85","fixation","img/fixation.png","null","","test","","","","","",""
"384.30000001192093","293498","pSARL_v2","pSARL_v2xnqf7m77","65071c1f0e39b433b4340a85","freq","img/orange_2bandit_b2.png","70","70","test","1","170","170","8","",""
"null","293930","pSARL_v2","pSARL_v2xnqf7m77","65071c1f0e39b433b4340a85","freq_resp","img/orange_2bandit_b.png","70","70","test","","","","8","",""
"null","294100","pSARL_v2","pSARL_v2xnqf7m77","65071c1f0e39b433b4340a85","fixation","img/fixation.png","null","","test","","","","","",""
"475.7000000178814","294580","pSARL_v2","pSARL_v2xnqf7m77","65071c1f0e39b433b4340a85","infreq","img/green_2bandit_b2.png","68","68","test","1","171","171","8","",""
"null","294924","pSARL_v2","pSARL_v2xnqf7m77","65071c1f0e39b433b4340a85","infreq_resp","img/green_2bandit_b.png","68","68","test","","","","8","",""
"null","295083","pSARL_v2","pSARL_v2xnqf7m77","65071c1f0e39b433b4340a85","fixation","img/fixation.png","null","","test","","","","","",""
"416.80000001192093","295505","pSARL_v2","pSARL_v2xnqf7m77","65071c1f0e39b433b4340a85","freq","img/orange_2bandit_b2.png","70","70","test","1","172","172","8","",""
"null","295895","pSARL_v2","pSARL_v2xnqf7m77","65071c1f0e39b433b4340a85","freq_resp","img/orange_2bandit_b.png","70","70","test","","","","8","",""
"null","296051","pSARL_v2","pSARL_v2xnqf7m77","65071c1f0e39b433b4340a85","fixation","img/fixation.png","null","","test","","","","","",""
"490.19999998807907","296546","pSARL_v2","pSARL_v2xnqf7m77","65071c1f0e39b433b4340a85","freq","img/orange_2bandit_b2.png","70","70","test","1","173","173","8","",""
"null","296873","pSARL_v2","pSARL_v2xnqf7m77","65071c1f0e39b433b4340a85","freq_resp","img/orange_2bandit_b.png","70","70","test","","","","8","",""
"null","297033","pSARL_v2","pSARL_v2xnqf7m77","65071c1f0e39b433b4340a85","fixation","img/fixation.png","null","","test","","","","","",""
"395.2000000178814","297432","pSARL_v2","pSARL_v2xnqf7m77","65071c1f0e39b433b4340a85","freq","img/orange_2bandit_b2.png","70","70","test","1","174","174","8","",""
"null","297852","pSARL_v2","pSARL_v2xnqf7m77","65071c1f0e39b433b4340a85","freq_resp","img/orange_2bandit_b.png","70","70","test","","","","8","",""
"null","298007","pSARL_v2","pSARL_v2xnqf7m77","65071c1f0e39b433b4340a85","fixation","img/fixation.png","null","","test","","","","","",""
"401.5","298413","pSARL_v2","pSARL_v2xnqf7m77","65071c1f0e39b433b4340a85","freq","img/orange_2bandit_b2.png","70","70","test","1","175","175","8","",""
"null","298823","pSARL_v2","pSARL_v2xnqf7m77","65071c1f0e39b433b4340a85","freq_resp","img/orange_2bandit_b.png","70","70","test","","","","8","",""
"null","298990","pSARL_v2","pSARL_v2xnqf7m77","65071c1f0e39b433b4340a85","fixation","img/fixation.png","null","","test","","","","","",""
"326.2999999821186","299320","pSARL_v2","pSARL_v2xnqf7m77","65071c1f0e39b433b4340a85","freq","img/orange_2bandit_b2.png","70","70","test","1","176","176","8","",""
"null","299800","pSARL_v2","pSARL_v2xnqf7m77","65071c1f0e39b433b4340a85","freq_resp","img/orange_2bandit_b.png","70","70","test","","","","8","",""
"null","299969","pSARL_v2","pSARL_v2xnqf7m77","65071c1f0e39b433b4340a85","fixation","img/fixation.png","null","","test","","","","","",""
"498.5","300472","pSARL_v2","pSARL_v2xnqf7m77","65071c1f0e39b433b4340a85","reward","img/slot.png","74","","test","","","","","",""
"null","301229","pSARL_v2","pSARL_v2xnqf7m77","65071c1f0e39b433b4340a85","points","<div class=""verylowPoints""> -4 </div>","null","na","test","","","","8","-4","7"
"415.5","301650","pSARL_v2","pSARL_v2xnqf7m77","65071c1f0e39b433b4340a85","freq","img/orange_2bandit_b2.png","70","70","test","1","177","177","9","",""
"null","302052","pSARL_v2","pSARL_v2xnqf7m77","65071c1f0e39b433b4340a85","freq_resp","img/orange_2bandit_b.png","70","70","test","","","","9","",""
"null","302207","pSARL_v2","pSARL_v2xnqf7m77","65071c1f0e39b433b4340a85","fixation","img/fixation.png","null","","test","","","","","",""
"81.59999999403954","302293","pSARL_v2","pSARL_v2xnqf7m77","65071c1f0e39b433b4340a85","infreq","img/green_2bandit_b2.png","70","68","test","0","178","178","9","",""
"null","303030","pSARL_v2","pSARL_v2xnqf7m77","65071c1f0e39b433b4340a85","infreq_resp","img/green_2bandit_b.png","70","68","test","","","","9","",""
"null","303199","pSARL_v2","pSARL_v2xnqf7m77","65071c1f0e39b433b4340a85","fixation","img/fixation.png","null","","test","","","","","",""
"243.59999999403954","303447","pSARL_v2","pSARL_v2xnqf7m77","65071c1f0e39b433b4340a85","freq","img/orange_2bandit_b2.png","70","70","test","1","179","179","9","",""
"null","304020","pSARL_v2","pSARL_v2xnqf7m77","65071c1f0e39b433b4340a85","freq_resp","img/orange_2bandit_b.png","70","70","test","","","","9","",""
"null","304177","pSARL_v2","pSARL_v2xnqf7m77","65071c1f0e39b433b4340a85","fixation","img/fixation.png","null","","test","","","","","",""
"279.59999999403954","304461","pSARL_v2","pSARL_v2xnqf7m77","65071c1f0e39b433b4340a85","freq","img/orange_2bandit_b2.png","70","70","test","1","180","180","9","",""
"null","304994","pSARL_v2","pSARL_v2xnqf7m77","65071c1f0e39b433b4340a85","freq_resp","img/orange_2bandit_b.png","70","70","test","","","","9","",""
"null","305154","pSARL_v2","pSARL_v2xnqf7m77","65071c1f0e39b433b4340a85","fixation","img/fixation.png","null","","test","","","","","",""
"315.39999997615814","305475","pSARL_v2","pSARL_v2xnqf7m77","65071c1f0e39b433b4340a85","freq","img/orange_2bandit_b2.png","70","70","test","1","181","181","9","",""
"null","305965","pSARL_v2","pSARL_v2xnqf7m77","65071c1f0e39b433b4340a85","freq_resp","img/orange_2bandit_b.png","70","70","test","","","","9","",""
"null","306122","pSARL_v2","pSARL_v2xnqf7m77","65071c1f0e39b433b4340a85","fixation","img/fixation.png","null","","test","","","","","",""
"240.59999999403954","306368","pSARL_v2","pSARL_v2xnqf7m77","65071c1f0e39b433b4340a85","freq","img/orange_2bandit_b2.png","70","70","test","1","182","182","9","",""
"null","306940","pSARL_v2","pSARL_v2xnqf7m77","65071c1f0e39b433b4340a85","freq_resp","img/orange_2bandit_b.png","70","70","test","","","","9","",""
"null","307098","pSARL_v2","pSARL_v2xnqf7m77","65071c1f0e39b433b4340a85","fixation","img/fixation.png","null","","test","","","","","",""
"432.7000000178814","307536","pSARL_v2","pSARL_v2xnqf7m77","65071c1f0e39b433b4340a85","infreq","img/green_2bandit_b2.png","68","68","test","1","183","183","9","",""
"null","307909","pSARL_v2","pSARL_v2xnqf7m77","65071c1f0e39b433b4340a85","infreq_resp","img/green_2bandit_b.png","68","68","test","","","","9","",""
"null","308079","pSARL_v2","pSARL_v2xnqf7m77","65071c1f0e39b433b4340a85","fixation","img/fixation.png","null","","test","","","","","",""
"381.5","308465","pSARL_v2","pSARL_v2xnqf7m77","65071c1f0e39b433b4340a85","freq","img/orange_2bandit_b2.png","70","70","test","1","184","184","9","",""
"null","308889","pSARL_v2","pSARL_v2xnqf7m77","65071c1f0e39b433b4340a85","freq_resp","img/orange_2bandit_b.png","70","70","test","","","","9","",""
"null","309047","pSARL_v2","pSARL_v2xnqf7m77","65071c1f0e39b433b4340a85","fixation","img/fixation.png","null","","test","","","","","",""
"354","309406","pSARL_v2","pSARL_v2xnqf7m77","65071c1f0e39b433b4340a85","freq","img/orange_2bandit_b2.png","70","70","test","1","185","185","9","",""
"null","309873","pSARL_v2","pSARL_v2xnqf7m77","65071c1f0e39b433b4340a85","freq_resp","img/orange_2bandit_b.png","70","70","test","","","","9","",""
"null","310029","pSARL_v2","pSARL_v2xnqf7m77","65071c1f0e39b433b4340a85","fixation","img/fixation.png","null","","test","","","","","",""
"562.6999999880791","310596","pSARL_v2","pSARL_v2xnqf7m77","65071c1f0e39b433b4340a85","freq","img/orange_2bandit_b2.png","70","70","test","1","186","186","9","",""
"null","310844","pSARL_v2","pSARL_v2xnqf7m77","65071c1f0e39b433b4340a85","freq_resp","img/orange_2bandit_b.png","70","70","test","","","","9","",""
"null","311000","pSARL_v2","pSARL_v2xnqf7m77","65071c1f0e39b433b4340a85","fixation","img/fixation.png","null","","test","","","","","",""
"500.40000000596046","311506","pSARL_v2","pSARL_v2xnqf7m77","65071c1f0e39b433b4340a85","freq","img/orange_2bandit_b2.png","70","70","test","1","187","187","9","",""
"null","311819","pSARL_v2","pSARL_v2xnqf7m77","65071c1f0e39b433b4340a85","freq_resp","img/orange_2bandit_b.png","70","70","test","","","","9","",""
"null","311977","pSARL_v2","pSARL_v2xnqf7m77","65071c1f0e39b433b4340a85","fixation","img/fixation.png","null","","test","","","","","",""
"543.8999999761581","312525","pSARL_v2","pSARL_v2xnqf7m77","65071c1f0e39b433b4340a85","freq","img/orange_2bandit_b2.png","70","70","test","1","188","188","9","",""
"null","312789","pSARL_v2","pSARL_v2xnqf7m77","65071c1f0e39b433b4340a85","freq_resp","img/orange_2bandit_b.png","70","70","test","","","","9","",""
"null","312960","pSARL_v2","pSARL_v2xnqf7m77","65071c1f0e39b433b4340a85","fixation","img/fixation.png","null","","test","","","","","",""
"513.7000000178814","313478","pSARL_v2","pSARL_v2xnqf7m77","65071c1f0e39b433b4340a85","freq","img/orange_2bandit_b2.png","70","70","test","1","189","189","9","",""
"null","313771","pSARL_v2","pSARL_v2xnqf7m77","65071c1f0e39b433b4340a85","freq_resp","img/orange_2bandit_b.png","70","70","test","","","","9","",""
"null","313928","pSARL_v2","pSARL_v2xnqf7m77","65071c1f0e39b433b4340a85","fixation","img/fixation.png","null","","test","","","","","",""
"425.40000000596046","314358","pSARL_v2","pSARL_v2xnqf7m77","65071c1f0e39b433b4340a85","freq","img/orange_2bandit_b2.png","70","70","test","1","190","190","9","",""
"null","314746","pSARL_v2","pSARL_v2xnqf7m77","65071c1f0e39b433b4340a85","freq_resp","img/orange_2bandit_b.png","70","70","test","","","","9","",""
"null","314903","pSARL_v2","pSARL_v2xnqf7m77","65071c1f0e39b433b4340a85","fixation","img/fixation.png","null","","test","","","","","",""
"380.60000002384186","315288","pSARL_v2","pSARL_v2xnqf7m77","65071c1f0e39b433b4340a85","freq","img/orange_2bandit_b2.png","70","70","test","1","191","191","9","",""
"null","315727","pSARL_v2","pSARL_v2xnqf7m77","65071c1f0e39b433b4340a85","freq_resp","img/orange_2bandit_b.png","70","70","test","","","","9","",""
"null","315897","pSARL_v2","pSARL_v2xnqf7m77","65071c1f0e39b433b4340a85","fixation","img/fixation.png","null","","test","","","","","",""
"277.89999997615814","316179","pSARL_v2","pSARL_v2xnqf7m77","65071c1f0e39b433b4340a85","freq","img/orange_2bandit_b2.png","70","70","test","1","192","192","9","",""
"null","316709","pSARL_v2","pSARL_v2xnqf7m77","65071c1f0e39b433b4340a85","freq_resp","img/orange_2bandit_b.png","70","70","test","","","","9","",""
"null","316878","pSARL_v2","pSARL_v2xnqf7m77","65071c1f0e39b433b4340a85","fixation","img/fixation.png","null","","test","","","","","",""
"399.80000001192093","317282","pSARL_v2","pSARL_v2xnqf7m77","65071c1f0e39b433b4340a85","freq","img/orange_2bandit_b2.png","70","70","test","1","193","193","9","",""
"null","317693","pSARL_v2","pSARL_v2xnqf7m77","65071c1f0e39b433b4340a85","freq_resp","img/orange_2bandit_b.png","70","70","test","","","","9","",""
"null","317862","pSARL_v2","pSARL_v2xnqf7m77","65071c1f0e39b433b4340a85","fixation","img/fixation.png","null","","test","","","","","",""
"532.2999999821186","318399","pSARL_v2","pSARL_v2xnqf7m77","65071c1f0e39b433b4340a85","freq","img/orange_2bandit_b2.png","70","70","test","1","194","194","9","",""
"null","318685","pSARL_v2","pSARL_v2xnqf7m77","65071c1f0e39b433b4340a85","freq_resp","img/orange_2bandit_b.png","70","70","test","","","","9","",""
"null","318842","pSARL_v2","pSARL_v2xnqf7m77","65071c1f0e39b433b4340a85","fixation","img/fixation.png","null","","test","","","","","",""
"614.0999999940395","319461","pSARL_v2","pSARL_v2xnqf7m77","65071c1f0e39b433b4340a85","freq","img/orange_2bandit_b2.png","70","70","test","1","195","195","9","",""
"null","319659","pSARL_v2","pSARL_v2xnqf7m77","65071c1f0e39b433b4340a85","freq_resp","img/orange_2bandit_b.png","70","70","test","","","","9","",""
"null","319828","pSARL_v2","pSARL_v2xnqf7m77","65071c1f0e39b433b4340a85","fixation","img/fixation.png","null","","test","","","","","",""
"600.9000000059605","320435","pSARL_v2","pSARL_v2xnqf7m77","65071c1f0e39b433b4340a85","freq","img/orange_2bandit_b2.png","70","70","test","1","196","196","9","",""
"null","320655","pSARL_v2","pSARL_v2xnqf7m77","65071c1f0e39b433b4340a85","freq_resp","img/orange_2bandit_b.png","70","70","test","","","","9","",""
"null","320823","pSARL_v2","pSARL_v2xnqf7m77","65071c1f0e39b433b4340a85","fixation","img/fixation.png","null","","test","","","","","",""
"780.0999999940395","321609","pSARL_v2","pSARL_v2xnqf7m77","65071c1f0e39b433b4340a85","freq","img/orange_2bandit_b2.png","70","70","test","1","197","197","9","",""
"null","321635","pSARL_v2","pSARL_v2xnqf7m77","65071c1f0e39b433b4340a85","freq_resp","img/orange_2bandit_b.png","70","70","test","","","","9","",""
"null","321796","pSARL_v2","pSARL_v2xnqf7m77","65071c1f0e39b433b4340a85","fixation","img/fixation.png","null","","test","","","","","",""
"null","322607","pSARL_v2","pSARL_v2xnqf7m77","65071c1f0e39b433b4340a85","freq","img/orange_2bandit_b2.png","null","70","test","0","198","198","9","",""
"null","322765","pSARL_v2","pSARL_v2xnqf7m77","65071c1f0e39b433b4340a85","fixation","img/fixation.png","null","","test","","","","","",""
"0.19999998807907104","322773","pSARL_v2","pSARL_v2xnqf7m77","65071c1f0e39b433b4340a85","freq","img/orange_2bandit_b2.png","70","70","test","1","199","199","9","",""
"null","323580","pSARL_v2","pSARL_v2xnqf7m77","65071c1f0e39b433b4340a85","freq_resp","img/orange_2bandit_b.png","70","70","test","","","","9","",""
"null","323748","pSARL_v2","pSARL_v2xnqf7m77","65071c1f0e39b433b4340a85","fixation","img/fixation.png","null","","test","","","","","",""
"736.5999999940395","324489","pSARL_v2","pSARL_v2xnqf7m77","65071c1f0e39b433b4340a85","infreq","img/green_2bandit_b2.png","68","68","test","1","200","200","9","",""
"null","324568","pSARL_v2","pSARL_v2xnqf7m77","65071c1f0e39b433b4340a85","infreq_resp","img/green_2bandit_b.png","68","68","test","","","","9","",""
"null","324738","pSARL_v2","pSARL_v2xnqf7m77","65071c1f0e39b433b4340a85","fixation","img/fixation.png","null","","test","","","","","",""
"542.8000000119209","325286","pSARL_v2","pSARL_v2xnqf7m77","65071c1f0e39b433b4340a85","freq","img/orange_2bandit_b2.png","70","70","test","1","201","201","9","",""
"null","325563","pSARL_v2","pSARL_v2xnqf7m77","65071c1f0e39b433b4340a85","freq_resp","img/orange_2bandit_b.png","70","70","test","","","","9","",""
"null","325719","pSARL_v2","pSARL_v2xnqf7m77","65071c1f0e39b433b4340a85","fixation","img/fixation.png","null","","test","","","","","",""
"471.7999999821186","326197","pSARL_v2","pSARL_v2xnqf7m77","65071c1f0e39b433b4340a85","freq","img/orange_2bandit_b2.png","70","70","test","1","202","202","9","",""
"null","326531","pSARL_v2","pSARL_v2xnqf7m77","65071c1f0e39b433b4340a85","freq_resp","img/orange_2bandit_b.png","70","70","test","","","","9","",""
"null","326686","pSARL_v2","pSARL_v2xnqf7m77","65071c1f0e39b433b4340a85","fixation","img/fixation.png","null","","test","","","","","",""
"435.80000001192093","327127","pSARL_v2","pSARL_v2xnqf7m77","65071c1f0e39b433b4340a85","freq","img/orange_2bandit_b2.png","70","70","test","1","203","203","9","",""
"null","327506","pSARL_v2","pSARL_v2xnqf7m77","65071c1f0e39b433b4340a85","freq_resp","img/orange_2bandit_b.png","70","70","test","","","","9","",""
"null","327674","pSARL_v2","pSARL_v2xnqf7m77","65071c1f0e39b433b4340a85","fixation","img/fixation.png","null","","test","","","","","",""
"466","328145","pSARL_v2","pSARL_v2xnqf7m77","65071c1f0e39b433b4340a85","reward","img/slot.png","74","","test","","","","","",""
"null","328910","pSARL_v2","pSARL_v2xnqf7m77","65071c1f0e39b433b4340a85","points","<div class=""verylowPoints""> -3 </div>","null","na","test","","","","9","-3","8"
"343.40000000596046","329265","pSARL_v2","pSARL_v2xnqf7m77","65071c1f0e39b433b4340a85","freq","img/orange_2bandit_b2.png","70","70","test","1","204","204","10","",""
"null","329739","pSARL_v2","pSARL_v2xnqf7m77","65071c1f0e39b433b4340a85","freq_resp","img/orange_2bandit_b.png","70","70","test","","","","10","",""
"null","329910","pSARL_v2","pSARL_v2xnqf7m77","65071c1f0e39b433b4340a85","fixation","img/fixation.png","null","","test","","","","","",""
"272.69999998807907","330188","pSARL_v2","pSARL_v2xnqf7m77","65071c1f0e39b433b4340a85","freq","img/orange_2bandit_b2.png","70","70","test","1","205","205","10","",""
"null","330732","pSARL_v2","pSARL_v2xnqf7m77","65071c1f0e39b433b4340a85","freq_resp","img/orange_2bandit_b.png","70","70","test","","","","10","",""
"null","330901","pSARL_v2","pSARL_v2xnqf7m77","65071c1f0e39b433b4340a85","fixation","img/fixation.png","null","","test","","","","","",""
"496.10000002384186","331403","pSARL_v2","pSARL_v2xnqf7m77","65071c1f0e39b433b4340a85","infreq","img/green_2bandit_b2.png","68","68","test","1","206","206","10","",""
