"rt","time_elapsed","expId","subject","prolificID","trialType","stimulus","key_press","corrresp","phase","corr","trialNum","attentionRunNum","blockNum","points","rlNum"
"7656.099999904633","7670","pSARL_v2","pSARL_v2uxjpyykm","5f565c9592080106c6b4d467","","","","","","","","","","",""
"","10514","pSARL_v2","pSARL_v2uxjpyykm","5f565c9592080106c6b4d467","fullscreen","","","","","","","","","",""
"29042.700000047684","39575","pSARL_v2","pSARL_v2uxjpyykm","5f565c9592080106c6b4d467","","","","","","","","","","",""
"null","40399","pSARL_v2","pSARL_v2uxjpyykm","5f565c9592080106c6b4d467","freqPrac","img/green_2bandit_a2.png","null","70","prac","0","","","","",""
"null","41422","pSARL_v2","pSARL_v2uxjpyykm","5f565c9592080106c6b4d467","feedback","img/tooSlow.png","null","na","prac","","","","","",""
"null","41595","pSARL_v2","pSARL_v2uxjpyykm","5f565c9592080106c6b4d467","fixation","img/fixation.png","null","","prac","","","","","",""
"440.90000009536743","42045","pSARL_v2","pSARL_v2uxjpyykm","5f565c9592080106c6b4d467","infreqPrac","img/orange_2bandit_a2.png","70","68","prac","0","","","","",""
"440.90000009536743","42423","pSARL_v2","pSARL_v2uxjpyykm","5f565c9592080106c6b4d467","infreqPrac_resp","img/orange_2bandit_a.png","70","68","prac","","","","","",""
"null","43446","pSARL_v2","pSARL_v2uxjpyykm","5f565c9592080106c6b4d467","feedback","img/wrongKey.png","null","na","prac","","","","","",""
"null","43621","pSARL_v2","pSARL_v2uxjpyykm","5f565c9592080106c6b4d467","fixation","img/fixation.png","null","","prac","","","","","",""
"669.7000000476837","44301","pSARL_v2","pSARL_v2uxjpyykm","5f565c9592080106c6b4d467","freqPrac","img/green_2bandit_a2.png","70","70","prac","1","","","","",""
"669.7000000476837","44443","pSARL_v2","pSARL_v2uxjpyykm","5f565c9592080106c6b4d467","freqPrac_resp","img/green_2bandit_a.png","70","70","prac","","","","","",""
"null","44609","pSARL_v2","pSARL_v2uxjpyykm","5f565c9592080106c6b4d467","fixation","img/fixation.png","null","","prac","","","","","",""
"724.4000000953674","45346","pSARL_v2","pSARL_v2uxjpyykm","5f565c9592080106c6b4d467","infreqPrac","img/orange_2bandit_a2.png","70","68","prac","0","","","","",""
"724.4000000953674","45450","pSARL_v2","pSARL_v2uxjpyykm","5f565c9592080106c6b4d467","infreqPrac_resp","img/orange_2bandit_a.png","70","68","prac","","","","","",""
"null","46481","pSARL_v2","pSARL_v2uxjpyykm","5f565c9592080106c6b4d467","feedback","img/wrongKey.png","null","na","prac","","","","","",""
"null","46658","pSARL_v2","pSARL_v2uxjpyykm","5f565c9592080106c6b4d467","fixation","img/fixation.png","null","","prac","","","","","",""
"260.89999985694885","46932","pSARL_v2","pSARL_v2uxjpyykm","5f565c9592080106c6b4d467","infreqPrac","img/orange_2bandit_a2.png","70","68","prac","0","","","","",""
"260.89999985694885","47494","pSARL_v2","pSARL_v2uxjpyykm","5f565c9592080106c6b4d467","infreqPrac_resp","img/orange_2bandit_a.png","70","68","prac","","","","","",""
"null","48516","pSARL_v2","pSARL_v2uxjpyykm","5f565c9592080106c6b4d467","feedback","img/wrongKey.png","null","na","prac","","","","","",""
"null","48695","pSARL_v2","pSARL_v2uxjpyykm","5f565c9592080106c6b4d467","fixation","img/fixation.png","null","","prac","","","","","",""
"283.90000009536743","48993","pSARL_v2","pSARL_v2uxjpyykm","5f565c9592080106c6b4d467","infreqPrac","img/orange_2bandit_a2.png","70","68","prac","0","","","","",""
"283.90000009536743","49538","pSARL_v2","pSARL_v2uxjpyykm","5f565c9592080106c6b4d467","infreqPrac_resp","img/orange_2bandit_a.png","70","68","prac","","","","","",""
"null","50564","pSARL_v2","pSARL_v2uxjpyykm","5f565c9592080106c6b4d467","feedback","img/wrongKey.png","null","na","prac","","","","","",""
"null","50730","pSARL_v2","pSARL_v2uxjpyykm","5f565c9592080106c6b4d467","fixation","img/fixation.png","null","","prac","","","","","",""
"506","51256","pSARL_v2","pSARL_v2uxjpyykm","5f565c9592080106c6b4d467","freqPrac","img/green_2bandit_a2.png","70","70","prac","1","","","","",""
"506","51574","pSARL_v2","pSARL_v2uxjpyykm","5f565c9592080106c6b4d467","freqPrac_resp","img/green_2bandit_a.png","70","70","prac","","","","","",""
"null","51745","pSARL_v2","pSARL_v2uxjpyykm","5f565c9592080106c6b4d467","fixation","img/fixation.png","null","","prac","","","","","",""
"412.09999990463257","52169","pSARL_v2","pSARL_v2uxjpyykm","5f565c9592080106c6b4d467","infreqPrac","img/orange_2bandit_a2.png","68","68","prac","1","","","","",""
"412.09999990463257","52580","pSARL_v2","pSARL_v2uxjpyykm","5f565c9592080106c6b4d467","infreqPrac_resp","img/orange_2bandit_a.png","68","68","prac","","","","","",""
"null","52746","pSARL_v2","pSARL_v2uxjpyykm","5f565c9592080106c6b4d467","fixation","img/fixation.png","null","","prac","","","","","",""
"365.7999999523163","53126","pSARL_v2","pSARL_v2uxjpyykm","5f565c9592080106c6b4d467","freqPrac","img/green_2bandit_a2.png","70","70","prac","1","","","","",""
"365.7999999523163","53581","pSARL_v2","pSARL_v2uxjpyykm","5f565c9592080106c6b4d467","freqPrac_resp","img/green_2bandit_a.png","70","70","prac","","","","","",""
"null","53755","pSARL_v2","pSARL_v2uxjpyykm","5f565c9592080106c6b4d467","fixation","img/fixation.png","null","","prac","","","","","",""
"217.40000009536743","53986","pSARL_v2","pSARL_v2uxjpyykm","5f565c9592080106c6b4d467","freqPrac","img/green_2bandit_a2.png","68","70","prac","0","","","","",""
"217.40000009536743","54588","pSARL_v2","pSARL_v2uxjpyykm","5f565c9592080106c6b4d467","freqPrac_resp","img/green_2bandit_a.png","68","70","prac","","","","","",""
"null","55618","pSARL_v2","pSARL_v2uxjpyykm","5f565c9592080106c6b4d467","feedback","img/wrongKey.png","null","na","prac","","","","","",""
"null","55793","pSARL_v2","pSARL_v2uxjpyykm","5f565c9592080106c6b4d467","fixation","img/fixation.png","null","","prac","","","","","",""
"12919.100000143051","68725","pSARL_v2","pSARL_v2uxjpyykm","5f565c9592080106c6b4d467","","","","","prac","","","","","",""
"1073.4000000953674","69814","pSARL_v2","pSARL_v2uxjpyykm","5f565c9592080106c6b4d467","rewardPractice","img/slot.png","74","","prac","","","","","",""
"null","70594","pSARL_v2","pSARL_v2uxjpyykm","5f565c9592080106c6b4d467","feedback","<div class=""veryhighPoints""> +15 </div>","null","na","prac","","","","","",""
"null","70767","pSARL_v2","pSARL_v2uxjpyykm","5f565c9592080106c6b4d467","fixation","img/fixation.png","null","","prac","","","","","",""
"11736.400000095367","82515","pSARL_v2","pSARL_v2uxjpyykm","5f565c9592080106c6b4d467","","","","","prac","","","","","",""
"540.5","83074","pSARL_v2","pSARL_v2uxjpyykm","5f565c9592080106c6b4d467","freq","img/green_2bandit_a2.png","70","70","test","1","1","1","1","",""
"null","83359","pSARL_v2","pSARL_v2uxjpyykm","5f565c9592080106c6b4d467","freq_resp","img/green_2bandit_a.png","70","70","test","","","","1","",""
"null","83529","pSARL_v2","pSARL_v2uxjpyykm","5f565c9592080106c6b4d467","fixation","img/fixation.png","null","","test","","","","","",""
"332.59999990463257","83875","pSARL_v2","pSARL_v2uxjpyykm","5f565c9592080106c6b4d467","freq","img/green_2bandit_a2.png","70","70","test","1","2","2","1","",""
"null","84370","pSARL_v2","pSARL_v2uxjpyykm","5f565c9592080106c6b4d467","freq_resp","img/green_2bandit_a.png","70","70","test","","","","1","",""
"null","84548","pSARL_v2","pSARL_v2uxjpyykm","5f565c9592080106c6b4d467","fixation","img/fixation.png","null","","test","","","","","",""
"168.10000014305115","84730","pSARL_v2","pSARL_v2uxjpyykm","5f565c9592080106c6b4d467","freq","img/green_2bandit_a2.png","68","70","test","0","3","3","1","",""
"null","85376","pSARL_v2","pSARL_v2uxjpyykm","5f565c9592080106c6b4d467","freq_resp","img/green_2bandit_a.png","68","70","test","","","","1","",""
"null","85542","pSARL_v2","pSARL_v2uxjpyykm","5f565c9592080106c6b4d467","fixation","img/fixation.png","null","","test","","","","","",""
"325.10000014305115","85881","pSARL_v2","pSARL_v2uxjpyykm","5f565c9592080106c6b4d467","freq","img/green_2bandit_a2.png","70","70","test","1","4","4","1","",""
"null","86377","pSARL_v2","pSARL_v2uxjpyykm","5f565c9592080106c6b4d467","freq_resp","img/green_2bandit_a.png","70","70","test","","","","1","",""
"null","86549","pSARL_v2","pSARL_v2uxjpyykm","5f565c9592080106c6b4d467","fixation","img/fixation.png","null","","test","","","","","",""
"138","86701","pSARL_v2","pSARL_v2uxjpyykm","5f565c9592080106c6b4d467","freq","img/green_2bandit_a2.png","70","70","test","1","5","5","1","",""
"null","87391","pSARL_v2","pSARL_v2uxjpyykm","5f565c9592080106c6b4d467","freq_resp","img/green_2bandit_a.png","70","70","test","","","","1","",""
"null","87563","pSARL_v2","pSARL_v2uxjpyykm","5f565c9592080106c6b4d467","fixation","img/fixation.png","null","","test","","","","","",""
"155.40000009536743","87732","pSARL_v2","pSARL_v2uxjpyykm","5f565c9592080106c6b4d467","freq","img/green_2bandit_a2.png","70","70","test","1","6","6","1","",""
"null","88393","pSARL_v2","pSARL_v2uxjpyykm","5f565c9592080106c6b4d467","freq_resp","img/green_2bandit_a.png","70","70","test","","","","1","",""
"null","88566","pSARL_v2","pSARL_v2uxjpyykm","5f565c9592080106c6b4d467","fixation","img/fixation.png","null","","test","","","","","",""
"117.39999985694885","88698","pSARL_v2","pSARL_v2uxjpyykm","5f565c9592080106c6b4d467","freq","img/green_2bandit_a2.png","70","70","test","1","7","7","1","",""
"null","89401","pSARL_v2","pSARL_v2uxjpyykm","5f565c9592080106c6b4d467","freq_resp","img/green_2bandit_a.png","70","70","test","","","","1","",""
"null","89578","pSARL_v2","pSARL_v2uxjpyykm","5f565c9592080106c6b4d467","fixation","img/fixation.png","null","","test","","","","","",""
"395.5","89989","pSARL_v2","pSARL_v2uxjpyykm","5f565c9592080106c6b4d467","infreq","img/orange_2bandit_a2.png","68","68","test","1","8","8","1","",""
"null","90418","pSARL_v2","pSARL_v2uxjpyykm","5f565c9592080106c6b4d467","infreq_resp","img/orange_2bandit_a.png","68","68","test","","","","1","",""
"null","90591","pSARL_v2","pSARL_v2uxjpyykm","5f565c9592080106c6b4d467","fixation","img/fixation.png","null","","test","","","","","",""
"218.40000009536743","90827","pSARL_v2","pSARL_v2uxjpyykm","5f565c9592080106c6b4d467","freq","img/green_2bandit_a2.png","68","70","test","0","9","9","1","",""
"null","91434","pSARL_v2","pSARL_v2uxjpyykm","5f565c9592080106c6b4d467","freq_resp","img/green_2bandit_a.png","68","70","test","","","","1","",""
"null","91613","pSARL_v2","pSARL_v2uxjpyykm","5f565c9592080106c6b4d467","fixation","img/fixation.png","null","","test","","","","","",""
"116.60000014305115","91745","pSARL_v2","pSARL_v2uxjpyykm","5f565c9592080106c6b4d467","freq","img/green_2bandit_a2.png","70","70","test","1","10","10","1","",""
"null","92458","pSARL_v2","pSARL_v2uxjpyykm","5f565c9592080106c6b4d467","freq_resp","img/green_2bandit_a.png","70","70","test","","","","1","",""
"null","92625","pSARL_v2","pSARL_v2uxjpyykm","5f565c9592080106c6b4d467","fixation","img/fixation.png","null","","test","","","","","",""
"200.80000019073486","92841","pSARL_v2","pSARL_v2uxjpyykm","5f565c9592080106c6b4d467","freq","img/green_2bandit_a2.png","70","70","test","1","11","11","1","",""
"null","93462","pSARL_v2","pSARL_v2uxjpyykm","5f565c9592080106c6b4d467","freq_resp","img/green_2bandit_a.png","70","70","test","","","","1","",""
"null","93641","pSARL_v2","pSARL_v2uxjpyykm","5f565c9592080106c6b4d467","fixation","img/fixation.png","null","","test","","","","","",""
"295.2000000476837","93951","pSARL_v2","pSARL_v2uxjpyykm","5f565c9592080106c6b4d467","freq","img/green_2bandit_a2.png","68","70","test","0","12","12","1","",""
"null","94470","pSARL_v2","pSARL_v2uxjpyykm","5f565c9592080106c6b4d467","freq_resp","img/green_2bandit_a.png","68","70","test","","","","1","",""
"null","94648","pSARL_v2","pSARL_v2uxjpyykm","5f565c9592080106c6b4d467","fixation","img/fixation.png","null","","test","","","","","",""
"34.09999990463257","94696","pSARL_v2","pSARL_v2uxjpyykm","5f565c9592080106c6b4d467","freq","img/green_2bandit_a2.png","70","70","test","1","13","13","1","",""
"null","95488","pSARL_v2","pSARL_v2uxjpyykm","5f565c9592080106c6b4d467","freq_resp","img/green_2bandit_a.png","70","70","test","","","","1","",""
"null","95668","pSARL_v2","pSARL_v2uxjpyykm","5f565c9592080106c6b4d467","fixation","img/fixation.png","null","","test","","","","","",""
"213.90000009536743","95897","pSARL_v2","pSARL_v2uxjpyykm","5f565c9592080106c6b4d467","freq","img/green_2bandit_a2.png","68","70","test","0","14","14","1","",""
"null","96501","pSARL_v2","pSARL_v2uxjpyykm","5f565c9592080106c6b4d467","freq_resp","img/green_2bandit_a.png","68","70","test","","","","1","",""
"null","96677","pSARL_v2","pSARL_v2uxjpyykm","5f565c9592080106c6b4d467","fixation","img/fixation.png","null","","test","","","","","",""
"483.59999990463257","97176","pSARL_v2","pSARL_v2uxjpyykm","5f565c9592080106c6b4d467","freq","img/green_2bandit_a2.png","70","70","test","1","15","15","1","",""
"null","97515","pSARL_v2","pSARL_v2uxjpyykm","5f565c9592080106c6b4d467","freq_resp","img/green_2bandit_a.png","70","70","test","","","","1","",""
"null","97696","pSARL_v2","pSARL_v2uxjpyykm","5f565c9592080106c6b4d467","fixation","img/fixation.png","null","","test","","","","","",""
"337.7000000476837","98048","pSARL_v2","pSARL_v2uxjpyykm","5f565c9592080106c6b4d467","freq","img/green_2bandit_a2.png","70","70","test","1","16","16","1","",""
"null","98527","pSARL_v2","pSARL_v2uxjpyykm","5f565c9592080106c6b4d467","freq_resp","img/green_2bandit_a.png","70","70","test","","","","1","",""
"null","98694","pSARL_v2","pSARL_v2uxjpyykm","5f565c9592080106c6b4d467","fixation","img/fixation.png","null","","test","","","","","",""
"70.5","98779","pSARL_v2","pSARL_v2uxjpyykm","5f565c9592080106c6b4d467","freq","img/green_2bandit_a2.png","70","70","test","1","17","17","1","",""
"null","99525","pSARL_v2","pSARL_v2uxjpyykm","5f565c9592080106c6b4d467","freq_resp","img/green_2bandit_a.png","70","70","test","","","","1","",""
"null","99694","pSARL_v2","pSARL_v2uxjpyykm","5f565c9592080106c6b4d467","fixation","img/fixation.png","null","","test","","","","","",""
"1.5","99710","pSARL_v2","pSARL_v2uxjpyykm","5f565c9592080106c6b4d467","freq","img/green_2bandit_a2.png","70","70","test","1","18","18","1","",""
"null","100531","pSARL_v2","pSARL_v2uxjpyykm","5f565c9592080106c6b4d467","freq_resp","img/green_2bandit_a.png","70","70","test","","","","1","",""
"null","100707","pSARL_v2","pSARL_v2uxjpyykm","5f565c9592080106c6b4d467","fixation","img/fixation.png","null","","test","","","","","",""
"198.29999995231628","100920","pSARL_v2","pSARL_v2uxjpyykm","5f565c9592080106c6b4d467","freq","img/green_2bandit_a2.png","70","70","test","1","19","19","1","",""
"null","101538","pSARL_v2","pSARL_v2uxjpyykm","5f565c9592080106c6b4d467","freq_resp","img/green_2bandit_a.png","70","70","test","","","","1","",""
"null","101709","pSARL_v2","pSARL_v2uxjpyykm","5f565c9592080106c6b4d467","fixation","img/fixation.png","null","","test","","","","","",""
"86.39999985694885","101806","pSARL_v2","pSARL_v2uxjpyykm","5f565c9592080106c6b4d467","freq","img/green_2bandit_a2.png","70","70","test","1","20","20","1","",""
"null","102532","pSARL_v2","pSARL_v2uxjpyykm","5f565c9592080106c6b4d467","freq_resp","img/green_2bandit_a.png","70","70","test","","","","1","",""
"null","102695","pSARL_v2","pSARL_v2uxjpyykm","5f565c9592080106c6b4d467","fixation","img/fixation.png","null","","test","","","","","",""
"56","102760","pSARL_v2","pSARL_v2uxjpyykm","5f565c9592080106c6b4d467","freq","img/green_2bandit_a2.png","70","70","test","1","21","21","1","",""
"null","103520","pSARL_v2","pSARL_v2uxjpyykm","5f565c9592080106c6b4d467","freq_resp","img/green_2bandit_a.png","70","70","test","","","","1","",""
"null","103695","pSARL_v2","pSARL_v2uxjpyykm","5f565c9592080106c6b4d467","fixation","img/fixation.png","null","","test","","","","","",""
"45.59999990463257","103751","pSARL_v2","pSARL_v2uxjpyykm","5f565c9592080106c6b4d467","freq","img/green_2bandit_a2.png","70","70","test","1","22","22","1","",""
"null","104516","pSARL_v2","pSARL_v2uxjpyykm","5f565c9592080106c6b4d467","freq_resp","img/green_2bandit_a.png","70","70","test","","","","1","",""
"null","104677","pSARL_v2","pSARL_v2uxjpyykm","5f565c9592080106c6b4d467","fixation","img/fixation.png","null","","test","","","","","",""
"215.10000014305115","104902","pSARL_v2","pSARL_v2uxjpyykm","5f565c9592080106c6b4d467","infreq","img/orange_2bandit_a2.png","70","68","test","0","23","23","1","",""
"null","105503","pSARL_v2","pSARL_v2uxjpyykm","5f565c9592080106c6b4d467","infreq_resp","img/orange_2bandit_a.png","70","68","test","","","","1","",""
"null","105671","pSARL_v2","pSARL_v2uxjpyykm","5f565c9592080106c6b4d467","fixation","img/fixation.png","null","","test","","","","","",""
"221.5","105905","pSARL_v2","pSARL_v2uxjpyykm","5f565c9592080106c6b4d467","freq","img/green_2bandit_a2.png","70","70","test","1","24","24","1","",""
"null","106498","pSARL_v2","pSARL_v2uxjpyykm","5f565c9592080106c6b4d467","freq_resp","img/green_2bandit_a.png","70","70","test","","","","1","",""
"null","106672","pSARL_v2","pSARL_v2uxjpyykm","5f565c9592080106c6b4d467","fixation","img/fixation.png","null","","test","","","","","",""
"21.200000047683716","106708","pSARL_v2","pSARL_v2uxjpyykm","5f565c9592080106c6b4d467","freq","img/green_2bandit_a2.png","70","70","test","1","25","25","1","",""
"null","107501","pSARL_v2","pSARL_v2uxjpyykm","5f565c9592080106c6b4d467","freq_resp","img/green_2bandit_a.png","70","70","test","","","","1","",""
"null","107691","pSARL_v2","pSARL_v2uxjpyykm","5f565c9592080106c6b4d467","fixation","img/fixation.png","null","","test","","","","","",""
"17.699999809265137","107719","pSARL_v2","pSARL_v2uxjpyykm","5f565c9592080106c6b4d467","freq","img/green_2bandit_a2.png","70","70","test","1","26","26","1","",""
"null","108522","pSARL_v2","pSARL_v2uxjpyykm","5f565c9592080106c6b4d467","freq_resp","img/green_2bandit_a.png","70","70","test","","","","1","",""
"null","108691","pSARL_v2","pSARL_v2uxjpyykm","5f565c9592080106c6b4d467","fixation","img/fixation.png","null","","test","","","","","",""
"524.3999998569489","109231","pSARL_v2","pSARL_v2uxjpyykm","5f565c9592080106c6b4d467","reward","img/slot.png","74","","test","","","","","",""
"null","110000","pSARL_v2","pSARL_v2uxjpyykm","5f565c9592080106c6b4d467","points","<div class=""verylowPoints""> -6 </div>","null","na","test","","","","1","-6","0"
"459.2999999523163","110476","pSARL_v2","pSARL_v2uxjpyykm","5f565c9592080106c6b4d467","freq","img/green_2bandit_a2.png","70","70","test","1","27","27","2","",""
"null","110831","pSARL_v2","pSARL_v2uxjpyykm","5f565c9592080106c6b4d467","freq_resp","img/green_2bandit_a.png","70","70","test","","","","2","",""
"null","111011","pSARL_v2","pSARL_v2uxjpyykm","5f565c9592080106c6b4d467","fixation","img/fixation.png","null","","test","","","","","",""
"56.90000009536743","111080","pSARL_v2","pSARL_v2uxjpyykm","5f565c9592080106c6b4d467","freq","img/green_2bandit_a2.png","70","70","test","1","28","28","2","",""
"null","111853","pSARL_v2","pSARL_v2uxjpyykm","5f565c9592080106c6b4d467","freq_resp","img/green_2bandit_a.png","70","70","test","","","","2","",""
"null","112031","pSARL_v2","pSARL_v2uxjpyykm","5f565c9592080106c6b4d467","fixation","img/fixation.png","null","","test","","","","","",""
"86","112132","pSARL_v2","pSARL_v2uxjpyykm","5f565c9592080106c6b4d467","freq","img/green_2bandit_a2.png","70","70","test","1","29","29","2","",""
"null","112874","pSARL_v2","pSARL_v2uxjpyykm","5f565c9592080106c6b4d467","freq_resp","img/green_2bandit_a.png","70","70","test","","","","2","",""
"null","113043","pSARL_v2","pSARL_v2uxjpyykm","5f565c9592080106c6b4d467","fixation","img/fixation.png","null","","test","","","","","",""
"260.09999990463257","113318","pSARL_v2","pSARL_v2uxjpyykm","5f565c9592080106c6b4d467","infreq","img/orange_2bandit_a2.png","70","68","test","0","30","30","2","",""
"null","113882","pSARL_v2","pSARL_v2uxjpyykm","5f565c9592080106c6b4d467","infreq_resp","img/orange_2bandit_a.png","70","68","test","","","","2","",""
"null","114058","pSARL_v2","pSARL_v2uxjpyykm","5f565c9592080106c6b4d467","fixation","img/fixation.png","null","","test","","","","","",""
"181.79999995231628","114255","pSARL_v2","pSARL_v2uxjpyykm","5f565c9592080106c6b4d467","freq","img/green_2bandit_a2.png","68","70","test","0","31","31","2","",""
"null","114898","pSARL_v2","pSARL_v2uxjpyykm","5f565c9592080106c6b4d467","freq_resp","img/green_2bandit_a.png","68","70","test","","","","2","",""
"null","115063","pSARL_v2","pSARL_v2uxjpyykm","5f565c9592080106c6b4d467","fixation","img/fixation.png","null","","test","","","","","",""
"71.59999990463257","115148","pSARL_v2","pSARL_v2uxjpyykm","5f565c9592080106c6b4d467","freq","img/green_2bandit_a2.png","70","70","test","1","32","32","2","",""
"null","115899","pSARL_v2","pSARL_v2uxjpyykm","5f565c9592080106c6b4d467","freq_resp","img/green_2bandit_a.png","70","70","test","","","","2","",""
"null","116075","pSARL_v2","pSARL_v2uxjpyykm","5f565c9592080106c6b4d467","fixation","img/fixation.png","null","","test","","","","","",""
"60","116149","pSARL_v2","pSARL_v2uxjpyykm","5f565c9592080106c6b4d467","freq","img/green_2bandit_a2.png","70","70","test","1","33","33","2","",""
"null","116904","pSARL_v2","pSARL_v2uxjpyykm","5f565c9592080106c6b4d467","freq_resp","img/green_2bandit_a.png","70","70","test","","","","2","",""
"null","117074","pSARL_v2","pSARL_v2uxjpyykm","5f565c9592080106c6b4d467","fixation","img/fixation.png","null","","test","","","","","",""
"267.40000009536743","117356","pSARL_v2","pSARL_v2uxjpyykm","5f565c9592080106c6b4d467","infreq","img/orange_2bandit_a2.png","70","68","test","0","34","34","2","",""
"null","117911","pSARL_v2","pSARL_v2uxjpyykm","5f565c9592080106c6b4d467","infreq_resp","img/orange_2bandit_a.png","70","68","test","","","","2","",""
"null","118084","pSARL_v2","pSARL_v2uxjpyykm","5f565c9592080106c6b4d467","fixation","img/fixation.png","null","","test","","","","","",""
"0.8000001907348633","118098","pSARL_v2","pSARL_v2uxjpyykm","5f565c9592080106c6b4d467","freq","img/green_2bandit_a2.png","68","70","test","0","35","35","2","",""
"null","118911","pSARL_v2","pSARL_v2uxjpyykm","5f565c9592080106c6b4d467","freq_resp","img/green_2bandit_a.png","68","70","test","","","","2","",""
"null","119082","pSARL_v2","pSARL_v2uxjpyykm","5f565c9592080106c6b4d467","fixation","img/fixation.png","null","","test","","","","","",""
"115","119212","pSARL_v2","pSARL_v2uxjpyykm","5f565c9592080106c6b4d467","freq","img/green_2bandit_a2.png","70","70","test","1","36","36","2","",""
"null","119922","pSARL_v2","pSARL_v2uxjpyykm","5f565c9592080106c6b4d467","freq_resp","img/green_2bandit_a.png","70","70","test","","","","2","",""
"null","120098","pSARL_v2","pSARL_v2uxjpyykm","5f565c9592080106c6b4d467","fixation","img/fixation.png","null","","test","","","","","",""
"219.59999990463257","120331","pSARL_v2","pSARL_v2uxjpyykm","5f565c9592080106c6b4d467","freq","img/green_2bandit_a2.png","70","70","test","1","37","37","2","",""
"null","120929","pSARL_v2","pSARL_v2uxjpyykm","5f565c9592080106c6b4d467","freq_resp","img/green_2bandit_a.png","70","70","test","","","","2","",""
"null","121100","pSARL_v2","pSARL_v2uxjpyykm","5f565c9592080106c6b4d467","fixation","img/fixation.png","null","","test","","","","","",""
"312.2999999523163","121427","pSARL_v2","pSARL_v2uxjpyykm","5f565c9592080106c6b4d467","freq","img/green_2bandit_a2.png","70","70","test","1","38","38","2","",""
"null","121937","pSARL_v2","pSARL_v2uxjpyykm","5f565c9592080106c6b4d467","freq_resp","img/green_2bandit_a.png","70","70","test","","","","2","",""
"null","122114","pSARL_v2","pSARL_v2uxjpyykm","5f565c9592080106c6b4d467","fixation","img/fixation.png","null","","test","","","","","",""
"100","122229","pSARL_v2","pSARL_v2uxjpyykm","5f565c9592080106c6b4d467","freq","img/green_2bandit_a2.png","70","70","test","1","39","39","2","",""
"null","122956","pSARL_v2","pSARL_v2uxjpyykm","5f565c9592080106c6b4d467","freq_resp","img/green_2bandit_a.png","70","70","test","","","","2","",""
"null","123131","pSARL_v2","pSARL_v2uxjpyykm","5f565c9592080106c6b4d467","fixation","img/fixation.png","null","","test","","","","","",""
"172.60000014305115","123318","pSARL_v2","pSARL_v2uxjpyykm","5f565c9592080106c6b4d467","freq","img/green_2bandit_a2.png","70","70","test","1","40","40","2","",""
"null","123959","pSARL_v2","pSARL_v2uxjpyykm","5f565c9592080106c6b4d467","freq_resp","img/green_2bandit_a.png","70","70","test","","","","2","",""
"null","124126","pSARL_v2","pSARL_v2uxjpyykm","5f565c9592080106c6b4d467","fixation","img/fixation.png","null","","test","","","","","",""
"114.10000014305115","124255","pSARL_v2","pSARL_v2uxjpyykm","5f565c9592080106c6b4d467","freq","img/green_2bandit_a2.png","70","70","test","1","41","41","2","",""
"null","124969","pSARL_v2","pSARL_v2uxjpyykm","5f565c9592080106c6b4d467","freq_resp","img/green_2bandit_a.png","70","70","test","","","","2","",""
"null","125148","pSARL_v2","pSARL_v2uxjpyykm","5f565c9592080106c6b4d467","fixation","img/fixation.png","null","","test","","","","","",""
"129.29999995231628","125291","pSARL_v2","pSARL_v2uxjpyykm","5f565c9592080106c6b4d467","freq","img/green_2bandit_a2.png","70","70","test","1","42","42","2","",""
"null","125982","pSARL_v2","pSARL_v2uxjpyykm","5f565c9592080106c6b4d467","freq_resp","img/green_2bandit_a.png","70","70","test","","","","2","",""
"null","126149","pSARL_v2","pSARL_v2uxjpyykm","5f565c9592080106c6b4d467","fixation","img/fixation.png","null","","test","","","","","",""
"231.69999980926514","126395","pSARL_v2","pSARL_v2uxjpyykm","5f565c9592080106c6b4d467","freq","img/green_2bandit_a2.png","70","70","test","1","43","43","2","",""
"null","126976","pSARL_v2","pSARL_v2uxjpyykm","5f565c9592080106c6b4d467","freq_resp","img/green_2bandit_a.png","70","70","test","","","","2","",""
"null","127143","pSARL_v2","pSARL_v2uxjpyykm","5f565c9592080106c6b4d467","fixation","img/fixation.png","null","","test","","","","","",""
"147.70000004768372","127300","pSARL_v2","pSARL_v2uxjpyykm","5f565c9592080106c6b4d467","freq","img/green_2bandit_a2.png","70","70","test","1","44","44","2","",""
"null","127979","pSARL_v2","pSARL_v2uxjpyykm","5f565c9592080106c6b4d467","freq_resp","img/green_2bandit_a.png","70","70","test","","","","2","",""
"null","128149","pSARL_v2","pSARL_v2uxjpyykm","5f565c9592080106c6b4d467","fixation","img/fixation.png","null","","test","","","","","",""
"29.399999856948853","128192","pSARL_v2","pSARL_v2uxjpyykm","5f565c9592080106c6b4d467","freq","img/green_2bandit_a2.png","70","70","test","1","45","45","2","",""
"null","128989","pSARL_v2","pSARL_v2uxjpyykm","5f565c9592080106c6b4d467","freq_resp","img/green_2bandit_a.png","70","70","test","","","","2","",""
"null","129165","pSARL_v2","pSARL_v2uxjpyykm","5f565c9592080106c6b4d467","fixation","img/fixation.png","null","","test","","","","","",""
"108.39999985694885","129290","pSARL_v2","pSARL_v2uxjpyykm","5f565c9592080106c6b4d467","freq","img/green_2bandit_a2.png","70","70","test","1","46","46","2","",""
"null","130005","pSARL_v2","pSARL_v2uxjpyykm","5f565c9592080106c6b4d467","freq_resp","img/green_2bandit_a.png","70","70","test","","","","2","",""
"null","130173","pSARL_v2","pSARL_v2uxjpyykm","5f565c9592080106c6b4d467","fixation","img/fixation.png","null","","test","","","","","",""
"50.40000009536743","130237","pSARL_v2","pSARL_v2uxjpyykm","5f565c9592080106c6b4d467","freq","img/green_2bandit_a2.png","70","70","test","1","47","47","2","",""
"null","131003","pSARL_v2","pSARL_v2uxjpyykm","5f565c9592080106c6b4d467","freq_resp","img/green_2bandit_a.png","70","70","test","","","","2","",""
"null","131177","pSARL_v2","pSARL_v2uxjpyykm","5f565c9592080106c6b4d467","fixation","img/fixation.png","null","","test","","","","","",""
"207.29999995231628","131396","pSARL_v2","pSARL_v2uxjpyykm","5f565c9592080106c6b4d467","freq","img/green_2bandit_a2.png","70","70","test","1","48","48","2","",""
"null","132009","pSARL_v2","pSARL_v2uxjpyykm","5f565c9592080106c6b4d467","freq_resp","img/green_2bandit_a.png","70","70","test","","","","2","",""
"null","132177","pSARL_v2","pSARL_v2uxjpyykm","5f565c9592080106c6b4d467","fixation","img/fixation.png","null","","test","","","","","",""
"442.09999990463257","132628","pSARL_v2","pSARL_v2uxjpyykm","5f565c9592080106c6b4d467","reward","img/slot.png","74","","test","","","","","",""
"null","133399","pSARL_v2","pSARL_v2uxjpyykm","5f565c9592080106c6b4d467","points","<div class=""verylowPoints""> -11 </div>","null","na","test","","","","2","-11","1"
"360.40000009536743","133771","pSARL_v2","pSARL_v2uxjpyykm","5f565c9592080106c6b4d467","freq","img/green_2bandit_a2.png","70","70","test","1","49","49","3","",""
"null","134231","pSARL_v2","pSARL_v2uxjpyykm","5f565c9592080106c6b4d467","freq_resp","img/green_2bandit_a.png","70","70","test","","","","3","",""
"null","134405","pSARL_v2","pSARL_v2uxjpyykm","5f565c9592080106c6b4d467","fixation","img/fixation.png","null","","test","","","","","",""
"89","134504","pSARL_v2","pSARL_v2uxjpyykm","5f565c9592080106c6b4d467","freq","img/green_2bandit_a2.png","70","70","test","1","50","50","3","",""
"null","135240","pSARL_v2","pSARL_v2uxjpyykm","5f565c9592080106c6b4d467","freq_resp","img/green_2bandit_a.png","70","70","test","","","","3","",""
"null","135402","pSARL_v2","pSARL_v2uxjpyykm","5f565c9592080106c6b4d467","fixation","img/fixation.png","null","","test","","","","","",""
"98.09999990463257","135513","pSARL_v2","pSARL_v2uxjpyykm","5f565c9592080106c6b4d467","freq","img/green_2bandit_a2.png","70","70","test","1","51","51","3","",""
"null","136233","pSARL_v2","pSARL_v2uxjpyykm","5f565c9592080106c6b4d467","freq_resp","img/green_2bandit_a.png","70","70","test","","","","3","",""
"null","136409","pSARL_v2","pSARL_v2uxjpyykm","5f565c9592080106c6b4d467","fixation","img/fixation.png","null","","test","","","","","",""
"0.3000001907348633","136419","pSARL_v2","pSARL_v2uxjpyykm","5f565c9592080106c6b4d467","freq","img/green_2bandit_a2.png","70","70","test","1","52","52","3","",""
"null","137231","pSARL_v2","pSARL_v2uxjpyykm","5f565c9592080106c6b4d467","freq_resp","img/green_2bandit_a.png","70","70","test","","","","3","",""
"null","137395","pSARL_v2","pSARL_v2uxjpyykm","5f565c9592080106c6b4d467","fixation","img/fixation.png","null","","test","","","","","",""
"85.29999995231628","137489","pSARL_v2","pSARL_v2uxjpyykm","5f565c9592080106c6b4d467","freq","img/green_2bandit_a2.png","70","70","test","1","53","53","3","",""
"null","138217","pSARL_v2","pSARL_v2uxjpyykm","5f565c9592080106c6b4d467","freq_resp","img/green_2bandit_a.png","70","70","test","","","","3","",""
"null","138390","pSARL_v2","pSARL_v2uxjpyykm","5f565c9592080106c6b4d467","fixation","img/fixation.png","null","","test","","","","","",""
"176.60000014305115","138577","pSARL_v2","pSARL_v2uxjpyykm","5f565c9592080106c6b4d467","freq","img/green_2bandit_a2.png","70","70","test","1","54","54","3","",""
"null","139225","pSARL_v2","pSARL_v2uxjpyykm","5f565c9592080106c6b4d467","freq_resp","img/green_2bandit_a.png","70","70","test","","","","3","",""
"null","139388","pSARL_v2","pSARL_v2uxjpyykm","5f565c9592080106c6b4d467","fixation","img/fixation.png","null","","test","","","","","",""
"59.30000019073486","139457","pSARL_v2","pSARL_v2uxjpyykm","5f565c9592080106c6b4d467","infreq","img/orange_2bandit_a2.png","70","68","test","0","55","55","3","",""
"null","140214","pSARL_v2","pSARL_v2uxjpyykm","5f565c9592080106c6b4d467","infreq_resp","img/orange_2bandit_a.png","70","68","test","","","","3","",""
"null","140388","pSARL_v2","pSARL_v2uxjpyykm","5f565c9592080106c6b4d467","fixation","img/fixation.png","null","","test","","","","","",""
"234.69999980926514","140632","pSARL_v2","pSARL_v2uxjpyykm","5f565c9592080106c6b4d467","freq","img/green_2bandit_a2.png","68","70","test","0","56","56","3","",""
"null","141216","pSARL_v2","pSARL_v2uxjpyykm","5f565c9592080106c6b4d467","freq_resp","img/green_2bandit_a.png","68","70","test","","","","3","",""
"null","141375","pSARL_v2","pSARL_v2uxjpyykm","5f565c9592080106c6b4d467","fixation","img/fixation.png","null","","test","","","","","",""
"238.20000004768372","141624","pSARL_v2","pSARL_v2uxjpyykm","5f565c9592080106c6b4d467","freq","img/green_2bandit_a2.png","70","70","test","1","57","57","3","",""
"null","142208","pSARL_v2","pSARL_v2uxjpyykm","5f565c9592080106c6b4d467","freq_resp","img/green_2bandit_a.png","70","70","test","","","","3","",""
"null","142377","pSARL_v2","pSARL_v2uxjpyykm","5f565c9592080106c6b4d467","fixation","img/fixation.png","null","","test","","","","","",""
"66.30000019073486","142453","pSARL_v2","pSARL_v2uxjpyykm","5f565c9592080106c6b4d467","freq","img/green_2bandit_a2.png","70","70","test","1","58","58","3","",""
"null","143197","pSARL_v2","pSARL_v2uxjpyykm","5f565c9592080106c6b4d467","freq_resp","img/green_2bandit_a.png","70","70","test","","","","3","",""
"null","143377","pSARL_v2","pSARL_v2uxjpyykm","5f565c9592080106c6b4d467","fixation","img/fixation.png","null","","test","","","","","",""
"186.70000004768372","143575","pSARL_v2","pSARL_v2uxjpyykm","5f565c9592080106c6b4d467","infreq","img/orange_2bandit_a2.png","70","68","test","0","59","59","3","",""
"null","144212","pSARL_v2","pSARL_v2uxjpyykm","5f565c9592080106c6b4d467","infreq_resp","img/orange_2bandit_a.png","70","68","test","","","","3","",""
"null","144388","pSARL_v2","pSARL_v2uxjpyykm","5f565c9592080106c6b4d467","fixation","img/fixation.png","null","","test","","","","","",""
"517.5999999046326","144917","pSARL_v2","pSARL_v2uxjpyykm","5f565c9592080106c6b4d467","freq","img/green_2bandit_a2.png","70","70","test","1","60","60","3","",""
"null","145218","pSARL_v2","pSARL_v2uxjpyykm","5f565c9592080106c6b4d467","freq_resp","img/green_2bandit_a.png","70","70","test","","","","3","",""
"null","145391","pSARL_v2","pSARL_v2uxjpyykm","5f565c9592080106c6b4d467","fixation","img/fixation.png","null","","test","","","","","",""
"34.200000047683716","145435","pSARL_v2","pSARL_v2uxjpyykm","5f565c9592080106c6b4d467","freq","img/green_2bandit_a2.png","70","70","test","1","61","61","3","",""
"null","146212","pSARL_v2","pSARL_v2uxjpyykm","5f565c9592080106c6b4d467","freq_resp","img/green_2bandit_a.png","70","70","test","","","","3","",""
"null","146373","pSARL_v2","pSARL_v2uxjpyykm","5f565c9592080106c6b4d467","fixation","img/fixation.png","null","","test","","","","","",""
"142.70000004768372","146525","pSARL_v2","pSARL_v2uxjpyykm","5f565c9592080106c6b4d467","freq","img/green_2bandit_a2.png","70","70","test","1","62","62","3","",""
"null","147203","pSARL_v2","pSARL_v2uxjpyykm","5f565c9592080106c6b4d467","freq_resp","img/green_2bandit_a.png","70","70","test","","","","3","",""
"null","147375","pSARL_v2","pSARL_v2uxjpyykm","5f565c9592080106c6b4d467","fixation","img/fixation.png","null","","test","","","","","",""
"41.59999990463257","147426","pSARL_v2","pSARL_v2uxjpyykm","5f565c9592080106c6b4d467","freq","img/green_2bandit_a2.png","70","70","test","1","63","63","3","",""
"null","148195","pSARL_v2","pSARL_v2uxjpyykm","5f565c9592080106c6b4d467","freq_resp","img/green_2bandit_a.png","70","70","test","","","","3","",""
"null","148364","pSARL_v2","pSARL_v2uxjpyykm","5f565c9592080106c6b4d467","fixation","img/fixation.png","null","","test","","","","","",""
"172.90000009536743","148547","pSARL_v2","pSARL_v2uxjpyykm","5f565c9592080106c6b4d467","freq","img/green_2bandit_a2.png","70","70","test","1","64","64","3","",""
"null","149198","pSARL_v2","pSARL_v2uxjpyykm","5f565c9592080106c6b4d467","freq_resp","img/green_2bandit_a.png","70","70","test","","","","3","",""
"null","149376","pSARL_v2","pSARL_v2uxjpyykm","5f565c9592080106c6b4d467","fixation","img/fixation.png","null","","test","","","","","",""
"80.79999995231628","149468","pSARL_v2","pSARL_v2uxjpyykm","5f565c9592080106c6b4d467","freq","img/green_2bandit_a2.png","70","70","test","1","65","65","3","",""
"null","150200","pSARL_v2","pSARL_v2uxjpyykm","5f565c9592080106c6b4d467","freq_resp","img/green_2bandit_a.png","70","70","test","","","","3","",""
"null","150364","pSARL_v2","pSARL_v2uxjpyykm","5f565c9592080106c6b4d467","fixation","img/fixation.png","null","","test","","","","","",""
"350.80000019073486","150728","pSARL_v2","pSARL_v2uxjpyykm","5f565c9592080106c6b4d467","freq","img/green_2bandit_a2.png","70","70","test","1","66","66","3","",""
"null","151193","pSARL_v2","pSARL_v2uxjpyykm","5f565c9592080106c6b4d467","freq_resp","img/green_2bandit_a.png","70","70","test","","","","3","",""
"null","151362","pSARL_v2","pSARL_v2uxjpyykm","5f565c9592080106c6b4d467","fixation","img/fixation.png","null","","test","","","","","",""
"167.79999995231628","151545","pSARL_v2","pSARL_v2uxjpyykm","5f565c9592080106c6b4d467","freq","img/green_2bandit_a2.png","70","70","test","1","67","67","3","",""
"null","152194","pSARL_v2","pSARL_v2uxjpyykm","5f565c9592080106c6b4d467","freq_resp","img/green_2bandit_a.png","70","70","test","","","","3","",""
"null","152359","pSARL_v2","pSARL_v2uxjpyykm","5f565c9592080106c6b4d467","fixation","img/fixation.png","null","","test","","","","","",""
"170.29999995231628","152544","pSARL_v2","pSARL_v2uxjpyykm","5f565c9592080106c6b4d467","freq","img/green_2bandit_a2.png","70","70","test","1","68","68","3","",""
"null","153196","pSARL_v2","pSARL_v2uxjpyykm","5f565c9592080106c6b4d467","freq_resp","img/green_2bandit_a.png","70","70","test","","","","3","",""
"null","153360","pSARL_v2","pSARL_v2uxjpyykm","5f565c9592080106c6b4d467","fixation","img/fixation.png","null","","test","","","","","",""
"275.39999985694885","153645","pSARL_v2","pSARL_v2uxjpyykm","5f565c9592080106c6b4d467","freq","img/green_2bandit_a2.png","70","70","test","1","69","69","3","",""
"null","154198","pSARL_v2","pSARL_v2uxjpyykm","5f565c9592080106c6b4d467","freq_resp","img/green_2bandit_a.png","70","70","test","","","","3","",""
"null","154376","pSARL_v2","pSARL_v2uxjpyykm","5f565c9592080106c6b4d467","fixation","img/fixation.png","null","","test","","","","","",""
"75.5","154463","pSARL_v2","pSARL_v2uxjpyykm","5f565c9592080106c6b4d467","freq","img/green_2bandit_a2.png","70","70","test","1","70","70","3","",""
"null","155199","pSARL_v2","pSARL_v2uxjpyykm","5f565c9592080106c6b4d467","freq_resp","img/green_2bandit_a.png","70","70","test","","","","3","",""
"null","155371","pSARL_v2","pSARL_v2uxjpyykm","5f565c9592080106c6b4d467","fixation","img/fixation.png","null","","test","","","","","",""
"101.29999995231628","155486","pSARL_v2","pSARL_v2uxjpyykm","5f565c9592080106c6b4d467","freq","img/green_2bandit_a2.png","70","70","test","1","71","71","3","",""
"null","156203","pSARL_v2","pSARL_v2uxjpyykm","5f565c9592080106c6b4d467","freq_resp","img/green_2bandit_a.png","70","70","test","","","","3","",""
"null","156376","pSARL_v2","pSARL_v2uxjpyykm","5f565c9592080106c6b4d467","fixation","img/fixation.png","null","","test","","","","","",""
"472.09999990463257","156867","pSARL_v2","pSARL_v2uxjpyykm","5f565c9592080106c6b4d467","reward","img/slot.png","74","","test","","","","","",""
"null","157636","pSARL_v2","pSARL_v2uxjpyykm","5f565c9592080106c6b4d467","points","<div class=""verylowPoints""> -7 </div>","null","na","test","","","","3","-7","2"
"386.59999990463257","158037","pSARL_v2","pSARL_v2uxjpyykm","5f565c9592080106c6b4d467","freq","img/green_2bandit_a2.png","70","70","test","1","72","72","4","",""
"null","158477","pSARL_v2","pSARL_v2uxjpyykm","5f565c9592080106c6b4d467","freq_resp","img/green_2bandit_a.png","70","70","test","","","","4","",""
"null","158651","pSARL_v2","pSARL_v2uxjpyykm","5f565c9592080106c6b4d467","fixation","img/fixation.png","null","","test","","","","","",""
"196.5","158862","pSARL_v2","pSARL_v2uxjpyykm","5f565c9592080106c6b4d467","freq","img/green_2bandit_a2.png","70","70","test","1","73","73","4","",""
"null","159485","pSARL_v2","pSARL_v2uxjpyykm","5f565c9592080106c6b4d467","freq_resp","img/green_2bandit_a.png","70","70","test","","","","4","",""
"null","159659","pSARL_v2","pSARL_v2uxjpyykm","5f565c9592080106c6b4d467","fixation","img/fixation.png","null","","test","","","","","",""
"13.400000095367432","159682","pSARL_v2","pSARL_v2uxjpyykm","5f565c9592080106c6b4d467","freq","img/green_2bandit_a2.png","70","70","test","1","74","74","4","",""
"null","160488","pSARL_v2","pSARL_v2uxjpyykm","5f565c9592080106c6b4d467","freq_resp","img/green_2bandit_a.png","70","70","test","","","","4","",""
"null","160665","pSARL_v2","pSARL_v2uxjpyykm","5f565c9592080106c6b4d467","fixation","img/fixation.png","null","","test","","","","","",""
"168.59999990463257","160848","pSARL_v2","pSARL_v2uxjpyykm","5f565c9592080106c6b4d467","freq","img/green_2bandit_a2.png","70","70","test","1","75","75","4","",""
"null","161507","pSARL_v2","pSARL_v2uxjpyykm","5f565c9592080106c6b4d467","freq_resp","img/green_2bandit_a.png","70","70","test","","","","4","",""
"null","161673","pSARL_v2","pSARL_v2uxjpyykm","5f565c9592080106c6b4d467","fixation","img/fixation.png","null","","test","","","","","",""
"26.40000009536743","161713","pSARL_v2","pSARL_v2uxjpyykm","5f565c9592080106c6b4d467","freq","img/green_2bandit_a2.png","70","70","test","1","76","76","4","",""
"null","162504","pSARL_v2","pSARL_v2uxjpyykm","5f565c9592080106c6b4d467","freq_resp","img/green_2bandit_a.png","70","70","test","","","","4","",""
"null","162679","pSARL_v2","pSARL_v2uxjpyykm","5f565c9592080106c6b4d467","fixation","img/fixation.png","null","","test","","","","","",""
"366.09999990463257","163060","pSARL_v2","pSARL_v2uxjpyykm","5f565c9592080106c6b4d467","freq","img/green_2bandit_a2.png","70","70","test","1","77","77","4","",""
"null","163518","pSARL_v2","pSARL_v2uxjpyykm","5f565c9592080106c6b4d467","freq_resp","img/green_2bandit_a.png","70","70","test","","","","4","",""
"null","163695","pSARL_v2","pSARL_v2uxjpyykm","5f565c9592080106c6b4d467","fixation","img/fixation.png","null","","test","","","","","",""
"26.100000143051147","163735","pSARL_v2","pSARL_v2uxjpyykm","5f565c9592080106c6b4d467","freq","img/green_2bandit_a2.png","70","70","test","1","78","78","4","",""
"null","164524","pSARL_v2","pSARL_v2uxjpyykm","5f565c9592080106c6b4d467","freq_resp","img/green_2bandit_a.png","70","70","test","","","","4","",""
"null","164691","pSARL_v2","pSARL_v2uxjpyykm","5f565c9592080106c6b4d467","fixation","img/fixation.png","null","","test","","","","","",""
"29.700000047683716","164730","pSARL_v2","pSARL_v2uxjpyykm","5f565c9592080106c6b4d467","freq","img/green_2bandit_a2.png","70","70","test","1","79","79","4","",""
"null","165517","pSARL_v2","pSARL_v2uxjpyykm","5f565c9592080106c6b4d467","freq_resp","img/green_2bandit_a.png","70","70","test","","","","4","",""
"null","165696","pSARL_v2","pSARL_v2uxjpyykm","5f565c9592080106c6b4d467","fixation","img/fixation.png","null","","test","","","","","",""
"35.59999990463257","165746","pSARL_v2","pSARL_v2uxjpyykm","5f565c9592080106c6b4d467","infreq","img/orange_2bandit_a2.png","70","68","test","0","80","80","4","",""
"null","166536","pSARL_v2","pSARL_v2uxjpyykm","5f565c9592080106c6b4d467","infreq_resp","img/orange_2bandit_a.png","70","68","test","","","","4","",""
"null","166712","pSARL_v2","pSARL_v2uxjpyykm","5f565c9592080106c6b4d467","fixation","img/fixation.png","null","","test","","","","","",""
"235.59999990463257","166962","pSARL_v2","pSARL_v2uxjpyykm","5f565c9592080106c6b4d467","freq","img/green_2bandit_a2.png","70","70","test","1","81","81","4","",""
"null","167548","pSARL_v2","pSARL_v2uxjpyykm","5f565c9592080106c6b4d467","freq_resp","img/green_2bandit_a.png","70","70","test","","","","4","",""
"null","167722","pSARL_v2","pSARL_v2uxjpyykm","5f565c9592080106c6b4d467","fixation","img/fixation.png","null","","test","","","","","",""
"14.900000095367432","167746","pSARL_v2","pSARL_v2uxjpyykm","5f565c9592080106c6b4d467","freq","img/green_2bandit_a2.png","70","70","test","1","82","82","4","",""
"null","168554","pSARL_v2","pSARL_v2uxjpyykm","5f565c9592080106c6b4d467","freq_resp","img/green_2bandit_a.png","70","70","test","","","","4","",""
"null","168719","pSARL_v2","pSARL_v2uxjpyykm","5f565c9592080106c6b4d467","fixation","img/fixation.png","null","","test","","","","","",""
"148.89999985694885","168883","pSARL_v2","pSARL_v2uxjpyykm","5f565c9592080106c6b4d467","freq","img/green_2bandit_a2.png","70","70","test","1","83","83","4","",""
"null","169552","pSARL_v2","pSARL_v2uxjpyykm","5f565c9592080106c6b4d467","freq_resp","img/green_2bandit_a.png","70","70","test","","","","4","",""
"null","169725","pSARL_v2","pSARL_v2uxjpyykm","5f565c9592080106c6b4d467","fixation","img/fixation.png","null","","test","","","","","",""
"179.29999995231628","169918","pSARL_v2","pSARL_v2uxjpyykm","5f565c9592080106c6b4d467","freq","img/green_2bandit_a2.png","70","70","test","1","84","84","4","",""
"null","170557","pSARL_v2","pSARL_v2uxjpyykm","5f565c9592080106c6b4d467","freq_resp","img/green_2bandit_a.png","70","70","test","","","","4","",""
"null","170728","pSARL_v2","pSARL_v2uxjpyykm","5f565c9592080106c6b4d467","fixation","img/fixation.png","null","","test","","","","","",""
"51.39999985694885","170794","pSARL_v2","pSARL_v2uxjpyykm","5f565c9592080106c6b4d467","freq","img/green_2bandit_a2.png","70","70","test","1","85","85","4","",""
"null","171564","pSARL_v2","pSARL_v2uxjpyykm","5f565c9592080106c6b4d467","freq_resp","img/green_2bandit_a.png","70","70","test","","","","4","",""
"null","171742","pSARL_v2","pSARL_v2uxjpyykm","5f565c9592080106c6b4d467","fixation","img/fixation.png","null","","test","","","","","",""
"22.90000009536743","171779","pSARL_v2","pSARL_v2uxjpyykm","5f565c9592080106c6b4d467","freq","img/green_2bandit_a2.png","70","70","test","1","86","86","4","",""
"null","172586","pSARL_v2","pSARL_v2uxjpyykm","5f565c9592080106c6b4d467","freq_resp","img/green_2bandit_a.png","70","70","test","","","","4","",""
"null","172755","pSARL_v2","pSARL_v2uxjpyykm","5f565c9592080106c6b4d467","fixation","img/fixation.png","null","","test","","","","","",""
"90.60000014305115","172860","pSARL_v2","pSARL_v2uxjpyykm","5f565c9592080106c6b4d467","infreq","img/orange_2bandit_a2.png","70","68","test","0","87","87","4","",""
"null","173587","pSARL_v2","pSARL_v2uxjpyykm","5f565c9592080106c6b4d467","infreq_resp","img/orange_2bandit_a.png","70","68","test","","","","4","",""
"null","173754","pSARL_v2","pSARL_v2uxjpyykm","5f565c9592080106c6b4d467","fixation","img/fixation.png","null","","test","","","","","",""
"213.20000004768372","173981","pSARL_v2","pSARL_v2uxjpyykm","5f565c9592080106c6b4d467","freq","img/green_2bandit_a2.png","70","70","test","1","88","88","4","",""
"null","174584","pSARL_v2","pSARL_v2uxjpyykm","5f565c9592080106c6b4d467","freq_resp","img/green_2bandit_a.png","70","70","test","","","","4","",""
"null","174762","pSARL_v2","pSARL_v2uxjpyykm","5f565c9592080106c6b4d467","fixation","img/fixation.png","null","","test","","","","","",""
"139.79999995231628","174916","pSARL_v2","pSARL_v2uxjpyykm","5f565c9592080106c6b4d467","freq","img/green_2bandit_a2.png","70","70","test","1","89","89","4","",""
"null","175604","pSARL_v2","pSARL_v2uxjpyykm","5f565c9592080106c6b4d467","freq_resp","img/green_2bandit_a.png","70","70","test","","","","4","",""
"null","175771","pSARL_v2","pSARL_v2uxjpyykm","5f565c9592080106c6b4d467","fixation","img/fixation.png","null","","test","","","","","",""
"106.10000014305115","175892","pSARL_v2","pSARL_v2uxjpyykm","5f565c9592080106c6b4d467","freq","img/green_2bandit_a2.png","70","70","test","1","90","90","4","",""
"null","176604","pSARL_v2","pSARL_v2uxjpyykm","5f565c9592080106c6b4d467","freq_resp","img/green_2bandit_a.png","70","70","test","","","","4","",""
"null","176780","pSARL_v2","pSARL_v2uxjpyykm","5f565c9592080106c6b4d467","fixation","img/fixation.png","null","","test","","","","","",""
"499.7000000476837","177293","pSARL_v2","pSARL_v2uxjpyykm","5f565c9592080106c6b4d467","reward","img/slot.png","74","","test","","","","","",""
"null","178067","pSARL_v2","pSARL_v2uxjpyykm","5f565c9592080106c6b4d467","points","<div class=""verylowPoints""> -3 </div>","null","na","test","","","","4","-3","3"
"162.09999990463257","178243","pSARL_v2","pSARL_v2uxjpyykm","5f565c9592080106c6b4d467","freq","img/green_2bandit_a2.png","70","70","test","1","91","91","5","",""
"null","178908","pSARL_v2","pSARL_v2uxjpyykm","5f565c9592080106c6b4d467","freq_resp","img/green_2bandit_a.png","70","70","test","","","","5","",""
"null","179087","pSARL_v2","pSARL_v2uxjpyykm","5f565c9592080106c6b4d467","fixation","img/fixation.png","null","","test","","","","","",""
"132.70000004768372","179234","pSARL_v2","pSARL_v2uxjpyykm","5f565c9592080106c6b4d467","freq","img/green_2bandit_a2.png","70","70","test","1","92","92","5","",""
"null","179921","pSARL_v2","pSARL_v2uxjpyykm","5f565c9592080106c6b4d467","freq_resp","img/green_2bandit_a.png","70","70","test","","","","5","",""
"null","180097","pSARL_v2","pSARL_v2uxjpyykm","5f565c9592080106c6b4d467","fixation","img/fixation.png","null","","test","","","","","",""
"32.40000009536743","180145","pSARL_v2","pSARL_v2uxjpyykm","5f565c9592080106c6b4d467","freq","img/green_2bandit_a2.png","70","70","test","1","93","93","5","",""
"null","180940","pSARL_v2","pSARL_v2uxjpyykm","5f565c9592080106c6b4d467","freq_resp","img/green_2bandit_a.png","70","70","test","","","","5","",""
"null","181110","pSARL_v2","pSARL_v2uxjpyykm","5f565c9592080106c6b4d467","fixation","img/fixation.png","null","","test","","","","","",""
"170.90000009536743","181295","pSARL_v2","pSARL_v2uxjpyykm","5f565c9592080106c6b4d467","freq","img/green_2bandit_a2.png","70","70","test","1","94","94","5","",""
"null","181947","pSARL_v2","pSARL_v2uxjpyykm","5f565c9592080106c6b4d467","freq_resp","img/green_2bandit_a.png","70","70","test","","","","5","",""
"null","182121","pSARL_v2","pSARL_v2uxjpyykm","5f565c9592080106c6b4d467","fixation","img/fixation.png","null","","test","","","","","",""
"180.20000004768372","182316","pSARL_v2","pSARL_v2uxjpyykm","5f565c9592080106c6b4d467","freq","img/green_2bandit_a2.png","70","70","test","1","95","95","5","",""
"null","182964","pSARL_v2","pSARL_v2uxjpyykm","5f565c9592080106c6b4d467","freq_resp","img/green_2bandit_a.png","70","70","test","","","","5","",""
"null","183138","pSARL_v2","pSARL_v2uxjpyykm","5f565c9592080106c6b4d467","fixation","img/fixation.png","null","","test","","","","","",""
"139.29999995231628","183292","pSARL_v2","pSARL_v2uxjpyykm","5f565c9592080106c6b4d467","freq","img/green_2bandit_a2.png","70","70","test","1","96","96","5","",""
"null","183972","pSARL_v2","pSARL_v2uxjpyykm","5f565c9592080106c6b4d467","freq_resp","img/green_2bandit_a.png","70","70","test","","","","5","",""
"null","184139","pSARL_v2","pSARL_v2uxjpyykm","5f565c9592080106c6b4d467","fixation","img/fixation.png","null","","test","","","","","",""
"169.89999985694885","184323","pSARL_v2","pSARL_v2uxjpyykm","5f565c9592080106c6b4d467","freq","img/green_2bandit_a2.png","70","70","test","1","97","97","5","",""
"null","184981","pSARL_v2","pSARL_v2uxjpyykm","5f565c9592080106c6b4d467","freq_resp","img/green_2bandit_a.png","70","70","test","","","","5","",""
"null","185157","pSARL_v2","pSARL_v2uxjpyykm","5f565c9592080106c6b4d467","fixation","img/fixation.png","null","","test","","","","","",""
"30.5","185201","pSARL_v2","pSARL_v2uxjpyykm","5f565c9592080106c6b4d467","freq","img/green_2bandit_a2.png","70","70","test","1","98","98","5","",""
"null","185987","pSARL_v2","pSARL_v2uxjpyykm","5f565c9592080106c6b4d467","freq_resp","img/green_2bandit_a.png","70","70","test","","","","5","",""
"null","186162","pSARL_v2","pSARL_v2uxjpyykm","5f565c9592080106c6b4d467","fixation","img/fixation.png","null","","test","","","","","",""
"221.5","186397","pSARL_v2","pSARL_v2uxjpyykm","5f565c9592080106c6b4d467","freq","img/green_2bandit_a2.png","70","70","test","1","99","99","5","",""
"null","186999","pSARL_v2","pSARL_v2uxjpyykm","5f565c9592080106c6b4d467","freq_resp","img/green_2bandit_a.png","70","70","test","","","","5","",""
"null","187169","pSARL_v2","pSARL_v2uxjpyykm","5f565c9592080106c6b4d467","fixation","img/fixation.png","null","","test","","","","","",""
"50.09999990463257","187234","pSARL_v2","pSARL_v2uxjpyykm","5f565c9592080106c6b4d467","freq","img/green_2bandit_a2.png","70","70","test","1","100","100","5","",""
"null","188004","pSARL_v2","pSARL_v2uxjpyykm","5f565c9592080106c6b4d467","freq_resp","img/green_2bandit_a.png","70","70","test","","","","5","",""
"null","188171","pSARL_v2","pSARL_v2uxjpyykm","5f565c9592080106c6b4d467","fixation","img/fixation.png","null","","test","","","","","",""
"218.80000019073486","188405","pSARL_v2","pSARL_v2uxjpyykm","5f565c9592080106c6b4d467","freq","img/green_2bandit_a2.png","70","70","test","1","101","101","5","",""
"null","189009","pSARL_v2","pSARL_v2uxjpyykm","5f565c9592080106c6b4d467","freq_resp","img/green_2bandit_a.png","70","70","test","","","","5","",""
"null","189179","pSARL_v2","pSARL_v2uxjpyykm","5f565c9592080106c6b4d467","fixation","img/fixation.png","null","","test","","","","","",""
"151.09999990463257","189344","pSARL_v2","pSARL_v2uxjpyykm","5f565c9592080106c6b4d467","freq","img/green_2bandit_a2.png","70","70","test","1","102","102","5","",""
"null","190021","pSARL_v2","pSARL_v2uxjpyykm","5f565c9592080106c6b4d467","freq_resp","img/green_2bandit_a.png","70","70","test","","","","5","",""
"null","190189","pSARL_v2","pSARL_v2uxjpyykm","5f565c9592080106c6b4d467","fixation","img/fixation.png","null","","test","","","","","",""
"276.7000000476837","190480","pSARL_v2","pSARL_v2uxjpyykm","5f565c9592080106c6b4d467","infreq","img/orange_2bandit_a2.png","70","68","test","0","103","103","5","",""
"null","191022","pSARL_v2","pSARL_v2uxjpyykm","5f565c9592080106c6b4d467","infreq_resp","img/orange_2bandit_a.png","70","68","test","","","","5","",""
"null","191187","pSARL_v2","pSARL_v2uxjpyykm","5f565c9592080106c6b4d467","fixation","img/fixation.png","null","","test","","","","","",""
"81.30000019073486","191281","pSARL_v2","pSARL_v2uxjpyykm","5f565c9592080106c6b4d467","freq","img/green_2bandit_a2.png","68","70","test","0","104","104","5","",""
"null","192018","pSARL_v2","pSARL_v2uxjpyykm","5f565c9592080106c6b4d467","freq_resp","img/green_2bandit_a.png","68","70","test","","","","5","",""
"null","192188","pSARL_v2","pSARL_v2uxjpyykm","5f565c9592080106c6b4d467","fixation","img/fixation.png","null","","test","","","","","",""
"189","192391","pSARL_v2","pSARL_v2uxjpyykm","5f565c9592080106c6b4d467","freq","img/green_2bandit_a2.png","70","70","test","1","105","105","5","",""
"null","193025","pSARL_v2","pSARL_v2uxjpyykm","5f565c9592080106c6b4d467","freq_resp","img/green_2bandit_a.png","70","70","test","","","","5","",""
"null","193205","pSARL_v2","pSARL_v2uxjpyykm","5f565c9592080106c6b4d467","fixation","img/fixation.png","null","","test","","","","","",""
"122.59999990463257","193342","pSARL_v2","pSARL_v2uxjpyykm","5f565c9592080106c6b4d467","freq","img/green_2bandit_a2.png","70","70","test","1","106","106","5","",""
"null","194035","pSARL_v2","pSARL_v2uxjpyykm","5f565c9592080106c6b4d467","freq_resp","img/green_2bandit_a.png","70","70","test","","","","5","",""
"null","194203","pSARL_v2","pSARL_v2uxjpyykm","5f565c9592080106c6b4d467","fixation","img/fixation.png","null","","test","","","","","",""
"169.70000004768372","194387","pSARL_v2","pSARL_v2uxjpyykm","5f565c9592080106c6b4d467","freq","img/green_2bandit_a2.png","70","70","test","1","107","107","5","",""
"null","195047","pSARL_v2","pSARL_v2uxjpyykm","5f565c9592080106c6b4d467","freq_resp","img/green_2bandit_a.png","70","70","test","","","","5","",""
"null","195228","pSARL_v2","pSARL_v2uxjpyykm","5f565c9592080106c6b4d467","fixation","img/fixation.png","null","","test","","","","","",""
"66.39999985694885","195309","pSARL_v2","pSARL_v2uxjpyykm","5f565c9592080106c6b4d467","freq","img/green_2bandit_a2.png","70","70","test","1","108","108","5","",""
"null","196068","pSARL_v2","pSARL_v2uxjpyykm","5f565c9592080106c6b4d467","freq_resp","img/green_2bandit_a.png","70","70","test","","","","5","",""
"null","196243","pSARL_v2","pSARL_v2uxjpyykm","5f565c9592080106c6b4d467","fixation","img/fixation.png","null","","test","","","","","",""
"1.7000000476837158","196260","pSARL_v2","pSARL_v2uxjpyykm","5f565c9592080106c6b4d467","freq","img/green_2bandit_a2.png","70","70","test","1","109","109","5","",""
"null","197077","pSARL_v2","pSARL_v2uxjpyykm","5f565c9592080106c6b4d467","freq_resp","img/green_2bandit_a.png","70","70","test","","","","5","",""
"null","197246","pSARL_v2","pSARL_v2uxjpyykm","5f565c9592080106c6b4d467","fixation","img/fixation.png","null","","test","","","","","",""
"73.20000004768372","197334","pSARL_v2","pSARL_v2uxjpyykm","5f565c9592080106c6b4d467","freq","img/green_2bandit_a2.png","70","70","test","1","110","110","5","",""
"null","198080","pSARL_v2","pSARL_v2uxjpyykm","5f565c9592080106c6b4d467","freq_resp","img/green_2bandit_a.png","70","70","test","","","","5","",""
"null","198246","pSARL_v2","pSARL_v2uxjpyykm","5f565c9592080106c6b4d467","fixation","img/fixation.png","null","","test","","","","","",""
"113.80000019073486","198375","pSARL_v2","pSARL_v2uxjpyykm","5f565c9592080106c6b4d467","infreq","img/orange_2bandit_a2.png","70","68","test","0","111","111","5","",""
"null","199079","pSARL_v2","pSARL_v2uxjpyykm","5f565c9592080106c6b4d467","infreq_resp","img/orange_2bandit_a.png","70","68","test","","","","5","",""
"null","199248","pSARL_v2","pSARL_v2uxjpyykm","5f565c9592080106c6b4d467","fixation","img/fixation.png","null","","test","","","","","",""
"272.90000009536743","199536","pSARL_v2","pSARL_v2uxjpyykm","5f565c9592080106c6b4d467","freq","img/green_2bandit_a2.png","70","70","test","1","112","112","5","",""
"null","200087","pSARL_v2","pSARL_v2uxjpyykm","5f565c9592080106c6b4d467","freq_resp","img/green_2bandit_a.png","70","70","test","","","","5","",""
"null","200253","pSARL_v2","pSARL_v2uxjpyykm","5f565c9592080106c6b4d467","fixation","img/fixation.png","null","","test","","","","","",""
"213.29999995231628","200481","pSARL_v2","pSARL_v2uxjpyykm","5f565c9592080106c6b4d467","freq","img/green_2bandit_a2.png","70","70","test","1","113","113","5","",""
"null","201083","pSARL_v2","pSARL_v2uxjpyykm","5f565c9592080106c6b4d467","freq_resp","img/green_2bandit_a.png","70","70","test","","","","5","",""
"null","201263","pSARL_v2","pSARL_v2uxjpyykm","5f565c9592080106c6b4d467","fixation","img/fixation.png","null","","test","","","","","",""
"193.80000019073486","201471","pSARL_v2","pSARL_v2uxjpyykm","5f565c9592080106c6b4d467","freq","img/green_2bandit_a2.png","70","70","test","1","114","114","5","",""
"null","202093","pSARL_v2","pSARL_v2uxjpyykm","5f565c9592080106c6b4d467","freq_resp","img/green_2bandit_a.png","70","70","test","","","","5","",""
"null","202270","pSARL_v2","pSARL_v2uxjpyykm","5f565c9592080106c6b4d467","fixation","img/fixation.png","null","","test","","","","","",""
"237.39999985694885","202523","pSARL_v2","pSARL_v2uxjpyykm","5f565c9592080106c6b4d467","freq","img/green_2bandit_a2.png","70","70","test","1","115","115","5","",""
"null","203102","pSARL_v2","pSARL_v2uxjpyykm","5f565c9592080106c6b4d467","freq_resp","img/green_2bandit_a.png","70","70","test","","","","5","",""
"null","203278","pSARL_v2","pSARL_v2uxjpyykm","5f565c9592080106c6b4d467","fixation","img/fixation.png","null","","test","","","","","",""
"466","203758","pSARL_v2","pSARL_v2uxjpyykm","5f565c9592080106c6b4d467","reward","img/slot.png","74","","test","","","","","",""
"null","204532","pSARL_v2","pSARL_v2uxjpyykm","5f565c9592080106c6b4d467","points","<div class=""veryhighPoints""> +1 </div>","null","na","test","","","","5","1","4"
"348.09999990463257","204897","pSARL_v2","pSARL_v2uxjpyykm","5f565c9592080106c6b4d467","freq","img/green_2bandit_a2.png","70","70","test","1","116","116","6","",""
"null","205374","pSARL_v2","pSARL_v2uxjpyykm","5f565c9592080106c6b4d467","freq_resp","img/green_2bandit_a.png","70","70","test","","","","6","",""
"null","205549","pSARL_v2","pSARL_v2uxjpyykm","5f565c9592080106c6b4d467","fixation","img/fixation.png","null","","test","","","","","",""
"90.39999985694885","205656","pSARL_v2","pSARL_v2uxjpyykm","5f565c9592080106c6b4d467","freq","img/green_2bandit_a2.png","70","70","test","1","117","117","6","",""
"null","206388","pSARL_v2","pSARL_v2uxjpyykm","5f565c9592080106c6b4d467","freq_resp","img/green_2bandit_a.png","70","70","test","","","","6","",""
"null","206557","pSARL_v2","pSARL_v2uxjpyykm","5f565c9592080106c6b4d467","fixation","img/fixation.png","null","","test","","","","","",""
"97.80000019073486","206670","pSARL_v2","pSARL_v2uxjpyykm","5f565c9592080106c6b4d467","freq","img/green_2bandit_a2.png","70","70","test","1","118","118","6","",""
"null","207398","pSARL_v2","pSARL_v2uxjpyykm","5f565c9592080106c6b4d467","freq_resp","img/green_2bandit_a.png","70","70","test","","","","6","",""
"null","207570","pSARL_v2","pSARL_v2uxjpyykm","5f565c9592080106c6b4d467","fixation","img/fixation.png","null","","test","","","","","",""
"151.20000004768372","207735","pSARL_v2","pSARL_v2uxjpyykm","5f565c9592080106c6b4d467","freq","img/green_2bandit_a2.png","70","70","test","1","119","119","6","",""
"null","208411","pSARL_v2","pSARL_v2uxjpyykm","5f565c9592080106c6b4d467","freq_resp","img/green_2bandit_a.png","70","70","test","","","","6","",""
"null","208587","pSARL_v2","pSARL_v2uxjpyykm","5f565c9592080106c6b4d467","fixation","img/fixation.png","null","","test","","","","","",""
"164.79999995231628","208767","pSARL_v2","pSARL_v2uxjpyykm","5f565c9592080106c6b4d467","freq","img/green_2bandit_a2.png","70","70","test","1","120","120","6","",""
"null","209428","pSARL_v2","pSARL_v2uxjpyykm","5f565c9592080106c6b4d467","freq_resp","img/green_2bandit_a.png","70","70","test","","","","6","",""
"null","209596","pSARL_v2","pSARL_v2uxjpyykm","5f565c9592080106c6b4d467","fixation","img/fixation.png","null","","test","","","","","",""
"21.100000143051147","209631","pSARL_v2","pSARL_v2uxjpyykm","5f565c9592080106c6b4d467","freq","img/green_2bandit_a2.png","70","70","test","1","121","121","6","",""
"null","210434","pSARL_v2","pSARL_v2uxjpyykm","5f565c9592080106c6b4d467","freq_resp","img/green_2bandit_a.png","70","70","test","","","","6","",""
"null","210599","pSARL_v2","pSARL_v2uxjpyykm","5f565c9592080106c6b4d467","fixation","img/fixation.png","null","","test","","","","","",""
"319.59999990463257","210933","pSARL_v2","pSARL_v2uxjpyykm","5f565c9592080106c6b4d467","freq","img/green_2bandit_a2.png","70","70","test","1","122","122","6","",""
"null","211439","pSARL_v2","pSARL_v2uxjpyykm","5f565c9592080106c6b4d467","freq_resp","img/green_2bandit_a.png","70","70","test","","","","6","",""
"null","211612","pSARL_v2","pSARL_v2uxjpyykm","5f565c9592080106c6b4d467","fixation","img/fixation.png","null","","test","","","","","",""
"45.5","211673","pSARL_v2","pSARL_v2uxjpyykm","5f565c9592080106c6b4d467","freq","img/green_2bandit_a2.png","70","70","test","1","123","123","6","",""
"null","212450","pSARL_v2","pSARL_v2uxjpyykm","5f565c9592080106c6b4d467","freq_resp","img/green_2bandit_a.png","70","70","test","","","","6","",""
"null","212620","pSARL_v2","pSARL_v2uxjpyykm","5f565c9592080106c6b4d467","fixation","img/fixation.png","null","","test","","","","","",""
"133.5","212769","pSARL_v2","pSARL_v2uxjpyykm","5f565c9592080106c6b4d467","freq","img/green_2bandit_a2.png","70","70","test","1","124","124","6","",""
"null","213460","pSARL_v2","pSARL_v2uxjpyykm","5f565c9592080106c6b4d467","freq_resp","img/green_2bandit_a.png","70","70","test","","","","6","",""
"null","213627","pSARL_v2","pSARL_v2uxjpyykm","5f565c9592080106c6b4d467","fixation","img/fixation.png","null","","test","","","","","",""
"108.59999990463257","213756","pSARL_v2","pSARL_v2uxjpyykm","5f565c9592080106c6b4d467","freq","img/green_2bandit_a2.png","70","70","test","1","125","125","6","",""
"null","214475","pSARL_v2","pSARL_v2uxjpyykm","5f565c9592080106c6b4d467","freq_resp","img/green_2bandit_a.png","70","70","test","","","","6","",""
"null","214645","pSARL_v2","pSARL_v2uxjpyykm","5f565c9592080106c6b4d467","fixation","img/fixation.png","null","","test","","","","","",""
"159.90000009536743","214820","pSARL_v2","pSARL_v2uxjpyykm","5f565c9592080106c6b4d467","freq","img/green_2bandit_a2.png","70","70","test","1","126","126","6","",""
"null","215488","pSARL_v2","pSARL_v2uxjpyykm","5f565c9592080106c6b4d467","freq_resp","img/green_2bandit_a.png","70","70","test","","","","6","",""
"null","215655","pSARL_v2","pSARL_v2uxjpyykm","5f565c9592080106c6b4d467","fixation","img/fixation.png","null","","test","","","","","",""
"386.5","216055","pSARL_v2","pSARL_v2uxjpyykm","5f565c9592080106c6b4d467","freq","img/green_2bandit_a2.png","70","70","test","1","127","127","6","",""
"null","216487","pSARL_v2","pSARL_v2uxjpyykm","5f565c9592080106c6b4d467","freq_resp","img/green_2bandit_a.png","70","70","test","","","","6","",""
"null","216665","pSARL_v2","pSARL_v2uxjpyykm","5f565c9592080106c6b4d467","fixation","img/fixation.png","null","","test","","","","","",""
"61.799999952316284","216741","pSARL_v2","pSARL_v2uxjpyykm","5f565c9592080106c6b4d467","freq","img/green_2bandit_a2.png","70","70","test","1","128","128","6","",""
"null","217499","pSARL_v2","pSARL_v2uxjpyykm","5f565c9592080106c6b4d467","freq_resp","img/green_2bandit_a.png","70","70","test","","","","6","",""
"null","217677","pSARL_v2","pSARL_v2uxjpyykm","5f565c9592080106c6b4d467","fixation","img/fixation.png","null","","test","","","","","",""
"184.60000014305115","217876","pSARL_v2","pSARL_v2uxjpyykm","5f565c9592080106c6b4d467","freq","img/green_2bandit_a2.png","70","70","test","1","129","129","6","",""
"null","218513","pSARL_v2","pSARL_v2uxjpyykm","5f565c9592080106c6b4d467","freq_resp","img/green_2bandit_a.png","70","70","test","","","","6","",""
"null","218687","pSARL_v2","pSARL_v2uxjpyykm","5f565c9592080106c6b4d467","fixation","img/fixation.png","null","","test","","","","","",""
"70.79999995231628","218772","pSARL_v2","pSARL_v2uxjpyykm","5f565c9592080106c6b4d467","infreq","img/orange_2bandit_a2.png","70","68","test","0","130","130","6","",""
"null","219519","pSARL_v2","pSARL_v2uxjpyykm","5f565c9592080106c6b4d467","infreq_resp","img/orange_2bandit_a.png","70","68","test","","","","6","",""
"null","219686","pSARL_v2","pSARL_v2uxjpyykm","5f565c9592080106c6b4d467","fixation","img/fixation.png","null","","test","","","","","",""
"287.40000009536743","219988","pSARL_v2","pSARL_v2uxjpyykm","5f565c9592080106c6b4d467","freq","img/green_2bandit_a2.png","70","70","test","1","131","131","6","",""
"null","220529","pSARL_v2","pSARL_v2uxjpyykm","5f565c9592080106c6b4d467","freq_resp","img/green_2bandit_a.png","70","70","test","","","","6","",""
"null","220703","pSARL_v2","pSARL_v2uxjpyykm","5f565c9592080106c6b4d467","fixation","img/fixation.png","null","","test","","","","","",""
"245.70000004768372","220964","pSARL_v2","pSARL_v2uxjpyykm","5f565c9592080106c6b4d467","freq","img/green_2bandit_a2.png","70","70","test","1","132","132","6","",""
"null","221536","pSARL_v2","pSARL_v2uxjpyykm","5f565c9592080106c6b4d467","freq_resp","img/green_2bandit_a.png","70","70","test","","","","6","",""
"null","221702","pSARL_v2","pSARL_v2uxjpyykm","5f565c9592080106c6b4d467","fixation","img/fixation.png","null","","test","","","","","",""
"127.29999995231628","221844","pSARL_v2","pSARL_v2uxjpyykm","5f565c9592080106c6b4d467","infreq","img/orange_2bandit_a2.png","70","68","test","0","133","133","6","",""
"null","222543","pSARL_v2","pSARL_v2uxjpyykm","5f565c9592080106c6b4d467","infreq_resp","img/orange_2bandit_a.png","70","68","test","","","","6","",""
"null","222720","pSARL_v2","pSARL_v2uxjpyykm","5f565c9592080106c6b4d467","fixation","img/fixation.png","null","","test","","","","","",""
"250.29999995231628","222985","pSARL_v2","pSARL_v2uxjpyykm","5f565c9592080106c6b4d467","freq","img/green_2bandit_a2.png","70","70","test","1","134","134","6","",""
"null","223553","pSARL_v2","pSARL_v2uxjpyykm","5f565c9592080106c6b4d467","freq_resp","img/green_2bandit_a.png","70","70","test","","","","6","",""
"null","223728","pSARL_v2","pSARL_v2uxjpyykm","5f565c9592080106c6b4d467","fixation","img/fixation.png","null","","test","","","","","",""
"27.90000009536743","223770","pSARL_v2","pSARL_v2uxjpyykm","5f565c9592080106c6b4d467","freq","img/green_2bandit_a2.png","70","70","test","1","135","135","6","",""
"null","224563","pSARL_v2","pSARL_v2uxjpyykm","5f565c9592080106c6b4d467","freq_resp","img/green_2bandit_a.png","70","70","test","","","","6","",""
"null","224737","pSARL_v2","pSARL_v2uxjpyykm","5f565c9592080106c6b4d467","fixation","img/fixation.png","null","","test","","","","","",""
"475.59999990463257","225226","pSARL_v2","pSARL_v2uxjpyykm","5f565c9592080106c6b4d467","reward","img/slot.png","74","","test","","","","","",""
"null","225992","pSARL_v2","pSARL_v2uxjpyykm","5f565c9592080106c6b4d467","points","<div class=""verylowPoints""> -7 </div>","null","na","test","","","","6","-7","5"
"496.09999990463257","226503","pSARL_v2","pSARL_v2uxjpyykm","5f565c9592080106c6b4d467","freq","img/green_2bandit_a2.png","70","70","test","1","136","136","7","",""
"null","226832","pSARL_v2","pSARL_v2uxjpyykm","5f565c9592080106c6b4d467","freq_resp","img/green_2bandit_a.png","70","70","test","","","","7","",""
"null","227006","pSARL_v2","pSARL_v2uxjpyykm","5f565c9592080106c6b4d467","fixation","img/fixation.png","null","","test","","","","","",""
"557","227578","pSARL_v2","pSARL_v2uxjpyykm","5f565c9592080106c6b4d467","infreq","img/orange_2bandit_a2.png","70","68","test","0","137","137","7","",""
"null","227838","pSARL_v2","pSARL_v2uxjpyykm","5f565c9592080106c6b4d467","infreq_resp","img/orange_2bandit_a.png","70","68","test","","","","7","",""
"null","228007","pSARL_v2","pSARL_v2uxjpyykm","5f565c9592080106c6b4d467","fixation","img/fixation.png","null","","test","","","","","",""
"71.29999995231628","228093","pSARL_v2","pSARL_v2uxjpyykm","5f565c9592080106c6b4d467","freq","img/green_2bandit_a2.png","68","70","test","0","138","138","7","",""
"null","228844","pSARL_v2","pSARL_v2uxjpyykm","5f565c9592080106c6b4d467","freq_resp","img/green_2bandit_a.png","68","70","test","","","","7","",""
"null","229011","pSARL_v2","pSARL_v2uxjpyykm","5f565c9592080106c6b4d467","fixation","img/fixation.png","null","","test","","","","","",""
"172.09999990463257","229199","pSARL_v2","pSARL_v2uxjpyykm","5f565c9592080106c6b4d467","infreq","img/orange_2bandit_a2.png","70","68","test","0","139","139","7","",""
"null","229854","pSARL_v2","pSARL_v2uxjpyykm","5f565c9592080106c6b4d467","infreq_resp","img/orange_2bandit_a.png","70","68","test","","","","7","",""
"null","230022","pSARL_v2","pSARL_v2uxjpyykm","5f565c9592080106c6b4d467","fixation","img/fixation.png","null","","test","","","","","",""
"147.59999990463257","230187","pSARL_v2","pSARL_v2uxjpyykm","5f565c9592080106c6b4d467","freq","img/green_2bandit_a2.png","70","70","test","1","140","140","7","",""
"null","230866","pSARL_v2","pSARL_v2uxjpyykm","5f565c9592080106c6b4d467","freq_resp","img/green_2bandit_a.png","70","70","test","","","","7","",""
"null","231037","pSARL_v2","pSARL_v2uxjpyykm","5f565c9592080106c6b4d467","fixation","img/fixation.png","null","","test","","","","","",""
"89.10000014305115","231141","pSARL_v2","pSARL_v2uxjpyykm","5f565c9592080106c6b4d467","freq","img/green_2bandit_a2.png","70","70","test","1","141","141","7","",""
"null","231868","pSARL_v2","pSARL_v2uxjpyykm","5f565c9592080106c6b4d467","freq_resp","img/green_2bandit_a.png","70","70","test","","","","7","",""
"null","232033","pSARL_v2","pSARL_v2uxjpyykm","5f565c9592080106c6b4d467","fixation","img/fixation.png","null","","test","","","","","",""
"220.20000004768372","232268","pSARL_v2","pSARL_v2uxjpyykm","5f565c9592080106c6b4d467","freq","img/green_2bandit_a2.png","70","70","test","1","142","142","7","",""
"null","232873","pSARL_v2","pSARL_v2uxjpyykm","5f565c9592080106c6b4d467","freq_resp","img/green_2bandit_a.png","70","70","test","","","","7","",""
"null","233053","pSARL_v2","pSARL_v2uxjpyykm","5f565c9592080106c6b4d467","fixation","img/fixation.png","null","","test","","","","","",""
"195.69999980926514","233264","pSARL_v2","pSARL_v2uxjpyykm","5f565c9592080106c6b4d467","freq","img/green_2bandit_a2.png","70","70","test","1","143","143","7","",""
"null","233888","pSARL_v2","pSARL_v2uxjpyykm","5f565c9592080106c6b4d467","freq_resp","img/green_2bandit_a.png","70","70","test","","","","7","",""
"null","234055","pSARL_v2","pSARL_v2uxjpyykm","5f565c9592080106c6b4d467","fixation","img/fixation.png","null","","test","","","","","",""
"478.59999990463257","234550","pSARL_v2","pSARL_v2uxjpyykm","5f565c9592080106c6b4d467","freq","img/green_2bandit_a2.png","70","70","test","1","144","144","7","",""
"null","234889","pSARL_v2","pSARL_v2uxjpyykm","5f565c9592080106c6b4d467","freq_resp","img/green_2bandit_a.png","70","70","test","","","","7","",""
"null","235068","pSARL_v2","pSARL_v2uxjpyykm","5f565c9592080106c6b4d467","fixation","img/fixation.png","null","","test","","","","","",""
"60.799999952316284","235145","pSARL_v2","pSARL_v2uxjpyykm","5f565c9592080106c6b4d467","freq","img/green_2bandit_a2.png","70","70","test","1","145","145","7","",""
"null","235906","pSARL_v2","pSARL_v2uxjpyykm","5f565c9592080106c6b4d467","freq_resp","img/green_2bandit_a.png","70","70","test","","","","7","",""
"null","236081","pSARL_v2","pSARL_v2uxjpyykm","5f565c9592080106c6b4d467","fixation","img/fixation.png","null","","test","","","","","",""
"11.400000095367432","236110","pSARL_v2","pSARL_v2uxjpyykm","5f565c9592080106c6b4d467","freq","img/green_2bandit_a2.png","70","70","test","1","146","146","7","",""
"null","236915","pSARL_v2","pSARL_v2uxjpyykm","5f565c9592080106c6b4d467","freq_resp","img/green_2bandit_a.png","70","70","test","","","","7","",""
"null","237084","pSARL_v2","pSARL_v2uxjpyykm","5f565c9592080106c6b4d467","fixation","img/fixation.png","null","","test","","","","","",""
"192.59999990463257","237292","pSARL_v2","pSARL_v2uxjpyykm","5f565c9592080106c6b4d467","freq","img/green_2bandit_a2.png","70","70","test","1","147","147","7","",""
"null","237920","pSARL_v2","pSARL_v2uxjpyykm","5f565c9592080106c6b4d467","freq_resp","img/green_2bandit_a.png","70","70","test","","","","7","",""
"null","238087","pSARL_v2","pSARL_v2uxjpyykm","5f565c9592080106c6b4d467","fixation","img/fixation.png","null","","test","","","","","",""
"109.59999990463257","238211","pSARL_v2","pSARL_v2uxjpyykm","5f565c9592080106c6b4d467","freq","img/green_2bandit_a2.png","70","70","test","1","148","148","7","",""
"null","238924","pSARL_v2","pSARL_v2uxjpyykm","5f565c9592080106c6b4d467","freq_resp","img/green_2bandit_a.png","70","70","test","","","","7","",""
"null","239102","pSARL_v2","pSARL_v2uxjpyykm","5f565c9592080106c6b4d467","fixation","img/fixation.png","null","","test","","","","","",""
"110.60000014305115","239228","pSARL_v2","pSARL_v2uxjpyykm","5f565c9592080106c6b4d467","freq","img/green_2bandit_a2.png","70","70","test","1","149","149","7","",""
"null","239933","pSARL_v2","pSARL_v2uxjpyykm","5f565c9592080106c6b4d467","freq_resp","img/green_2bandit_a.png","70","70","test","","","","7","",""
"null","240108","pSARL_v2","pSARL_v2uxjpyykm","5f565c9592080106c6b4d467","fixation","img/fixation.png","null","","test","","","","","",""
"374.2999999523163","240498","pSARL_v2","pSARL_v2uxjpyykm","5f565c9592080106c6b4d467","freq","img/green_2bandit_a2.png","70","70","test","1","150","150","7","",""
"null","240949","pSARL_v2","pSARL_v2uxjpyykm","5f565c9592080106c6b4d467","freq_resp","img/green_2bandit_a.png","70","70","test","","","","7","",""
"null","241118","pSARL_v2","pSARL_v2uxjpyykm","5f565c9592080106c6b4d467","fixation","img/fixation.png","null","","test","","","","","",""
"186.5","241319","pSARL_v2","pSARL_v2uxjpyykm","5f565c9592080106c6b4d467","freq","img/green_2bandit_a2.png","70","70","test","1","151","151","7","",""
"null","241952","pSARL_v2","pSARL_v2uxjpyykm","5f565c9592080106c6b4d467","freq_resp","img/green_2bandit_a.png","70","70","test","","","","7","",""
"null","242118","pSARL_v2","pSARL_v2uxjpyykm","5f565c9592080106c6b4d467","fixation","img/fixation.png","null","","test","","","","","",""
"1.1000001430511475","242130","pSARL_v2","pSARL_v2uxjpyykm","5f565c9592080106c6b4d467","freq","img/green_2bandit_a2.png","70","70","test","1","152","152","7","",""
"null","242943","pSARL_v2","pSARL_v2uxjpyykm","5f565c9592080106c6b4d467","freq_resp","img/green_2bandit_a.png","70","70","test","","","","7","",""
"null","243116","pSARL_v2","pSARL_v2uxjpyykm","5f565c9592080106c6b4d467","fixation","img/fixation.png","null","","test","","","","","",""
"3.5999999046325684","243134","pSARL_v2","pSARL_v2uxjpyykm","5f565c9592080106c6b4d467","freq","img/green_2bandit_a2.png","70","70","test","1","153","153","7","",""
"null","243955","pSARL_v2","pSARL_v2uxjpyykm","5f565c9592080106c6b4d467","freq_resp","img/green_2bandit_a.png","70","70","test","","","","7","",""
"null","244133","pSARL_v2","pSARL_v2uxjpyykm","5f565c9592080106c6b4d467","fixation","img/fixation.png","null","","test","","","","","",""
"217.19999980926514","244365","pSARL_v2","pSARL_v2uxjpyykm","5f565c9592080106c6b4d467","freq","img/green_2bandit_a2.png","70","70","test","1","154","154","7","",""
"null","244975","pSARL_v2","pSARL_v2uxjpyykm","5f565c9592080106c6b4d467","freq_resp","img/green_2bandit_a.png","70","70","test","","","","7","",""
"null","245143","pSARL_v2","pSARL_v2uxjpyykm","5f565c9592080106c6b4d467","fixation","img/fixation.png","null","","test","","","","","",""
"114.29999995231628","245271","pSARL_v2","pSARL_v2uxjpyykm","5f565c9592080106c6b4d467","freq","img/green_2bandit_a2.png","70","70","test","1","155","155","7","",""
"null","245989","pSARL_v2","pSARL_v2uxjpyykm","5f565c9592080106c6b4d467","freq_resp","img/green_2bandit_a.png","70","70","test","","","","7","",""
"null","246155","pSARL_v2","pSARL_v2uxjpyykm","5f565c9592080106c6b4d467","fixation","img/fixation.png","null","","test","","","","","",""
"471.5","246641","pSARL_v2","pSARL_v2uxjpyykm","5f565c9592080106c6b4d467","reward","img/slot.png","74","","test","","","","","",""
"null","247410","pSARL_v2","pSARL_v2uxjpyykm","5f565c9592080106c6b4d467","points","<div class=""verylowPoints""> -6 </div>","null","na","test","","","","7","-6","6"
"296.59999990463257","247722","pSARL_v2","pSARL_v2uxjpyykm","5f565c9592080106c6b4d467","freq","img/green_2bandit_a2.png","70","70","test","1","156","156","8","",""
"null","248248","pSARL_v2","pSARL_v2uxjpyykm","5f565c9592080106c6b4d467","freq_resp","img/green_2bandit_a.png","70","70","test","","","","8","",""
"null","248416","pSARL_v2","pSARL_v2uxjpyykm","5f565c9592080106c6b4d467","fixation","img/fixation.png","null","","test","","","","","",""
"151.70000004768372","248584","pSARL_v2","pSARL_v2uxjpyykm","5f565c9592080106c6b4d467","freq","img/green_2bandit_a2.png","70","70","test","1","157","157","8","",""
"null","249252","pSARL_v2","pSARL_v2uxjpyykm","5f565c9592080106c6b4d467","freq_resp","img/green_2bandit_a.png","70","70","test","","","","8","",""
"null","249418","pSARL_v2","pSARL_v2uxjpyykm","5f565c9592080106c6b4d467","fixation","img/fixation.png","null","","test","","","","","",""
"140.70000004768372","249574","pSARL_v2","pSARL_v2uxjpyykm","5f565c9592080106c6b4d467","freq","img/green_2bandit_a2.png","70","70","test","1","158","158","8","",""
"null","250266","pSARL_v2","pSARL_v2uxjpyykm","5f565c9592080106c6b4d467","freq_resp","img/green_2bandit_a.png","70","70","test","","","","8","",""
"null","250433","pSARL_v2","pSARL_v2uxjpyykm","5f565c9592080106c6b4d467","fixation","img/fixation.png","null","","test","","","","","",""
"151.40000009536743","250599","pSARL_v2","pSARL_v2uxjpyykm","5f565c9592080106c6b4d467","freq","img/green_2bandit_a2.png","70","70","test","1","159","159","8","",""
"null","251273","pSARL_v2","pSARL_v2uxjpyykm","5f565c9592080106c6b4d467","freq_resp","img/green_2bandit_a.png","70","70","test","","","","8","",""
"null","251449","pSARL_v2","pSARL_v2uxjpyykm","5f565c9592080106c6b4d467","fixation","img/fixation.png","null","","test","","","","","",""
"125.40000009536743","251591","pSARL_v2","pSARL_v2uxjpyykm","5f565c9592080106c6b4d467","freq","img/green_2bandit_a2.png","70","70","test","1","160","160","8","",""
"null","252289","pSARL_v2","pSARL_v2uxjpyykm","5f565c9592080106c6b4d467","freq_resp","img/green_2bandit_a.png","70","70","test","","","","8","",""
"null","252468","pSARL_v2","pSARL_v2uxjpyykm","5f565c9592080106c6b4d467","fixation","img/fixation.png","null","","test","","","","","",""
"63","252545","pSARL_v2","pSARL_v2uxjpyykm","5f565c9592080106c6b4d467","freq","img/green_2bandit_a2.png","70","70","test","1","161","161","8","",""
"null","253312","pSARL_v2","pSARL_v2uxjpyykm","5f565c9592080106c6b4d467","freq_resp","img/green_2bandit_a.png","70","70","test","","","","8","",""
"null","253482","pSARL_v2","pSARL_v2uxjpyykm","5f565c9592080106c6b4d467","fixation","img/fixation.png","null","","test","","","","","",""
"84.89999985694885","253582","pSARL_v2","pSARL_v2uxjpyykm","5f565c9592080106c6b4d467","infreq","img/orange_2bandit_a2.png","70","68","test","0","162","162","8","",""
"null","254315","pSARL_v2","pSARL_v2uxjpyykm","5f565c9592080106c6b4d467","infreq_resp","img/orange_2bandit_a.png","70","68","test","","","","8","",""
"null","254488","pSARL_v2","pSARL_v2uxjpyykm","5f565c9592080106c6b4d467","fixation","img/fixation.png","null","","test","","","","","",""
"394.2999999523163","254897","pSARL_v2","pSARL_v2uxjpyykm","5f565c9592080106c6b4d467","freq","img/green_2bandit_a2.png","70","70","test","1","163","163","8","",""
"null","255332","pSARL_v2","pSARL_v2uxjpyykm","5f565c9592080106c6b4d467","freq_resp","img/green_2bandit_a.png","70","70","test","","","","8","",""
"null","255504","pSARL_v2","pSARL_v2uxjpyykm","5f565c9592080106c6b4d467","fixation","img/fixation.png","null","","test","","","","","",""
"64.39999985694885","255583","pSARL_v2","pSARL_v2uxjpyykm","5f565c9592080106c6b4d467","freq","img/green_2bandit_a2.png","70","70","test","1","164","164","8","",""
"null","256337","pSARL_v2","pSARL_v2uxjpyykm","5f565c9592080106c6b4d467","freq_resp","img/green_2bandit_a.png","70","70","test","","","","8","",""
"null","256506","pSARL_v2","pSARL_v2uxjpyykm","5f565c9592080106c6b4d467","fixation","img/fixation.png","null","","test","","","","","",""
"73.30000019073486","256594","pSARL_v2","pSARL_v2uxjpyykm","5f565c9592080106c6b4d467","freq","img/green_2bandit_a2.png","70","70","test","1","165","165","8","",""
"null","257348","pSARL_v2","pSARL_v2uxjpyykm","5f565c9592080106c6b4d467","freq_resp","img/green_2bandit_a.png","70","70","test","","","","8","",""
"null","257518","pSARL_v2","pSARL_v2uxjpyykm","5f565c9592080106c6b4d467","fixation","img/fixation.png","null","","test","","","","","",""
"70.79999995231628","257604","pSARL_v2","pSARL_v2uxjpyykm","5f565c9592080106c6b4d467","infreq","img/orange_2bandit_a2.png","70","68","test","0","166","166","8","",""
"null","258363","pSARL_v2","pSARL_v2uxjpyykm","5f565c9592080106c6b4d467","infreq_resp","img/orange_2bandit_a.png","70","68","test","","","","8","",""
"null","258537","pSARL_v2","pSARL_v2uxjpyykm","5f565c9592080106c6b4d467","fixation","img/fixation.png","null","","test","","","","","",""
"1.3000001907348633","258555","pSARL_v2","pSARL_v2uxjpyykm","5f565c9592080106c6b4d467","freq","img/green_2bandit_a2.png","68","70","test","0","167","167","8","",""
"null","259373","pSARL_v2","pSARL_v2uxjpyykm","5f565c9592080106c6b4d467","freq_resp","img/green_2bandit_a.png","68","70","test","","","","8","",""
"null","259548","pSARL_v2","pSARL_v2uxjpyykm","5f565c9592080106c6b4d467","fixation","img/fixation.png","null","","test","","","","","",""
"52.30000019073486","259615","pSARL_v2","pSARL_v2uxjpyykm","5f565c9592080106c6b4d467","freq","img/green_2bandit_a2.png","70","70","test","1","168","168","8","",""
"null","260380","pSARL_v2","pSARL_v2uxjpyykm","5f565c9592080106c6b4d467","freq_resp","img/green_2bandit_a.png","70","70","test","","","","8","",""
"null","260553","pSARL_v2","pSARL_v2uxjpyykm","5f565c9592080106c6b4d467","fixation","img/fixation.png","null","","test","","","","","",""
"293","260862","pSARL_v2","pSARL_v2uxjpyykm","5f565c9592080106c6b4d467","freq","img/green_2bandit_a2.png","70","70","test","1","169","169","8","",""
"null","261401","pSARL_v2","pSARL_v2uxjpyykm","5f565c9592080106c6b4d467","freq_resp","img/green_2bandit_a.png","70","70","test","","","","8","",""
"null","261563","pSARL_v2","pSARL_v2uxjpyykm","5f565c9592080106c6b4d467","fixation","img/fixation.png","null","","test","","","","","",""
"108.30000019073486","261682","pSARL_v2","pSARL_v2uxjpyykm","5f565c9592080106c6b4d467","freq","img/green_2bandit_a2.png","70","70","test","1","170","170","8","",""
"null","262394","pSARL_v2","pSARL_v2uxjpyykm","5f565c9592080106c6b4d467","freq_resp","img/green_2bandit_a.png","70","70","test","","","","8","",""
"null","262571","pSARL_v2","pSARL_v2uxjpyykm","5f565c9592080106c6b4d467","fixation","img/fixation.png","null","","test","","","","","",""
"191.5","262778","pSARL_v2","pSARL_v2uxjpyykm","5f565c9592080106c6b4d467","freq","img/green_2bandit_a2.png","70","70","test","1","171","171","8","",""
"null","263405","pSARL_v2","pSARL_v2uxjpyykm","5f565c9592080106c6b4d467","freq_resp","img/green_2bandit_a.png","70","70","test","","","","8","",""
"null","263583","pSARL_v2","pSARL_v2uxjpyykm","5f565c9592080106c6b4d467","fixation","img/fixation.png","null","","test","","","","","",""
"88.79999995231628","263688","pSARL_v2","pSARL_v2uxjpyykm","5f565c9592080106c6b4d467","freq","img/green_2bandit_a2.png","70","70","test","1","172","172","8","",""
"null","264415","pSARL_v2","pSARL_v2uxjpyykm","5f565c9592080106c6b4d467","freq_resp","img/green_2bandit_a.png","70","70","test","","","","8","",""
"null","264586","pSARL_v2","pSARL_v2uxjpyykm","5f565c9592080106c6b4d467","fixation","img/fixation.png","null","","test","","","","","",""
"42.59999990463257","264644","pSARL_v2","pSARL_v2uxjpyykm","5f565c9592080106c6b4d467","freq","img/green_2bandit_a2.png","70","70","test","1","173","173","8","",""
"null","265428","pSARL_v2","pSARL_v2uxjpyykm","5f565c9592080106c6b4d467","freq_resp","img/green_2bandit_a.png","70","70","test","","","","8","",""
"null","265606","pSARL_v2","pSARL_v2uxjpyykm","5f565c9592080106c6b4d467","fixation","img/fixation.png","null","","test","","","","","",""
"202.20000004768372","265824","pSARL_v2","pSARL_v2uxjpyykm","5f565c9592080106c6b4d467","freq","img/green_2bandit_a2.png","70","70","test","1","174","174","8","",""
"null","266451","pSARL_v2","pSARL_v2uxjpyykm","5f565c9592080106c6b4d467","freq_resp","img/green_2bandit_a.png","70","70","test","","","","8","",""
"null","266622","pSARL_v2","pSARL_v2uxjpyykm","5f565c9592080106c6b4d467","fixation","img/fixation.png","null","","test","","","","","",""
"598.7000000476837","267235","pSARL_v2","pSARL_v2uxjpyykm","5f565c9592080106c6b4d467","reward","img/slot.png","74","","test","","","","","",""
"null","268013","pSARL_v2","pSARL_v2uxjpyykm","5f565c9592080106c6b4d467","points","<div class=""verylowPoints""> -4 </div>","null","na","test","","","","8","-4","7"
"122","268152","pSARL_v2","pSARL_v2uxjpyykm","5f565c9592080106c6b4d467","freq","img/green_2bandit_a2.png","70","70","test","1","175","175","9","",""
"null","268854","pSARL_v2","pSARL_v2uxjpyykm","5f565c9592080106c6b4d467","freq_resp","img/green_2bandit_a.png","70","70","test","","","","9","",""
"null","269033","pSARL_v2","pSARL_v2uxjpyykm","5f565c9592080106c6b4d467","fixation","img/fixation.png","null","","test","","","","","",""
"132.39999985694885","269181","pSARL_v2","pSARL_v2uxjpyykm","5f565c9592080106c6b4d467","infreq","img/orange_2bandit_a2.png","70","68","test","0","176","176","9","",""
"null","269878","pSARL_v2","pSARL_v2uxjpyykm","5f565c9592080106c6b4d467","infreq_resp","img/orange_2bandit_a.png","70","68","test","","","","9","",""
"null","270055","pSARL_v2","pSARL_v2uxjpyykm","5f565c9592080106c6b4d467","fixation","img/fixation.png","null","","test","","","","","",""
"120.70000004768372","270192","pSARL_v2","pSARL_v2uxjpyykm","5f565c9592080106c6b4d467","freq","img/green_2bandit_a2.png","70","70","test","1","177","177","9","",""
"null","270892","pSARL_v2","pSARL_v2uxjpyykm","5f565c9592080106c6b4d467","freq_resp","img/green_2bandit_a.png","70","70","test","","","","9","",""
"null","271059","pSARL_v2","pSARL_v2uxjpyykm","5f565c9592080106c6b4d467","fixation","img/fixation.png","null","","test","","","","","",""
"163.89999985694885","271237","pSARL_v2","pSARL_v2uxjpyykm","5f565c9592080106c6b4d467","freq","img/green_2bandit_a2.png","70","70","test","1","178","178","9","",""
"null","271899","pSARL_v2","pSARL_v2uxjpyykm","5f565c9592080106c6b4d467","freq_resp","img/green_2bandit_a.png","70","70","test","","","","9","",""
"null","272066","pSARL_v2","pSARL_v2uxjpyykm","5f565c9592080106c6b4d467","fixation","img/fixation.png","null","","test","","","","","",""
"151.20000004768372","272234","pSARL_v2","pSARL_v2uxjpyykm","5f565c9592080106c6b4d467","freq","img/green_2bandit_a2.png","70","70","test","1","179","179","9","",""
"null","272897","pSARL_v2","pSARL_v2uxjpyykm","5f565c9592080106c6b4d467","freq_resp","img/green_2bandit_a.png","70","70","test","","","","9","",""
"null","273067","pSARL_v2","pSARL_v2uxjpyykm","5f565c9592080106c6b4d467","fixation","img/fixation.png","null","","test","","","","","",""
"166.60000014305115","273249","pSARL_v2","pSARL_v2uxjpyykm","5f565c9592080106c6b4d467","freq","img/green_2bandit_a2.png","70","70","test","1","180","180","9","",""
"null","273901","pSARL_v2","pSARL_v2uxjpyykm","5f565c9592080106c6b4d467","freq_resp","img/green_2bandit_a.png","70","70","test","","","","9","",""
"null","274067","pSARL_v2","pSARL_v2uxjpyykm","5f565c9592080106c6b4d467","fixation","img/fixation.png","null","","test","","","","","",""
"387.2999999523163","274469","pSARL_v2","pSARL_v2uxjpyykm","5f565c9592080106c6b4d467","freq","img/green_2bandit_a2.png","70","70","test","1","181","181","9","",""
"null","274902","pSARL_v2","pSARL_v2uxjpyykm","5f565c9592080106c6b4d467","freq_resp","img/green_2bandit_a.png","70","70","test","","","","9","",""
"null","275072","pSARL_v2","pSARL_v2uxjpyykm","5f565c9592080106c6b4d467","fixation","img/fixation.png","null","","test","","","","","",""
"328","275416","pSARL_v2","pSARL_v2uxjpyykm","5f565c9592080106c6b4d467","freq","img/green_2bandit_a2.png","70","70","test","1","182","182","9","",""
"null","275918","pSARL_v2","pSARL_v2uxjpyykm","5f565c9592080106c6b4d467","freq_resp","img/green_2bandit_a.png","70","70","test","","","","9","",""
"null","276101","pSARL_v2","pSARL_v2uxjpyykm","5f565c9592080106c6b4d467","fixation","img/fixation.png","null","","test","","","","","",""
"238.10000014305115","276356","pSARL_v2","pSARL_v2uxjpyykm","5f565c9592080106c6b4d467","freq","img/green_2bandit_a2.png","70","70","test","1","183","183","9","",""
"null","276938","pSARL_v2","pSARL_v2uxjpyykm","5f565c9592080106c6b4d467","freq_resp","img/green_2bandit_a.png","70","70","test","","","","9","",""
"null","277108","pSARL_v2","pSARL_v2uxjpyykm","5f565c9592080106c6b4d467","fixation","img/fixation.png","null","","test","","","","","",""
"433.19999980926514","277556","pSARL_v2","pSARL_v2uxjpyykm","5f565c9592080106c6b4d467","freq","img/green_2bandit_a2.png","70","70","test","1","184","184","9","",""
"null","277953","pSARL_v2","pSARL_v2uxjpyykm","5f565c9592080106c6b4d467","freq_resp","img/green_2bandit_a.png","70","70","test","","","","9","",""
"null","278133","pSARL_v2","pSARL_v2uxjpyykm","5f565c9592080106c6b4d467","fixation","img/fixation.png","null","","test","","","","","",""
"23.299999952316284","278171","pSARL_v2","pSARL_v2uxjpyykm","5f565c9592080106c6b4d467","freq","img/green_2bandit_a2.png","70","70","test","1","185","185","9","",""
"null","278975","pSARL_v2","pSARL_v2uxjpyykm","5f565c9592080106c6b4d467","freq_resp","img/green_2bandit_a.png","70","70","test","","","","9","",""
"null","279146","pSARL_v2","pSARL_v2uxjpyykm","5f565c9592080106c6b4d467","fixation","img/fixation.png","null","","test","","","","","",""
"86.10000014305115","279247","pSARL_v2","pSARL_v2uxjpyykm","5f565c9592080106c6b4d467","freq","img/green_2bandit_a2.png","70","70","test","1","186","186","9","",""
"null","279988","pSARL_v2","pSARL_v2uxjpyykm","5f565c9592080106c6b4d467","freq_resp","img/green_2bandit_a.png","70","70","test","","","","9","",""
"null","280153","pSARL_v2","pSARL_v2uxjpyykm","5f565c9592080106c6b4d467","fixation","img/fixation.png","null","","test","","","","","",""
"89.40000009536743","280258","pSARL_v2","pSARL_v2uxjpyykm","5f565c9592080106c6b4d467","freq","img/green_2bandit_a2.png","70","70","test","1","187","187","9","",""
"null","280990","pSARL_v2","pSARL_v2uxjpyykm","5f565c9592080106c6b4d467","freq_resp","img/green_2bandit_a.png","70","70","test","","","","9","",""
"null","281169","pSARL_v2","pSARL_v2uxjpyykm","5f565c9592080106c6b4d467","fixation","img/fixation.png","null","","test","","","","","",""
"96.39999985694885","281281","pSARL_v2","pSARL_v2uxjpyykm","5f565c9592080106c6b4d467","freq","img/green_2bandit_a2.png","70","70","test","1","188","188","9","",""
"null","282009","pSARL_v2","pSARL_v2uxjpyykm","5f565c9592080106c6b4d467","freq_resp","img/green_2bandit_a.png","70","70","test","","","","9","",""
"null","282179","pSARL_v2","pSARL_v2uxjpyykm","5f565c9592080106c6b4d467","fixation","img/fixation.png","null","","test","","","","","",""
"14.799999952316284","282209","pSARL_v2","pSARL_v2uxjpyykm","5f565c9592080106c6b4d467","infreq","img/orange_2bandit_a2.png","70","68","test","0","189","189","9","",""
"null","283013","pSARL_v2","pSARL_v2uxjpyykm","5f565c9592080106c6b4d467","infreq_resp","img/orange_2bandit_a.png","70","68","test","","","","9","",""
"null","283182","pSARL_v2","pSARL_v2uxjpyykm","5f565c9592080106c6b4d467","fixation","img/fixation.png","null","","test","","","","","",""
"124","283321","pSARL_v2","pSARL_v2uxjpyykm","5f565c9592080106c6b4d467","freq","img/green_2bandit_a2.png","70","70","test","1","190","190","9","",""
"null","284029","pSARL_v2","pSARL_v2uxjpyykm","5f565c9592080106c6b4d467","freq_resp","img/green_2bandit_a.png","70","70","test","","","","9","",""
"null","284209","pSARL_v2","pSARL_v2uxjpyykm","5f565c9592080106c6b4d467","fixation","img/fixation.png","null","","test","","","","","",""
"132.70000004768372","284356","pSARL_v2","pSARL_v2uxjpyykm","5f565c9592080106c6b4d467","freq","img/green_2bandit_a2.png","70","70","test","1","191","191","9","",""
"null","285044","pSARL_v2","pSARL_v2uxjpyykm","5f565c9592080106c6b4d467","freq_resp","img/green_2bandit_a.png","70","70","test","","","","9","",""
"null","285219","pSARL_v2","pSARL_v2uxjpyykm","5f565c9592080106c6b4d467","fixation","img/fixation.png","null","","test","","","","","",""
"58.39999985694885","285293","pSARL_v2","pSARL_v2uxjpyykm","5f565c9592080106c6b4d467","freq","img/green_2bandit_a2.png","70","70","test","1","192","192","9","",""
"null","286062","pSARL_v2","pSARL_v2uxjpyykm","5f565c9592080106c6b4d467","freq_resp","img/green_2bandit_a.png","70","70","test","","","","9","",""
"null","286231","pSARL_v2","pSARL_v2uxjpyykm","5f565c9592080106c6b4d467","fixation","img/fixation.png","null","","test","","","","","",""
"256.19999980926514","286503","pSARL_v2","pSARL_v2uxjpyykm","5f565c9592080106c6b4d467","freq","img/green_2bandit_a2.png","70","70","test","1","193","193","9","",""
"null","287078","pSARL_v2","pSARL_v2uxjpyykm","5f565c9592080106c6b4d467","freq_resp","img/green_2bandit_a.png","70","70","test","","","","9","",""
"null","287247","pSARL_v2","pSARL_v2uxjpyykm","5f565c9592080106c6b4d467","fixation","img/fixation.png","null","","test","","","","","",""
"101.20000004768372","287364","pSARL_v2","pSARL_v2uxjpyykm","5f565c9592080106c6b4d467","freq","img/green_2bandit_a2.png","70","70","test","1","194","194","9","",""
"null","288089","pSARL_v2","pSARL_v2uxjpyykm","5f565c9592080106c6b4d467","freq_resp","img/green_2bandit_a.png","70","70","test","","","","9","",""
"null","288256","pSARL_v2","pSARL_v2uxjpyykm","5f565c9592080106c6b4d467","fixation","img/fixation.png","null","","test","","","","","",""
"247.59999990463257","288519","pSARL_v2","pSARL_v2uxjpyykm","5f565c9592080106c6b4d467","freq","img/green_2bandit_a2.png","70","70","test","1","195","195","9","",""
"null","289089","pSARL_v2","pSARL_v2uxjpyykm","5f565c9592080106c6b4d467","freq_resp","img/green_2bandit_a.png","70","70","test","","","","9","",""
"null","289266","pSARL_v2","pSARL_v2uxjpyykm","5f565c9592080106c6b4d467","fixation","img/fixation.png","null","","test","","","","","",""
"48.5","289329","pSARL_v2","pSARL_v2uxjpyykm","5f565c9592080106c6b4d467","freq","img/green_2bandit_a2.png","70","70","test","1","196","196","9","",""
"null","290111","pSARL_v2","pSARL_v2uxjpyykm","5f565c9592080106c6b4d467","freq_resp","img/green_2bandit_a.png","70","70","test","","","","9","",""
"null","290285","pSARL_v2","pSARL_v2uxjpyykm","5f565c9592080106c6b4d467","fixation","img/fixation.png","null","","test","","","","","",""
"203.70000004768372","290505","pSARL_v2","pSARL_v2uxjpyykm","5f565c9592080106c6b4d467","freq","img/green_2bandit_a2.png","70","70","test","1","197","197","9","",""
"null","291119","pSARL_v2","pSARL_v2uxjpyykm","5f565c9592080106c6b4d467","freq_resp","img/green_2bandit_a.png","70","70","test","","","","9","",""
"null","291299","pSARL_v2","pSARL_v2uxjpyykm","5f565c9592080106c6b4d467","fixation","img/fixation.png","null","","test","","","","","",""
"156.29999995231628","291470","pSARL_v2","pSARL_v2uxjpyykm","5f565c9592080106c6b4d467","freq","img/green_2bandit_a2.png","70","70","test","1","198","198","9","",""
"null","292134","pSARL_v2","pSARL_v2uxjpyykm","5f565c9592080106c6b4d467","freq_resp","img/green_2bandit_a.png","70","70","test","","","","9","",""
"null","292301","pSARL_v2","pSARL_v2uxjpyykm","5f565c9592080106c6b4d467","fixation","img/fixation.png","null","","test","","","","","",""
"254.70000004768372","292571","pSARL_v2","pSARL_v2uxjpyykm","5f565c9592080106c6b4d467","freq","img/green_2bandit_a2.png","70","70","test","1","199","199","9","",""
"null","293141","pSARL_v2","pSARL_v2uxjpyykm","5f565c9592080106c6b4d467","freq_resp","img/green_2bandit_a.png","70","70","test","","","","9","",""
"null","293313","pSARL_v2","pSARL_v2uxjpyykm","5f565c9592080106c6b4d467","fixation","img/fixation.png","null","","test","","","","","",""
"454.7999999523163","293782","pSARL_v2","pSARL_v2uxjpyykm","5f565c9592080106c6b4d467","reward","img/slot.png","74","","test","","","","","",""
"null","294551","pSARL_v2","pSARL_v2uxjpyykm","5f565c9592080106c6b4d467","points","<div class=""verylowPoints""> -3 </div>","null","na","test","","","","9","-3","8"
"370.60000014305115","294937","pSARL_v2","pSARL_v2uxjpyykm","5f565c9592080106c6b4d467","freq","img/green_2bandit_a2.png","70","70","test","1","200","200","10","",""
"null","295386","pSARL_v2","pSARL_v2uxjpyykm","5f565c9592080106c6b4d467","freq_resp","img/green_2bandit_a.png","70","70","test","","","","10","",""
"null","295563","pSARL_v2","pSARL_v2uxjpyykm","5f565c9592080106c6b4d467","fixation","img/fixation.png","null","","test","","","","","",""
"19.100000143051147","295598","pSARL_v2","pSARL_v2uxjpyykm","5f565c9592080106c6b4d467","infreq","img/orange_2bandit_a2.png","70","68","test","0","201","201","10","",""
"null","296405","pSARL_v2","pSARL_v2uxjpyykm","5f565c9592080106c6b4d467","infreq_resp","img/orange_2bandit_a.png","70","68","test","","","","10","",""
"null","296580","pSARL_v2","pSARL_v2uxjpyykm","5f565c9592080106c6b4d467","fixation","img/fixation.png","null","","test","","","","","",""
"100.59999990463257","296697","pSARL_v2","pSARL_v2uxjpyykm","5f565c9592080106c6b4d467","infreq","img/orange_2bandit_a2.png","70","68","test","0","202","202","10","",""
"null","297421","pSARL_v2","pSARL_v2uxjpyykm","5f565c9592080106c6b4d467","infreq_resp","img/orange_2bandit_a.png","70","68","test","","","","10","",""
"null","297588","pSARL_v2","pSARL_v2uxjpyykm","5f565c9592080106c6b4d467","fixation","img/fixation.png","null","","test","","","","","",""
"79.90000009536743","297684","pSARL_v2","pSARL_v2uxjpyykm","5f565c9592080106c6b4d467","freq","img/green_2bandit_a2.png","68","70","test","0","203","203","10","",""
"null","298423","pSARL_v2","pSARL_v2uxjpyykm","5f565c9592080106c6b4d467","freq_resp","img/green_2bandit_a.png","68","70","test","","","","10","",""
"null","298596","pSARL_v2","pSARL_v2uxjpyykm","5f565c9592080106c6b4d467","fixation","img/fixation.png","null","","test","","","","","",""
"253.09999990463257","298865","pSARL_v2","pSARL_v2uxjpyykm","5f565c9592080106c6b4d467","freq","img/green_2bandit_a2.png","70","70","test","1","204","204","10","",""
