"rt","time_elapsed","expId","subject","prolificID","trialType","stimulus","key_press","corrresp","phase","corr","trialNum","attentionRunNum","blockNum","points","rlNum"
"8289.400000035763","8296","pSARL_v2","pSARL_v2so48nfxd","650353f26c87883d93c42b60","","","","","","","","","","",""
"","10973","pSARL_v2","pSARL_v2so48nfxd","650353f26c87883d93c42b60","fullscreen","","","","","","","","","",""
"92145.29999995232","103123","pSARL_v2","pSARL_v2so48nfxd","650353f26c87883d93c42b60","","","","","","","","","","",""
"null","103944","pSARL_v2","pSARL_v2so48nfxd","650353f26c87883d93c42b60","freqPrac","img/orange_2bandit_b2.png","null","70","prac","0","","","","",""
"null","104953","pSARL_v2","pSARL_v2so48nfxd","650353f26c87883d93c42b60","feedback","img/tooSlow.png","null","na","prac","","","","","",""
"null","105110","pSARL_v2","pSARL_v2so48nfxd","650353f26c87883d93c42b60","fixation","img/fixation.png","null","","prac","","","","","",""
"461.9000000357628","105576","pSARL_v2","pSARL_v2so48nfxd","650353f26c87883d93c42b60","infreqPrac","img/green_2bandit_b2.png","68","68","prac","1","","","","",""
"461.9000000357628","105922","pSARL_v2","pSARL_v2so48nfxd","650353f26c87883d93c42b60","infreqPrac_resp","img/green_2bandit_b.png","68","68","prac","","","","","",""
"null","106092","pSARL_v2","pSARL_v2so48nfxd","650353f26c87883d93c42b60","fixation","img/fixation.png","null","","prac","","","","","",""
"449.5","106546","pSARL_v2","pSARL_v2so48nfxd","650353f26c87883d93c42b60","freqPrac","img/orange_2bandit_b2.png","70","70","prac","1","","","","",""
"449.5","106902","pSARL_v2","pSARL_v2so48nfxd","650353f26c87883d93c42b60","freqPrac_resp","img/orange_2bandit_b.png","70","70","prac","","","","","",""
"null","107057","pSARL_v2","pSARL_v2so48nfxd","650353f26c87883d93c42b60","fixation","img/fixation.png","null","","prac","","","","","",""
"289.80000001192093","107351","pSARL_v2","pSARL_v2so48nfxd","650353f26c87883d93c42b60","infreqPrac","img/green_2bandit_b2.png","68","68","prac","1","","","","",""
"289.80000001192093","107871","pSARL_v2","pSARL_v2so48nfxd","650353f26c87883d93c42b60","infreqPrac_resp","img/green_2bandit_b.png","68","68","prac","","","","","",""
"null","108026","pSARL_v2","pSARL_v2so48nfxd","650353f26c87883d93c42b60","fixation","img/fixation.png","null","","prac","","","","","",""
"496.2999999523163","108526","pSARL_v2","pSARL_v2so48nfxd","650353f26c87883d93c42b60","infreqPrac","img/green_2bandit_b2.png","68","68","prac","1","","","","",""
"496.2999999523163","108838","pSARL_v2","pSARL_v2so48nfxd","650353f26c87883d93c42b60","infreqPrac_resp","img/green_2bandit_b.png","68","68","prac","","","","","",""
"null","108995","pSARL_v2","pSARL_v2so48nfxd","650353f26c87883d93c42b60","fixation","img/fixation.png","null","","prac","","","","","",""
"377.60000002384186","109377","pSARL_v2","pSARL_v2so48nfxd","650353f26c87883d93c42b60","infreqPrac","img/green_2bandit_b2.png","68","68","prac","1","","","","",""
"377.60000002384186","109812","pSARL_v2","pSARL_v2so48nfxd","650353f26c87883d93c42b60","infreqPrac_resp","img/green_2bandit_b.png","68","68","prac","","","","","",""
"null","109967","pSARL_v2","pSARL_v2so48nfxd","650353f26c87883d93c42b60","fixation","img/fixation.png","null","","prac","","","","","",""
"422.0999999642372","110393","pSARL_v2","pSARL_v2so48nfxd","650353f26c87883d93c42b60","freqPrac","img/orange_2bandit_b2.png","70","70","prac","1","","","","",""
"422.0999999642372","110781","pSARL_v2","pSARL_v2so48nfxd","650353f26c87883d93c42b60","freqPrac_resp","img/orange_2bandit_b.png","70","70","prac","","","","","",""
"null","110950","pSARL_v2","pSARL_v2so48nfxd","650353f26c87883d93c42b60","fixation","img/fixation.png","null","","prac","","","","","",""
"520.8999999761581","111475","pSARL_v2","pSARL_v2so48nfxd","650353f26c87883d93c42b60","infreqPrac","img/green_2bandit_b2.png","68","68","prac","1","","","","",""
"520.8999999761581","111771","pSARL_v2","pSARL_v2so48nfxd","650353f26c87883d93c42b60","infreqPrac_resp","img/green_2bandit_b.png","68","68","prac","","","","","",""
"null","111927","pSARL_v2","pSARL_v2so48nfxd","650353f26c87883d93c42b60","fixation","img/fixation.png","null","","prac","","","","","",""
"384.30000001192093","112316","pSARL_v2","pSARL_v2so48nfxd","650353f26c87883d93c42b60","freqPrac","img/orange_2bandit_b2.png","70","70","prac","1","","","","",""
"384.30000001192093","112737","pSARL_v2","pSARL_v2so48nfxd","650353f26c87883d93c42b60","freqPrac_resp","img/orange_2bandit_b.png","70","70","prac","","","","","",""
"null","112891","pSARL_v2","pSARL_v2so48nfxd","650353f26c87883d93c42b60","fixation","img/fixation.png","null","","prac","","","","","",""
"368","113264","pSARL_v2","pSARL_v2so48nfxd","650353f26c87883d93c42b60","freqPrac","img/orange_2bandit_b2.png","70","70","prac","1","","","","",""
"368","113700","pSARL_v2","pSARL_v2so48nfxd","650353f26c87883d93c42b60","freqPrac_resp","img/orange_2bandit_b.png","70","70","prac","","","","","",""
"null","113856","pSARL_v2","pSARL_v2so48nfxd","650353f26c87883d93c42b60","fixation","img/fixation.png","null","","prac","","","","","",""
"33673.5","147534","pSARL_v2","pSARL_v2so48nfxd","650353f26c87883d93c42b60","","","","","prac","","","","","",""
"457.39999997615814","147997","pSARL_v2","pSARL_v2so48nfxd","650353f26c87883d93c42b60","rewardPractice","img/slot.png","74","","prac","","","","","",""
"null","148755","pSARL_v2","pSARL_v2so48nfxd","650353f26c87883d93c42b60","feedback","<div class=""veryhighPoints""> +15 </div>","null","na","prac","","","","","",""
"null","148911","pSARL_v2","pSARL_v2so48nfxd","650353f26c87883d93c42b60","fixation","img/fixation.png","null","","prac","","","","","",""
"6581.699999988079","155495","pSARL_v2","pSARL_v2so48nfxd","650353f26c87883d93c42b60","","","","","prac","","","","","",""
"738.3000000119209","156237","pSARL_v2","pSARL_v2so48nfxd","650353f26c87883d93c42b60","freq","img/orange_2bandit_b2.png","70","70","test","1","1","1","1","",""
"null","156312","pSARL_v2","pSARL_v2so48nfxd","650353f26c87883d93c42b60","freq_resp","img/orange_2bandit_b.png","70","70","test","","","","1","",""
"null","156467","pSARL_v2","pSARL_v2so48nfxd","650353f26c87883d93c42b60","fixation","img/fixation.png","null","","test","","","","","",""
"369.89999997615814","156840","pSARL_v2","pSARL_v2so48nfxd","650353f26c87883d93c42b60","freq","img/orange_2bandit_b2.png","70","70","test","1","2","2","1","",""
"null","157353","pSARL_v2","pSARL_v2so48nfxd","650353f26c87883d93c42b60","freq_resp","img/orange_2bandit_b.png","70","70","test","","","","1","",""
"null","157520","pSARL_v2","pSARL_v2so48nfxd","650353f26c87883d93c42b60","fixation","img/fixation.png","null","","test","","","","","",""
"322.7999999523163","157847","pSARL_v2","pSARL_v2so48nfxd","650353f26c87883d93c42b60","freq","img/orange_2bandit_b2.png","70","70","test","1","3","3","1","",""
"null","158344","pSARL_v2","pSARL_v2so48nfxd","650353f26c87883d93c42b60","freq_resp","img/orange_2bandit_b.png","70","70","test","","","","1","",""
"null","158514","pSARL_v2","pSARL_v2so48nfxd","650353f26c87883d93c42b60","fixation","img/fixation.png","null","","test","","","","","",""
"562","159080","pSARL_v2","pSARL_v2so48nfxd","650353f26c87883d93c42b60","freq","img/orange_2bandit_b2.png","70","70","test","1","4","4","1","",""
"null","159326","pSARL_v2","pSARL_v2so48nfxd","650353f26c87883d93c42b60","freq_resp","img/orange_2bandit_b.png","70","70","test","","","","1","",""
"null","159481","pSARL_v2","pSARL_v2so48nfxd","650353f26c87883d93c42b60","fixation","img/fixation.png","null","","test","","","","","",""
"561.9000000357628","160047","pSARL_v2","pSARL_v2so48nfxd","650353f26c87883d93c42b60","freq","img/orange_2bandit_b2.png","70","70","test","1","5","5","1","",""
"null","160292","pSARL_v2","pSARL_v2so48nfxd","650353f26c87883d93c42b60","freq_resp","img/orange_2bandit_b.png","70","70","test","","","","1","",""
"null","160448","pSARL_v2","pSARL_v2so48nfxd","650353f26c87883d93c42b60","fixation","img/fixation.png","null","","test","","","","","",""
"443.5999999642372","160897","pSARL_v2","pSARL_v2so48nfxd","650353f26c87883d93c42b60","freq","img/orange_2bandit_b2.png","70","70","test","1","6","6","1","",""
"null","161257","pSARL_v2","pSARL_v2so48nfxd","650353f26c87883d93c42b60","freq_resp","img/orange_2bandit_b.png","70","70","test","","","","1","",""
"null","161414","pSARL_v2","pSARL_v2so48nfxd","650353f26c87883d93c42b60","fixation","img/fixation.png","null","","test","","","","","",""
"317.5999999642372","161736","pSARL_v2","pSARL_v2so48nfxd","650353f26c87883d93c42b60","freq","img/orange_2bandit_b2.png","70","70","test","1","7","7","1","",""
"null","162231","pSARL_v2","pSARL_v2so48nfxd","650353f26c87883d93c42b60","freq_resp","img/orange_2bandit_b.png","70","70","test","","","","1","",""
"null","162400","pSARL_v2","pSARL_v2so48nfxd","650353f26c87883d93c42b60","fixation","img/fixation.png","null","","test","","","","","",""
"576.6000000238419","162981","pSARL_v2","pSARL_v2so48nfxd","650353f26c87883d93c42b60","infreq","img/green_2bandit_b2.png","68","68","test","1","8","8","1","",""
"null","163209","pSARL_v2","pSARL_v2so48nfxd","650353f26c87883d93c42b60","infreq_resp","img/green_2bandit_b.png","68","68","test","","","","1","",""
"null","163366","pSARL_v2","pSARL_v2so48nfxd","650353f26c87883d93c42b60","fixation","img/fixation.png","null","","test","","","","","",""
"446.89999997615814","163817","pSARL_v2","pSARL_v2so48nfxd","650353f26c87883d93c42b60","freq","img/orange_2bandit_b2.png","70","70","test","1","9","9","1","",""
"null","164188","pSARL_v2","pSARL_v2so48nfxd","650353f26c87883d93c42b60","freq_resp","img/orange_2bandit_b.png","70","70","test","","","","1","",""
"null","164350","pSARL_v2","pSARL_v2so48nfxd","650353f26c87883d93c42b60","fixation","img/fixation.png","null","","test","","","","","",""
"434.9000000357628","164791","pSARL_v2","pSARL_v2so48nfxd","650353f26c87883d93c42b60","freq","img/orange_2bandit_b2.png","70","70","test","1","10","10","1","",""
"null","165161","pSARL_v2","pSARL_v2so48nfxd","650353f26c87883d93c42b60","freq_resp","img/orange_2bandit_b.png","70","70","test","","","","1","",""
"null","165317","pSARL_v2","pSARL_v2so48nfxd","650353f26c87883d93c42b60","fixation","img/fixation.png","null","","test","","","","","",""
"315.0999999642372","165638","pSARL_v2","pSARL_v2so48nfxd","650353f26c87883d93c42b60","freq","img/orange_2bandit_b2.png","70","70","test","1","11","11","1","",""
"null","166133","pSARL_v2","pSARL_v2so48nfxd","650353f26c87883d93c42b60","freq_resp","img/orange_2bandit_b.png","70","70","test","","","","1","",""
"null","166288","pSARL_v2","pSARL_v2so48nfxd","650353f26c87883d93c42b60","fixation","img/fixation.png","null","","test","","","","","",""
"403.69999998807907","166697","pSARL_v2","pSARL_v2so48nfxd","650353f26c87883d93c42b60","freq","img/orange_2bandit_b2.png","70","70","test","1","12","12","1","",""
"null","167232","pSARL_v2","pSARL_v2so48nfxd","650353f26c87883d93c42b60","freq_resp","img/orange_2bandit_b.png","70","70","test","","","","1","",""
"null","167388","pSARL_v2","pSARL_v2so48nfxd","650353f26c87883d93c42b60","fixation","img/fixation.png","null","","test","","","","","",""
"400.30000001192093","167792","pSARL_v2","pSARL_v2so48nfxd","650353f26c87883d93c42b60","freq","img/orange_2bandit_b2.png","70","70","test","1","13","13","1","",""
"null","168200","pSARL_v2","pSARL_v2so48nfxd","650353f26c87883d93c42b60","freq_resp","img/orange_2bandit_b.png","70","70","test","","","","1","",""
"null","168369","pSARL_v2","pSARL_v2so48nfxd","650353f26c87883d93c42b60","fixation","img/fixation.png","null","","test","","","","","",""
"333.10000002384186","168706","pSARL_v2","pSARL_v2so48nfxd","650353f26c87883d93c42b60","freq","img/orange_2bandit_b2.png","70","70","test","1","14","14","1","",""
"null","169182","pSARL_v2","pSARL_v2so48nfxd","650353f26c87883d93c42b60","freq_resp","img/orange_2bandit_b.png","70","70","test","","","","1","",""
"null","169338","pSARL_v2","pSARL_v2so48nfxd","650353f26c87883d93c42b60","fixation","img/fixation.png","null","","test","","","","","",""
"283.2999999523163","169625","pSARL_v2","pSARL_v2so48nfxd","650353f26c87883d93c42b60","freq","img/orange_2bandit_b2.png","70","70","test","1","15","15","1","",""
"null","170166","pSARL_v2","pSARL_v2so48nfxd","650353f26c87883d93c42b60","freq_resp","img/orange_2bandit_b.png","70","70","test","","","","1","",""
"null","170333","pSARL_v2","pSARL_v2so48nfxd","650353f26c87883d93c42b60","fixation","img/fixation.png","null","","test","","","","","",""
"376.10000002384186","170713","pSARL_v2","pSARL_v2so48nfxd","650353f26c87883d93c42b60","freq","img/orange_2bandit_b2.png","70","70","test","1","16","16","1","",""
"null","171148","pSARL_v2","pSARL_v2so48nfxd","650353f26c87883d93c42b60","freq_resp","img/orange_2bandit_b.png","70","70","test","","","","1","",""
"null","171320","pSARL_v2","pSARL_v2so48nfxd","650353f26c87883d93c42b60","fixation","img/fixation.png","null","","test","","","","","",""
"324.30000001192093","171649","pSARL_v2","pSARL_v2so48nfxd","650353f26c87883d93c42b60","freq","img/orange_2bandit_b2.png","70","70","test","1","17","17","1","",""
"null","172129","pSARL_v2","pSARL_v2so48nfxd","650353f26c87883d93c42b60","freq_resp","img/orange_2bandit_b.png","70","70","test","","","","1","",""
"null","172285","pSARL_v2","pSARL_v2so48nfxd","650353f26c87883d93c42b60","fixation","img/fixation.png","null","","test","","","","","",""
"294.19999998807907","172584","pSARL_v2","pSARL_v2so48nfxd","650353f26c87883d93c42b60","freq","img/orange_2bandit_b2.png","70","70","test","1","18","18","1","",""
"null","173095","pSARL_v2","pSARL_v2so48nfxd","650353f26c87883d93c42b60","freq_resp","img/orange_2bandit_b.png","70","70","test","","","","1","",""
"null","173251","pSARL_v2","pSARL_v2so48nfxd","650353f26c87883d93c42b60","fixation","img/fixation.png","null","","test","","","","","",""
"267.39999997615814","173521","pSARL_v2","pSARL_v2so48nfxd","650353f26c87883d93c42b60","freq","img/orange_2bandit_b2.png","70","70","test","1","19","19","1","",""
"null","174066","pSARL_v2","pSARL_v2so48nfxd","650353f26c87883d93c42b60","freq_resp","img/orange_2bandit_b.png","70","70","test","","","","1","",""
"null","174237","pSARL_v2","pSARL_v2so48nfxd","650353f26c87883d93c42b60","fixation","img/fixation.png","null","","test","","","","","",""
"718.3000000119209","174959","pSARL_v2","pSARL_v2so48nfxd","650353f26c87883d93c42b60","infreq","img/green_2bandit_b2.png","68","68","test","1","20","20","1","",""
"null","175048","pSARL_v2","pSARL_v2so48nfxd","650353f26c87883d93c42b60","infreq_resp","img/green_2bandit_b.png","68","68","test","","","","1","",""
"null","175205","pSARL_v2","pSARL_v2so48nfxd","650353f26c87883d93c42b60","fixation","img/fixation.png","null","","test","","","","","",""
"590.8999999761581","175800","pSARL_v2","pSARL_v2so48nfxd","650353f26c87883d93c42b60","freq","img/orange_2bandit_b2.png","70","70","test","1","21","21","1","",""
"null","176024","pSARL_v2","pSARL_v2so48nfxd","650353f26c87883d93c42b60","freq_resp","img/orange_2bandit_b.png","70","70","test","","","","1","",""
"null","176195","pSARL_v2","pSARL_v2so48nfxd","650353f26c87883d93c42b60","fixation","img/fixation.png","null","","test","","","","","",""
"642.8000000119209","176842","pSARL_v2","pSARL_v2so48nfxd","650353f26c87883d93c42b60","reward","img/slot.png","74","","test","","","","","",""
"null","177601","pSARL_v2","pSARL_v2so48nfxd","650353f26c87883d93c42b60","points","<div class=""verylowPoints""> -6 </div>","null","na","test","","","","1","-6","0"
"696.1000000238419","178301","pSARL_v2","pSARL_v2so48nfxd","650353f26c87883d93c42b60","freq","img/orange_2bandit_b2.png","70","70","test","1","22","22","2","",""
"null","178421","pSARL_v2","pSARL_v2so48nfxd","650353f26c87883d93c42b60","freq_resp","img/orange_2bandit_b.png","70","70","test","","","","2","",""
"null","178577","pSARL_v2","pSARL_v2so48nfxd","650353f26c87883d93c42b60","fixation","img/fixation.png","null","","test","","","","","",""
"713.1999999880791","179294","pSARL_v2","pSARL_v2so48nfxd","650353f26c87883d93c42b60","freq","img/orange_2bandit_b2.png","70","70","test","1","23","23","2","",""
"null","179389","pSARL_v2","pSARL_v2so48nfxd","650353f26c87883d93c42b60","freq_resp","img/orange_2bandit_b.png","70","70","test","","","","2","",""
"null","179546","pSARL_v2","pSARL_v2so48nfxd","650353f26c87883d93c42b60","fixation","img/fixation.png","null","","test","","","","","",""
"449","180000","pSARL_v2","pSARL_v2so48nfxd","650353f26c87883d93c42b60","infreq","img/green_2bandit_b2.png","68","68","test","1","24","24","2","",""
"null","180358","pSARL_v2","pSARL_v2so48nfxd","650353f26c87883d93c42b60","infreq_resp","img/green_2bandit_b.png","68","68","test","","","","2","",""
"null","180514","pSARL_v2","pSARL_v2so48nfxd","650353f26c87883d93c42b60","fixation","img/fixation.png","null","","test","","","","","",""
"483.2000000476837","181002","pSARL_v2","pSARL_v2so48nfxd","650353f26c87883d93c42b60","freq","img/orange_2bandit_b2.png","70","70","test","1","25","25","2","",""
"null","181323","pSARL_v2","pSARL_v2so48nfxd","650353f26c87883d93c42b60","freq_resp","img/orange_2bandit_b.png","70","70","test","","","","2","",""
"null","181485","pSARL_v2","pSARL_v2so48nfxd","650353f26c87883d93c42b60","fixation","img/fixation.png","null","","test","","","","","",""
"459.2999999523163","181948","pSARL_v2","pSARL_v2so48nfxd","650353f26c87883d93c42b60","infreq","img/green_2bandit_b2.png","68","68","test","1","26","26","2","",""
"null","182309","pSARL_v2","pSARL_v2so48nfxd","650353f26c87883d93c42b60","infreq_resp","img/green_2bandit_b.png","68","68","test","","","","2","",""
"null","182466","pSARL_v2","pSARL_v2so48nfxd","650353f26c87883d93c42b60","fixation","img/fixation.png","null","","test","","","","","",""
"347.10000002384186","182816","pSARL_v2","pSARL_v2so48nfxd","650353f26c87883d93c42b60","freq","img/orange_2bandit_b2.png","70","70","test","1","27","27","2","",""
"null","183277","pSARL_v2","pSARL_v2so48nfxd","650353f26c87883d93c42b60","freq_resp","img/orange_2bandit_b.png","70","70","test","","","","2","",""
"null","183445","pSARL_v2","pSARL_v2so48nfxd","650353f26c87883d93c42b60","fixation","img/fixation.png","null","","test","","","","","",""
"363.5999999642372","183813","pSARL_v2","pSARL_v2so48nfxd","650353f26c87883d93c42b60","freq","img/orange_2bandit_b2.png","70","70","test","1","28","28","2","",""
"null","184256","pSARL_v2","pSARL_v2so48nfxd","650353f26c87883d93c42b60","freq_resp","img/orange_2bandit_b.png","70","70","test","","","","2","",""
"null","184415","pSARL_v2","pSARL_v2so48nfxd","650353f26c87883d93c42b60","fixation","img/fixation.png","null","","test","","","","","",""
"313.69999998807907","184734","pSARL_v2","pSARL_v2so48nfxd","650353f26c87883d93c42b60","freq","img/orange_2bandit_b2.png","70","70","test","1","29","29","2","",""
"null","185289","pSARL_v2","pSARL_v2so48nfxd","650353f26c87883d93c42b60","freq_resp","img/orange_2bandit_b.png","70","70","test","","","","2","",""
"null","185456","pSARL_v2","pSARL_v2so48nfxd","650353f26c87883d93c42b60","fixation","img/fixation.png","null","","test","","","","","",""
"412.5","185872","pSARL_v2","pSARL_v2so48nfxd","650353f26c87883d93c42b60","freq","img/orange_2bandit_b2.png","70","70","test","1","30","30","2","",""
"null","186269","pSARL_v2","pSARL_v2so48nfxd","650353f26c87883d93c42b60","freq_resp","img/orange_2bandit_b.png","70","70","test","","","","2","",""
"null","186426","pSARL_v2","pSARL_v2so48nfxd","650353f26c87883d93c42b60","fixation","img/fixation.png","null","","test","","","","","",""
"363","186793","pSARL_v2","pSARL_v2so48nfxd","650353f26c87883d93c42b60","freq","img/orange_2bandit_b2.png","70","70","test","1","31","31","2","",""
"null","187238","pSARL_v2","pSARL_v2so48nfxd","650353f26c87883d93c42b60","freq_resp","img/orange_2bandit_b.png","70","70","test","","","","2","",""
"null","187405","pSARL_v2","pSARL_v2so48nfxd","650353f26c87883d93c42b60","fixation","img/fixation.png","null","","test","","","","","",""
"314.60000002384186","187723","pSARL_v2","pSARL_v2so48nfxd","650353f26c87883d93c42b60","freq","img/orange_2bandit_b2.png","70","70","test","1","32","32","2","",""
"null","188219","pSARL_v2","pSARL_v2so48nfxd","650353f26c87883d93c42b60","freq_resp","img/orange_2bandit_b.png","70","70","test","","","","2","",""
"null","188376","pSARL_v2","pSARL_v2so48nfxd","650353f26c87883d93c42b60","fixation","img/fixation.png","null","","test","","","","","",""
"253.5","188633","pSARL_v2","pSARL_v2so48nfxd","650353f26c87883d93c42b60","freq","img/orange_2bandit_b2.png","70","70","test","1","33","33","2","",""
"null","189188","pSARL_v2","pSARL_v2so48nfxd","650353f26c87883d93c42b60","freq_resp","img/orange_2bandit_b.png","70","70","test","","","","2","",""
"null","189345","pSARL_v2","pSARL_v2so48nfxd","650353f26c87883d93c42b60","fixation","img/fixation.png","null","","test","","","","","",""
"268.80000001192093","189618","pSARL_v2","pSARL_v2so48nfxd","650353f26c87883d93c42b60","freq","img/orange_2bandit_b2.png","70","70","test","1","34","34","2","",""
"null","190158","pSARL_v2","pSARL_v2so48nfxd","650353f26c87883d93c42b60","freq_resp","img/orange_2bandit_b.png","70","70","test","","","","2","",""
"null","190330","pSARL_v2","pSARL_v2so48nfxd","650353f26c87883d93c42b60","fixation","img/fixation.png","null","","test","","","","","",""
"300.5","190635","pSARL_v2","pSARL_v2so48nfxd","650353f26c87883d93c42b60","freq","img/orange_2bandit_b2.png","70","70","test","1","35","35","2","",""
"null","191150","pSARL_v2","pSARL_v2so48nfxd","650353f26c87883d93c42b60","freq_resp","img/orange_2bandit_b.png","70","70","test","","","","2","",""
"null","191306","pSARL_v2","pSARL_v2so48nfxd","650353f26c87883d93c42b60","fixation","img/fixation.png","null","","test","","","","","",""
"275.19999998807907","191585","pSARL_v2","pSARL_v2so48nfxd","650353f26c87883d93c42b60","freq","img/orange_2bandit_b2.png","70","70","test","1","36","36","2","",""
"null","192123","pSARL_v2","pSARL_v2so48nfxd","650353f26c87883d93c42b60","freq_resp","img/orange_2bandit_b.png","70","70","test","","","","2","",""
"null","192280","pSARL_v2","pSARL_v2so48nfxd","650353f26c87883d93c42b60","fixation","img/fixation.png","null","","test","","","","","",""
"292.5999999642372","192576","pSARL_v2","pSARL_v2so48nfxd","650353f26c87883d93c42b60","freq","img/orange_2bandit_b2.png","70","70","test","1","37","37","2","",""
"null","193093","pSARL_v2","pSARL_v2so48nfxd","650353f26c87883d93c42b60","freq_resp","img/orange_2bandit_b.png","70","70","test","","","","2","",""
"null","193249","pSARL_v2","pSARL_v2so48nfxd","650353f26c87883d93c42b60","fixation","img/fixation.png","null","","test","","","","","",""
"322.30000001192093","193575","pSARL_v2","pSARL_v2so48nfxd","650353f26c87883d93c42b60","freq","img/orange_2bandit_b2.png","70","70","test","1","38","38","2","",""
"null","194068","pSARL_v2","pSARL_v2so48nfxd","650353f26c87883d93c42b60","freq_resp","img/orange_2bandit_b.png","70","70","test","","","","2","",""
"null","194239","pSARL_v2","pSARL_v2so48nfxd","650353f26c87883d93c42b60","fixation","img/fixation.png","null","","test","","","","","",""
"292.69999998807907","194535","pSARL_v2","pSARL_v2so48nfxd","650353f26c87883d93c42b60","freq","img/orange_2bandit_b2.png","70","70","test","1","39","39","2","",""
"null","195050","pSARL_v2","pSARL_v2so48nfxd","650353f26c87883d93c42b60","freq_resp","img/orange_2bandit_b.png","70","70","test","","","","2","",""
"null","195219","pSARL_v2","pSARL_v2so48nfxd","650353f26c87883d93c42b60","fixation","img/fixation.png","null","","test","","","","","",""
"263.9000000357628","195487","pSARL_v2","pSARL_v2so48nfxd","650353f26c87883d93c42b60","freq","img/orange_2bandit_b2.png","70","70","test","1","40","40","2","",""
"null","196039","pSARL_v2","pSARL_v2so48nfxd","650353f26c87883d93c42b60","freq_resp","img/orange_2bandit_b.png","70","70","test","","","","2","",""
"null","196209","pSARL_v2","pSARL_v2so48nfxd","650353f26c87883d93c42b60","fixation","img/fixation.png","null","","test","","","","","",""
"447.89999997615814","196661","pSARL_v2","pSARL_v2so48nfxd","650353f26c87883d93c42b60","reward","img/slot.png","74","","test","","","","","",""
"null","197431","pSARL_v2","pSARL_v2so48nfxd","650353f26c87883d93c42b60","points","<div class=""verylowPoints""> -11 </div>","null","na","test","","","","2","-11","1"
"352.5","197787","pSARL_v2","pSARL_v2so48nfxd","650353f26c87883d93c42b60","freq","img/orange_2bandit_b2.png","70","70","test","1","41","41","3","",""
"null","198252","pSARL_v2","pSARL_v2so48nfxd","650353f26c87883d93c42b60","freq_resp","img/orange_2bandit_b.png","70","70","test","","","","3","",""
"null","198408","pSARL_v2","pSARL_v2so48nfxd","650353f26c87883d93c42b60","fixation","img/fixation.png","null","","test","","","","","",""
"305.2000000476837","198717","pSARL_v2","pSARL_v2so48nfxd","650353f26c87883d93c42b60","freq","img/orange_2bandit_b2.png","70","70","test","1","42","42","3","",""
"null","199219","pSARL_v2","pSARL_v2so48nfxd","650353f26c87883d93c42b60","freq_resp","img/orange_2bandit_b.png","70","70","test","","","","3","",""
"null","199375","pSARL_v2","pSARL_v2so48nfxd","650353f26c87883d93c42b60","fixation","img/fixation.png","null","","test","","","","","",""
"210.60000002384186","199591","pSARL_v2","pSARL_v2so48nfxd","650353f26c87883d93c42b60","freq","img/orange_2bandit_b2.png","70","70","test","1","43","43","3","",""
"null","200185","pSARL_v2","pSARL_v2so48nfxd","650353f26c87883d93c42b60","freq_resp","img/orange_2bandit_b.png","70","70","test","","","","3","",""
"null","200341","pSARL_v2","pSARL_v2so48nfxd","650353f26c87883d93c42b60","fixation","img/fixation.png","null","","test","","","","","",""
"290.19999998807907","200635","pSARL_v2","pSARL_v2so48nfxd","650353f26c87883d93c42b60","freq","img/orange_2bandit_b2.png","70","70","test","1","44","44","3","",""
"null","201154","pSARL_v2","pSARL_v2so48nfxd","650353f26c87883d93c42b60","freq_resp","img/orange_2bandit_b.png","70","70","test","","","","3","",""
"null","201311","pSARL_v2","pSARL_v2so48nfxd","650353f26c87883d93c42b60","fixation","img/fixation.png","null","","test","","","","","",""
"373.80000001192093","201688","pSARL_v2","pSARL_v2so48nfxd","650353f26c87883d93c42b60","freq","img/orange_2bandit_b2.png","70","70","test","1","45","45","3","",""
"null","202122","pSARL_v2","pSARL_v2so48nfxd","650353f26c87883d93c42b60","freq_resp","img/orange_2bandit_b.png","70","70","test","","","","3","",""
"null","202281","pSARL_v2","pSARL_v2so48nfxd","650353f26c87883d93c42b60","fixation","img/fixation.png","null","","test","","","","","",""
"249.4000000357628","202535","pSARL_v2","pSARL_v2so48nfxd","650353f26c87883d93c42b60","freq","img/orange_2bandit_b2.png","70","70","test","1","46","46","3","",""
"null","203106","pSARL_v2","pSARL_v2so48nfxd","650353f26c87883d93c42b60","freq_resp","img/orange_2bandit_b.png","70","70","test","","","","3","",""
"null","203263","pSARL_v2","pSARL_v2so48nfxd","650353f26c87883d93c42b60","fixation","img/fixation.png","null","","test","","","","","",""
"364","203631","pSARL_v2","pSARL_v2so48nfxd","650353f26c87883d93c42b60","freq","img/orange_2bandit_b2.png","70","70","test","1","47","47","3","",""
"null","204082","pSARL_v2","pSARL_v2so48nfxd","650353f26c87883d93c42b60","freq_resp","img/orange_2bandit_b.png","70","70","test","","","","3","",""
"null","204238","pSARL_v2","pSARL_v2so48nfxd","650353f26c87883d93c42b60","fixation","img/fixation.png","null","","test","","","","","",""
"417.60000002384186","204659","pSARL_v2","pSARL_v2so48nfxd","650353f26c87883d93c42b60","freq","img/orange_2bandit_b2.png","70","70","test","1","48","48","3","",""
"null","205055","pSARL_v2","pSARL_v2so48nfxd","650353f26c87883d93c42b60","freq_resp","img/orange_2bandit_b.png","70","70","test","","","","3","",""
"null","205209","pSARL_v2","pSARL_v2so48nfxd","650353f26c87883d93c42b60","fixation","img/fixation.png","null","","test","","","","","",""
"324.69999998807907","205538","pSARL_v2","pSARL_v2so48nfxd","650353f26c87883d93c42b60","freq","img/orange_2bandit_b2.png","70","70","test","1","49","49","3","",""
"null","206020","pSARL_v2","pSARL_v2so48nfxd","650353f26c87883d93c42b60","freq_resp","img/orange_2bandit_b.png","70","70","test","","","","3","",""
"null","206176","pSARL_v2","pSARL_v2so48nfxd","650353f26c87883d93c42b60","fixation","img/fixation.png","null","","test","","","","","",""
"261.89999997615814","206442","pSARL_v2","pSARL_v2so48nfxd","650353f26c87883d93c42b60","freq","img/orange_2bandit_b2.png","70","70","test","1","50","50","3","",""
"null","206992","pSARL_v2","pSARL_v2so48nfxd","650353f26c87883d93c42b60","freq_resp","img/orange_2bandit_b.png","70","70","test","","","","3","",""
"null","207149","pSARL_v2","pSARL_v2so48nfxd","650353f26c87883d93c42b60","fixation","img/fixation.png","null","","test","","","","","",""
"305.5","207458","pSARL_v2","pSARL_v2so48nfxd","650353f26c87883d93c42b60","freq","img/orange_2bandit_b2.png","70","70","test","1","51","51","3","",""
"null","207971","pSARL_v2","pSARL_v2so48nfxd","650353f26c87883d93c42b60","freq_resp","img/orange_2bandit_b.png","70","70","test","","","","3","",""
"null","208129","pSARL_v2","pSARL_v2so48nfxd","650353f26c87883d93c42b60","fixation","img/fixation.png","null","","test","","","","","",""
"439.10000002384186","208572","pSARL_v2","pSARL_v2so48nfxd","650353f26c87883d93c42b60","freq","img/orange_2bandit_b2.png","70","70","test","1","52","52","3","",""
"null","208951","pSARL_v2","pSARL_v2so48nfxd","650353f26c87883d93c42b60","freq_resp","img/orange_2bandit_b.png","70","70","test","","","","3","",""
"null","209108","pSARL_v2","pSARL_v2so48nfxd","650353f26c87883d93c42b60","fixation","img/fixation.png","null","","test","","","","","",""
"249.69999998807907","209362","pSARL_v2","pSARL_v2so48nfxd","650353f26c87883d93c42b60","freq","img/orange_2bandit_b2.png","70","70","test","1","53","53","3","",""
"null","209918","pSARL_v2","pSARL_v2so48nfxd","650353f26c87883d93c42b60","freq_resp","img/orange_2bandit_b.png","70","70","test","","","","3","",""
"null","210089","pSARL_v2","pSARL_v2so48nfxd","650353f26c87883d93c42b60","fixation","img/fixation.png","null","","test","","","","","",""
"310","210403","pSARL_v2","pSARL_v2so48nfxd","650353f26c87883d93c42b60","freq","img/orange_2bandit_b2.png","70","70","test","1","54","54","3","",""
"null","210900","pSARL_v2","pSARL_v2so48nfxd","650353f26c87883d93c42b60","freq_resp","img/orange_2bandit_b.png","70","70","test","","","","3","",""
"null","211055","pSARL_v2","pSARL_v2so48nfxd","650353f26c87883d93c42b60","fixation","img/fixation.png","null","","test","","","","","",""
"272.5","211331","pSARL_v2","pSARL_v2so48nfxd","650353f26c87883d93c42b60","freq","img/orange_2bandit_b2.png","70","70","test","1","55","55","3","",""
"null","211866","pSARL_v2","pSARL_v2so48nfxd","650353f26c87883d93c42b60","freq_resp","img/orange_2bandit_b.png","70","70","test","","","","3","",""
"null","212038","pSARL_v2","pSARL_v2so48nfxd","650353f26c87883d93c42b60","fixation","img/fixation.png","null","","test","","","","","",""
"303.0999999642372","212345","pSARL_v2","pSARL_v2so48nfxd","650353f26c87883d93c42b60","infreq","img/green_2bandit_b2.png","68","68","test","1","56","56","3","",""
"null","212849","pSARL_v2","pSARL_v2so48nfxd","650353f26c87883d93c42b60","infreq_resp","img/green_2bandit_b.png","68","68","test","","","","3","",""
"null","213005","pSARL_v2","pSARL_v2so48nfxd","650353f26c87883d93c42b60","fixation","img/fixation.png","null","","test","","","","","",""
"377.89999997615814","213387","pSARL_v2","pSARL_v2so48nfxd","650353f26c87883d93c42b60","freq","img/orange_2bandit_b2.png","70","70","test","1","57","57","3","",""
"null","213816","pSARL_v2","pSARL_v2so48nfxd","650353f26c87883d93c42b60","freq_resp","img/orange_2bandit_b.png","70","70","test","","","","3","",""
"null","213975","pSARL_v2","pSARL_v2so48nfxd","650353f26c87883d93c42b60","fixation","img/fixation.png","null","","test","","","","","",""
"318.89999997615814","214299","pSARL_v2","pSARL_v2so48nfxd","650353f26c87883d93c42b60","freq","img/orange_2bandit_b2.png","70","70","test","1","58","58","3","",""
"null","214806","pSARL_v2","pSARL_v2so48nfxd","650353f26c87883d93c42b60","freq_resp","img/orange_2bandit_b.png","70","70","test","","","","3","",""
"null","214967","pSARL_v2","pSARL_v2so48nfxd","650353f26c87883d93c42b60","fixation","img/fixation.png","null","","test","","","","","",""
"238.5999999642372","215361","pSARL_v2","pSARL_v2so48nfxd","650353f26c87883d93c42b60","freq","img/orange_2bandit_b2.png","70","70","test","1","59","59","3","",""
"null","215935","pSARL_v2","pSARL_v2so48nfxd","650353f26c87883d93c42b60","freq_resp","img/orange_2bandit_b.png","70","70","test","","","","3","",""
"null","216092","pSARL_v2","pSARL_v2so48nfxd","650353f26c87883d93c42b60","fixation","img/fixation.png","null","","test","","","","","",""
"524.1000000238419","216621","pSARL_v2","pSARL_v2so48nfxd","650353f26c87883d93c42b60","infreq","img/green_2bandit_b2.png","68","68","test","1","60","60","3","",""
"null","216906","pSARL_v2","pSARL_v2so48nfxd","650353f26c87883d93c42b60","infreq_resp","img/green_2bandit_b.png","68","68","test","","","","3","",""
"null","217064","pSARL_v2","pSARL_v2so48nfxd","650353f26c87883d93c42b60","fixation","img/fixation.png","null","","test","","","","","",""
"330.19999998807907","217399","pSARL_v2","pSARL_v2so48nfxd","650353f26c87883d93c42b60","freq","img/orange_2bandit_b2.png","70","70","test","1","61","61","3","",""
"null","217880","pSARL_v2","pSARL_v2so48nfxd","650353f26c87883d93c42b60","freq_resp","img/orange_2bandit_b.png","70","70","test","","","","3","",""
"null","218048","pSARL_v2","pSARL_v2so48nfxd","650353f26c87883d93c42b60","fixation","img/fixation.png","null","","test","","","","","",""
"385","218437","pSARL_v2","pSARL_v2so48nfxd","650353f26c87883d93c42b60","freq","img/orange_2bandit_b2.png","70","70","test","1","62","62","3","",""
"null","218997","pSARL_v2","pSARL_v2so48nfxd","650353f26c87883d93c42b60","freq_resp","img/orange_2bandit_b.png","70","70","test","","","","3","",""
"null","219165","pSARL_v2","pSARL_v2so48nfxd","650353f26c87883d93c42b60","fixation","img/fixation.png","null","","test","","","","","",""
"516.3000000119209","219686","pSARL_v2","pSARL_v2so48nfxd","650353f26c87883d93c42b60","reward","img/slot.png","74","","test","","","","","",""
"null","220446","pSARL_v2","pSARL_v2so48nfxd","650353f26c87883d93c42b60","points","<div class=""verylowPoints""> -7 </div>","null","na","test","","","","3","-7","2"
"433.80000001192093","220884","pSARL_v2","pSARL_v2so48nfxd","650353f26c87883d93c42b60","freq","img/orange_2bandit_b2.png","70","70","test","1","63","63","4","",""
"null","221260","pSARL_v2","pSARL_v2so48nfxd","650353f26c87883d93c42b60","freq_resp","img/orange_2bandit_b.png","70","70","test","","","","4","",""
"null","221431","pSARL_v2","pSARL_v2so48nfxd","650353f26c87883d93c42b60","fixation","img/fixation.png","null","","test","","","","","",""
"420.80000001192093","221855","pSARL_v2","pSARL_v2so48nfxd","650353f26c87883d93c42b60","infreq","img/green_2bandit_b2.png","68","68","test","1","64","64","4","",""
"null","222386","pSARL_v2","pSARL_v2so48nfxd","650353f26c87883d93c42b60","infreq_resp","img/green_2bandit_b.png","68","68","test","","","","4","",""
"null","222553","pSARL_v2","pSARL_v2so48nfxd","650353f26c87883d93c42b60","fixation","img/fixation.png","null","","test","","","","","",""
"485.5","223043","pSARL_v2","pSARL_v2so48nfxd","650353f26c87883d93c42b60","freq","img/orange_2bandit_b2.png","70","70","test","1","65","65","4","",""
"null","223373","pSARL_v2","pSARL_v2so48nfxd","650353f26c87883d93c42b60","freq_resp","img/orange_2bandit_b.png","70","70","test","","","","4","",""
"null","223544","pSARL_v2","pSARL_v2so48nfxd","650353f26c87883d93c42b60","fixation","img/fixation.png","null","","test","","","","","",""
"328.5","223877","pSARL_v2","pSARL_v2so48nfxd","650353f26c87883d93c42b60","freq","img/orange_2bandit_b2.png","70","70","test","1","66","66","4","",""
"null","224356","pSARL_v2","pSARL_v2so48nfxd","650353f26c87883d93c42b60","freq_resp","img/orange_2bandit_b.png","70","70","test","","","","4","",""
"null","224514","pSARL_v2","pSARL_v2so48nfxd","650353f26c87883d93c42b60","fixation","img/fixation.png","null","","test","","","","","",""
"273.5","224792","pSARL_v2","pSARL_v2so48nfxd","650353f26c87883d93c42b60","freq","img/orange_2bandit_b2.png","70","70","test","1","67","67","4","",""
"null","225337","pSARL_v2","pSARL_v2so48nfxd","650353f26c87883d93c42b60","freq_resp","img/orange_2bandit_b.png","70","70","test","","","","4","",""
"null","225493","pSARL_v2","pSARL_v2so48nfxd","650353f26c87883d93c42b60","fixation","img/fixation.png","null","","test","","","","","",""
"633.1999999880791","226130","pSARL_v2","pSARL_v2so48nfxd","650353f26c87883d93c42b60","infreq","img/green_2bandit_b2.png","68","68","test","1","68","68","4","",""
"null","226309","pSARL_v2","pSARL_v2so48nfxd","650353f26c87883d93c42b60","infreq_resp","img/green_2bandit_b.png","68","68","test","","","","4","",""
"null","226465","pSARL_v2","pSARL_v2so48nfxd","650353f26c87883d93c42b60","fixation","img/fixation.png","null","","test","","","","","",""
"420.89999997615814","226891","pSARL_v2","pSARL_v2so48nfxd","650353f26c87883d93c42b60","freq","img/orange_2bandit_b2.png","70","70","test","1","69","69","4","",""
"null","227409","pSARL_v2","pSARL_v2so48nfxd","650353f26c87883d93c42b60","freq_resp","img/orange_2bandit_b.png","70","70","test","","","","4","",""
"null","227578","pSARL_v2","pSARL_v2so48nfxd","650353f26c87883d93c42b60","fixation","img/fixation.png","null","","test","","","","","",""
"314.80000001192093","227898","pSARL_v2","pSARL_v2so48nfxd","650353f26c87883d93c42b60","freq","img/orange_2bandit_b2.png","70","70","test","1","70","70","4","",""
"null","228390","pSARL_v2","pSARL_v2so48nfxd","650353f26c87883d93c42b60","freq_resp","img/orange_2bandit_b.png","70","70","test","","","","4","",""
"null","228546","pSARL_v2","pSARL_v2so48nfxd","650353f26c87883d93c42b60","fixation","img/fixation.png","null","","test","","","","","",""
"316.19999998807907","228866","pSARL_v2","pSARL_v2so48nfxd","650353f26c87883d93c42b60","freq","img/orange_2bandit_b2.png","70","70","test","1","71","71","4","",""
"null","229361","pSARL_v2","pSARL_v2so48nfxd","650353f26c87883d93c42b60","freq_resp","img/orange_2bandit_b.png","70","70","test","","","","4","",""
"null","229516","pSARL_v2","pSARL_v2so48nfxd","650353f26c87883d93c42b60","fixation","img/fixation.png","null","","test","","","","","",""
"277.10000002384186","229797","pSARL_v2","pSARL_v2so48nfxd","650353f26c87883d93c42b60","freq","img/orange_2bandit_b2.png","70","70","test","1","72","72","4","",""
"null","230327","pSARL_v2","pSARL_v2so48nfxd","650353f26c87883d93c42b60","freq_resp","img/orange_2bandit_b.png","70","70","test","","","","4","",""
"null","230498","pSARL_v2","pSARL_v2so48nfxd","650353f26c87883d93c42b60","fixation","img/fixation.png","null","","test","","","","","",""
"428.69999998807907","230935","pSARL_v2","pSARL_v2so48nfxd","650353f26c87883d93c42b60","freq","img/orange_2bandit_b2.png","70","70","test","1","73","73","4","",""
"null","231325","pSARL_v2","pSARL_v2so48nfxd","650353f26c87883d93c42b60","freq_resp","img/orange_2bandit_b.png","70","70","test","","","","4","",""
"null","231483","pSARL_v2","pSARL_v2so48nfxd","650353f26c87883d93c42b60","fixation","img/fixation.png","null","","test","","","","","",""
"356","231843","pSARL_v2","pSARL_v2so48nfxd","650353f26c87883d93c42b60","freq","img/orange_2bandit_b2.png","70","70","test","1","74","74","4","",""
"null","232291","pSARL_v2","pSARL_v2so48nfxd","650353f26c87883d93c42b60","freq_resp","img/orange_2bandit_b.png","70","70","test","","","","4","",""
"null","232449","pSARL_v2","pSARL_v2so48nfxd","650353f26c87883d93c42b60","fixation","img/fixation.png","null","","test","","","","","",""
"333.89999997615814","232787","pSARL_v2","pSARL_v2so48nfxd","650353f26c87883d93c42b60","freq","img/orange_2bandit_b2.png","70","70","test","1","75","75","4","",""
"null","233260","pSARL_v2","pSARL_v2so48nfxd","650353f26c87883d93c42b60","freq_resp","img/orange_2bandit_b.png","70","70","test","","","","4","",""
"null","233429","pSARL_v2","pSARL_v2so48nfxd","650353f26c87883d93c42b60","fixation","img/fixation.png","null","","test","","","","","",""
"330.19999998807907","233764","pSARL_v2","pSARL_v2so48nfxd","650353f26c87883d93c42b60","freq","img/orange_2bandit_b2.png","70","70","test","1","76","76","4","",""
"null","234245","pSARL_v2","pSARL_v2so48nfxd","650353f26c87883d93c42b60","freq_resp","img/orange_2bandit_b.png","70","70","test","","","","4","",""
"null","234414","pSARL_v2","pSARL_v2so48nfxd","650353f26c87883d93c42b60","fixation","img/fixation.png","null","","test","","","","","",""
"292.4000000357628","234710","pSARL_v2","pSARL_v2so48nfxd","650353f26c87883d93c42b60","freq","img/orange_2bandit_b2.png","70","70","test","1","77","77","4","",""
"null","235226","pSARL_v2","pSARL_v2so48nfxd","650353f26c87883d93c42b60","freq_resp","img/orange_2bandit_b.png","70","70","test","","","","4","",""
"null","235397","pSARL_v2","pSARL_v2so48nfxd","650353f26c87883d93c42b60","fixation","img/fixation.png","null","","test","","","","","",""
"267.0999999642372","235668","pSARL_v2","pSARL_v2so48nfxd","650353f26c87883d93c42b60","freq","img/orange_2bandit_b2.png","70","70","test","1","78","78","4","",""
"null","236207","pSARL_v2","pSARL_v2so48nfxd","650353f26c87883d93c42b60","freq_resp","img/orange_2bandit_b.png","70","70","test","","","","4","",""
"null","236377","pSARL_v2","pSARL_v2so48nfxd","650353f26c87883d93c42b60","fixation","img/fixation.png","null","","test","","","","","",""
"248.30000001192093","236631","pSARL_v2","pSARL_v2so48nfxd","650353f26c87883d93c42b60","freq","img/orange_2bandit_b2.png","70","70","test","1","79","79","4","",""
"null","237201","pSARL_v2","pSARL_v2so48nfxd","650353f26c87883d93c42b60","freq_resp","img/orange_2bandit_b.png","70","70","test","","","","4","",""
"null","237364","pSARL_v2","pSARL_v2so48nfxd","650353f26c87883d93c42b60","fixation","img/fixation.png","null","","test","","","","","",""
"366.69999998807907","237734","pSARL_v2","pSARL_v2so48nfxd","650353f26c87883d93c42b60","freq","img/orange_2bandit_b2.png","70","70","test","1","80","80","4","",""
"null","238184","pSARL_v2","pSARL_v2so48nfxd","650353f26c87883d93c42b60","freq_resp","img/orange_2bandit_b.png","70","70","test","","","","4","",""
"null","238339","pSARL_v2","pSARL_v2so48nfxd","650353f26c87883d93c42b60","fixation","img/fixation.png","null","","test","","","","","",""
"255.60000002384186","238598","pSARL_v2","pSARL_v2so48nfxd","650353f26c87883d93c42b60","freq","img/orange_2bandit_b2.png","70","70","test","1","81","81","4","",""
"null","239156","pSARL_v2","pSARL_v2so48nfxd","650353f26c87883d93c42b60","freq_resp","img/orange_2bandit_b.png","70","70","test","","","","4","",""
"null","239312","pSARL_v2","pSARL_v2so48nfxd","650353f26c87883d93c42b60","fixation","img/fixation.png","null","","test","","","","","",""
"244.60000002384186","239561","pSARL_v2","pSARL_v2so48nfxd","650353f26c87883d93c42b60","freq","img/orange_2bandit_b2.png","70","70","test","1","82","82","4","",""
"null","240125","pSARL_v2","pSARL_v2so48nfxd","650353f26c87883d93c42b60","freq_resp","img/orange_2bandit_b.png","70","70","test","","","","4","",""
"null","240297","pSARL_v2","pSARL_v2so48nfxd","650353f26c87883d93c42b60","fixation","img/fixation.png","null","","test","","","","","",""
"214.89999997615814","240517","pSARL_v2","pSARL_v2so48nfxd","650353f26c87883d93c42b60","freq","img/orange_2bandit_b2.png","70","70","test","1","83","83","4","",""
"null","241121","pSARL_v2","pSARL_v2so48nfxd","650353f26c87883d93c42b60","freq_resp","img/orange_2bandit_b.png","70","70","test","","","","4","",""
"null","241291","pSARL_v2","pSARL_v2so48nfxd","650353f26c87883d93c42b60","fixation","img/fixation.png","null","","test","","","","","",""
"522.1999999880791","241816","pSARL_v2","pSARL_v2so48nfxd","650353f26c87883d93c42b60","reward","img/slot.png","74","","test","","","","","",""
"null","242582","pSARL_v2","pSARL_v2so48nfxd","650353f26c87883d93c42b60","points","<div class=""verylowPoints""> -3 </div>","null","na","test","","","","4","-3","3"
"325.80000001192093","242912","pSARL_v2","pSARL_v2so48nfxd","650353f26c87883d93c42b60","freq","img/orange_2bandit_b2.png","70","70","test","1","84","84","5","",""
"null","243393","pSARL_v2","pSARL_v2so48nfxd","650353f26c87883d93c42b60","freq_resp","img/orange_2bandit_b.png","70","70","test","","","","5","",""
"null","243564","pSARL_v2","pSARL_v2so48nfxd","650353f26c87883d93c42b60","fixation","img/fixation.png","null","","test","","","","","",""
"223.4000000357628","243791","pSARL_v2","pSARL_v2so48nfxd","650353f26c87883d93c42b60","freq","img/orange_2bandit_b2.png","70","70","test","1","85","85","5","",""
"null","244387","pSARL_v2","pSARL_v2so48nfxd","650353f26c87883d93c42b60","freq_resp","img/orange_2bandit_b.png","70","70","test","","","","5","",""
"null","244543","pSARL_v2","pSARL_v2so48nfxd","650353f26c87883d93c42b60","fixation","img/fixation.png","null","","test","","","","","",""
"286.9000000357628","244833","pSARL_v2","pSARL_v2so48nfxd","650353f26c87883d93c42b60","freq","img/orange_2bandit_b2.png","70","70","test","1","86","86","5","",""
"null","245352","pSARL_v2","pSARL_v2so48nfxd","650353f26c87883d93c42b60","freq_resp","img/orange_2bandit_b.png","70","70","test","","","","5","",""
"null","245510","pSARL_v2","pSARL_v2so48nfxd","650353f26c87883d93c42b60","fixation","img/fixation.png","null","","test","","","","","",""
"248.10000002384186","245762","pSARL_v2","pSARL_v2so48nfxd","650353f26c87883d93c42b60","freq","img/orange_2bandit_b2.png","70","70","test","1","87","87","5","",""
"null","246332","pSARL_v2","pSARL_v2so48nfxd","650353f26c87883d93c42b60","freq_resp","img/orange_2bandit_b.png","70","70","test","","","","5","",""
"null","246487","pSARL_v2","pSARL_v2so48nfxd","650353f26c87883d93c42b60","fixation","img/fixation.png","null","","test","","","","","",""
"175.4000000357628","246666","pSARL_v2","pSARL_v2so48nfxd","650353f26c87883d93c42b60","freq","img/orange_2bandit_b2.png","70","70","test","1","88","88","5","",""
"null","247300","pSARL_v2","pSARL_v2so48nfxd","650353f26c87883d93c42b60","freq_resp","img/orange_2bandit_b.png","70","70","test","","","","5","",""
"null","247455","pSARL_v2","pSARL_v2so48nfxd","650353f26c87883d93c42b60","fixation","img/fixation.png","null","","test","","","","","",""
"124.5","247585","pSARL_v2","pSARL_v2so48nfxd","650353f26c87883d93c42b60","freq","img/orange_2bandit_b2.png","70","70","test","1","89","89","5","",""
"null","248281","pSARL_v2","pSARL_v2so48nfxd","650353f26c87883d93c42b60","freq_resp","img/orange_2bandit_b.png","70","70","test","","","","5","",""
"null","248451","pSARL_v2","pSARL_v2so48nfxd","650353f26c87883d93c42b60","fixation","img/fixation.png","null","","test","","","","","",""
"107.5","248563","pSARL_v2","pSARL_v2so48nfxd","650353f26c87883d93c42b60","freq","img/orange_2bandit_b2.png","70","70","test","1","90","90","5","",""
"null","249272","pSARL_v2","pSARL_v2so48nfxd","650353f26c87883d93c42b60","freq_resp","img/orange_2bandit_b.png","70","70","test","","","","5","",""
"null","249430","pSARL_v2","pSARL_v2so48nfxd","650353f26c87883d93c42b60","fixation","img/fixation.png","null","","test","","","","","",""
"269.7000000476837","249704","pSARL_v2","pSARL_v2so48nfxd","650353f26c87883d93c42b60","freq","img/orange_2bandit_b2.png","70","70","test","1","91","91","5","",""
"null","250248","pSARL_v2","pSARL_v2so48nfxd","650353f26c87883d93c42b60","freq_resp","img/orange_2bandit_b.png","70","70","test","","","","5","",""
"null","250405","pSARL_v2","pSARL_v2so48nfxd","650353f26c87883d93c42b60","fixation","img/fixation.png","null","","test","","","","","",""
"300.60000002384186","250710","pSARL_v2","pSARL_v2so48nfxd","650353f26c87883d93c42b60","freq","img/orange_2bandit_b2.png","70","70","test","1","92","92","5","",""
"null","251217","pSARL_v2","pSARL_v2so48nfxd","650353f26c87883d93c42b60","freq_resp","img/orange_2bandit_b.png","70","70","test","","","","5","",""
"null","251372","pSARL_v2","pSARL_v2so48nfxd","650353f26c87883d93c42b60","fixation","img/fixation.png","null","","test","","","","","",""
"247.30000001192093","251623","pSARL_v2","pSARL_v2so48nfxd","650353f26c87883d93c42b60","freq","img/orange_2bandit_b2.png","70","70","test","1","93","93","5","",""
"null","252184","pSARL_v2","pSARL_v2so48nfxd","650353f26c87883d93c42b60","freq_resp","img/orange_2bandit_b.png","70","70","test","","","","5","",""
"null","252342","pSARL_v2","pSARL_v2so48nfxd","650353f26c87883d93c42b60","fixation","img/fixation.png","null","","test","","","","","",""
"292.5","252639","pSARL_v2","pSARL_v2so48nfxd","650353f26c87883d93c42b60","freq","img/orange_2bandit_b2.png","70","70","test","1","94","94","5","",""
"null","253156","pSARL_v2","pSARL_v2so48nfxd","650353f26c87883d93c42b60","freq_resp","img/orange_2bandit_b.png","70","70","test","","","","5","",""
"null","253314","pSARL_v2","pSARL_v2so48nfxd","650353f26c87883d93c42b60","fixation","img/fixation.png","null","","test","","","","","",""
"367.69999998807907","253686","pSARL_v2","pSARL_v2so48nfxd","650353f26c87883d93c42b60","freq","img/orange_2bandit_b2.png","70","70","test","1","95","95","5","",""
"null","254123","pSARL_v2","pSARL_v2so48nfxd","650353f26c87883d93c42b60","freq_resp","img/orange_2bandit_b.png","70","70","test","","","","5","",""
"null","254293","pSARL_v2","pSARL_v2so48nfxd","650353f26c87883d93c42b60","fixation","img/fixation.png","null","","test","","","","","",""
"279.80000001192093","254577","pSARL_v2","pSARL_v2so48nfxd","650353f26c87883d93c42b60","freq","img/orange_2bandit_b2.png","70","70","test","1","96","96","5","",""
"null","255102","pSARL_v2","pSARL_v2so48nfxd","650353f26c87883d93c42b60","freq_resp","img/orange_2bandit_b.png","70","70","test","","","","5","",""
"null","255258","pSARL_v2","pSARL_v2so48nfxd","650353f26c87883d93c42b60","fixation","img/fixation.png","null","","test","","","","","",""
"270.5999999642372","255533","pSARL_v2","pSARL_v2so48nfxd","650353f26c87883d93c42b60","freq","img/orange_2bandit_b2.png","70","70","test","1","97","97","5","",""
"null","256073","pSARL_v2","pSARL_v2so48nfxd","650353f26c87883d93c42b60","freq_resp","img/orange_2bandit_b.png","70","70","test","","","","5","",""
"null","256242","pSARL_v2","pSARL_v2so48nfxd","650353f26c87883d93c42b60","fixation","img/fixation.png","null","","test","","","","","",""
"266.80000001192093","256513","pSARL_v2","pSARL_v2so48nfxd","650353f26c87883d93c42b60","freq","img/orange_2bandit_b2.png","70","70","test","1","98","98","5","",""
"null","257054","pSARL_v2","pSARL_v2so48nfxd","650353f26c87883d93c42b60","freq_resp","img/orange_2bandit_b.png","70","70","test","","","","5","",""
"null","257210","pSARL_v2","pSARL_v2so48nfxd","650353f26c87883d93c42b60","fixation","img/fixation.png","null","","test","","","","","",""
"234.0999999642372","257448","pSARL_v2","pSARL_v2so48nfxd","650353f26c87883d93c42b60","freq","img/orange_2bandit_b2.png","70","70","test","1","99","99","5","",""
"null","258022","pSARL_v2","pSARL_v2so48nfxd","650353f26c87883d93c42b60","freq_resp","img/orange_2bandit_b.png","70","70","test","","","","5","",""
"null","258180","pSARL_v2","pSARL_v2so48nfxd","650353f26c87883d93c42b60","fixation","img/fixation.png","null","","test","","","","","",""
"475.19999998807907","258659","pSARL_v2","pSARL_v2so48nfxd","650353f26c87883d93c42b60","infreq","img/green_2bandit_b2.png","68","68","test","1","100","100","5","",""
"null","259001","pSARL_v2","pSARL_v2so48nfxd","650353f26c87883d93c42b60","infreq_resp","img/green_2bandit_b.png","68","68","test","","","","5","",""
"null","259173","pSARL_v2","pSARL_v2so48nfxd","650353f26c87883d93c42b60","fixation","img/fixation.png","null","","test","","","","","",""
"391.30000001192093","259568","pSARL_v2","pSARL_v2so48nfxd","650353f26c87883d93c42b60","infreq","img/green_2bandit_b2.png","68","68","test","1","101","101","5","",""
"null","259985","pSARL_v2","pSARL_v2so48nfxd","650353f26c87883d93c42b60","infreq_resp","img/green_2bandit_b.png","68","68","test","","","","5","",""
"null","260142","pSARL_v2","pSARL_v2so48nfxd","650353f26c87883d93c42b60","fixation","img/fixation.png","null","","test","","","","","",""
"393.89999997615814","260540","pSARL_v2","pSARL_v2so48nfxd","650353f26c87883d93c42b60","freq","img/orange_2bandit_b2.png","70","70","test","1","102","102","5","",""
"null","260954","pSARL_v2","pSARL_v2so48nfxd","650353f26c87883d93c42b60","freq_resp","img/orange_2bandit_b.png","70","70","test","","","","5","",""
"null","261112","pSARL_v2","pSARL_v2so48nfxd","650353f26c87883d93c42b60","fixation","img/fixation.png","null","","test","","","","","",""
"429.30000001192093","261546","pSARL_v2","pSARL_v2so48nfxd","650353f26c87883d93c42b60","infreq","img/green_2bandit_b2.png","68","68","test","1","103","103","5","",""
"null","261933","pSARL_v2","pSARL_v2so48nfxd","650353f26c87883d93c42b60","infreq_resp","img/green_2bandit_b.png","68","68","test","","","","5","",""
"null","262103","pSARL_v2","pSARL_v2so48nfxd","650353f26c87883d93c42b60","fixation","img/fixation.png","null","","test","","","","","",""
"465.10000002384186","262572","pSARL_v2","pSARL_v2so48nfxd","650353f26c87883d93c42b60","freq","img/orange_2bandit_b2.png","70","70","test","1","104","104","5","",""
"null","262914","pSARL_v2","pSARL_v2so48nfxd","650353f26c87883d93c42b60","freq_resp","img/orange_2bandit_b.png","70","70","test","","","","5","",""
"null","263073","pSARL_v2","pSARL_v2so48nfxd","650353f26c87883d93c42b60","fixation","img/fixation.png","null","","test","","","","","",""
"376.5999999642372","263453","pSARL_v2","pSARL_v2so48nfxd","650353f26c87883d93c42b60","freq","img/orange_2bandit_b2.png","70","70","test","1","105","105","5","",""
"null","263897","pSARL_v2","pSARL_v2so48nfxd","650353f26c87883d93c42b60","freq_resp","img/orange_2bandit_b.png","70","70","test","","","","5","",""
"null","264052","pSARL_v2","pSARL_v2so48nfxd","650353f26c87883d93c42b60","fixation","img/fixation.png","null","","test","","","","","",""
"278.7999999523163","264335","pSARL_v2","pSARL_v2so48nfxd","650353f26c87883d93c42b60","freq","img/orange_2bandit_b2.png","70","70","test","1","106","106","5","",""
"null","264863","pSARL_v2","pSARL_v2so48nfxd","650353f26c87883d93c42b60","freq_resp","img/orange_2bandit_b.png","70","70","test","","","","5","",""
"null","265033","pSARL_v2","pSARL_v2so48nfxd","650353f26c87883d93c42b60","fixation","img/fixation.png","null","","test","","","","","",""
"460.19999998807907","265497","pSARL_v2","pSARL_v2so48nfxd","650353f26c87883d93c42b60","reward","img/slot.png","74","","test","","","","","",""
"null","266255","pSARL_v2","pSARL_v2so48nfxd","650353f26c87883d93c42b60","points","<div class=""veryhighPoints""> +1 </div>","null","na","test","","","","5","1","4"
"311.10000002384186","266571","pSARL_v2","pSARL_v2so48nfxd","650353f26c87883d93c42b60","freq","img/orange_2bandit_b2.png","70","70","test","1","107","107","6","",""
"null","267067","pSARL_v2","pSARL_v2so48nfxd","650353f26c87883d93c42b60","freq_resp","img/orange_2bandit_b.png","70","70","test","","","","6","",""
"null","267227","pSARL_v2","pSARL_v2so48nfxd","650353f26c87883d93c42b60","fixation","img/fixation.png","null","","test","","","","","",""
"257.80000001192093","267488","pSARL_v2","pSARL_v2so48nfxd","650353f26c87883d93c42b60","freq","img/orange_2bandit_b2.png","70","70","test","1","108","108","6","",""
"null","268036","pSARL_v2","pSARL_v2so48nfxd","650353f26c87883d93c42b60","freq_resp","img/orange_2bandit_b.png","70","70","test","","","","6","",""
"null","268193","pSARL_v2","pSARL_v2so48nfxd","650353f26c87883d93c42b60","fixation","img/fixation.png","null","","test","","","","","",""
"268.5","268465","pSARL_v2","pSARL_v2so48nfxd","650353f26c87883d93c42b60","freq","img/orange_2bandit_b2.png","70","70","test","1","109","109","6","",""
"null","269017","pSARL_v2","pSARL_v2so48nfxd","650353f26c87883d93c42b60","freq_resp","img/orange_2bandit_b.png","70","70","test","","","","6","",""
"null","269172","pSARL_v2","pSARL_v2so48nfxd","650353f26c87883d93c42b60","fixation","img/fixation.png","null","","test","","","","","",""
"280.7999999523163","269456","pSARL_v2","pSARL_v2so48nfxd","650353f26c87883d93c42b60","freq","img/orange_2bandit_b2.png","70","70","test","1","110","110","6","",""
"null","269981","pSARL_v2","pSARL_v2so48nfxd","650353f26c87883d93c42b60","freq_resp","img/orange_2bandit_b.png","70","70","test","","","","6","",""
"null","270138","pSARL_v2","pSARL_v2so48nfxd","650353f26c87883d93c42b60","fixation","img/fixation.png","null","","test","","","","","",""
"223","270365","pSARL_v2","pSARL_v2so48nfxd","650353f26c87883d93c42b60","freq","img/orange_2bandit_b2.png","70","70","test","1","111","111","6","",""
"null","270961","pSARL_v2","pSARL_v2so48nfxd","650353f26c87883d93c42b60","freq_resp","img/orange_2bandit_b.png","70","70","test","","","","6","",""
"null","271119","pSARL_v2","pSARL_v2so48nfxd","650353f26c87883d93c42b60","fixation","img/fixation.png","null","","test","","","","","",""
"273.89999997615814","271406","pSARL_v2","pSARL_v2so48nfxd","650353f26c87883d93c42b60","freq","img/orange_2bandit_b2.png","70","70","test","1","112","112","6","",""
"null","271947","pSARL_v2","pSARL_v2so48nfxd","650353f26c87883d93c42b60","freq_resp","img/orange_2bandit_b.png","70","70","test","","","","6","",""
"null","272103","pSARL_v2","pSARL_v2so48nfxd","650353f26c87883d93c42b60","fixation","img/fixation.png","null","","test","","","","","",""
"241.89999997615814","272350","pSARL_v2","pSARL_v2so48nfxd","650353f26c87883d93c42b60","freq","img/orange_2bandit_b2.png","70","70","test","1","113","113","6","",""
"null","272913","pSARL_v2","pSARL_v2so48nfxd","650353f26c87883d93c42b60","freq_resp","img/orange_2bandit_b.png","70","70","test","","","","6","",""
"null","273069","pSARL_v2","pSARL_v2so48nfxd","650353f26c87883d93c42b60","fixation","img/fixation.png","null","","test","","","","","",""
"248.70000004768372","273321","pSARL_v2","pSARL_v2so48nfxd","650353f26c87883d93c42b60","freq","img/orange_2bandit_b2.png","70","70","test","1","114","114","6","",""
"null","273885","pSARL_v2","pSARL_v2so48nfxd","650353f26c87883d93c42b60","freq_resp","img/orange_2bandit_b.png","70","70","test","","","","6","",""
"null","274044","pSARL_v2","pSARL_v2so48nfxd","650353f26c87883d93c42b60","fixation","img/fixation.png","null","","test","","","","","",""
"294.69999998807907","274342","pSARL_v2","pSARL_v2so48nfxd","650353f26c87883d93c42b60","freq","img/orange_2bandit_b2.png","70","70","test","1","115","115","6","",""
"null","274857","pSARL_v2","pSARL_v2so48nfxd","650353f26c87883d93c42b60","freq_resp","img/orange_2bandit_b.png","70","70","test","","","","6","",""
"null","275027","pSARL_v2","pSARL_v2so48nfxd","650353f26c87883d93c42b60","fixation","img/fixation.png","null","","test","","","","","",""
"240.30000001192093","275272","pSARL_v2","pSARL_v2so48nfxd","650353f26c87883d93c42b60","infreq","img/green_2bandit_b2.png","70","68","test","0","116","116","6","",""
"null","275838","pSARL_v2","pSARL_v2so48nfxd","650353f26c87883d93c42b60","infreq_resp","img/green_2bandit_b.png","70","68","test","","","","6","",""
"null","275995","pSARL_v2","pSARL_v2so48nfxd","650353f26c87883d93c42b60","fixation","img/fixation.png","null","","test","","","","","",""
"375.0999999642372","276374","pSARL_v2","pSARL_v2so48nfxd","650353f26c87883d93c42b60","freq","img/orange_2bandit_b2.png","70","70","test","1","117","117","6","",""
"null","276819","pSARL_v2","pSARL_v2so48nfxd","650353f26c87883d93c42b60","freq_resp","img/orange_2bandit_b.png","70","70","test","","","","6","",""
"null","276988","pSARL_v2","pSARL_v2so48nfxd","650353f26c87883d93c42b60","fixation","img/fixation.png","null","","test","","","","","",""
"240.79999995231628","277234","pSARL_v2","pSARL_v2so48nfxd","650353f26c87883d93c42b60","infreq","img/green_2bandit_b2.png","70","68","test","0","118","118","6","",""
"null","277810","pSARL_v2","pSARL_v2so48nfxd","650353f26c87883d93c42b60","infreq_resp","img/green_2bandit_b.png","70","68","test","","","","6","",""
"null","277966","pSARL_v2","pSARL_v2so48nfxd","650353f26c87883d93c42b60","fixation","img/fixation.png","null","","test","","","","","",""
"309.80000001192093","278289","pSARL_v2","pSARL_v2so48nfxd","650353f26c87883d93c42b60","freq","img/orange_2bandit_b2.png","70","70","test","1","119","119","6","",""
"null","278794","pSARL_v2","pSARL_v2so48nfxd","650353f26c87883d93c42b60","freq_resp","img/orange_2bandit_b.png","70","70","test","","","","6","",""
"null","278949","pSARL_v2","pSARL_v2so48nfxd","650353f26c87883d93c42b60","fixation","img/fixation.png","null","","test","","","","","",""
"244.89999997615814","279198","pSARL_v2","pSARL_v2so48nfxd","650353f26c87883d93c42b60","freq","img/orange_2bandit_b2.png","70","70","test","1","120","120","6","",""
"null","279764","pSARL_v2","pSARL_v2so48nfxd","650353f26c87883d93c42b60","freq_resp","img/orange_2bandit_b.png","70","70","test","","","","6","",""
"null","279932","pSARL_v2","pSARL_v2so48nfxd","650353f26c87883d93c42b60","fixation","img/fixation.png","null","","test","","","","","",""
"352.2000000476837","280288","pSARL_v2","pSARL_v2so48nfxd","650353f26c87883d93c42b60","freq","img/orange_2bandit_b2.png","70","70","test","1","121","121","6","",""
"null","280739","pSARL_v2","pSARL_v2so48nfxd","650353f26c87883d93c42b60","freq_resp","img/orange_2bandit_b.png","70","70","test","","","","6","",""
"null","280909","pSARL_v2","pSARL_v2so48nfxd","650353f26c87883d93c42b60","fixation","img/fixation.png","null","","test","","","","","",""
"249.5999999642372","281163","pSARL_v2","pSARL_v2so48nfxd","650353f26c87883d93c42b60","freq","img/orange_2bandit_b2.png","70","70","test","1","122","122","6","",""
"null","281722","pSARL_v2","pSARL_v2so48nfxd","650353f26c87883d93c42b60","freq_resp","img/orange_2bandit_b.png","70","70","test","","","","6","",""
"null","281883","pSARL_v2","pSARL_v2so48nfxd","650353f26c87883d93c42b60","fixation","img/fixation.png","null","","test","","","","","",""
"255.5","282143","pSARL_v2","pSARL_v2so48nfxd","650353f26c87883d93c42b60","freq","img/orange_2bandit_b2.png","70","70","test","1","123","123","6","",""
"null","282705","pSARL_v2","pSARL_v2so48nfxd","650353f26c87883d93c42b60","freq_resp","img/orange_2bandit_b.png","70","70","test","","","","6","",""
"null","282863","pSARL_v2","pSARL_v2so48nfxd","650353f26c87883d93c42b60","fixation","img/fixation.png","null","","test","","","","","",""
"334.4000000357628","283201","pSARL_v2","pSARL_v2so48nfxd","650353f26c87883d93c42b60","freq","img/orange_2bandit_b2.png","70","70","test","1","124","124","6","",""
"null","283675","pSARL_v2","pSARL_v2so48nfxd","650353f26c87883d93c42b60","freq_resp","img/orange_2bandit_b.png","70","70","test","","","","6","",""
"null","283846","pSARL_v2","pSARL_v2so48nfxd","650353f26c87883d93c42b60","fixation","img/fixation.png","null","","test","","","","","",""
"258.69999998807907","284109","pSARL_v2","pSARL_v2so48nfxd","650353f26c87883d93c42b60","freq","img/orange_2bandit_b2.png","70","70","test","1","125","125","6","",""
"null","284670","pSARL_v2","pSARL_v2so48nfxd","650353f26c87883d93c42b60","freq_resp","img/orange_2bandit_b.png","70","70","test","","","","6","",""
"null","284826","pSARL_v2","pSARL_v2so48nfxd","650353f26c87883d93c42b60","fixation","img/fixation.png","null","","test","","","","","",""
"365.5","285197","pSARL_v2","pSARL_v2so48nfxd","650353f26c87883d93c42b60","freq","img/orange_2bandit_b2.png","70","70","test","1","126","126","6","",""
"null","285648","pSARL_v2","pSARL_v2so48nfxd","650353f26c87883d93c42b60","freq_resp","img/orange_2bandit_b.png","70","70","test","","","","6","",""
"null","285805","pSARL_v2","pSARL_v2so48nfxd","650353f26c87883d93c42b60","fixation","img/fixation.png","null","","test","","","","","",""
"231.10000002384186","286040","pSARL_v2","pSARL_v2so48nfxd","650353f26c87883d93c42b60","freq","img/orange_2bandit_b2.png","70","70","test","1","127","127","6","",""
"null","286619","pSARL_v2","pSARL_v2so48nfxd","650353f26c87883d93c42b60","freq_resp","img/orange_2bandit_b.png","70","70","test","","","","6","",""
"null","286774","pSARL_v2","pSARL_v2so48nfxd","650353f26c87883d93c42b60","fixation","img/fixation.png","null","","test","","","","","",""
"240.80000001192093","287019","pSARL_v2","pSARL_v2so48nfxd","650353f26c87883d93c42b60","freq","img/orange_2bandit_b2.png","70","70","test","1","128","128","6","",""
"null","287584","pSARL_v2","pSARL_v2so48nfxd","650353f26c87883d93c42b60","freq_resp","img/orange_2bandit_b.png","70","70","test","","","","6","",""
"null","287753","pSARL_v2","pSARL_v2so48nfxd","650353f26c87883d93c42b60","fixation","img/fixation.png","null","","test","","","","","",""
"251.19999998807907","288008","pSARL_v2","pSARL_v2so48nfxd","650353f26c87883d93c42b60","freq","img/orange_2bandit_b2.png","70","70","test","1","129","129","6","",""
"null","288566","pSARL_v2","pSARL_v2so48nfxd","650353f26c87883d93c42b60","freq_resp","img/orange_2bandit_b.png","70","70","test","","","","6","",""
"null","288736","pSARL_v2","pSARL_v2so48nfxd","650353f26c87883d93c42b60","fixation","img/fixation.png","null","","test","","","","","",""
"538.0999999642372","289278","pSARL_v2","pSARL_v2so48nfxd","650353f26c87883d93c42b60","reward","img/slot.png","74","","test","","","","","",""
"null","290043","pSARL_v2","pSARL_v2so48nfxd","650353f26c87883d93c42b60","points","<div class=""verylowPoints""> -7 </div>","null","na","test","","","","6","-7","5"
"466.69999998807907","290514","pSARL_v2","pSARL_v2so48nfxd","650353f26c87883d93c42b60","freq","img/orange_2bandit_b2.png","70","70","test","1","130","130","7","",""
"null","290866","pSARL_v2","pSARL_v2so48nfxd","650353f26c87883d93c42b60","freq_resp","img/orange_2bandit_b.png","70","70","test","","","","7","",""
"null","291023","pSARL_v2","pSARL_v2so48nfxd","650353f26c87883d93c42b60","fixation","img/fixation.png","null","","test","","","","","",""
"311.80000001192093","291339","pSARL_v2","pSARL_v2so48nfxd","650353f26c87883d93c42b60","freq","img/orange_2bandit_b2.png","70","70","test","1","131","131","7","",""
"null","291834","pSARL_v2","pSARL_v2so48nfxd","650353f26c87883d93c42b60","freq_resp","img/orange_2bandit_b.png","70","70","test","","","","7","",""
"null","291991","pSARL_v2","pSARL_v2so48nfxd","650353f26c87883d93c42b60","fixation","img/fixation.png","null","","test","","","","","",""
"320.69999998807907","292316","pSARL_v2","pSARL_v2so48nfxd","650353f26c87883d93c42b60","freq","img/orange_2bandit_b2.png","70","70","test","1","132","132","7","",""
"null","292801","pSARL_v2","pSARL_v2so48nfxd","650353f26c87883d93c42b60","freq_resp","img/orange_2bandit_b.png","70","70","test","","","","7","",""
"null","292958","pSARL_v2","pSARL_v2so48nfxd","650353f26c87883d93c42b60","fixation","img/fixation.png","null","","test","","","","","",""
"278.39999997615814","293241","pSARL_v2","pSARL_v2so48nfxd","650353f26c87883d93c42b60","freq","img/orange_2bandit_b2.png","70","70","test","1","133","133","7","",""
"null","293769","pSARL_v2","pSARL_v2so48nfxd","650353f26c87883d93c42b60","freq_resp","img/orange_2bandit_b.png","70","70","test","","","","7","",""
"null","293930","pSARL_v2","pSARL_v2so48nfxd","650353f26c87883d93c42b60","fixation","img/fixation.png","null","","test","","","","","",""
"289.30000001192093","294223","pSARL_v2","pSARL_v2so48nfxd","650353f26c87883d93c42b60","freq","img/orange_2bandit_b2.png","70","70","test","1","134","134","7","",""
"null","294749","pSARL_v2","pSARL_v2so48nfxd","650353f26c87883d93c42b60","freq_resp","img/orange_2bandit_b.png","70","70","test","","","","7","",""
"null","294906","pSARL_v2","pSARL_v2so48nfxd","650353f26c87883d93c42b60","fixation","img/fixation.png","null","","test","","","","","",""
"285.19999998807907","295197","pSARL_v2","pSARL_v2so48nfxd","650353f26c87883d93c42b60","freq","img/orange_2bandit_b2.png","70","70","test","1","135","135","7","",""
"null","295732","pSARL_v2","pSARL_v2so48nfxd","650353f26c87883d93c42b60","freq_resp","img/orange_2bandit_b.png","70","70","test","","","","7","",""
"null","295902","pSARL_v2","pSARL_v2so48nfxd","650353f26c87883d93c42b60","fixation","img/fixation.png","null","","test","","","","","",""
"247.39999997615814","296154","pSARL_v2","pSARL_v2so48nfxd","650353f26c87883d93c42b60","freq","img/orange_2bandit_b2.png","70","70","test","1","136","136","7","",""
"null","296716","pSARL_v2","pSARL_v2so48nfxd","650353f26c87883d93c42b60","freq_resp","img/orange_2bandit_b.png","70","70","test","","","","7","",""
"null","296873","pSARL_v2","pSARL_v2so48nfxd","650353f26c87883d93c42b60","fixation","img/fixation.png","null","","test","","","","","",""
"311.19999998807907","297188","pSARL_v2","pSARL_v2so48nfxd","650353f26c87883d93c42b60","freq","img/orange_2bandit_b2.png","70","70","test","1","137","137","7","",""
"null","297695","pSARL_v2","pSARL_v2so48nfxd","650353f26c87883d93c42b60","freq_resp","img/orange_2bandit_b.png","70","70","test","","","","7","",""
"null","297851","pSARL_v2","pSARL_v2so48nfxd","650353f26c87883d93c42b60","fixation","img/fixation.png","null","","test","","","","","",""
"227.69999998807907","298083","pSARL_v2","pSARL_v2so48nfxd","650353f26c87883d93c42b60","infreq","img/green_2bandit_b2.png","70","68","test","0","138","138","7","",""
"null","298665","pSARL_v2","pSARL_v2so48nfxd","650353f26c87883d93c42b60","infreq_resp","img/green_2bandit_b.png","70","68","test","","","","7","",""
"null","298835","pSARL_v2","pSARL_v2so48nfxd","650353f26c87883d93c42b60","fixation","img/fixation.png","null","","test","","","","","",""
"348.39999997615814","299188","pSARL_v2","pSARL_v2so48nfxd","650353f26c87883d93c42b60","freq","img/orange_2bandit_b2.png","70","70","test","1","139","139","7","",""
"null","299658","pSARL_v2","pSARL_v2so48nfxd","650353f26c87883d93c42b60","freq_resp","img/orange_2bandit_b.png","70","70","test","","","","7","",""
"null","299816","pSARL_v2","pSARL_v2so48nfxd","650353f26c87883d93c42b60","fixation","img/fixation.png","null","","test","","","","","",""
"317","300137","pSARL_v2","pSARL_v2so48nfxd","650353f26c87883d93c42b60","freq","img/orange_2bandit_b2.png","70","70","test","1","140","140","7","",""
"null","300628","pSARL_v2","pSARL_v2so48nfxd","650353f26c87883d93c42b60","freq_resp","img/orange_2bandit_b.png","70","70","test","","","","7","",""
"null","300785","pSARL_v2","pSARL_v2so48nfxd","650353f26c87883d93c42b60","fixation","img/fixation.png","null","","test","","","","","",""
"472.10000002384186","301261","pSARL_v2","pSARL_v2so48nfxd","650353f26c87883d93c42b60","freq","img/orange_2bandit_b2.png","70","70","test","1","141","141","7","",""
"null","301608","pSARL_v2","pSARL_v2so48nfxd","650353f26c87883d93c42b60","freq_resp","img/orange_2bandit_b.png","70","70","test","","","","7","",""
"null","301766","pSARL_v2","pSARL_v2so48nfxd","650353f26c87883d93c42b60","fixation","img/fixation.png","null","","test","","","","","",""
"308","302078","pSARL_v2","pSARL_v2so48nfxd","650353f26c87883d93c42b60","freq","img/orange_2bandit_b2.png","70","70","test","1","142","142","7","",""
"null","302586","pSARL_v2","pSARL_v2so48nfxd","650353f26c87883d93c42b60","freq_resp","img/orange_2bandit_b.png","70","70","test","","","","7","",""
"null","302744","pSARL_v2","pSARL_v2so48nfxd","650353f26c87883d93c42b60","fixation","img/fixation.png","null","","test","","","","","",""
"537.5","303286","pSARL_v2","pSARL_v2so48nfxd","650353f26c87883d93c42b60","freq","img/orange_2bandit_b2.png","70","70","test","1","143","143","7","",""
"null","303552","pSARL_v2","pSARL_v2so48nfxd","650353f26c87883d93c42b60","freq_resp","img/orange_2bandit_b.png","70","70","test","","","","7","",""
"null","303707","pSARL_v2","pSARL_v2so48nfxd","650353f26c87883d93c42b60","fixation","img/fixation.png","null","","test","","","","","",""
"280.89999997615814","303992","pSARL_v2","pSARL_v2so48nfxd","650353f26c87883d93c42b60","freq","img/orange_2bandit_b2.png","70","70","test","1","144","144","7","",""
"null","304610","pSARL_v2","pSARL_v2so48nfxd","650353f26c87883d93c42b60","freq_resp","img/orange_2bandit_b.png","70","70","test","","","","7","",""
"null","304779","pSARL_v2","pSARL_v2so48nfxd","650353f26c87883d93c42b60","fixation","img/fixation.png","null","","test","","","","","",""
"253.19999998807907","305036","pSARL_v2","pSARL_v2so48nfxd","650353f26c87883d93c42b60","freq","img/orange_2bandit_b2.png","70","70","test","1","145","145","7","",""
"null","305587","pSARL_v2","pSARL_v2so48nfxd","650353f26c87883d93c42b60","freq_resp","img/orange_2bandit_b.png","70","70","test","","","","7","",""
"null","305743","pSARL_v2","pSARL_v2so48nfxd","650353f26c87883d93c42b60","fixation","img/fixation.png","null","","test","","","","","",""
"300","306048","pSARL_v2","pSARL_v2so48nfxd","650353f26c87883d93c42b60","freq","img/orange_2bandit_b2.png","70","70","test","1","146","146","7","",""
"null","306557","pSARL_v2","pSARL_v2so48nfxd","650353f26c87883d93c42b60","freq_resp","img/orange_2bandit_b.png","70","70","test","","","","7","",""
"null","306725","pSARL_v2","pSARL_v2so48nfxd","650353f26c87883d93c42b60","fixation","img/fixation.png","null","","test","","","","","",""
"231.39999997615814","306961","pSARL_v2","pSARL_v2so48nfxd","650353f26c87883d93c42b60","freq","img/orange_2bandit_b2.png","70","70","test","1","147","147","7","",""
"null","307536","pSARL_v2","pSARL_v2so48nfxd","650353f26c87883d93c42b60","freq_resp","img/orange_2bandit_b.png","70","70","test","","","","7","",""
"null","307692","pSARL_v2","pSARL_v2so48nfxd","650353f26c87883d93c42b60","fixation","img/fixation.png","null","","test","","","","","",""
"309","308006","pSARL_v2","pSARL_v2so48nfxd","650353f26c87883d93c42b60","freq","img/orange_2bandit_b2.png","70","70","test","1","148","148","7","",""
"null","308515","pSARL_v2","pSARL_v2so48nfxd","650353f26c87883d93c42b60","freq_resp","img/orange_2bandit_b.png","70","70","test","","","","7","",""
"null","308672","pSARL_v2","pSARL_v2so48nfxd","650353f26c87883d93c42b60","fixation","img/fixation.png","null","","test","","","","","",""
"301.2999999523163","308978","pSARL_v2","pSARL_v2so48nfxd","650353f26c87883d93c42b60","freq","img/orange_2bandit_b2.png","70","70","test","1","149","149","7","",""
"null","309482","pSARL_v2","pSARL_v2so48nfxd","650353f26c87883d93c42b60","freq_resp","img/orange_2bandit_b.png","70","70","test","","","","7","",""
"null","309639","pSARL_v2","pSARL_v2so48nfxd","650353f26c87883d93c42b60","fixation","img/fixation.png","null","","test","","","","","",""
"161.30000001192093","309804","pSARL_v2","pSARL_v2so48nfxd","650353f26c87883d93c42b60","freq","img/orange_2bandit_b2.png","70","70","test","1","150","150","7","",""
"null","310456","pSARL_v2","pSARL_v2so48nfxd","650353f26c87883d93c42b60","freq_resp","img/orange_2bandit_b.png","70","70","test","","","","7","",""
"null","310614","pSARL_v2","pSARL_v2so48nfxd","650353f26c87883d93c42b60","fixation","img/fixation.png","null","","test","","","","","",""
"279.60000002384186","310897","pSARL_v2","pSARL_v2so48nfxd","650353f26c87883d93c42b60","freq","img/orange_2bandit_b2.png","70","70","test","1","151","151","7","",""
"null","311426","pSARL_v2","pSARL_v2so48nfxd","650353f26c87883d93c42b60","freq_resp","img/orange_2bandit_b.png","70","70","test","","","","7","",""
"null","311582","pSARL_v2","pSARL_v2so48nfxd","650353f26c87883d93c42b60","fixation","img/fixation.png","null","","test","","","","","",""
"422.4000000357628","312008","pSARL_v2","pSARL_v2so48nfxd","650353f26c87883d93c42b60","infreq","img/green_2bandit_b2.png","68","68","test","1","152","152","7","",""
"null","312395","pSARL_v2","pSARL_v2so48nfxd","650353f26c87883d93c42b60","infreq_resp","img/green_2bandit_b.png","68","68","test","","","","7","",""
"null","312563","pSARL_v2","pSARL_v2so48nfxd","650353f26c87883d93c42b60","fixation","img/fixation.png","null","","test","","","","","",""
"451","313018","pSARL_v2","pSARL_v2so48nfxd","650353f26c87883d93c42b60","freq","img/orange_2bandit_b2.png","70","70","test","1","153","153","7","",""
"null","313388","pSARL_v2","pSARL_v2so48nfxd","650353f26c87883d93c42b60","freq_resp","img/orange_2bandit_b.png","70","70","test","","","","7","",""
"null","313557","pSARL_v2","pSARL_v2so48nfxd","650353f26c87883d93c42b60","fixation","img/fixation.png","null","","test","","","","","",""
"326.5","313888","pSARL_v2","pSARL_v2so48nfxd","650353f26c87883d93c42b60","freq","img/orange_2bandit_b2.png","70","70","test","1","154","154","7","",""
"null","314365","pSARL_v2","pSARL_v2so48nfxd","650353f26c87883d93c42b60","freq_resp","img/orange_2bandit_b.png","70","70","test","","","","7","",""
"null","314522","pSARL_v2","pSARL_v2so48nfxd","650353f26c87883d93c42b60","fixation","img/fixation.png","null","","test","","","","","",""
"234.39999997615814","314761","pSARL_v2","pSARL_v2so48nfxd","650353f26c87883d93c42b60","freq","img/orange_2bandit_b2.png","70","70","test","1","155","155","7","",""
"null","315344","pSARL_v2","pSARL_v2so48nfxd","650353f26c87883d93c42b60","freq_resp","img/orange_2bandit_b.png","70","70","test","","","","7","",""
"null","315501","pSARL_v2","pSARL_v2so48nfxd","650353f26c87883d93c42b60","fixation","img/fixation.png","null","","test","","","","","",""
"388.4000000357628","315894","pSARL_v2","pSARL_v2so48nfxd","650353f26c87883d93c42b60","reward","img/slot.png","74","","test","","","","","",""
"null","316650","pSARL_v2","pSARL_v2so48nfxd","650353f26c87883d93c42b60","points","<div class=""verylowPoints""> -6 </div>","null","na","test","","","","7","-6","6"
"344","316999","pSARL_v2","pSARL_v2so48nfxd","650353f26c87883d93c42b60","freq","img/orange_2bandit_b2.png","70","70","test","1","156","156","8","",""
"null","317562","pSARL_v2","pSARL_v2so48nfxd","650353f26c87883d93c42b60","freq_resp","img/orange_2bandit_b.png","70","70","test","","","","8","",""
"null","317728","pSARL_v2","pSARL_v2so48nfxd","650353f26c87883d93c42b60","fixation","img/fixation.png","null","","test","","","","","",""
"266.69999998807907","317999","pSARL_v2","pSARL_v2so48nfxd","650353f26c87883d93c42b60","freq","img/orange_2bandit_b2.png","70","70","test","1","157","157","8","",""
"null","318542","pSARL_v2","pSARL_v2so48nfxd","650353f26c87883d93c42b60","freq_resp","img/orange_2bandit_b.png","70","70","test","","","","8","",""
"null","318713","pSARL_v2","pSARL_v2so48nfxd","650353f26c87883d93c42b60","fixation","img/fixation.png","null","","test","","","","","",""
"290.80000001192093","319008","pSARL_v2","pSARL_v2so48nfxd","650353f26c87883d93c42b60","freq","img/orange_2bandit_b2.png","70","70","test","1","158","158","8","",""
"null","319534","pSARL_v2","pSARL_v2so48nfxd","650353f26c87883d93c42b60","freq_resp","img/orange_2bandit_b.png","70","70","test","","","","8","",""
"null","319695","pSARL_v2","pSARL_v2so48nfxd","650353f26c87883d93c42b60","fixation","img/fixation.png","null","","test","","","","","",""
"310","320009","pSARL_v2","pSARL_v2so48nfxd","650353f26c87883d93c42b60","freq","img/orange_2bandit_b2.png","70","70","test","1","159","159","8","",""
"null","320519","pSARL_v2","pSARL_v2so48nfxd","650353f26c87883d93c42b60","freq_resp","img/orange_2bandit_b.png","70","70","test","","","","8","",""
"null","320675","pSARL_v2","pSARL_v2so48nfxd","650353f26c87883d93c42b60","fixation","img/fixation.png","null","","test","","","","","",""
"390.10000002384186","321070","pSARL_v2","pSARL_v2so48nfxd","650353f26c87883d93c42b60","freq","img/orange_2bandit_b2.png","70","70","test","1","160","160","8","",""
"null","321498","pSARL_v2","pSARL_v2so48nfxd","650353f26c87883d93c42b60","freq_resp","img/orange_2bandit_b.png","70","70","test","","","","8","",""
"null","321652","pSARL_v2","pSARL_v2so48nfxd","650353f26c87883d93c42b60","fixation","img/fixation.png","null","","test","","","","","",""
"325.5","321982","pSARL_v2","pSARL_v2so48nfxd","650353f26c87883d93c42b60","freq","img/orange_2bandit_b2.png","70","70","test","1","161","161","8","",""
"null","322596","pSARL_v2","pSARL_v2so48nfxd","650353f26c87883d93c42b60","freq_resp","img/orange_2bandit_b.png","70","70","test","","","","8","",""
"null","322757","pSARL_v2","pSARL_v2so48nfxd","650353f26c87883d93c42b60","fixation","img/fixation.png","null","","test","","","","","",""
"293.0999999642372","323053","pSARL_v2","pSARL_v2so48nfxd","650353f26c87883d93c42b60","freq","img/orange_2bandit_b2.png","70","70","test","1","162","162","8","",""
"null","323567","pSARL_v2","pSARL_v2so48nfxd","650353f26c87883d93c42b60","freq_resp","img/orange_2bandit_b.png","70","70","test","","","","8","",""
"null","323723","pSARL_v2","pSARL_v2so48nfxd","650353f26c87883d93c42b60","fixation","img/fixation.png","null","","test","","","","","",""
"417.10000002384186","324146","pSARL_v2","pSARL_v2so48nfxd","650353f26c87883d93c42b60","freq","img/orange_2bandit_b2.png","70","70","test","1","163","163","8","",""
"null","324535","pSARL_v2","pSARL_v2so48nfxd","650353f26c87883d93c42b60","freq_resp","img/orange_2bandit_b.png","70","70","test","","","","8","",""
"null","324704","pSARL_v2","pSARL_v2so48nfxd","650353f26c87883d93c42b60","fixation","img/fixation.png","null","","test","","","","","",""
"327.5","325035","pSARL_v2","pSARL_v2so48nfxd","650353f26c87883d93c42b60","freq","img/orange_2bandit_b2.png","70","70","test","1","164","164","8","",""
"null","325525","pSARL_v2","pSARL_v2so48nfxd","650353f26c87883d93c42b60","freq_resp","img/orange_2bandit_b.png","70","70","test","","","","8","",""
"null","325695","pSARL_v2","pSARL_v2so48nfxd","650353f26c87883d93c42b60","fixation","img/fixation.png","null","","test","","","","","",""
"429.39999997615814","326128","pSARL_v2","pSARL_v2so48nfxd","650353f26c87883d93c42b60","infreq","img/green_2bandit_b2.png","68","68","test","1","165","165","8","",""
"null","326504","pSARL_v2","pSARL_v2so48nfxd","650353f26c87883d93c42b60","infreq_resp","img/green_2bandit_b.png","68","68","test","","","","8","",""
"null","326663","pSARL_v2","pSARL_v2so48nfxd","650353f26c87883d93c42b60","fixation","img/fixation.png","null","","test","","","","","",""
"444.5999999642372","327112","pSARL_v2","pSARL_v2so48nfxd","650353f26c87883d93c42b60","freq","img/orange_2bandit_b2.png","70","70","test","1","166","166","8","",""
"null","327486","pSARL_v2","pSARL_v2so48nfxd","650353f26c87883d93c42b60","freq_resp","img/orange_2bandit_b.png","70","70","test","","","","8","",""
"null","327646","pSARL_v2","pSARL_v2so48nfxd","650353f26c87883d93c42b60","fixation","img/fixation.png","null","","test","","","","","",""
"262.39999997615814","327914","pSARL_v2","pSARL_v2so48nfxd","650353f26c87883d93c42b60","infreq","img/green_2bandit_b2.png","70","68","test","0","167","167","8","",""
"null","328466","pSARL_v2","pSARL_v2so48nfxd","650353f26c87883d93c42b60","infreq_resp","img/green_2bandit_b.png","70","68","test","","","","8","",""
"null","328623","pSARL_v2","pSARL_v2so48nfxd","650353f26c87883d93c42b60","fixation","img/fixation.png","null","","test","","","","","",""
"344.5","328972","pSARL_v2","pSARL_v2so48nfxd","650353f26c87883d93c42b60","freq","img/orange_2bandit_b2.png","70","70","test","1","168","168","8","",""
"null","329436","pSARL_v2","pSARL_v2so48nfxd","650353f26c87883d93c42b60","freq_resp","img/orange_2bandit_b.png","70","70","test","","","","8","",""
"null","329592","pSARL_v2","pSARL_v2so48nfxd","650353f26c87883d93c42b60","fixation","img/fixation.png","null","","test","","","","","",""
"221","329817","pSARL_v2","pSARL_v2so48nfxd","650353f26c87883d93c42b60","freq","img/orange_2bandit_b2.png","70","70","test","1","169","169","8","",""
"null","330417","pSARL_v2","pSARL_v2so48nfxd","650353f26c87883d93c42b60","freq_resp","img/orange_2bandit_b.png","70","70","test","","","","8","",""
"null","330574","pSARL_v2","pSARL_v2so48nfxd","650353f26c87883d93c42b60","fixation","img/fixation.png","null","","test","","","","","",""
"134","330712","pSARL_v2","pSARL_v2so48nfxd","650353f26c87883d93c42b60","freq","img/orange_2bandit_b2.png","70","70","test","1","170","170","8","",""
"null","331385","pSARL_v2","pSARL_v2so48nfxd","650353f26c87883d93c42b60","freq_resp","img/orange_2bandit_b.png","70","70","test","","","","8","",""
"null","331543","pSARL_v2","pSARL_v2so48nfxd","650353f26c87883d93c42b60","fixation","img/fixation.png","null","","test","","","","","",""
"283.30000001192093","331831","pSARL_v2","pSARL_v2so48nfxd","650353f26c87883d93c42b60","freq","img/orange_2bandit_b2.png","70","70","test","1","171","171","8","",""
"null","332366","pSARL_v2","pSARL_v2so48nfxd","650353f26c87883d93c42b60","freq_resp","img/orange_2bandit_b.png","70","70","test","","","","8","",""
"null","332525","pSARL_v2","pSARL_v2so48nfxd","650353f26c87883d93c42b60","fixation","img/fixation.png","null","","test","","","","","",""
"234.60000002384186","332764","pSARL_v2","pSARL_v2so48nfxd","650353f26c87883d93c42b60","freq","img/orange_2bandit_b2.png","70","70","test","1","172","172","8","",""
"null","333335","pSARL_v2","pSARL_v2so48nfxd","650353f26c87883d93c42b60","freq_resp","img/orange_2bandit_b.png","70","70","test","","","","8","",""
"null","333504","pSARL_v2","pSARL_v2so48nfxd","650353f26c87883d93c42b60","fixation","img/fixation.png","null","","test","","","","","",""
"245.39999997615814","333754","pSARL_v2","pSARL_v2so48nfxd","650353f26c87883d93c42b60","freq","img/orange_2bandit_b2.png","70","70","test","1","173","173","8","",""
"null","334318","pSARL_v2","pSARL_v2so48nfxd","650353f26c87883d93c42b60","freq_resp","img/orange_2bandit_b.png","70","70","test","","","","8","",""
"null","334487","pSARL_v2","pSARL_v2so48nfxd","650353f26c87883d93c42b60","fixation","img/fixation.png","null","","test","","","","","",""
"111.29999995231628","334602","pSARL_v2","pSARL_v2so48nfxd","650353f26c87883d93c42b60","freq","img/orange_2bandit_b2.png","70","70","test","1","174","174","8","",""
"null","335315","pSARL_v2","pSARL_v2so48nfxd","650353f26c87883d93c42b60","freq_resp","img/orange_2bandit_b.png","70","70","test","","","","8","",""
"null","335483","pSARL_v2","pSARL_v2so48nfxd","650353f26c87883d93c42b60","fixation","img/fixation.png","null","","test","","","","","",""
"321.0999999642372","335808","pSARL_v2","pSARL_v2so48nfxd","650353f26c87883d93c42b60","freq","img/orange_2bandit_b2.png","70","70","test","1","175","175","8","",""
"null","336294","pSARL_v2","pSARL_v2so48nfxd","650353f26c87883d93c42b60","freq_resp","img/orange_2bandit_b.png","70","70","test","","","","8","",""
"null","336451","pSARL_v2","pSARL_v2so48nfxd","650353f26c87883d93c42b60","fixation","img/fixation.png","null","","test","","","","","",""
"439.5","336895","pSARL_v2","pSARL_v2so48nfxd","650353f26c87883d93c42b60","reward","img/slot.png","74","","test","","","","","",""
"null","337655","pSARL_v2","pSARL_v2so48nfxd","650353f26c87883d93c42b60","points","<div class=""verylowPoints""> -4 </div>","null","na","test","","","","8","-4","7"
"306.69999998807907","337966","pSARL_v2","pSARL_v2so48nfxd","650353f26c87883d93c42b60","freq","img/orange_2bandit_b2.png","70","70","test","1","176","176","9","",""
"null","338479","pSARL_v2","pSARL_v2so48nfxd","650353f26c87883d93c42b60","freq_resp","img/orange_2bandit_b.png","70","70","test","","","","9","",""
"null","338638","pSARL_v2","pSARL_v2so48nfxd","650353f26c87883d93c42b60","fixation","img/fixation.png","null","","test","","","","","",""
"313.5","338955","pSARL_v2","pSARL_v2so48nfxd","650353f26c87883d93c42b60","freq","img/orange_2bandit_b2.png","70","70","test","1","177","177","9","",""
"null","339458","pSARL_v2","pSARL_v2so48nfxd","650353f26c87883d93c42b60","freq_resp","img/orange_2bandit_b.png","70","70","test","","","","9","",""
"null","339615","pSARL_v2","pSARL_v2so48nfxd","650353f26c87883d93c42b60","fixation","img/fixation.png","null","","test","","","","","",""
"234","339853","pSARL_v2","pSARL_v2so48nfxd","650353f26c87883d93c42b60","freq","img/orange_2bandit_b2.png","70","70","test","1","178","178","9","",""
"null","340430","pSARL_v2","pSARL_v2so48nfxd","650353f26c87883d93c42b60","freq_resp","img/orange_2bandit_b.png","70","70","test","","","","9","",""
"null","340585","pSARL_v2","pSARL_v2so48nfxd","650353f26c87883d93c42b60","fixation","img/fixation.png","null","","test","","","","","",""
"106.09999996423721","340696","pSARL_v2","pSARL_v2so48nfxd","650353f26c87883d93c42b60","infreq","img/green_2bandit_b2.png","70","68","test","0","179","179","9","",""
"null","341396","pSARL_v2","pSARL_v2so48nfxd","650353f26c87883d93c42b60","infreq_resp","img/green_2bandit_b.png","70","68","test","","","","9","",""
"null","341553","pSARL_v2","pSARL_v2so48nfxd","650353f26c87883d93c42b60","fixation","img/fixation.png","null","","test","","","","","",""
"331.69999998807907","341889","pSARL_v2","pSARL_v2so48nfxd","650353f26c87883d93c42b60","freq","img/orange_2bandit_b2.png","70","70","test","1","180","180","9","",""
"null","342367","pSARL_v2","pSARL_v2so48nfxd","650353f26c87883d93c42b60","freq_resp","img/orange_2bandit_b.png","70","70","test","","","","9","",""
"null","342535","pSARL_v2","pSARL_v2so48nfxd","650353f26c87883d93c42b60","fixation","img/fixation.png","null","","test","","","","","",""
"299.5","342838","pSARL_v2","pSARL_v2so48nfxd","650353f26c87883d93c42b60","freq","img/orange_2bandit_b2.png","70","70","test","1","181","181","9","",""
"null","343349","pSARL_v2","pSARL_v2so48nfxd","650353f26c87883d93c42b60","freq_resp","img/orange_2bandit_b.png","70","70","test","","","","9","",""
"null","343519","pSARL_v2","pSARL_v2so48nfxd","650353f26c87883d93c42b60","fixation","img/fixation.png","null","","test","","","","","",""
"273.19999998807907","343797","pSARL_v2","pSARL_v2so48nfxd","650353f26c87883d93c42b60","freq","img/orange_2bandit_b2.png","70","70","test","1","182","182","9","",""
"null","344343","pSARL_v2","pSARL_v2so48nfxd","650353f26c87883d93c42b60","freq_resp","img/orange_2bandit_b.png","70","70","test","","","","9","",""
"null","344498","pSARL_v2","pSARL_v2so48nfxd","650353f26c87883d93c42b60","fixation","img/fixation.png","null","","test","","","","","",""
"149.9000000357628","344653","pSARL_v2","pSARL_v2so48nfxd","650353f26c87883d93c42b60","freq","img/orange_2bandit_b2.png","70","70","test","1","183","183","9","",""
"null","345318","pSARL_v2","pSARL_v2so48nfxd","650353f26c87883d93c42b60","freq_resp","img/orange_2bandit_b.png","70","70","test","","","","9","",""
"null","345477","pSARL_v2","pSARL_v2so48nfxd","650353f26c87883d93c42b60","fixation","img/fixation.png","null","","test","","","","","",""
"293.9000000357628","345775","pSARL_v2","pSARL_v2so48nfxd","650353f26c87883d93c42b60","freq","img/orange_2bandit_b2.png","70","70","test","1","184","184","9","",""
"null","346300","pSARL_v2","pSARL_v2so48nfxd","650353f26c87883d93c42b60","freq_resp","img/orange_2bandit_b.png","70","70","test","","","","9","",""
"null","346469","pSARL_v2","pSARL_v2so48nfxd","650353f26c87883d93c42b60","fixation","img/fixation.png","null","","test","","","","","",""
"271.19999998807907","346745","pSARL_v2","pSARL_v2so48nfxd","650353f26c87883d93c42b60","freq","img/orange_2bandit_b2.png","70","70","test","1","185","185","9","",""
"null","347283","pSARL_v2","pSARL_v2so48nfxd","650353f26c87883d93c42b60","freq_resp","img/orange_2bandit_b.png","70","70","test","","","","9","",""
"null","347451","pSARL_v2","pSARL_v2so48nfxd","650353f26c87883d93c42b60","fixation","img/fixation.png","null","","test","","","","","",""
"300.80000001192093","347756","pSARL_v2","pSARL_v2so48nfxd","650353f26c87883d93c42b60","freq","img/orange_2bandit_b2.png","70","70","test","1","186","186","9","",""
"null","348263","pSARL_v2","pSARL_v2so48nfxd","650353f26c87883d93c42b60","freq_resp","img/orange_2bandit_b.png","70","70","test","","","","9","",""
"null","348435","pSARL_v2","pSARL_v2so48nfxd","650353f26c87883d93c42b60","fixation","img/fixation.png","null","","test","","","","","",""
"420.69999998807907","348861","pSARL_v2","pSARL_v2so48nfxd","650353f26c87883d93c42b60","freq","img/orange_2bandit_b2.png","70","70","test","1","187","187","9","",""
"null","349245","pSARL_v2","pSARL_v2so48nfxd","650353f26c87883d93c42b60","freq_resp","img/orange_2bandit_b.png","70","70","test","","","","9","",""
"null","349403","pSARL_v2","pSARL_v2so48nfxd","650353f26c87883d93c42b60","fixation","img/fixation.png","null","","test","","","","","",""
"300.60000002384186","349708","pSARL_v2","pSARL_v2so48nfxd","650353f26c87883d93c42b60","freq","img/orange_2bandit_b2.png","70","70","test","1","188","188","9","",""
"null","350214","pSARL_v2","pSARL_v2so48nfxd","650353f26c87883d93c42b60","freq_resp","img/orange_2bandit_b.png","70","70","test","","","","9","",""
"null","350369","pSARL_v2","pSARL_v2so48nfxd","650353f26c87883d93c42b60","fixation","img/fixation.png","null","","test","","","","","",""
"247.4000000357628","350621","pSARL_v2","pSARL_v2so48nfxd","650353f26c87883d93c42b60","freq","img/orange_2bandit_b2.png","70","70","test","1","189","189","9","",""
"null","351222","pSARL_v2","pSARL_v2so48nfxd","650353f26c87883d93c42b60","freq_resp","img/orange_2bandit_b.png","70","70","test","","","","9","",""
"null","351390","pSARL_v2","pSARL_v2so48nfxd","650353f26c87883d93c42b60","fixation","img/fixation.png","null","","test","","","","","",""
"559.9000000357628","351954","pSARL_v2","pSARL_v2so48nfxd","650353f26c87883d93c42b60","infreq","img/green_2bandit_b2.png","68","68","test","1","190","190","9","",""
"null","352202","pSARL_v2","pSARL_v2so48nfxd","650353f26c87883d93c42b60","infreq_resp","img/green_2bandit_b.png","68","68","test","","","","9","",""
"null","352372","pSARL_v2","pSARL_v2so48nfxd","650353f26c87883d93c42b60","fixation","img/fixation.png","null","","test","","","","","",""
"347.5999999642372","352723","pSARL_v2","pSARL_v2so48nfxd","650353f26c87883d93c42b60","freq","img/orange_2bandit_b2.png","70","70","test","1","191","191","9","",""
"null","353184","pSARL_v2","pSARL_v2so48nfxd","650353f26c87883d93c42b60","freq_resp","img/orange_2bandit_b.png","70","70","test","","","","9","",""
"null","353341","pSARL_v2","pSARL_v2so48nfxd","650353f26c87883d93c42b60","fixation","img/fixation.png","null","","test","","","","","",""
"318.69999998807907","353664","pSARL_v2","pSARL_v2so48nfxd","650353f26c87883d93c42b60","freq","img/orange_2bandit_b2.png","70","70","test","1","192","192","9","",""
"null","354165","pSARL_v2","pSARL_v2so48nfxd","650353f26c87883d93c42b60","freq_resp","img/orange_2bandit_b.png","70","70","test","","","","9","",""
"null","354320","pSARL_v2","pSARL_v2so48nfxd","650353f26c87883d93c42b60","fixation","img/fixation.png","null","","test","","","","","",""
"407.39999997615814","354732","pSARL_v2","pSARL_v2so48nfxd","650353f26c87883d93c42b60","infreq","img/green_2bandit_b2.png","68","68","test","1","193","193","9","",""
"null","355142","pSARL_v2","pSARL_v2so48nfxd","650353f26c87883d93c42b60","infreq_resp","img/green_2bandit_b.png","68","68","test","","","","9","",""
"null","355314","pSARL_v2","pSARL_v2so48nfxd","650353f26c87883d93c42b60","fixation","img/fixation.png","null","","test","","","","","",""
"380.10000002384186","355699","pSARL_v2","pSARL_v2so48nfxd","650353f26c87883d93c42b60","freq","img/orange_2bandit_b2.png","70","70","test","1","194","194","9","",""
"null","356136","pSARL_v2","pSARL_v2so48nfxd","650353f26c87883d93c42b60","freq_resp","img/orange_2bandit_b.png","70","70","test","","","","9","",""
"null","356293","pSARL_v2","pSARL_v2so48nfxd","650353f26c87883d93c42b60","fixation","img/fixation.png","null","","test","","","","","",""
"260.0999999642372","356558","pSARL_v2","pSARL_v2so48nfxd","650353f26c87883d93c42b60","freq","img/orange_2bandit_b2.png","70","70","test","1","195","195","9","",""
"null","357105","pSARL_v2","pSARL_v2so48nfxd","650353f26c87883d93c42b60","freq_resp","img/orange_2bandit_b.png","70","70","test","","","","9","",""
"null","357273","pSARL_v2","pSARL_v2so48nfxd","650353f26c87883d93c42b60","fixation","img/fixation.png","null","","test","","","","","",""
"328.4000000357628","357606","pSARL_v2","pSARL_v2so48nfxd","650353f26c87883d93c42b60","freq","img/orange_2bandit_b2.png","70","70","test","1","196","196","9","",""
"null","358084","pSARL_v2","pSARL_v2so48nfxd","650353f26c87883d93c42b60","freq_resp","img/orange_2bandit_b.png","70","70","test","","","","9","",""
"null","358241","pSARL_v2","pSARL_v2so48nfxd","650353f26c87883d93c42b60","fixation","img/fixation.png","null","","test","","","","","",""
"292.69999998807907","358539","pSARL_v2","pSARL_v2so48nfxd","650353f26c87883d93c42b60","freq","img/orange_2bandit_b2.png","70","70","test","1","197","197","9","",""
"null","359050","pSARL_v2","pSARL_v2so48nfxd","650353f26c87883d93c42b60","freq_resp","img/orange_2bandit_b.png","70","70","test","","","","9","",""
"null","359221","pSARL_v2","pSARL_v2so48nfxd","650353f26c87883d93c42b60","fixation","img/fixation.png","null","","test","","","","","",""
"508.5","359733","pSARL_v2","pSARL_v2so48nfxd","650353f26c87883d93c42b60","reward","img/slot.png","74","","test","","","","","",""
"null","360499","pSARL_v2","pSARL_v2so48nfxd","650353f26c87883d93c42b60","points","<div class=""verylowPoints""> -3 </div>","null","na","test","","","","9","-3","8"
"361.7999999523163","360865","pSARL_v2","pSARL_v2so48nfxd","650353f26c87883d93c42b60","freq","img/orange_2bandit_b2.png","70","70","test","1","198","198","10","",""
"null","361313","pSARL_v2","pSARL_v2so48nfxd","650353f26c87883d93c42b60","freq_resp","img/orange_2bandit_b.png","70","70","test","","","","10","",""
"null","361482","pSARL_v2","pSARL_v2so48nfxd","650353f26c87883d93c42b60","fixation","img/fixation.png","null","","test","","","","","",""
"272.19999998807907","361757","pSARL_v2","pSARL_v2so48nfxd","650353f26c87883d93c42b60","freq","img/orange_2bandit_b2.png","70","70","test","1","199","199","10","",""
"null","362294","pSARL_v2","pSARL_v2so48nfxd","650353f26c87883d93c42b60","freq_resp","img/orange_2bandit_b.png","70","70","test","","","","10","",""
"null","362451","pSARL_v2","pSARL_v2so48nfxd","650353f26c87883d93c42b60","fixation","img/fixation.png","null","","test","","","","","",""
"283.9000000357628","362739","pSARL_v2","pSARL_v2so48nfxd","650353f26c87883d93c42b60","freq","img/orange_2bandit_b2.png","70","70","test","1","200","200","10","",""
"null","363271","pSARL_v2","pSARL_v2so48nfxd","650353f26c87883d93c42b60","freq_resp","img/orange_2bandit_b.png","70","70","test","","","","10","",""
"null","363426","pSARL_v2","pSARL_v2so48nfxd","650353f26c87883d93c42b60","fixation","img/fixation.png","null","","test","","","","","",""
"287.9000000357628","363718","pSARL_v2","pSARL_v2so48nfxd","650353f26c87883d93c42b60","freq","img/orange_2bandit_b2.png","70","70","test","1","201","201","10","",""
"null","364237","pSARL_v2","pSARL_v2so48nfxd","650353f26c87883d93c42b60","freq_resp","img/orange_2bandit_b.png","70","70","test","","","","10","",""
"null","364392","pSARL_v2","pSARL_v2so48nfxd","650353f26c87883d93c42b60","fixation","img/fixation.png","null","","test","","","","","",""
"238.29999995231628","364634","pSARL_v2","pSARL_v2so48nfxd","650353f26c87883d93c42b60","freq","img/orange_2bandit_b2.png","70","70","test","1","202","202","10","",""
"null","365214","pSARL_v2","pSARL_v2so48nfxd","650353f26c87883d93c42b60","freq_resp","img/orange_2bandit_b.png","70","70","test","","","","10","",""
"null","365384","pSARL_v2","pSARL_v2so48nfxd","650353f26c87883d93c42b60","fixation","img/fixation.png","null","","test","","","","","",""
"311.80000001192093","365700","pSARL_v2","pSARL_v2so48nfxd","650353f26c87883d93c42b60","freq","img/orange_2bandit_b2.png","70","70","test","1","203","203","10","",""
"null","366195","pSARL_v2","pSARL_v2so48nfxd","650353f26c87883d93c42b60","freq_resp","img/orange_2bandit_b.png","70","70","test","","","","10","",""
"null","366352","pSARL_v2","pSARL_v2so48nfxd","650353f26c87883d93c42b60","fixation","img/fixation.png","null","","test","","","","","",""
"314.5","366670","pSARL_v2","pSARL_v2so48nfxd","650353f26c87883d93c42b60","freq","img/orange_2bandit_b2.png","70","70","test","1","204","204","10","",""
"null","367176","pSARL_v2","pSARL_v2so48nfxd","650353f26c87883d93c42b60","freq_resp","img/orange_2bandit_b.png","70","70","test","","","","10","",""
"null","367331","pSARL_v2","pSARL_v2so48nfxd","650353f26c87883d93c42b60","fixation","img/fixation.png","null","","test","","","","","",""
"301.5","367637","pSARL_v2","pSARL_v2so48nfxd","650353f26c87883d93c42b60","freq","img/orange_2bandit_b2.png","70","70","test","1","205","205","10","",""
