"rt","time_elapsed","expId","subject","prolificID","trialType","stimulus","key_press","corrresp","phase","corr","trialNum","attentionRunNum","blockNum","points","rlNum"
"6000.600000023842","6009","pSARL_v2","pSARL_v2opvtn7js","57b270d576b2ea0001c98812","","","","","","","","","","",""
"","9193","pSARL_v2","pSARL_v2opvtn7js","57b270d576b2ea0001c98812","fullscreen","","","","","","","","","",""
"76077","85272","pSARL_v2","pSARL_v2opvtn7js","57b270d576b2ea0001c98812","","","","","","","","","","",""
"null","86086","pSARL_v2","pSARL_v2opvtn7js","57b270d576b2ea0001c98812","freqPrac","img/orange_2bandit_b2.png","null","70","prac","0","","","","",""
"null","87093","pSARL_v2","pSARL_v2opvtn7js","57b270d576b2ea0001c98812","feedback","img/tooSlow.png","null","na","prac","","","","","",""
"null","87252","pSARL_v2","pSARL_v2opvtn7js","57b270d576b2ea0001c98812","fixation","img/fixation.png","null","","prac","","","","","",""
"532.7000000178814","87789","pSARL_v2","pSARL_v2opvtn7js","57b270d576b2ea0001c98812","infreqPrac","img/green_2bandit_b2.png","68","68","prac","1","","","","",""
"532.7000000178814","88071","pSARL_v2","pSARL_v2opvtn7js","57b270d576b2ea0001c98812","infreqPrac_resp","img/green_2bandit_b.png","68","68","prac","","","","","",""
"null","88232","pSARL_v2","pSARL_v2opvtn7js","57b270d576b2ea0001c98812","fixation","img/fixation.png","null","","prac","","","","","",""
"384","88620","pSARL_v2","pSARL_v2opvtn7js","57b270d576b2ea0001c98812","freqPrac","img/orange_2bandit_b2.png","70","70","prac","1","","","","",""
"384","89046","pSARL_v2","pSARL_v2opvtn7js","57b270d576b2ea0001c98812","freqPrac_resp","img/orange_2bandit_b.png","70","70","prac","","","","","",""
"null","89208","pSARL_v2","pSARL_v2opvtn7js","57b270d576b2ea0001c98812","fixation","img/fixation.png","null","","prac","","","","","",""
"440.5","89653","pSARL_v2","pSARL_v2opvtn7js","57b270d576b2ea0001c98812","infreqPrac","img/green_2bandit_b2.png","68","68","prac","1","","","","",""
"440.5","90021","pSARL_v2","pSARL_v2opvtn7js","57b270d576b2ea0001c98812","infreqPrac_resp","img/green_2bandit_b.png","68","68","prac","","","","","",""
"null","90184","pSARL_v2","pSARL_v2opvtn7js","57b270d576b2ea0001c98812","fixation","img/fixation.png","null","","prac","","","","","",""
"435.19999998807907","90623","pSARL_v2","pSARL_v2opvtn7js","57b270d576b2ea0001c98812","infreqPrac","img/green_2bandit_b2.png","68","68","prac","1","","","","",""
"435.19999998807907","90996","pSARL_v2","pSARL_v2opvtn7js","57b270d576b2ea0001c98812","infreqPrac_resp","img/green_2bandit_b.png","68","68","prac","","","","","",""
"null","91155","pSARL_v2","pSARL_v2opvtn7js","57b270d576b2ea0001c98812","fixation","img/fixation.png","null","","prac","","","","","",""
"397.40000000596046","91557","pSARL_v2","pSARL_v2opvtn7js","57b270d576b2ea0001c98812","infreqPrac","img/green_2bandit_b2.png","68","68","prac","1","","","","",""
"397.40000000596046","91966","pSARL_v2","pSARL_v2opvtn7js","57b270d576b2ea0001c98812","infreqPrac_resp","img/green_2bandit_b.png","68","68","prac","","","","","",""
"null","92123","pSARL_v2","pSARL_v2opvtn7js","57b270d576b2ea0001c98812","fixation","img/fixation.png","null","","prac","","","","","",""
"431.90000000596046","92559","pSARL_v2","pSARL_v2opvtn7js","57b270d576b2ea0001c98812","freqPrac","img/orange_2bandit_b2.png","68","70","prac","0","","","","",""
"431.90000000596046","92942","pSARL_v2","pSARL_v2opvtn7js","57b270d576b2ea0001c98812","freqPrac_resp","img/orange_2bandit_b.png","68","70","prac","","","","","",""
"null","93951","pSARL_v2","pSARL_v2opvtn7js","57b270d576b2ea0001c98812","feedback","img/wrongKey.png","null","na","prac","","","","","",""
"null","94108","pSARL_v2","pSARL_v2opvtn7js","57b270d576b2ea0001c98812","fixation","img/fixation.png","null","","prac","","","","","",""
"781.5999999940395","94893","pSARL_v2","pSARL_v2opvtn7js","57b270d576b2ea0001c98812","infreqPrac","img/green_2bandit_b2.png","68","68","prac","1","","","","",""
"781.5999999940395","94917","pSARL_v2","pSARL_v2opvtn7js","57b270d576b2ea0001c98812","infreqPrac_resp","img/green_2bandit_b.png","68","68","prac","","","","","",""
"null","95076","pSARL_v2","pSARL_v2opvtn7js","57b270d576b2ea0001c98812","fixation","img/fixation.png","null","","prac","","","","","",""
"452.19999998807907","95532","pSARL_v2","pSARL_v2opvtn7js","57b270d576b2ea0001c98812","freqPrac","img/orange_2bandit_b2.png","70","70","prac","1","","","","",""
"452.19999998807907","95894","pSARL_v2","pSARL_v2opvtn7js","57b270d576b2ea0001c98812","freqPrac_resp","img/orange_2bandit_b.png","70","70","prac","","","","","",""
"null","96052","pSARL_v2","pSARL_v2opvtn7js","57b270d576b2ea0001c98812","fixation","img/fixation.png","null","","prac","","","","","",""
"455.39999997615814","96511","pSARL_v2","pSARL_v2opvtn7js","57b270d576b2ea0001c98812","freqPrac","img/orange_2bandit_b2.png","70","70","prac","1","","","","",""
"455.39999997615814","96859","pSARL_v2","pSARL_v2opvtn7js","57b270d576b2ea0001c98812","freqPrac_resp","img/orange_2bandit_b.png","70","70","prac","","","","","",""
"null","97022","pSARL_v2","pSARL_v2opvtn7js","57b270d576b2ea0001c98812","fixation","img/fixation.png","null","","prac","","","","","",""
"31011.40000000596","128036","pSARL_v2","pSARL_v2opvtn7js","57b270d576b2ea0001c98812","","","","","prac","","","","","",""
"531.7999999821186","128571","pSARL_v2","pSARL_v2opvtn7js","57b270d576b2ea0001c98812","rewardPractice","img/slot.png","74","","prac","","","","","",""
"null","129331","pSARL_v2","pSARL_v2opvtn7js","57b270d576b2ea0001c98812","feedback","<div class=""veryhighPoints""> +15 </div>","null","na","prac","","","","","",""
"null","129494","pSARL_v2","pSARL_v2opvtn7js","57b270d576b2ea0001c98812","fixation","img/fixation.png","null","","prac","","","","","",""
"10930.700000017881","140427","pSARL_v2","pSARL_v2opvtn7js","57b270d576b2ea0001c98812","","","","","prac","","","","","",""
"null","141237","pSARL_v2","pSARL_v2opvtn7js","57b270d576b2ea0001c98812","freq","img/orange_2bandit_b2.png","null","70","test","0","1","1","1","",""
"null","141394","pSARL_v2","pSARL_v2opvtn7js","57b270d576b2ea0001c98812","fixation","img/fixation.png","null","","test","","","","","",""
"639.5999999940395","142037","pSARL_v2","pSARL_v2opvtn7js","57b270d576b2ea0001c98812","freq","img/orange_2bandit_b2.png","70","70","test","1","2","2","1","",""
"null","142212","pSARL_v2","pSARL_v2opvtn7js","57b270d576b2ea0001c98812","freq_resp","img/orange_2bandit_b.png","70","70","test","","","","1","",""
"null","142374","pSARL_v2","pSARL_v2opvtn7js","57b270d576b2ea0001c98812","fixation","img/fixation.png","null","","test","","","","","",""
"432.7999999821186","142811","pSARL_v2","pSARL_v2opvtn7js","57b270d576b2ea0001c98812","freq","img/orange_2bandit_b2.png","70","70","test","1","3","3","1","",""
"null","143187","pSARL_v2","pSARL_v2opvtn7js","57b270d576b2ea0001c98812","freq_resp","img/orange_2bandit_b.png","70","70","test","","","","1","",""
"null","143350","pSARL_v2","pSARL_v2opvtn7js","57b270d576b2ea0001c98812","fixation","img/fixation.png","null","","test","","","","","",""
"481.5","143835","pSARL_v2","pSARL_v2opvtn7js","57b270d576b2ea0001c98812","infreq","img/green_2bandit_b2.png","68","68","test","1","4","4","1","",""
"null","144162","pSARL_v2","pSARL_v2opvtn7js","57b270d576b2ea0001c98812","infreq_resp","img/green_2bandit_b.png","68","68","test","","","","1","",""
"null","144325","pSARL_v2","pSARL_v2opvtn7js","57b270d576b2ea0001c98812","fixation","img/fixation.png","null","","test","","","","","",""
"498","144827","pSARL_v2","pSARL_v2opvtn7js","57b270d576b2ea0001c98812","freq","img/orange_2bandit_b2.png","70","70","test","1","5","5","1","",""
"null","145138","pSARL_v2","pSARL_v2opvtn7js","57b270d576b2ea0001c98812","freq_resp","img/orange_2bandit_b.png","70","70","test","","","","1","",""
"null","145300","pSARL_v2","pSARL_v2opvtn7js","57b270d576b2ea0001c98812","fixation","img/fixation.png","null","","test","","","","","",""
"442.59999999403954","145747","pSARL_v2","pSARL_v2opvtn7js","57b270d576b2ea0001c98812","infreq","img/green_2bandit_b2.png","68","68","test","1","6","6","1","",""
"null","146114","pSARL_v2","pSARL_v2opvtn7js","57b270d576b2ea0001c98812","infreq_resp","img/green_2bandit_b.png","68","68","test","","","","1","",""
"null","146275","pSARL_v2","pSARL_v2opvtn7js","57b270d576b2ea0001c98812","fixation","img/fixation.png","null","","test","","","","","",""
"507.90000000596046","146787","pSARL_v2","pSARL_v2opvtn7js","57b270d576b2ea0001c98812","freq","img/orange_2bandit_b2.png","70","70","test","1","7","7","1","",""
"null","147091","pSARL_v2","pSARL_v2opvtn7js","57b270d576b2ea0001c98812","freq_resp","img/orange_2bandit_b.png","70","70","test","","","","1","",""
"null","147250","pSARL_v2","pSARL_v2opvtn7js","57b270d576b2ea0001c98812","fixation","img/fixation.png","null","","test","","","","","",""
"446.60000002384186","147701","pSARL_v2","pSARL_v2opvtn7js","57b270d576b2ea0001c98812","freq","img/orange_2bandit_b2.png","70","70","test","1","8","8","1","",""
"null","148068","pSARL_v2","pSARL_v2opvtn7js","57b270d576b2ea0001c98812","freq_resp","img/orange_2bandit_b.png","70","70","test","","","","1","",""
"null","148226","pSARL_v2","pSARL_v2opvtn7js","57b270d576b2ea0001c98812","fixation","img/fixation.png","null","","test","","","","","",""
"397","148627","pSARL_v2","pSARL_v2opvtn7js","57b270d576b2ea0001c98812","freq","img/orange_2bandit_b2.png","70","70","test","1","9","9","1","",""
"null","149044","pSARL_v2","pSARL_v2opvtn7js","57b270d576b2ea0001c98812","freq_resp","img/orange_2bandit_b.png","70","70","test","","","","1","",""
"null","149206","pSARL_v2","pSARL_v2opvtn7js","57b270d576b2ea0001c98812","fixation","img/fixation.png","null","","test","","","","","",""
"339.40000000596046","149549","pSARL_v2","pSARL_v2opvtn7js","57b270d576b2ea0001c98812","freq","img/orange_2bandit_b2.png","70","70","test","1","10","10","1","",""
"null","150020","pSARL_v2","pSARL_v2opvtn7js","57b270d576b2ea0001c98812","freq_resp","img/orange_2bandit_b.png","70","70","test","","","","1","",""
"null","150178","pSARL_v2","pSARL_v2opvtn7js","57b270d576b2ea0001c98812","fixation","img/fixation.png","null","","test","","","","","",""
"436.5","150619","pSARL_v2","pSARL_v2opvtn7js","57b270d576b2ea0001c98812","freq","img/orange_2bandit_b2.png","70","70","test","1","11","11","1","",""
"null","150995","pSARL_v2","pSARL_v2opvtn7js","57b270d576b2ea0001c98812","freq_resp","img/orange_2bandit_b.png","70","70","test","","","","1","",""
"null","151154","pSARL_v2","pSARL_v2opvtn7js","57b270d576b2ea0001c98812","fixation","img/fixation.png","null","","test","","","","","",""
"367.30000001192093","151525","pSARL_v2","pSARL_v2opvtn7js","57b270d576b2ea0001c98812","freq","img/orange_2bandit_b2.png","70","70","test","1","12","12","1","",""
"null","151970","pSARL_v2","pSARL_v2opvtn7js","57b270d576b2ea0001c98812","freq_resp","img/orange_2bandit_b.png","70","70","test","","","","1","",""
"null","152132","pSARL_v2","pSARL_v2opvtn7js","57b270d576b2ea0001c98812","fixation","img/fixation.png","null","","test","","","","","",""
"338.2999999821186","152474","pSARL_v2","pSARL_v2opvtn7js","57b270d576b2ea0001c98812","freq","img/orange_2bandit_b2.png","70","70","test","1","13","13","1","",""
"null","152949","pSARL_v2","pSARL_v2opvtn7js","57b270d576b2ea0001c98812","freq_resp","img/orange_2bandit_b.png","70","70","test","","","","1","",""
"null","153107","pSARL_v2","pSARL_v2opvtn7js","57b270d576b2ea0001c98812","fixation","img/fixation.png","null","","test","","","","","",""
"381.59999999403954","153493","pSARL_v2","pSARL_v2opvtn7js","57b270d576b2ea0001c98812","freq","img/orange_2bandit_b2.png","70","70","test","1","14","14","1","",""
"null","153926","pSARL_v2","pSARL_v2opvtn7js","57b270d576b2ea0001c98812","freq_resp","img/orange_2bandit_b.png","70","70","test","","","","1","",""
"null","154083","pSARL_v2","pSARL_v2opvtn7js","57b270d576b2ea0001c98812","fixation","img/fixation.png","null","","test","","","","","",""
"331.69999998807907","154418","pSARL_v2","pSARL_v2opvtn7js","57b270d576b2ea0001c98812","freq","img/orange_2bandit_b2.png","70","70","test","1","15","15","1","",""
"null","154897","pSARL_v2","pSARL_v2opvtn7js","57b270d576b2ea0001c98812","freq_resp","img/orange_2bandit_b.png","70","70","test","","","","1","",""
"null","155058","pSARL_v2","pSARL_v2opvtn7js","57b270d576b2ea0001c98812","fixation","img/fixation.png","null","","test","","","","","",""
"327.80000001192093","155390","pSARL_v2","pSARL_v2opvtn7js","57b270d576b2ea0001c98812","freq","img/orange_2bandit_b2.png","70","70","test","1","16","16","1","",""
"null","155876","pSARL_v2","pSARL_v2opvtn7js","57b270d576b2ea0001c98812","freq_resp","img/orange_2bandit_b.png","70","70","test","","","","1","",""
"null","156033","pSARL_v2","pSARL_v2opvtn7js","57b270d576b2ea0001c98812","fixation","img/fixation.png","null","","test","","","","","",""
"325.09999999403954","156362","pSARL_v2","pSARL_v2opvtn7js","57b270d576b2ea0001c98812","freq","img/orange_2bandit_b2.png","70","70","test","1","17","17","1","",""
"null","156843","pSARL_v2","pSARL_v2opvtn7js","57b270d576b2ea0001c98812","freq_resp","img/orange_2bandit_b.png","70","70","test","","","","1","",""
"null","157002","pSARL_v2","pSARL_v2opvtn7js","57b270d576b2ea0001c98812","fixation","img/fixation.png","null","","test","","","","","",""
"318.59999999403954","157325","pSARL_v2","pSARL_v2opvtn7js","57b270d576b2ea0001c98812","freq","img/orange_2bandit_b2.png","70","70","test","1","18","18","1","",""
"null","157821","pSARL_v2","pSARL_v2opvtn7js","57b270d576b2ea0001c98812","freq_resp","img/orange_2bandit_b.png","70","70","test","","","","1","",""
"null","157978","pSARL_v2","pSARL_v2opvtn7js","57b270d576b2ea0001c98812","fixation","img/fixation.png","null","","test","","","","","",""
"324.7000000178814","158306","pSARL_v2","pSARL_v2opvtn7js","57b270d576b2ea0001c98812","freq","img/orange_2bandit_b2.png","70","70","test","1","19","19","1","",""
"null","158796","pSARL_v2","pSARL_v2opvtn7js","57b270d576b2ea0001c98812","freq_resp","img/orange_2bandit_b.png","70","70","test","","","","1","",""
"null","158953","pSARL_v2","pSARL_v2opvtn7js","57b270d576b2ea0001c98812","fixation","img/fixation.png","null","","test","","","","","",""
"336.09999999403954","159293","pSARL_v2","pSARL_v2opvtn7js","57b270d576b2ea0001c98812","freq","img/orange_2bandit_b2.png","70","70","test","1","20","20","1","",""
"null","159766","pSARL_v2","pSARL_v2opvtn7js","57b270d576b2ea0001c98812","freq_resp","img/orange_2bandit_b.png","70","70","test","","","","1","",""
"null","159922","pSARL_v2","pSARL_v2opvtn7js","57b270d576b2ea0001c98812","fixation","img/fixation.png","null","","test","","","","","",""
"548","160474","pSARL_v2","pSARL_v2opvtn7js","57b270d576b2ea0001c98812","reward","img/slot.png","74","","test","","","","","",""
"null","161234","pSARL_v2","pSARL_v2opvtn7js","57b270d576b2ea0001c98812","points","<div class=""verylowPoints""> -6 </div>","null","na","test","","","","1","-6","0"
"756.6999999880791","161995","pSARL_v2","pSARL_v2opvtn7js","57b270d576b2ea0001c98812","freq","img/orange_2bandit_b2.png","70","70","test","1","21","21","2","",""
"null","162050","pSARL_v2","pSARL_v2opvtn7js","57b270d576b2ea0001c98812","freq_resp","img/orange_2bandit_b.png","70","70","test","","","","2","",""
"null","162210","pSARL_v2","pSARL_v2opvtn7js","57b270d576b2ea0001c98812","fixation","img/fixation.png","null","","test","","","","","",""
"607.0999999940395","162821","pSARL_v2","pSARL_v2opvtn7js","57b270d576b2ea0001c98812","freq","img/orange_2bandit_b2.png","70","70","test","1","22","22","2","",""
"null","163028","pSARL_v2","pSARL_v2opvtn7js","57b270d576b2ea0001c98812","freq_resp","img/orange_2bandit_b.png","70","70","test","","","","2","",""
"null","163189","pSARL_v2","pSARL_v2opvtn7js","57b270d576b2ea0001c98812","fixation","img/fixation.png","null","","test","","","","","",""
"473.5","163667","pSARL_v2","pSARL_v2opvtn7js","57b270d576b2ea0001c98812","freq","img/orange_2bandit_b2.png","70","70","test","1","23","23","2","",""
"null","164005","pSARL_v2","pSARL_v2opvtn7js","57b270d576b2ea0001c98812","freq_resp","img/orange_2bandit_b.png","70","70","test","","","","2","",""
"null","164162","pSARL_v2","pSARL_v2opvtn7js","57b270d576b2ea0001c98812","fixation","img/fixation.png","null","","test","","","","","",""
"398.90000000596046","164565","pSARL_v2","pSARL_v2opvtn7js","57b270d576b2ea0001c98812","freq","img/orange_2bandit_b2.png","70","70","test","1","24","24","2","",""
"null","164978","pSARL_v2","pSARL_v2opvtn7js","57b270d576b2ea0001c98812","freq_resp","img/orange_2bandit_b.png","70","70","test","","","","2","",""
"null","165140","pSARL_v2","pSARL_v2opvtn7js","57b270d576b2ea0001c98812","fixation","img/fixation.png","null","","test","","","","","",""
"385.69999998807907","165530","pSARL_v2","pSARL_v2opvtn7js","57b270d576b2ea0001c98812","freq","img/orange_2bandit_b2.png","70","70","test","1","25","25","2","",""
"null","165954","pSARL_v2","pSARL_v2opvtn7js","57b270d576b2ea0001c98812","freq_resp","img/orange_2bandit_b.png","70","70","test","","","","2","",""
"null","166116","pSARL_v2","pSARL_v2opvtn7js","57b270d576b2ea0001c98812","fixation","img/fixation.png","null","","test","","","","","",""
"372.80000001192093","166492","pSARL_v2","pSARL_v2opvtn7js","57b270d576b2ea0001c98812","freq","img/orange_2bandit_b2.png","70","70","test","1","26","26","2","",""
"null","166929","pSARL_v2","pSARL_v2opvtn7js","57b270d576b2ea0001c98812","freq_resp","img/orange_2bandit_b.png","70","70","test","","","","2","",""
"null","167093","pSARL_v2","pSARL_v2opvtn7js","57b270d576b2ea0001c98812","fixation","img/fixation.png","null","","test","","","","","",""
"329","167426","pSARL_v2","pSARL_v2opvtn7js","57b270d576b2ea0001c98812","freq","img/orange_2bandit_b2.png","70","70","test","1","27","27","2","",""
"null","167905","pSARL_v2","pSARL_v2opvtn7js","57b270d576b2ea0001c98812","freq_resp","img/orange_2bandit_b.png","70","70","test","","","","2","",""
"null","168067","pSARL_v2","pSARL_v2opvtn7js","57b270d576b2ea0001c98812","fixation","img/fixation.png","null","","test","","","","","",""
"325.80000001192093","168396","pSARL_v2","pSARL_v2opvtn7js","57b270d576b2ea0001c98812","freq","img/orange_2bandit_b2.png","70","70","test","1","28","28","2","",""
"null","168881","pSARL_v2","pSARL_v2opvtn7js","57b270d576b2ea0001c98812","freq_resp","img/orange_2bandit_b.png","70","70","test","","","","2","",""
"null","169041","pSARL_v2","pSARL_v2opvtn7js","57b270d576b2ea0001c98812","fixation","img/fixation.png","null","","test","","","","","",""
"332.7999999821186","169378","pSARL_v2","pSARL_v2opvtn7js","57b270d576b2ea0001c98812","freq","img/orange_2bandit_b2.png","70","70","test","1","29","29","2","",""
"null","169860","pSARL_v2","pSARL_v2opvtn7js","57b270d576b2ea0001c98812","freq_resp","img/orange_2bandit_b.png","70","70","test","","","","2","",""
"null","170018","pSARL_v2","pSARL_v2opvtn7js","57b270d576b2ea0001c98812","fixation","img/fixation.png","null","","test","","","","","",""
"270.40000000596046","170292","pSARL_v2","pSARL_v2opvtn7js","57b270d576b2ea0001c98812","freq","img/orange_2bandit_b2.png","70","70","test","1","30","30","2","",""
"null","170836","pSARL_v2","pSARL_v2opvtn7js","57b270d576b2ea0001c98812","freq_resp","img/orange_2bandit_b.png","70","70","test","","","","2","",""
"null","170997","pSARL_v2","pSARL_v2opvtn7js","57b270d576b2ea0001c98812","fixation","img/fixation.png","null","","test","","","","","",""
"305.40000000596046","171306","pSARL_v2","pSARL_v2opvtn7js","57b270d576b2ea0001c98812","infreq","img/green_2bandit_b2.png","70","68","test","0","31","31","2","",""
"null","171811","pSARL_v2","pSARL_v2opvtn7js","57b270d576b2ea0001c98812","infreq_resp","img/green_2bandit_b.png","70","68","test","","","","2","",""
"null","171973","pSARL_v2","pSARL_v2opvtn7js","57b270d576b2ea0001c98812","fixation","img/fixation.png","null","","test","","","","","",""
"459.19999998807907","172436","pSARL_v2","pSARL_v2opvtn7js","57b270d576b2ea0001c98812","freq","img/orange_2bandit_b2.png","70","70","test","1","32","32","2","",""
"null","172785","pSARL_v2","pSARL_v2opvtn7js","57b270d576b2ea0001c98812","freq_resp","img/orange_2bandit_b.png","70","70","test","","","","2","",""
"null","172948","pSARL_v2","pSARL_v2opvtn7js","57b270d576b2ea0001c98812","fixation","img/fixation.png","null","","test","","","","","",""
"361","173313","pSARL_v2","pSARL_v2opvtn7js","57b270d576b2ea0001c98812","freq","img/orange_2bandit_b2.png","70","70","test","1","33","33","2","",""
"null","173761","pSARL_v2","pSARL_v2opvtn7js","57b270d576b2ea0001c98812","freq_resp","img/orange_2bandit_b.png","70","70","test","","","","2","",""
"null","173924","pSARL_v2","pSARL_v2opvtn7js","57b270d576b2ea0001c98812","fixation","img/fixation.png","null","","test","","","","","",""
"347.59999999403954","174275","pSARL_v2","pSARL_v2opvtn7js","57b270d576b2ea0001c98812","freq","img/orange_2bandit_b2.png","70","70","test","1","34","34","2","",""
"null","174742","pSARL_v2","pSARL_v2opvtn7js","57b270d576b2ea0001c98812","freq_resp","img/orange_2bandit_b.png","70","70","test","","","","2","",""
"null","174899","pSARL_v2","pSARL_v2opvtn7js","57b270d576b2ea0001c98812","fixation","img/fixation.png","null","","test","","","","","",""
"355","175258","pSARL_v2","pSARL_v2opvtn7js","57b270d576b2ea0001c98812","freq","img/orange_2bandit_b2.png","70","70","test","1","35","35","2","",""
"null","175717","pSARL_v2","pSARL_v2opvtn7js","57b270d576b2ea0001c98812","freq_resp","img/orange_2bandit_b.png","70","70","test","","","","2","",""
"null","175874","pSARL_v2","pSARL_v2opvtn7js","57b270d576b2ea0001c98812","fixation","img/fixation.png","null","","test","","","","","",""
"326.19999998807907","176204","pSARL_v2","pSARL_v2opvtn7js","57b270d576b2ea0001c98812","freq","img/orange_2bandit_b2.png","70","70","test","1","36","36","2","",""
"null","176693","pSARL_v2","pSARL_v2opvtn7js","57b270d576b2ea0001c98812","freq_resp","img/orange_2bandit_b.png","70","70","test","","","","2","",""
"null","176849","pSARL_v2","pSARL_v2opvtn7js","57b270d576b2ea0001c98812","fixation","img/fixation.png","null","","test","","","","","",""
"308.7999999821186","177162","pSARL_v2","pSARL_v2opvtn7js","57b270d576b2ea0001c98812","freq","img/orange_2bandit_b2.png","70","70","test","1","37","37","2","",""
"null","177668","pSARL_v2","pSARL_v2opvtn7js","57b270d576b2ea0001c98812","freq_resp","img/orange_2bandit_b.png","70","70","test","","","","2","",""
"null","177825","pSARL_v2","pSARL_v2opvtn7js","57b270d576b2ea0001c98812","fixation","img/fixation.png","null","","test","","","","","",""
"311.5","178140","pSARL_v2","pSARL_v2opvtn7js","57b270d576b2ea0001c98812","freq","img/orange_2bandit_b2.png","70","70","test","1","38","38","2","",""
"null","178643","pSARL_v2","pSARL_v2opvtn7js","57b270d576b2ea0001c98812","freq_resp","img/orange_2bandit_b.png","70","70","test","","","","2","",""
"null","178805","pSARL_v2","pSARL_v2opvtn7js","57b270d576b2ea0001c98812","fixation","img/fixation.png","null","","test","","","","","",""
"328.69999998807907","179138","pSARL_v2","pSARL_v2opvtn7js","57b270d576b2ea0001c98812","freq","img/orange_2bandit_b2.png","70","70","test","1","39","39","2","",""
"null","179618","pSARL_v2","pSARL_v2opvtn7js","57b270d576b2ea0001c98812","freq_resp","img/orange_2bandit_b.png","70","70","test","","","","2","",""
"null","179781","pSARL_v2","pSARL_v2opvtn7js","57b270d576b2ea0001c98812","fixation","img/fixation.png","null","","test","","","","","",""
"331.40000000596046","180116","pSARL_v2","pSARL_v2opvtn7js","57b270d576b2ea0001c98812","freq","img/orange_2bandit_b2.png","70","70","test","1","40","40","2","",""
"null","180593","pSARL_v2","pSARL_v2opvtn7js","57b270d576b2ea0001c98812","freq_resp","img/orange_2bandit_b.png","70","70","test","","","","2","",""
"null","180755","pSARL_v2","pSARL_v2opvtn7js","57b270d576b2ea0001c98812","fixation","img/fixation.png","null","","test","","","","","",""
"306.7000000178814","181065","pSARL_v2","pSARL_v2opvtn7js","57b270d576b2ea0001c98812","infreq","img/green_2bandit_b2.png","70","68","test","0","41","41","2","",""
"null","181569","pSARL_v2","pSARL_v2opvtn7js","57b270d576b2ea0001c98812","infreq_resp","img/green_2bandit_b.png","70","68","test","","","","2","",""
"null","181731","pSARL_v2","pSARL_v2opvtn7js","57b270d576b2ea0001c98812","fixation","img/fixation.png","null","","test","","","","","",""
"364.7000000178814","182100","pSARL_v2","pSARL_v2opvtn7js","57b270d576b2ea0001c98812","freq","img/orange_2bandit_b2.png","70","70","test","1","42","42","2","",""
"null","182544","pSARL_v2","pSARL_v2opvtn7js","57b270d576b2ea0001c98812","freq_resp","img/orange_2bandit_b.png","70","70","test","","","","2","",""
"null","182707","pSARL_v2","pSARL_v2opvtn7js","57b270d576b2ea0001c98812","fixation","img/fixation.png","null","","test","","","","","",""
"810.9000000059605","183522","pSARL_v2","pSARL_v2opvtn7js","57b270d576b2ea0001c98812","reward","img/slot.png","74","","test","","","","","",""
"null","184280","pSARL_v2","pSARL_v2opvtn7js","57b270d576b2ea0001c98812","points","<div class=""verylowPoints""> -11 </div>","null","na","test","","","","2","-11","1"
"null","185092","pSARL_v2","pSARL_v2opvtn7js","57b270d576b2ea0001c98812","freq","img/orange_2bandit_b2.png","null","70","test","0","43","43","3","",""
"null","185251","pSARL_v2","pSARL_v2opvtn7js","57b270d576b2ea0001c98812","fixation","img/fixation.png","null","","test","","","","","",""
"162.80000001192093","185418","pSARL_v2","pSARL_v2opvtn7js","57b270d576b2ea0001c98812","freq","img/orange_2bandit_b2.png","70","70","test","1","44","44","3","",""
"null","186067","pSARL_v2","pSARL_v2opvtn7js","57b270d576b2ea0001c98812","freq_resp","img/orange_2bandit_b.png","70","70","test","","","","3","",""
"null","186224","pSARL_v2","pSARL_v2opvtn7js","57b270d576b2ea0001c98812","fixation","img/fixation.png","null","","test","","","","","",""
"79.90000000596046","186308","pSARL_v2","pSARL_v2opvtn7js","57b270d576b2ea0001c98812","freq","img/orange_2bandit_b2.png","70","70","test","1","45","45","3","",""
"null","187041","pSARL_v2","pSARL_v2opvtn7js","57b270d576b2ea0001c98812","freq_resp","img/orange_2bandit_b.png","70","70","test","","","","3","",""
"null","187205","pSARL_v2","pSARL_v2opvtn7js","57b270d576b2ea0001c98812","fixation","img/fixation.png","null","","test","","","","","",""
"56.39999997615814","187265","pSARL_v2","pSARL_v2opvtn7js","57b270d576b2ea0001c98812","freq","img/orange_2bandit_b2.png","70","70","test","1","46","46","3","",""
"null","188018","pSARL_v2","pSARL_v2opvtn7js","57b270d576b2ea0001c98812","freq_resp","img/orange_2bandit_b.png","70","70","test","","","","3","",""
"null","188180","pSARL_v2","pSARL_v2opvtn7js","57b270d576b2ea0001c98812","fixation","img/fixation.png","null","","test","","","","","",""
"331.5","188516","pSARL_v2","pSARL_v2opvtn7js","57b270d576b2ea0001c98812","freq","img/orange_2bandit_b2.png","70","70","test","1","47","47","3","",""
"null","188993","pSARL_v2","pSARL_v2opvtn7js","57b270d576b2ea0001c98812","freq_resp","img/orange_2bandit_b.png","70","70","test","","","","3","",""
"null","189156","pSARL_v2","pSARL_v2opvtn7js","57b270d576b2ea0001c98812","fixation","img/fixation.png","null","","test","","","","","",""
"321.7999999821186","189482","pSARL_v2","pSARL_v2opvtn7js","57b270d576b2ea0001c98812","freq","img/orange_2bandit_b2.png","70","70","test","1","48","48","3","",""
"null","189968","pSARL_v2","pSARL_v2opvtn7js","57b270d576b2ea0001c98812","freq_resp","img/orange_2bandit_b.png","70","70","test","","","","3","",""
"null","190131","pSARL_v2","pSARL_v2opvtn7js","57b270d576b2ea0001c98812","fixation","img/fixation.png","null","","test","","","","","",""
"418.7000000178814","190554","pSARL_v2","pSARL_v2opvtn7js","57b270d576b2ea0001c98812","infreq","img/green_2bandit_b2.png","68","68","test","1","49","49","3","",""
"null","190944","pSARL_v2","pSARL_v2opvtn7js","57b270d576b2ea0001c98812","infreq_resp","img/green_2bandit_b.png","68","68","test","","","","3","",""
"null","191106","pSARL_v2","pSARL_v2opvtn7js","57b270d576b2ea0001c98812","fixation","img/fixation.png","null","","test","","","","","",""
"441.90000000596046","191552","pSARL_v2","pSARL_v2opvtn7js","57b270d576b2ea0001c98812","freq","img/orange_2bandit_b2.png","70","70","test","1","50","50","3","",""
"null","191923","pSARL_v2","pSARL_v2opvtn7js","57b270d576b2ea0001c98812","freq_resp","img/orange_2bandit_b.png","70","70","test","","","","3","",""
"null","192081","pSARL_v2","pSARL_v2opvtn7js","57b270d576b2ea0001c98812","fixation","img/fixation.png","null","","test","","","","","",""
"486.2999999821186","192571","pSARL_v2","pSARL_v2opvtn7js","57b270d576b2ea0001c98812","freq","img/orange_2bandit_b2.png","70","70","test","1","51","51","3","",""
"null","192899","pSARL_v2","pSARL_v2opvtn7js","57b270d576b2ea0001c98812","freq_resp","img/orange_2bandit_b.png","70","70","test","","","","3","",""
"null","193056","pSARL_v2","pSARL_v2opvtn7js","57b270d576b2ea0001c98812","fixation","img/fixation.png","null","","test","","","","","",""
"429.90000000596046","193490","pSARL_v2","pSARL_v2opvtn7js","57b270d576b2ea0001c98812","freq","img/orange_2bandit_b2.png","70","70","test","1","52","52","3","",""
"null","193875","pSARL_v2","pSARL_v2opvtn7js","57b270d576b2ea0001c98812","freq_resp","img/orange_2bandit_b.png","70","70","test","","","","3","",""
"null","194033","pSARL_v2","pSARL_v2opvtn7js","57b270d576b2ea0001c98812","fixation","img/fixation.png","null","","test","","","","","",""
"399.09999999403954","194436","pSARL_v2","pSARL_v2opvtn7js","57b270d576b2ea0001c98812","freq","img/orange_2bandit_b2.png","70","70","test","1","53","53","3","",""
"null","194850","pSARL_v2","pSARL_v2opvtn7js","57b270d576b2ea0001c98812","freq_resp","img/orange_2bandit_b.png","70","70","test","","","","3","",""
"null","195010","pSARL_v2","pSARL_v2opvtn7js","57b270d576b2ea0001c98812","fixation","img/fixation.png","null","","test","","","","","",""
"379.7000000178814","195393","pSARL_v2","pSARL_v2opvtn7js","57b270d576b2ea0001c98812","freq","img/orange_2bandit_b2.png","70","70","test","1","54","54","3","",""
"null","195825","pSARL_v2","pSARL_v2opvtn7js","57b270d576b2ea0001c98812","freq_resp","img/orange_2bandit_b.png","70","70","test","","","","3","",""
"null","195988","pSARL_v2","pSARL_v2opvtn7js","57b270d576b2ea0001c98812","fixation","img/fixation.png","null","","test","","","","","",""
"433.40000000596046","196425","pSARL_v2","pSARL_v2opvtn7js","57b270d576b2ea0001c98812","infreq","img/green_2bandit_b2.png","68","68","test","1","55","55","3","",""
"null","196801","pSARL_v2","pSARL_v2opvtn7js","57b270d576b2ea0001c98812","infreq_resp","img/green_2bandit_b.png","68","68","test","","","","3","",""
"null","196963","pSARL_v2","pSARL_v2opvtn7js","57b270d576b2ea0001c98812","fixation","img/fixation.png","null","","test","","","","","",""
"457.80000001192093","197425","pSARL_v2","pSARL_v2opvtn7js","57b270d576b2ea0001c98812","freq","img/orange_2bandit_b2.png","70","70","test","1","56","56","3","",""
"null","197776","pSARL_v2","pSARL_v2opvtn7js","57b270d576b2ea0001c98812","freq_resp","img/orange_2bandit_b.png","70","70","test","","","","3","",""
"null","197932","pSARL_v2","pSARL_v2opvtn7js","57b270d576b2ea0001c98812","fixation","img/fixation.png","null","","test","","","","","",""
"419.39999997615814","198356","pSARL_v2","pSARL_v2opvtn7js","57b270d576b2ea0001c98812","freq","img/orange_2bandit_b2.png","70","70","test","1","57","57","3","",""
"null","198745","pSARL_v2","pSARL_v2opvtn7js","57b270d576b2ea0001c98812","freq_resp","img/orange_2bandit_b.png","70","70","test","","","","3","",""
"null","198908","pSARL_v2","pSARL_v2opvtn7js","57b270d576b2ea0001c98812","fixation","img/fixation.png","null","","test","","","","","",""
"401","199313","pSARL_v2","pSARL_v2opvtn7js","57b270d576b2ea0001c98812","freq","img/orange_2bandit_b2.png","70","70","test","1","58","58","3","",""
"null","199716","pSARL_v2","pSARL_v2opvtn7js","57b270d576b2ea0001c98812","freq_resp","img/orange_2bandit_b.png","70","70","test","","","","3","",""
"null","199875","pSARL_v2","pSARL_v2opvtn7js","57b270d576b2ea0001c98812","fixation","img/fixation.png","null","","test","","","","","",""
"380.59999999403954","200260","pSARL_v2","pSARL_v2opvtn7js","57b270d576b2ea0001c98812","freq","img/orange_2bandit_b2.png","70","70","test","1","59","59","3","",""
"null","200690","pSARL_v2","pSARL_v2opvtn7js","57b270d576b2ea0001c98812","freq_resp","img/orange_2bandit_b.png","70","70","test","","","","3","",""
"null","200852","pSARL_v2","pSARL_v2opvtn7js","57b270d576b2ea0001c98812","fixation","img/fixation.png","null","","test","","","","","",""
"377","201233","pSARL_v2","pSARL_v2opvtn7js","57b270d576b2ea0001c98812","freq","img/orange_2bandit_b2.png","70","70","test","1","60","60","3","",""
"null","201664","pSARL_v2","pSARL_v2opvtn7js","57b270d576b2ea0001c98812","freq_resp","img/orange_2bandit_b.png","70","70","test","","","","3","",""
"null","201827","pSARL_v2","pSARL_v2opvtn7js","57b270d576b2ea0001c98812","fixation","img/fixation.png","null","","test","","","","","",""
"388.19999998807907","202220","pSARL_v2","pSARL_v2opvtn7js","57b270d576b2ea0001c98812","freq","img/orange_2bandit_b2.png","70","70","test","1","61","61","3","",""
"null","202640","pSARL_v2","pSARL_v2opvtn7js","57b270d576b2ea0001c98812","freq_resp","img/orange_2bandit_b.png","70","70","test","","","","3","",""
"null","202803","pSARL_v2","pSARL_v2opvtn7js","57b270d576b2ea0001c98812","fixation","img/fixation.png","null","","test","","","","","",""
"354.40000000596046","203161","pSARL_v2","pSARL_v2opvtn7js","57b270d576b2ea0001c98812","freq","img/orange_2bandit_b2.png","70","70","test","1","62","62","3","",""
"null","203615","pSARL_v2","pSARL_v2opvtn7js","57b270d576b2ea0001c98812","freq_resp","img/orange_2bandit_b.png","70","70","test","","","","3","",""
"null","203778","pSARL_v2","pSARL_v2opvtn7js","57b270d576b2ea0001c98812","fixation","img/fixation.png","null","","test","","","","","",""
"373.7999999821186","204156","pSARL_v2","pSARL_v2opvtn7js","57b270d576b2ea0001c98812","freq","img/orange_2bandit_b2.png","70","70","test","1","63","63","3","",""
"null","204596","pSARL_v2","pSARL_v2opvtn7js","57b270d576b2ea0001c98812","freq_resp","img/orange_2bandit_b.png","70","70","test","","","","3","",""
"null","204753","pSARL_v2","pSARL_v2opvtn7js","57b270d576b2ea0001c98812","fixation","img/fixation.png","null","","test","","","","","",""
"371.80000001192093","205129","pSARL_v2","pSARL_v2opvtn7js","57b270d576b2ea0001c98812","freq","img/orange_2bandit_b2.png","70","70","test","1","64","64","3","",""
"null","205571","pSARL_v2","pSARL_v2opvtn7js","57b270d576b2ea0001c98812","freq_resp","img/orange_2bandit_b.png","70","70","test","","","","3","",""
"null","205728","pSARL_v2","pSARL_v2opvtn7js","57b270d576b2ea0001c98812","fixation","img/fixation.png","null","","test","","","","","",""
"572.6999999880791","206305","pSARL_v2","pSARL_v2opvtn7js","57b270d576b2ea0001c98812","reward","img/slot.png","74","","test","","","","","",""
"null","207068","pSARL_v2","pSARL_v2opvtn7js","57b270d576b2ea0001c98812","points","<div class=""verylowPoints""> -7 </div>","null","na","test","","","","3","-7","2"
"512.9000000059605","207585","pSARL_v2","pSARL_v2opvtn7js","57b270d576b2ea0001c98812","freq","img/orange_2bandit_b2.png","70","70","test","1","65","65","4","",""
"null","207882","pSARL_v2","pSARL_v2opvtn7js","57b270d576b2ea0001c98812","freq_resp","img/orange_2bandit_b.png","70","70","test","","","","4","",""
"null","208044","pSARL_v2","pSARL_v2opvtn7js","57b270d576b2ea0001c98812","fixation","img/fixation.png","null","","test","","","","","",""
"513.4000000059605","208561","pSARL_v2","pSARL_v2opvtn7js","57b270d576b2ea0001c98812","freq","img/orange_2bandit_b2.png","70","70","test","1","66","66","4","",""
"null","208857","pSARL_v2","pSARL_v2opvtn7js","57b270d576b2ea0001c98812","freq_resp","img/orange_2bandit_b.png","70","70","test","","","","4","",""
"null","209020","pSARL_v2","pSARL_v2opvtn7js","57b270d576b2ea0001c98812","fixation","img/fixation.png","null","","test","","","","","",""
"401.2999999821186","209425","pSARL_v2","pSARL_v2opvtn7js","57b270d576b2ea0001c98812","freq","img/orange_2bandit_b2.png","70","70","test","1","67","67","4","",""
"null","209832","pSARL_v2","pSARL_v2opvtn7js","57b270d576b2ea0001c98812","freq_resp","img/orange_2bandit_b.png","70","70","test","","","","4","",""
"null","209995","pSARL_v2","pSARL_v2opvtn7js","57b270d576b2ea0001c98812","fixation","img/fixation.png","null","","test","","","","","",""
"291.90000000596046","210291","pSARL_v2","pSARL_v2opvtn7js","57b270d576b2ea0001c98812","freq","img/orange_2bandit_b2.png","70","70","test","1","68","68","4","",""
"null","210807","pSARL_v2","pSARL_v2opvtn7js","57b270d576b2ea0001c98812","freq_resp","img/orange_2bandit_b.png","70","70","test","","","","4","",""
"null","210970","pSARL_v2","pSARL_v2opvtn7js","57b270d576b2ea0001c98812","fixation","img/fixation.png","null","","test","","","","","",""
"306.90000000596046","211281","pSARL_v2","pSARL_v2opvtn7js","57b270d576b2ea0001c98812","freq","img/orange_2bandit_b2.png","70","70","test","1","69","69","4","",""
"null","211788","pSARL_v2","pSARL_v2opvtn7js","57b270d576b2ea0001c98812","freq_resp","img/orange_2bandit_b.png","70","70","test","","","","4","",""
"null","211945","pSARL_v2","pSARL_v2opvtn7js","57b270d576b2ea0001c98812","fixation","img/fixation.png","null","","test","","","","","",""
"294.30000001192093","212243","pSARL_v2","pSARL_v2opvtn7js","57b270d576b2ea0001c98812","freq","img/orange_2bandit_b2.png","70","70","test","1","70","70","4","",""
"null","212761","pSARL_v2","pSARL_v2opvtn7js","57b270d576b2ea0001c98812","freq_resp","img/orange_2bandit_b.png","70","70","test","","","","4","",""
"null","212920","pSARL_v2","pSARL_v2opvtn7js","57b270d576b2ea0001c98812","fixation","img/fixation.png","null","","test","","","","","",""
"308.09999999403954","213233","pSARL_v2","pSARL_v2opvtn7js","57b270d576b2ea0001c98812","freq","img/orange_2bandit_b2.png","70","70","test","1","71","71","4","",""
"null","213739","pSARL_v2","pSARL_v2opvtn7js","57b270d576b2ea0001c98812","freq_resp","img/orange_2bandit_b.png","70","70","test","","","","4","",""
"null","213896","pSARL_v2","pSARL_v2opvtn7js","57b270d576b2ea0001c98812","fixation","img/fixation.png","null","","test","","","","","",""
"311.59999999403954","214211","pSARL_v2","pSARL_v2opvtn7js","57b270d576b2ea0001c98812","freq","img/orange_2bandit_b2.png","70","70","test","1","72","72","4","",""
"null","214714","pSARL_v2","pSARL_v2opvtn7js","57b270d576b2ea0001c98812","freq_resp","img/orange_2bandit_b.png","70","70","test","","","","4","",""
"null","214876","pSARL_v2","pSARL_v2opvtn7js","57b270d576b2ea0001c98812","fixation","img/fixation.png","null","","test","","","","","",""
"321.5","215202","pSARL_v2","pSARL_v2opvtn7js","57b270d576b2ea0001c98812","freq","img/orange_2bandit_b2.png","70","70","test","1","73","73","4","",""
"null","215689","pSARL_v2","pSARL_v2opvtn7js","57b270d576b2ea0001c98812","freq_resp","img/orange_2bandit_b.png","70","70","test","","","","4","",""
"null","215847","pSARL_v2","pSARL_v2opvtn7js","57b270d576b2ea0001c98812","fixation","img/fixation.png","null","","test","","","","","",""
"304.5","216155","pSARL_v2","pSARL_v2opvtn7js","57b270d576b2ea0001c98812","freq","img/orange_2bandit_b2.png","70","70","test","1","74","74","4","",""
"null","216659","pSARL_v2","pSARL_v2opvtn7js","57b270d576b2ea0001c98812","freq_resp","img/orange_2bandit_b.png","70","70","test","","","","4","",""
"null","216816","pSARL_v2","pSARL_v2opvtn7js","57b270d576b2ea0001c98812","fixation","img/fixation.png","null","","test","","","","","",""
"317","217136","pSARL_v2","pSARL_v2opvtn7js","57b270d576b2ea0001c98812","infreq","img/green_2bandit_b2.png","70","68","test","0","75","75","4","",""
"null","217631","pSARL_v2","pSARL_v2opvtn7js","57b270d576b2ea0001c98812","infreq_resp","img/green_2bandit_b.png","70","68","test","","","","4","",""
"null","217792","pSARL_v2","pSARL_v2opvtn7js","57b270d576b2ea0001c98812","fixation","img/fixation.png","null","","test","","","","","",""
"366.69999998807907","218163","pSARL_v2","pSARL_v2opvtn7js","57b270d576b2ea0001c98812","freq","img/orange_2bandit_b2.png","70","70","test","1","76","76","4","",""
"null","218609","pSARL_v2","pSARL_v2opvtn7js","57b270d576b2ea0001c98812","freq_resp","img/orange_2bandit_b.png","70","70","test","","","","4","",""
"null","218770","pSARL_v2","pSARL_v2opvtn7js","57b270d576b2ea0001c98812","fixation","img/fixation.png","null","","test","","","","","",""
"321.69999998807907","219096","pSARL_v2","pSARL_v2opvtn7js","57b270d576b2ea0001c98812","freq","img/orange_2bandit_b2.png","70","70","test","1","77","77","4","",""
"null","219584","pSARL_v2","pSARL_v2opvtn7js","57b270d576b2ea0001c98812","freq_resp","img/orange_2bandit_b.png","70","70","test","","","","4","",""
"null","219746","pSARL_v2","pSARL_v2opvtn7js","57b270d576b2ea0001c98812","fixation","img/fixation.png","null","","test","","","","","",""
"380.7999999821186","220131","pSARL_v2","pSARL_v2opvtn7js","57b270d576b2ea0001c98812","freq","img/orange_2bandit_b2.png","70","70","test","1","78","78","4","",""
"null","220560","pSARL_v2","pSARL_v2opvtn7js","57b270d576b2ea0001c98812","freq_resp","img/orange_2bandit_b.png","70","70","test","","","","4","",""
"null","220722","pSARL_v2","pSARL_v2opvtn7js","57b270d576b2ea0001c98812","fixation","img/fixation.png","null","","test","","","","","",""
"522","221248","pSARL_v2","pSARL_v2opvtn7js","57b270d576b2ea0001c98812","infreq","img/green_2bandit_b2.png","68","68","test","1","79","79","4","",""
"null","221540","pSARL_v2","pSARL_v2opvtn7js","57b270d576b2ea0001c98812","infreq_resp","img/green_2bandit_b.png","68","68","test","","","","4","",""
"null","221697","pSARL_v2","pSARL_v2opvtn7js","57b270d576b2ea0001c98812","fixation","img/fixation.png","null","","test","","","","","",""
"411.5","222112","pSARL_v2","pSARL_v2opvtn7js","57b270d576b2ea0001c98812","freq","img/orange_2bandit_b2.png","70","70","test","1","80","80","4","",""
"null","222511","pSARL_v2","pSARL_v2opvtn7js","57b270d576b2ea0001c98812","freq_resp","img/orange_2bandit_b.png","70","70","test","","","","4","",""
"null","222675","pSARL_v2","pSARL_v2opvtn7js","57b270d576b2ea0001c98812","fixation","img/fixation.png","null","","test","","","","","",""
"404.2999999821186","223083","pSARL_v2","pSARL_v2opvtn7js","57b270d576b2ea0001c98812","freq","img/orange_2bandit_b2.png","70","70","test","1","81","81","4","",""
"null","223490","pSARL_v2","pSARL_v2opvtn7js","57b270d576b2ea0001c98812","freq_resp","img/orange_2bandit_b.png","70","70","test","","","","4","",""
"null","223647","pSARL_v2","pSARL_v2opvtn7js","57b270d576b2ea0001c98812","fixation","img/fixation.png","null","","test","","","","","",""
"436.90000000596046","224088","pSARL_v2","pSARL_v2opvtn7js","57b270d576b2ea0001c98812","freq","img/orange_2bandit_b2.png","70","70","test","1","82","82","4","",""
"null","224466","pSARL_v2","pSARL_v2opvtn7js","57b270d576b2ea0001c98812","freq_resp","img/orange_2bandit_b.png","70","70","test","","","","4","",""
"null","224628","pSARL_v2","pSARL_v2opvtn7js","57b270d576b2ea0001c98812","fixation","img/fixation.png","null","","test","","","","","",""
"378.89999997615814","225011","pSARL_v2","pSARL_v2opvtn7js","57b270d576b2ea0001c98812","freq","img/orange_2bandit_b2.png","70","70","test","1","83","83","4","",""
"null","225441","pSARL_v2","pSARL_v2opvtn7js","57b270d576b2ea0001c98812","freq_resp","img/orange_2bandit_b.png","70","70","test","","","","4","",""
"null","225604","pSARL_v2","pSARL_v2opvtn7js","57b270d576b2ea0001c98812","fixation","img/fixation.png","null","","test","","","","","",""
"376.39999997615814","225984","pSARL_v2","pSARL_v2opvtn7js","57b270d576b2ea0001c98812","freq","img/orange_2bandit_b2.png","70","70","test","1","84","84","4","",""
"null","226416","pSARL_v2","pSARL_v2opvtn7js","57b270d576b2ea0001c98812","freq_resp","img/orange_2bandit_b.png","70","70","test","","","","4","",""
"null","226578","pSARL_v2","pSARL_v2opvtn7js","57b270d576b2ea0001c98812","fixation","img/fixation.png","null","","test","","","","","",""
"308.19999998807907","226891","pSARL_v2","pSARL_v2opvtn7js","57b270d576b2ea0001c98812","freq","img/orange_2bandit_b2.png","70","70","test","1","85","85","4","",""
"null","227392","pSARL_v2","pSARL_v2opvtn7js","57b270d576b2ea0001c98812","freq_resp","img/orange_2bandit_b.png","70","70","test","","","","4","",""
"null","227554","pSARL_v2","pSARL_v2opvtn7js","57b270d576b2ea0001c98812","fixation","img/fixation.png","null","","test","","","","","",""
"330.10000002384186","227889","pSARL_v2","pSARL_v2opvtn7js","57b270d576b2ea0001c98812","freq","img/orange_2bandit_b2.png","70","70","test","1","86","86","4","",""
"null","228367","pSARL_v2","pSARL_v2opvtn7js","57b270d576b2ea0001c98812","freq_resp","img/orange_2bandit_b.png","70","70","test","","","","4","",""
"null","228527","pSARL_v2","pSARL_v2opvtn7js","57b270d576b2ea0001c98812","fixation","img/fixation.png","null","","test","","","","","",""
"319","228850","pSARL_v2","pSARL_v2opvtn7js","57b270d576b2ea0001c98812","freq","img/orange_2bandit_b2.png","70","70","test","1","87","87","4","",""
"null","229343","pSARL_v2","pSARL_v2opvtn7js","57b270d576b2ea0001c98812","freq_resp","img/orange_2bandit_b.png","70","70","test","","","","4","",""
"null","229505","pSARL_v2","pSARL_v2opvtn7js","57b270d576b2ea0001c98812","fixation","img/fixation.png","null","","test","","","","","",""
"299.5","229808","pSARL_v2","pSARL_v2opvtn7js","57b270d576b2ea0001c98812","freq","img/orange_2bandit_b2.png","70","70","test","1","88","88","4","",""
"null","230320","pSARL_v2","pSARL_v2opvtn7js","57b270d576b2ea0001c98812","freq_resp","img/orange_2bandit_b.png","70","70","test","","","","4","",""
"null","230484","pSARL_v2","pSARL_v2opvtn7js","57b270d576b2ea0001c98812","fixation","img/fixation.png","null","","test","","","","","",""
"424.2000000178814","230912","pSARL_v2","pSARL_v2opvtn7js","57b270d576b2ea0001c98812","reward","img/slot.png","74","","test","","","","","",""
"null","231676","pSARL_v2","pSARL_v2opvtn7js","57b270d576b2ea0001c98812","points","<div class=""verylowPoints""> -3 </div>","null","na","test","","","","4","-3","3"
"480.5","232160","pSARL_v2","pSARL_v2opvtn7js","57b270d576b2ea0001c98812","freq","img/orange_2bandit_b2.png","70","70","test","1","89","89","5","",""
"null","232489","pSARL_v2","pSARL_v2opvtn7js","57b270d576b2ea0001c98812","freq_resp","img/orange_2bandit_b.png","70","70","test","","","","5","",""
"null","232651","pSARL_v2","pSARL_v2opvtn7js","57b270d576b2ea0001c98812","fixation","img/fixation.png","null","","test","","","","","",""
"523.6999999880791","233179","pSARL_v2","pSARL_v2opvtn7js","57b270d576b2ea0001c98812","freq","img/orange_2bandit_b2.png","70","70","test","1","90","90","5","",""
"null","233464","pSARL_v2","pSARL_v2opvtn7js","57b270d576b2ea0001c98812","freq_resp","img/orange_2bandit_b.png","70","70","test","","","","5","",""
"null","233626","pSARL_v2","pSARL_v2opvtn7js","57b270d576b2ea0001c98812","fixation","img/fixation.png","null","","test","","","","","",""
"322.09999999403954","233952","pSARL_v2","pSARL_v2opvtn7js","57b270d576b2ea0001c98812","freq","img/orange_2bandit_b2.png","70","70","test","1","91","91","5","",""
"null","234439","pSARL_v2","pSARL_v2opvtn7js","57b270d576b2ea0001c98812","freq_resp","img/orange_2bandit_b.png","70","70","test","","","","5","",""
"null","234601","pSARL_v2","pSARL_v2opvtn7js","57b270d576b2ea0001c98812","fixation","img/fixation.png","null","","test","","","","","",""
"301.90000000596046","234906","pSARL_v2","pSARL_v2opvtn7js","57b270d576b2ea0001c98812","freq","img/orange_2bandit_b2.png","70","70","test","1","92","92","5","",""
"null","235414","pSARL_v2","pSARL_v2opvtn7js","57b270d576b2ea0001c98812","freq_resp","img/orange_2bandit_b.png","70","70","test","","","","5","",""
"null","235576","pSARL_v2","pSARL_v2opvtn7js","57b270d576b2ea0001c98812","fixation","img/fixation.png","null","","test","","","","","",""
"316","235896","pSARL_v2","pSARL_v2opvtn7js","57b270d576b2ea0001c98812","freq","img/orange_2bandit_b2.png","70","70","test","1","93","93","5","",""
"null","236395","pSARL_v2","pSARL_v2opvtn7js","57b270d576b2ea0001c98812","freq_resp","img/orange_2bandit_b.png","70","70","test","","","","5","",""
"null","236552","pSARL_v2","pSARL_v2opvtn7js","57b270d576b2ea0001c98812","fixation","img/fixation.png","null","","test","","","","","",""
"398.40000000596046","236954","pSARL_v2","pSARL_v2opvtn7js","57b270d576b2ea0001c98812","freq","img/orange_2bandit_b2.png","70","70","test","1","94","94","5","",""
"null","237370","pSARL_v2","pSARL_v2opvtn7js","57b270d576b2ea0001c98812","freq_resp","img/orange_2bandit_b.png","70","70","test","","","","5","",""
"null","237527","pSARL_v2","pSARL_v2opvtn7js","57b270d576b2ea0001c98812","fixation","img/fixation.png","null","","test","","","","","",""
"317.19999998807907","237848","pSARL_v2","pSARL_v2opvtn7js","57b270d576b2ea0001c98812","freq","img/orange_2bandit_b2.png","70","70","test","1","95","95","5","",""
"null","238346","pSARL_v2","pSARL_v2opvtn7js","57b270d576b2ea0001c98812","freq_resp","img/orange_2bandit_b.png","70","70","test","","","","5","",""
"null","238506","pSARL_v2","pSARL_v2opvtn7js","57b270d576b2ea0001c98812","fixation","img/fixation.png","null","","test","","","","","",""
"316.90000000596046","238827","pSARL_v2","pSARL_v2opvtn7js","57b270d576b2ea0001c98812","freq","img/orange_2bandit_b2.png","70","70","test","1","96","96","5","",""
"null","239323","pSARL_v2","pSARL_v2opvtn7js","57b270d576b2ea0001c98812","freq_resp","img/orange_2bandit_b.png","70","70","test","","","","5","",""
"null","239483","pSARL_v2","pSARL_v2opvtn7js","57b270d576b2ea0001c98812","fixation","img/fixation.png","null","","test","","","","","",""
"336.19999998807907","239823","pSARL_v2","pSARL_v2opvtn7js","57b270d576b2ea0001c98812","freq","img/orange_2bandit_b2.png","70","70","test","1","97","97","5","",""
"null","240296","pSARL_v2","pSARL_v2opvtn7js","57b270d576b2ea0001c98812","freq_resp","img/orange_2bandit_b.png","70","70","test","","","","5","",""
"null","240458","pSARL_v2","pSARL_v2opvtn7js","57b270d576b2ea0001c98812","fixation","img/fixation.png","null","","test","","","","","",""
"323.90000000596046","240786","pSARL_v2","pSARL_v2opvtn7js","57b270d576b2ea0001c98812","freq","img/orange_2bandit_b2.png","70","70","test","1","98","98","5","",""
"null","241271","pSARL_v2","pSARL_v2opvtn7js","57b270d576b2ea0001c98812","freq_resp","img/orange_2bandit_b.png","70","70","test","","","","5","",""
"null","241433","pSARL_v2","pSARL_v2opvtn7js","57b270d576b2ea0001c98812","fixation","img/fixation.png","null","","test","","","","","",""
"458.2000000178814","241896","pSARL_v2","pSARL_v2opvtn7js","57b270d576b2ea0001c98812","infreq","img/green_2bandit_b2.png","68","68","test","1","99","99","5","",""
"null","242251","pSARL_v2","pSARL_v2opvtn7js","57b270d576b2ea0001c98812","infreq_resp","img/green_2bandit_b.png","68","68","test","","","","5","",""
"null","242408","pSARL_v2","pSARL_v2opvtn7js","57b270d576b2ea0001c98812","fixation","img/fixation.png","null","","test","","","","","",""
"470.09999999403954","242882","pSARL_v2","pSARL_v2opvtn7js","57b270d576b2ea0001c98812","infreq","img/green_2bandit_b2.png","68","68","test","1","100","100","5","",""
"null","243224","pSARL_v2","pSARL_v2opvtn7js","57b270d576b2ea0001c98812","infreq_resp","img/green_2bandit_b.png","68","68","test","","","","5","",""
"null","243384","pSARL_v2","pSARL_v2opvtn7js","57b270d576b2ea0001c98812","fixation","img/fixation.png","null","","test","","","","","",""
"428.69999998807907","243817","pSARL_v2","pSARL_v2opvtn7js","57b270d576b2ea0001c98812","freq","img/orange_2bandit_b2.png","70","70","test","1","101","101","5","",""
"null","244198","pSARL_v2","pSARL_v2opvtn7js","57b270d576b2ea0001c98812","freq_resp","img/orange_2bandit_b.png","70","70","test","","","","5","",""
"null","244359","pSARL_v2","pSARL_v2opvtn7js","57b270d576b2ea0001c98812","fixation","img/fixation.png","null","","test","","","","","",""
"335.09999999403954","244698","pSARL_v2","pSARL_v2opvtn7js","57b270d576b2ea0001c98812","freq","img/orange_2bandit_b2.png","70","70","test","1","102","102","5","",""
"null","245178","pSARL_v2","pSARL_v2opvtn7js","57b270d576b2ea0001c98812","freq_resp","img/orange_2bandit_b.png","70","70","test","","","","5","",""
"null","245334","pSARL_v2","pSARL_v2opvtn7js","57b270d576b2ea0001c98812","fixation","img/fixation.png","null","","test","","","","","",""
"317.40000000596046","245656","pSARL_v2","pSARL_v2opvtn7js","57b270d576b2ea0001c98812","freq","img/orange_2bandit_b2.png","70","70","test","1","103","103","5","",""
"null","246153","pSARL_v2","pSARL_v2opvtn7js","57b270d576b2ea0001c98812","freq_resp","img/orange_2bandit_b.png","70","70","test","","","","5","",""
"null","246310","pSARL_v2","pSARL_v2opvtn7js","57b270d576b2ea0001c98812","fixation","img/fixation.png","null","","test","","","","","",""
"280.19999998807907","246594","pSARL_v2","pSARL_v2opvtn7js","57b270d576b2ea0001c98812","freq","img/orange_2bandit_b2.png","70","70","test","1","104","104","5","",""
"null","247122","pSARL_v2","pSARL_v2opvtn7js","57b270d576b2ea0001c98812","freq_resp","img/orange_2bandit_b.png","70","70","test","","","","5","",""
"null","247279","pSARL_v2","pSARL_v2opvtn7js","57b270d576b2ea0001c98812","fixation","img/fixation.png","null","","test","","","","","",""
"292.90000000596046","247576","pSARL_v2","pSARL_v2opvtn7js","57b270d576b2ea0001c98812","freq","img/orange_2bandit_b2.png","70","70","test","1","105","105","5","",""
"null","248098","pSARL_v2","pSARL_v2opvtn7js","57b270d576b2ea0001c98812","freq_resp","img/orange_2bandit_b.png","70","70","test","","","","5","",""
"null","248254","pSARL_v2","pSARL_v2opvtn7js","57b270d576b2ea0001c98812","fixation","img/fixation.png","null","","test","","","","","",""
"303.5","248561","pSARL_v2","pSARL_v2opvtn7js","57b270d576b2ea0001c98812","freq","img/orange_2bandit_b2.png","70","70","test","1","106","106","5","",""
"null","249067","pSARL_v2","pSARL_v2opvtn7js","57b270d576b2ea0001c98812","freq_resp","img/orange_2bandit_b.png","70","70","test","","","","5","",""
"null","249223","pSARL_v2","pSARL_v2opvtn7js","57b270d576b2ea0001c98812","fixation","img/fixation.png","null","","test","","","","","",""
"309","249536","pSARL_v2","pSARL_v2opvtn7js","57b270d576b2ea0001c98812","freq","img/orange_2bandit_b2.png","70","70","test","1","107","107","5","",""
"null","250042","pSARL_v2","pSARL_v2opvtn7js","57b270d576b2ea0001c98812","freq_resp","img/orange_2bandit_b.png","70","70","test","","","","5","",""
"null","250199","pSARL_v2","pSARL_v2opvtn7js","57b270d576b2ea0001c98812","fixation","img/fixation.png","null","","test","","","","","",""
"311.19999998807907","250514","pSARL_v2","pSARL_v2opvtn7js","57b270d576b2ea0001c98812","freq","img/orange_2bandit_b2.png","70","70","test","1","108","108","5","",""
"null","251018","pSARL_v2","pSARL_v2opvtn7js","57b270d576b2ea0001c98812","freq_resp","img/orange_2bandit_b.png","70","70","test","","","","5","",""
"null","251174","pSARL_v2","pSARL_v2opvtn7js","57b270d576b2ea0001c98812","fixation","img/fixation.png","null","","test","","","","","",""
"285.2999999821186","251464","pSARL_v2","pSARL_v2opvtn7js","57b270d576b2ea0001c98812","freq","img/orange_2bandit_b2.png","70","70","test","1","109","109","5","",""
"null","251984","pSARL_v2","pSARL_v2opvtn7js","57b270d576b2ea0001c98812","freq_resp","img/orange_2bandit_b.png","70","70","test","","","","5","",""
"null","252147","pSARL_v2","pSARL_v2opvtn7js","57b270d576b2ea0001c98812","fixation","img/fixation.png","null","","test","","","","","",""
"267","252418","pSARL_v2","pSARL_v2opvtn7js","57b270d576b2ea0001c98812","freq","img/orange_2bandit_b2.png","70","70","test","1","110","110","5","",""
"null","252962","pSARL_v2","pSARL_v2opvtn7js","57b270d576b2ea0001c98812","freq_resp","img/orange_2bandit_b.png","70","70","test","","","","5","",""
"null","253118","pSARL_v2","pSARL_v2opvtn7js","57b270d576b2ea0001c98812","fixation","img/fixation.png","null","","test","","","","","",""
"284.90000000596046","253408","pSARL_v2","pSARL_v2opvtn7js","57b270d576b2ea0001c98812","freq","img/orange_2bandit_b2.png","70","70","test","1","111","111","5","",""
"null","253937","pSARL_v2","pSARL_v2opvtn7js","57b270d576b2ea0001c98812","freq_resp","img/orange_2bandit_b.png","70","70","test","","","","5","",""
"null","254096","pSARL_v2","pSARL_v2opvtn7js","57b270d576b2ea0001c98812","fixation","img/fixation.png","null","","test","","","","","",""
"531.6999999880791","254631","pSARL_v2","pSARL_v2opvtn7js","57b270d576b2ea0001c98812","reward","img/slot.png","74","","test","","","","","",""
"null","255394","pSARL_v2","pSARL_v2opvtn7js","57b270d576b2ea0001c98812","points","<div class=""veryhighPoints""> +1 </div>","null","na","test","","","","5","1","4"
"753.5999999940395","256151","pSARL_v2","pSARL_v2opvtn7js","57b270d576b2ea0001c98812","freq","img/orange_2bandit_b2.png","70","70","test","1","112","112","6","",""
"null","256209","pSARL_v2","pSARL_v2opvtn7js","57b270d576b2ea0001c98812","freq_resp","img/orange_2bandit_b.png","70","70","test","","","","6","",""
"null","256369","pSARL_v2","pSARL_v2opvtn7js","57b270d576b2ea0001c98812","fixation","img/fixation.png","null","","test","","","","","",""
"508.5","256882","pSARL_v2","pSARL_v2opvtn7js","57b270d576b2ea0001c98812","freq","img/orange_2bandit_b2.png","70","70","test","1","113","113","6","",""
"null","257182","pSARL_v2","pSARL_v2opvtn7js","57b270d576b2ea0001c98812","freq_resp","img/orange_2bandit_b.png","70","70","test","","","","6","",""
"null","257345","pSARL_v2","pSARL_v2opvtn7js","57b270d576b2ea0001c98812","fixation","img/fixation.png","null","","test","","","","","",""
"347","257696","pSARL_v2","pSARL_v2opvtn7js","57b270d576b2ea0001c98812","freq","img/orange_2bandit_b2.png","70","70","test","1","114","114","6","",""
"null","258158","pSARL_v2","pSARL_v2opvtn7js","57b270d576b2ea0001c98812","freq_resp","img/orange_2bandit_b.png","70","70","test","","","","6","",""
"null","258319","pSARL_v2","pSARL_v2opvtn7js","57b270d576b2ea0001c98812","fixation","img/fixation.png","null","","test","","","","","",""
"294.30000001192093","258617","pSARL_v2","pSARL_v2opvtn7js","57b270d576b2ea0001c98812","freq","img/orange_2bandit_b2.png","70","70","test","1","115","115","6","",""
"null","259127","pSARL_v2","pSARL_v2opvtn7js","57b270d576b2ea0001c98812","freq_resp","img/orange_2bandit_b.png","70","70","test","","","","6","",""
"null","259289","pSARL_v2","pSARL_v2opvtn7js","57b270d576b2ea0001c98812","fixation","img/fixation.png","null","","test","","","","","",""
"282.30000001192093","259576","pSARL_v2","pSARL_v2opvtn7js","57b270d576b2ea0001c98812","infreq","img/green_2bandit_b2.png","70","68","test","0","116","116","6","",""
"null","260105","pSARL_v2","pSARL_v2opvtn7js","57b270d576b2ea0001c98812","infreq_resp","img/green_2bandit_b.png","70","68","test","","","","6","",""
"null","260265","pSARL_v2","pSARL_v2opvtn7js","57b270d576b2ea0001c98812","fixation","img/fixation.png","null","","test","","","","","",""
"300.7999999821186","260569","pSARL_v2","pSARL_v2opvtn7js","57b270d576b2ea0001c98812","freq","img/orange_2bandit_b2.png","70","70","test","1","117","117","6","",""
"null","261078","pSARL_v2","pSARL_v2opvtn7js","57b270d576b2ea0001c98812","freq_resp","img/orange_2bandit_b.png","70","70","test","","","","6","",""
"null","261240","pSARL_v2","pSARL_v2opvtn7js","57b270d576b2ea0001c98812","fixation","img/fixation.png","null","","test","","","","","",""
"323.60000002384186","261567","pSARL_v2","pSARL_v2opvtn7js","57b270d576b2ea0001c98812","freq","img/orange_2bandit_b2.png","70","70","test","1","118","118","6","",""
"null","262058","pSARL_v2","pSARL_v2opvtn7js","57b270d576b2ea0001c98812","freq_resp","img/orange_2bandit_b.png","70","70","test","","","","6","",""
"null","262214","pSARL_v2","pSARL_v2opvtn7js","57b270d576b2ea0001c98812","fixation","img/fixation.png","null","","test","","","","","",""
"295.2999999821186","262514","pSARL_v2","pSARL_v2opvtn7js","57b270d576b2ea0001c98812","freq","img/orange_2bandit_b2.png","70","70","test","1","119","119","6","",""
"null","263022","pSARL_v2","pSARL_v2opvtn7js","57b270d576b2ea0001c98812","freq_resp","img/orange_2bandit_b.png","70","70","test","","","","6","",""
"null","263184","pSARL_v2","pSARL_v2opvtn7js","57b270d576b2ea0001c98812","fixation","img/fixation.png","null","","test","","","","","",""
"291.09999999403954","263479","pSARL_v2","pSARL_v2opvtn7js","57b270d576b2ea0001c98812","freq","img/orange_2bandit_b2.png","70","70","test","1","120","120","6","",""
"null","263998","pSARL_v2","pSARL_v2opvtn7js","57b270d576b2ea0001c98812","freq_resp","img/orange_2bandit_b.png","70","70","test","","","","6","",""
"null","264160","pSARL_v2","pSARL_v2opvtn7js","57b270d576b2ea0001c98812","fixation","img/fixation.png","null","","test","","","","","",""
"293.80000001192093","264458","pSARL_v2","pSARL_v2opvtn7js","57b270d576b2ea0001c98812","freq","img/orange_2bandit_b2.png","70","70","test","1","121","121","6","",""
"null","264975","pSARL_v2","pSARL_v2opvtn7js","57b270d576b2ea0001c98812","freq_resp","img/orange_2bandit_b.png","70","70","test","","","","6","",""
"null","265135","pSARL_v2","pSARL_v2opvtn7js","57b270d576b2ea0001c98812","fixation","img/fixation.png","null","","test","","","","","",""
"268.19999998807907","265407","pSARL_v2","pSARL_v2opvtn7js","57b270d576b2ea0001c98812","infreq","img/green_2bandit_b2.png","70","68","test","0","122","122","6","",""
"null","265953","pSARL_v2","pSARL_v2opvtn7js","57b270d576b2ea0001c98812","infreq_resp","img/green_2bandit_b.png","70","68","test","","","","6","",""
"null","266111","pSARL_v2","pSARL_v2opvtn7js","57b270d576b2ea0001c98812","fixation","img/fixation.png","null","","test","","","","","",""
"318.19999998807907","266434","pSARL_v2","pSARL_v2opvtn7js","57b270d576b2ea0001c98812","freq","img/orange_2bandit_b2.png","70","70","test","1","123","123","6","",""
"null","266928","pSARL_v2","pSARL_v2opvtn7js","57b270d576b2ea0001c98812","freq_resp","img/orange_2bandit_b.png","70","70","test","","","","6","",""
"null","267091","pSARL_v2","pSARL_v2opvtn7js","57b270d576b2ea0001c98812","fixation","img/fixation.png","null","","test","","","","","",""
"280.19999998807907","267375","pSARL_v2","pSARL_v2opvtn7js","57b270d576b2ea0001c98812","infreq","img/green_2bandit_b2.png","70","68","test","0","124","124","6","",""
"null","267906","pSARL_v2","pSARL_v2opvtn7js","57b270d576b2ea0001c98812","infreq_resp","img/green_2bandit_b.png","70","68","test","","","","6","",""
"null","268064","pSARL_v2","pSARL_v2opvtn7js","57b270d576b2ea0001c98812","fixation","img/fixation.png","null","","test","","","","","",""
"374","268441","pSARL_v2","pSARL_v2opvtn7js","57b270d576b2ea0001c98812","freq","img/orange_2bandit_b2.png","70","70","test","1","125","125","6","",""
"null","268881","pSARL_v2","pSARL_v2opvtn7js","57b270d576b2ea0001c98812","freq_resp","img/orange_2bandit_b.png","70","70","test","","","","6","",""
"null","269041","pSARL_v2","pSARL_v2opvtn7js","57b270d576b2ea0001c98812","fixation","img/fixation.png","null","","test","","","","","",""
"329.80000001192093","269375","pSARL_v2","pSARL_v2opvtn7js","57b270d576b2ea0001c98812","freq","img/orange_2bandit_b2.png","70","70","test","1","126","126","6","",""
"null","269854","pSARL_v2","pSARL_v2opvtn7js","57b270d576b2ea0001c98812","freq_resp","img/orange_2bandit_b.png","70","70","test","","","","6","",""
"null","270017","pSARL_v2","pSARL_v2opvtn7js","57b270d576b2ea0001c98812","fixation","img/fixation.png","null","","test","","","","","",""
"349","270370","pSARL_v2","pSARL_v2opvtn7js","57b270d576b2ea0001c98812","freq","img/orange_2bandit_b2.png","70","70","test","1","127","127","6","",""
"null","270829","pSARL_v2","pSARL_v2opvtn7js","57b270d576b2ea0001c98812","freq_resp","img/orange_2bandit_b.png","70","70","test","","","","6","",""
"null","270992","pSARL_v2","pSARL_v2opvtn7js","57b270d576b2ea0001c98812","fixation","img/fixation.png","null","","test","","","","","",""
"314.90000000596046","271311","pSARL_v2","pSARL_v2opvtn7js","57b270d576b2ea0001c98812","freq","img/orange_2bandit_b2.png","70","70","test","1","128","128","6","",""
"null","271810","pSARL_v2","pSARL_v2opvtn7js","57b270d576b2ea0001c98812","freq_resp","img/orange_2bandit_b.png","70","70","test","","","","6","",""
"null","271967","pSARL_v2","pSARL_v2opvtn7js","57b270d576b2ea0001c98812","fixation","img/fixation.png","null","","test","","","","","",""
"326.19999998807907","272297","pSARL_v2","pSARL_v2opvtn7js","57b270d576b2ea0001c98812","freq","img/orange_2bandit_b2.png","70","70","test","1","129","129","6","",""
"null","272785","pSARL_v2","pSARL_v2opvtn7js","57b270d576b2ea0001c98812","freq_resp","img/orange_2bandit_b.png","70","70","test","","","","6","",""
"null","272946","pSARL_v2","pSARL_v2opvtn7js","57b270d576b2ea0001c98812","fixation","img/fixation.png","null","","test","","","","","",""
"424.59999999403954","273375","pSARL_v2","pSARL_v2opvtn7js","57b270d576b2ea0001c98812","freq","img/orange_2bandit_b2.png","70","70","test","1","130","130","6","",""
"null","273760","pSARL_v2","pSARL_v2opvtn7js","57b270d576b2ea0001c98812","freq_resp","img/orange_2bandit_b.png","70","70","test","","","","6","",""
"null","273917","pSARL_v2","pSARL_v2opvtn7js","57b270d576b2ea0001c98812","fixation","img/fixation.png","null","","test","","","","","",""
"367.60000002384186","274289","pSARL_v2","pSARL_v2opvtn7js","57b270d576b2ea0001c98812","freq","img/orange_2bandit_b2.png","70","70","test","1","131","131","6","",""
"null","274736","pSARL_v2","pSARL_v2opvtn7js","57b270d576b2ea0001c98812","freq_resp","img/orange_2bandit_b.png","70","70","test","","","","6","",""
"null","274898","pSARL_v2","pSARL_v2opvtn7js","57b270d576b2ea0001c98812","fixation","img/fixation.png","null","","test","","","","","",""
"305.39999997615814","275208","pSARL_v2","pSARL_v2opvtn7js","57b270d576b2ea0001c98812","freq","img/orange_2bandit_b2.png","70","70","test","1","132","132","6","",""
"null","275711","pSARL_v2","pSARL_v2opvtn7js","57b270d576b2ea0001c98812","freq_resp","img/orange_2bandit_b.png","70","70","test","","","","6","",""
"null","275873","pSARL_v2","pSARL_v2opvtn7js","57b270d576b2ea0001c98812","fixation","img/fixation.png","null","","test","","","","","",""
"331.60000002384186","276209","pSARL_v2","pSARL_v2opvtn7js","57b270d576b2ea0001c98812","freq","img/orange_2bandit_b2.png","70","70","test","1","133","133","6","",""
"null","276686","pSARL_v2","pSARL_v2opvtn7js","57b270d576b2ea0001c98812","freq_resp","img/orange_2bandit_b.png","70","70","test","","","","6","",""
"null","276848","pSARL_v2","pSARL_v2opvtn7js","57b270d576b2ea0001c98812","fixation","img/fixation.png","null","","test","","","","","",""
"522.9000000059605","277375","pSARL_v2","pSARL_v2opvtn7js","57b270d576b2ea0001c98812","reward","img/slot.png","74","","test","","","","","",""
"null","278138","pSARL_v2","pSARL_v2opvtn7js","57b270d576b2ea0001c98812","points","<div class=""verylowPoints""> -7 </div>","null","na","test","","","","6","-7","5"
"481.19999998807907","278623","pSARL_v2","pSARL_v2opvtn7js","57b270d576b2ea0001c98812","freq","img/orange_2bandit_b2.png","70","70","test","1","134","134","7","",""
"null","278950","pSARL_v2","pSARL_v2opvtn7js","57b270d576b2ea0001c98812","freq_resp","img/orange_2bandit_b.png","70","70","test","","","","7","",""
"null","279113","pSARL_v2","pSARL_v2opvtn7js","57b270d576b2ea0001c98812","fixation","img/fixation.png","null","","test","","","","","",""
"531.9000000059605","279648","pSARL_v2","pSARL_v2opvtn7js","57b270d576b2ea0001c98812","freq","img/orange_2bandit_b2.png","70","70","test","1","135","135","7","",""
"null","279925","pSARL_v2","pSARL_v2opvtn7js","57b270d576b2ea0001c98812","freq_resp","img/orange_2bandit_b.png","70","70","test","","","","7","",""
"null","280088","pSARL_v2","pSARL_v2opvtn7js","57b270d576b2ea0001c98812","fixation","img/fixation.png","null","","test","","","","","",""
"386.80000001192093","280479","pSARL_v2","pSARL_v2opvtn7js","57b270d576b2ea0001c98812","freq","img/orange_2bandit_b2.png","70","70","test","1","136","136","7","",""
"null","280901","pSARL_v2","pSARL_v2opvtn7js","57b270d576b2ea0001c98812","freq_resp","img/orange_2bandit_b.png","70","70","test","","","","7","",""
"null","281063","pSARL_v2","pSARL_v2opvtn7js","57b270d576b2ea0001c98812","fixation","img/fixation.png","null","","test","","","","","",""
"349.7999999821186","281417","pSARL_v2","pSARL_v2opvtn7js","57b270d576b2ea0001c98812","freq","img/orange_2bandit_b2.png","70","70","test","1","137","137","7","",""
"null","281881","pSARL_v2","pSARL_v2opvtn7js","57b270d576b2ea0001c98812","freq_resp","img/orange_2bandit_b.png","70","70","test","","","","7","",""
"null","282038","pSARL_v2","pSARL_v2opvtn7js","57b270d576b2ea0001c98812","fixation","img/fixation.png","null","","test","","","","","",""
"348.40000000596046","282391","pSARL_v2","pSARL_v2opvtn7js","57b270d576b2ea0001c98812","freq","img/orange_2bandit_b2.png","70","70","test","1","138","138","7","",""
"null","282847","pSARL_v2","pSARL_v2opvtn7js","57b270d576b2ea0001c98812","freq_resp","img/orange_2bandit_b.png","70","70","test","","","","7","",""
"null","283007","pSARL_v2","pSARL_v2opvtn7js","57b270d576b2ea0001c98812","fixation","img/fixation.png","null","","test","","","","","",""
"325.90000000596046","283337","pSARL_v2","pSARL_v2opvtn7js","57b270d576b2ea0001c98812","freq","img/orange_2bandit_b2.png","70","70","test","1","139","139","7","",""
"null","283826","pSARL_v2","pSARL_v2opvtn7js","57b270d576b2ea0001c98812","freq_resp","img/orange_2bandit_b.png","70","70","test","","","","7","",""
"null","283983","pSARL_v2","pSARL_v2opvtn7js","57b270d576b2ea0001c98812","fixation","img/fixation.png","null","","test","","","","","",""
"323.59999999403954","284311","pSARL_v2","pSARL_v2opvtn7js","57b270d576b2ea0001c98812","freq","img/orange_2bandit_b2.png","70","70","test","1","140","140","7","",""
"null","284800","pSARL_v2","pSARL_v2opvtn7js","57b270d576b2ea0001c98812","freq_resp","img/orange_2bandit_b.png","70","70","test","","","","7","",""
"null","284958","pSARL_v2","pSARL_v2opvtn7js","57b270d576b2ea0001c98812","fixation","img/fixation.png","null","","test","","","","","",""
"358.7999999821186","285321","pSARL_v2","pSARL_v2opvtn7js","57b270d576b2ea0001c98812","freq","img/orange_2bandit_b2.png","70","70","test","1","141","141","7","",""
"null","285777","pSARL_v2","pSARL_v2opvtn7js","57b270d576b2ea0001c98812","freq_resp","img/orange_2bandit_b.png","70","70","test","","","","7","",""
"null","285933","pSARL_v2","pSARL_v2opvtn7js","57b270d576b2ea0001c98812","fixation","img/fixation.png","null","","test","","","","","",""
"357.19999998807907","286295","pSARL_v2","pSARL_v2opvtn7js","57b270d576b2ea0001c98812","freq","img/orange_2bandit_b2.png","70","70","test","1","142","142","7","",""
"null","286752","pSARL_v2","pSARL_v2opvtn7js","57b270d576b2ea0001c98812","freq_resp","img/orange_2bandit_b.png","70","70","test","","","","7","",""
"null","286909","pSARL_v2","pSARL_v2opvtn7js","57b270d576b2ea0001c98812","fixation","img/fixation.png","null","","test","","","","","",""
"375.59999999403954","287289","pSARL_v2","pSARL_v2opvtn7js","57b270d576b2ea0001c98812","freq","img/orange_2bandit_b2.png","70","70","test","1","143","143","7","",""
"null","287727","pSARL_v2","pSARL_v2opvtn7js","57b270d576b2ea0001c98812","freq_resp","img/orange_2bandit_b.png","70","70","test","","","","7","",""
"null","287889","pSARL_v2","pSARL_v2opvtn7js","57b270d576b2ea0001c98812","fixation","img/fixation.png","null","","test","","","","","",""
"409.09999999403954","288302","pSARL_v2","pSARL_v2opvtn7js","57b270d576b2ea0001c98812","freq","img/orange_2bandit_b2.png","70","70","test","1","144","144","7","",""
"null","288707","pSARL_v2","pSARL_v2opvtn7js","57b270d576b2ea0001c98812","freq_resp","img/orange_2bandit_b.png","70","70","test","","","","7","",""
"null","288870","pSARL_v2","pSARL_v2opvtn7js","57b270d576b2ea0001c98812","fixation","img/fixation.png","null","","test","","","","","",""
"406.19999998807907","289281","pSARL_v2","pSARL_v2opvtn7js","57b270d576b2ea0001c98812","freq","img/orange_2bandit_b2.png","70","70","test","1","145","145","7","",""
"null","289689","pSARL_v2","pSARL_v2opvtn7js","57b270d576b2ea0001c98812","freq_resp","img/orange_2bandit_b.png","70","70","test","","","","7","",""
"null","289846","pSARL_v2","pSARL_v2opvtn7js","57b270d576b2ea0001c98812","fixation","img/fixation.png","null","","test","","","","","",""
"388.5","290238","pSARL_v2","pSARL_v2opvtn7js","57b270d576b2ea0001c98812","freq","img/orange_2bandit_b2.png","70","70","test","1","146","146","7","",""
"null","290664","pSARL_v2","pSARL_v2opvtn7js","57b270d576b2ea0001c98812","freq_resp","img/orange_2bandit_b.png","70","70","test","","","","7","",""
"null","290823","pSARL_v2","pSARL_v2opvtn7js","57b270d576b2ea0001c98812","fixation","img/fixation.png","null","","test","","","","","",""
"357.80000001192093","291184","pSARL_v2","pSARL_v2opvtn7js","57b270d576b2ea0001c98812","freq","img/orange_2bandit_b2.png","70","70","test","1","147","147","7","",""
"null","291639","pSARL_v2","pSARL_v2opvtn7js","57b270d576b2ea0001c98812","freq_resp","img/orange_2bandit_b.png","70","70","test","","","","7","",""
"null","291802","pSARL_v2","pSARL_v2opvtn7js","57b270d576b2ea0001c98812","fixation","img/fixation.png","null","","test","","","","","",""
"448","292254","pSARL_v2","pSARL_v2opvtn7js","57b270d576b2ea0001c98812","freq","img/orange_2bandit_b2.png","70","70","test","1","148","148","7","",""
"null","292614","pSARL_v2","pSARL_v2opvtn7js","57b270d576b2ea0001c98812","freq_resp","img/orange_2bandit_b.png","70","70","test","","","","7","",""
"null","292776","pSARL_v2","pSARL_v2opvtn7js","57b270d576b2ea0001c98812","fixation","img/fixation.png","null","","test","","","","","",""
"578.5","293358","pSARL_v2","pSARL_v2opvtn7js","57b270d576b2ea0001c98812","infreq","img/green_2bandit_b2.png","68","68","test","1","149","149","7","",""
"null","293588","pSARL_v2","pSARL_v2opvtn7js","57b270d576b2ea0001c98812","infreq_resp","img/green_2bandit_b.png","68","68","test","","","","7","",""
"null","293752","pSARL_v2","pSARL_v2opvtn7js","57b270d576b2ea0001c98812","fixation","img/fixation.png","null","","test","","","","","",""
"564.0999999940395","294320","pSARL_v2","pSARL_v2opvtn7js","57b270d576b2ea0001c98812","infreq","img/green_2bandit_b2.png","68","68","test","1","150","150","7","",""
"null","294565","pSARL_v2","pSARL_v2opvtn7js","57b270d576b2ea0001c98812","infreq_resp","img/green_2bandit_b.png","68","68","test","","","","7","",""
"null","294728","pSARL_v2","pSARL_v2opvtn7js","57b270d576b2ea0001c98812","fixation","img/fixation.png","null","","test","","","","","",""
"418.60000002384186","295150","pSARL_v2","pSARL_v2opvtn7js","57b270d576b2ea0001c98812","freq","img/orange_2bandit_b2.png","70","70","test","1","151","151","7","",""
"null","295540","pSARL_v2","pSARL_v2opvtn7js","57b270d576b2ea0001c98812","freq_resp","img/orange_2bandit_b.png","70","70","test","","","","7","",""
"null","295702","pSARL_v2","pSARL_v2opvtn7js","57b270d576b2ea0001c98812","fixation","img/fixation.png","null","","test","","","","","",""
"286","295992","pSARL_v2","pSARL_v2opvtn7js","57b270d576b2ea0001c98812","freq","img/orange_2bandit_b2.png","70","70","test","1","152","152","7","",""
"null","296519","pSARL_v2","pSARL_v2opvtn7js","57b270d576b2ea0001c98812","freq_resp","img/orange_2bandit_b.png","70","70","test","","","","7","",""
"null","296678","pSARL_v2","pSARL_v2opvtn7js","57b270d576b2ea0001c98812","fixation","img/fixation.png","null","","test","","","","","",""
"292.09999999403954","296974","pSARL_v2","pSARL_v2opvtn7js","57b270d576b2ea0001c98812","freq","img/orange_2bandit_b2.png","70","70","test","1","153","153","7","",""
"null","297492","pSARL_v2","pSARL_v2opvtn7js","57b270d576b2ea0001c98812","freq_resp","img/orange_2bandit_b.png","70","70","test","","","","7","",""
"null","297653","pSARL_v2","pSARL_v2opvtn7js","57b270d576b2ea0001c98812","fixation","img/fixation.png","null","","test","","","","","",""
"319.5","297976","pSARL_v2","pSARL_v2opvtn7js","57b270d576b2ea0001c98812","freq","img/orange_2bandit_b2.png","70","70","test","1","154","154","7","",""
"null","298471","pSARL_v2","pSARL_v2opvtn7js","57b270d576b2ea0001c98812","freq_resp","img/orange_2bandit_b.png","70","70","test","","","","7","",""
"null","298628","pSARL_v2","pSARL_v2opvtn7js","57b270d576b2ea0001c98812","fixation","img/fixation.png","null","","test","","","","","",""
"301.30000001192093","298934","pSARL_v2","pSARL_v2opvtn7js","57b270d576b2ea0001c98812","freq","img/orange_2bandit_b2.png","70","70","test","1","155","155","7","",""
"null","299436","pSARL_v2","pSARL_v2opvtn7js","57b270d576b2ea0001c98812","freq_resp","img/orange_2bandit_b.png","70","70","test","","","","7","",""
"null","299596","pSARL_v2","pSARL_v2opvtn7js","57b270d576b2ea0001c98812","fixation","img/fixation.png","null","","test","","","","","",""
"296.5","299897","pSARL_v2","pSARL_v2opvtn7js","57b270d576b2ea0001c98812","freq","img/orange_2bandit_b2.png","70","70","test","1","156","156","7","",""
"null","300405","pSARL_v2","pSARL_v2opvtn7js","57b270d576b2ea0001c98812","freq_resp","img/orange_2bandit_b.png","70","70","test","","","","7","",""
"null","300567","pSARL_v2","pSARL_v2opvtn7js","57b270d576b2ea0001c98812","fixation","img/fixation.png","null","","test","","","","","",""
"298.5","300870","pSARL_v2","pSARL_v2opvtn7js","57b270d576b2ea0001c98812","freq","img/orange_2bandit_b2.png","70","70","test","1","157","157","7","",""
"null","301381","pSARL_v2","pSARL_v2opvtn7js","57b270d576b2ea0001c98812","freq_resp","img/orange_2bandit_b.png","70","70","test","","","","7","",""
"null","301542","pSARL_v2","pSARL_v2opvtn7js","57b270d576b2ea0001c98812","fixation","img/fixation.png","null","","test","","","","","",""
"451.69999998807907","301998","pSARL_v2","pSARL_v2opvtn7js","57b270d576b2ea0001c98812","reward","img/slot.png","74","","test","","","","","",""
"null","302761","pSARL_v2","pSARL_v2opvtn7js","57b270d576b2ea0001c98812","points","<div class=""verylowPoints""> -6 </div>","null","na","test","","","","7","-6","6"
"400.90000000596046","303166","pSARL_v2","pSARL_v2opvtn7js","57b270d576b2ea0001c98812","freq","img/orange_2bandit_b2.png","70","70","test","1","158","158","8","",""
"null","303574","pSARL_v2","pSARL_v2opvtn7js","57b270d576b2ea0001c98812","freq_resp","img/orange_2bandit_b.png","70","70","test","","","","8","",""
"null","303737","pSARL_v2","pSARL_v2opvtn7js","57b270d576b2ea0001c98812","fixation","img/fixation.png","null","","test","","","","","",""
"381.60000002384186","304122","pSARL_v2","pSARL_v2opvtn7js","57b270d576b2ea0001c98812","freq","img/orange_2bandit_b2.png","70","70","test","1","159","159","8","",""
"null","304553","pSARL_v2","pSARL_v2opvtn7js","57b270d576b2ea0001c98812","freq_resp","img/orange_2bandit_b.png","70","70","test","","","","8","",""
"null","304711","pSARL_v2","pSARL_v2opvtn7js","57b270d576b2ea0001c98812","fixation","img/fixation.png","null","","test","","","","","",""
"330.90000000596046","305046","pSARL_v2","pSARL_v2opvtn7js","57b270d576b2ea0001c98812","freq","img/orange_2bandit_b2.png","70","70","test","1","160","160","8","",""
"null","305525","pSARL_v2","pSARL_v2opvtn7js","57b270d576b2ea0001c98812","freq_resp","img/orange_2bandit_b.png","70","70","test","","","","8","",""
"null","305687","pSARL_v2","pSARL_v2opvtn7js","57b270d576b2ea0001c98812","fixation","img/fixation.png","null","","test","","","","","",""
"293.40000000596046","305984","pSARL_v2","pSARL_v2opvtn7js","57b270d576b2ea0001c98812","freq","img/orange_2bandit_b2.png","70","70","test","1","161","161","8","",""
"null","306502","pSARL_v2","pSARL_v2opvtn7js","57b270d576b2ea0001c98812","freq_resp","img/orange_2bandit_b.png","70","70","test","","","","8","",""
"null","306656","pSARL_v2","pSARL_v2opvtn7js","57b270d576b2ea0001c98812","fixation","img/fixation.png","null","","test","","","","","",""
"273.5","306934","pSARL_v2","pSARL_v2opvtn7js","57b270d576b2ea0001c98812","infreq","img/green_2bandit_b2.png","70","68","test","0","162","162","8","",""
"null","307469","pSARL_v2","pSARL_v2opvtn7js","57b270d576b2ea0001c98812","infreq_resp","img/green_2bandit_b.png","70","68","test","","","","8","",""
"null","307631","pSARL_v2","pSARL_v2opvtn7js","57b270d576b2ea0001c98812","fixation","img/fixation.png","null","","test","","","","","",""
"108.80000001192093","307744","pSARL_v2","pSARL_v2opvtn7js","57b270d576b2ea0001c98812","freq","img/orange_2bandit_b2.png","70","70","test","1","163","163","8","",""
"null","308444","pSARL_v2","pSARL_v2opvtn7js","57b270d576b2ea0001c98812","freq_resp","img/orange_2bandit_b.png","70","70","test","","","","8","",""
"null","308604","pSARL_v2","pSARL_v2opvtn7js","57b270d576b2ea0001c98812","fixation","img/fixation.png","null","","test","","","","","",""
"309.80000001192093","308918","pSARL_v2","pSARL_v2opvtn7js","57b270d576b2ea0001c98812","freq","img/orange_2bandit_b2.png","70","70","test","1","164","164","8","",""
"null","309414","pSARL_v2","pSARL_v2opvtn7js","57b270d576b2ea0001c98812","freq_resp","img/orange_2bandit_b.png","70","70","test","","","","8","",""
"null","309576","pSARL_v2","pSARL_v2opvtn7js","57b270d576b2ea0001c98812","fixation","img/fixation.png","null","","test","","","","","",""
"324.59999999403954","309905","pSARL_v2","pSARL_v2opvtn7js","57b270d576b2ea0001c98812","freq","img/orange_2bandit_b2.png","70","70","test","1","165","165","8","",""
"null","310389","pSARL_v2","pSARL_v2opvtn7js","57b270d576b2ea0001c98812","freq_resp","img/orange_2bandit_b.png","70","70","test","","","","8","",""
"null","310551","pSARL_v2","pSARL_v2opvtn7js","57b270d576b2ea0001c98812","fixation","img/fixation.png","null","","test","","","","","",""
"340.09999999403954","310895","pSARL_v2","pSARL_v2opvtn7js","57b270d576b2ea0001c98812","freq","img/orange_2bandit_b2.png","70","70","test","1","166","166","8","",""
"null","311364","pSARL_v2","pSARL_v2opvtn7js","57b270d576b2ea0001c98812","freq_resp","img/orange_2bandit_b.png","70","70","test","","","","8","",""
"null","311527","pSARL_v2","pSARL_v2opvtn7js","57b270d576b2ea0001c98812","fixation","img/fixation.png","null","","test","","","","","",""
"325","311856","pSARL_v2","pSARL_v2opvtn7js","57b270d576b2ea0001c98812","freq","img/orange_2bandit_b2.png","70","70","test","1","167","167","8","",""
"null","312345","pSARL_v2","pSARL_v2opvtn7js","57b270d576b2ea0001c98812","freq_resp","img/orange_2bandit_b.png","70","70","test","","","","8","",""
"null","312501","pSARL_v2","pSARL_v2opvtn7js","57b270d576b2ea0001c98812","fixation","img/fixation.png","null","","test","","","","","",""
"356.69999998807907","312862","pSARL_v2","pSARL_v2opvtn7js","57b270d576b2ea0001c98812","freq","img/orange_2bandit_b2.png","70","70","test","1","168","168","8","",""
"null","313320","pSARL_v2","pSARL_v2opvtn7js","57b270d576b2ea0001c98812","freq_resp","img/orange_2bandit_b.png","70","70","test","","","","8","",""
"null","313477","pSARL_v2","pSARL_v2opvtn7js","57b270d576b2ea0001c98812","fixation","img/fixation.png","null","","test","","","","","",""
"350.80000001192093","313832","pSARL_v2","pSARL_v2opvtn7js","57b270d576b2ea0001c98812","freq","img/orange_2bandit_b2.png","70","70","test","1","169","169","8","",""
"null","314296","pSARL_v2","pSARL_v2opvtn7js","57b270d576b2ea0001c98812","freq_resp","img/orange_2bandit_b.png","70","70","test","","","","8","",""
"null","314453","pSARL_v2","pSARL_v2opvtn7js","57b270d576b2ea0001c98812","fixation","img/fixation.png","null","","test","","","","","",""
"341","314798","pSARL_v2","pSARL_v2opvtn7js","57b270d576b2ea0001c98812","freq","img/orange_2bandit_b2.png","70","70","test","1","170","170","8","",""
"null","315271","pSARL_v2","pSARL_v2opvtn7js","57b270d576b2ea0001c98812","freq_resp","img/orange_2bandit_b.png","70","70","test","","","","8","",""
"null","315428","pSARL_v2","pSARL_v2opvtn7js","57b270d576b2ea0001c98812","fixation","img/fixation.png","null","","test","","","","","",""
"509.59999999403954","315942","pSARL_v2","pSARL_v2opvtn7js","57b270d576b2ea0001c98812","infreq","img/green_2bandit_b2.png","68","68","test","1","171","171","8","",""
"null","316240","pSARL_v2","pSARL_v2opvtn7js","57b270d576b2ea0001c98812","infreq_resp","img/green_2bandit_b.png","68","68","test","","","","8","",""
"null","316397","pSARL_v2","pSARL_v2opvtn7js","57b270d576b2ea0001c98812","fixation","img/fixation.png","null","","test","","","","","",""
"420.5","316822","pSARL_v2","pSARL_v2opvtn7js","57b270d576b2ea0001c98812","freq","img/orange_2bandit_b2.png","70","70","test","1","172","172","8","",""
"null","317215","pSARL_v2","pSARL_v2opvtn7js","57b270d576b2ea0001c98812","freq_resp","img/orange_2bandit_b.png","70","70","test","","","","8","",""
"null","317372","pSARL_v2","pSARL_v2opvtn7js","57b270d576b2ea0001c98812","fixation","img/fixation.png","null","","test","","","","","",""
"359.5","317736","pSARL_v2","pSARL_v2opvtn7js","57b270d576b2ea0001c98812","freq","img/orange_2bandit_b2.png","70","70","test","1","173","173","8","",""
"null","318190","pSARL_v2","pSARL_v2opvtn7js","57b270d576b2ea0001c98812","freq_resp","img/orange_2bandit_b.png","70","70","test","","","","8","",""
"null","318353","pSARL_v2","pSARL_v2opvtn7js","57b270d576b2ea0001c98812","fixation","img/fixation.png","null","","test","","","","","",""
"351.80000001192093","318709","pSARL_v2","pSARL_v2opvtn7js","57b270d576b2ea0001c98812","freq","img/orange_2bandit_b2.png","70","70","test","1","174","174","8","",""
"null","319166","pSARL_v2","pSARL_v2opvtn7js","57b270d576b2ea0001c98812","freq_resp","img/orange_2bandit_b.png","70","70","test","","","","8","",""
"null","319328","pSARL_v2","pSARL_v2opvtn7js","57b270d576b2ea0001c98812","fixation","img/fixation.png","null","","test","","","","","",""
"355.5","319688","pSARL_v2","pSARL_v2opvtn7js","57b270d576b2ea0001c98812","freq","img/orange_2bandit_b2.png","70","70","test","1","175","175","8","",""
"null","320141","pSARL_v2","pSARL_v2opvtn7js","57b270d576b2ea0001c98812","freq_resp","img/orange_2bandit_b.png","70","70","test","","","","8","",""
"null","320304","pSARL_v2","pSARL_v2opvtn7js","57b270d576b2ea0001c98812","fixation","img/fixation.png","null","","test","","","","","",""
"337.80000001192093","320646","pSARL_v2","pSARL_v2opvtn7js","57b270d576b2ea0001c98812","freq","img/orange_2bandit_b2.png","70","70","test","1","176","176","8","",""
"null","321116","pSARL_v2","pSARL_v2opvtn7js","57b270d576b2ea0001c98812","freq_resp","img/orange_2bandit_b.png","70","70","test","","","","8","",""
"null","321279","pSARL_v2","pSARL_v2opvtn7js","57b270d576b2ea0001c98812","fixation","img/fixation.png","null","","test","","","","","",""
"356.69999998807907","321639","pSARL_v2","pSARL_v2opvtn7js","57b270d576b2ea0001c98812","freq","img/orange_2bandit_b2.png","70","70","test","1","177","177","8","",""
"null","322092","pSARL_v2","pSARL_v2opvtn7js","57b270d576b2ea0001c98812","freq_resp","img/orange_2bandit_b.png","70","70","test","","","","8","",""
"null","322254","pSARL_v2","pSARL_v2opvtn7js","57b270d576b2ea0001c98812","fixation","img/fixation.png","null","","test","","","","","",""
"315.2999999821186","322573","pSARL_v2","pSARL_v2opvtn7js","57b270d576b2ea0001c98812","freq","img/orange_2bandit_b2.png","70","70","test","1","178","178","8","",""
"null","323073","pSARL_v2","pSARL_v2opvtn7js","57b270d576b2ea0001c98812","freq_resp","img/orange_2bandit_b.png","70","70","test","","","","8","",""
"null","323229","pSARL_v2","pSARL_v2opvtn7js","57b270d576b2ea0001c98812","fixation","img/fixation.png","null","","test","","","","","",""
"358.2999999821186","323592","pSARL_v2","pSARL_v2opvtn7js","57b270d576b2ea0001c98812","freq","img/orange_2bandit_b2.png","70","70","test","1","179","179","8","",""
"null","324048","pSARL_v2","pSARL_v2opvtn7js","57b270d576b2ea0001c98812","freq_resp","img/orange_2bandit_b.png","70","70","test","","","","8","",""
"null","324208","pSARL_v2","pSARL_v2opvtn7js","57b270d576b2ea0001c98812","fixation","img/fixation.png","null","","test","","","","","",""
"320.59999999403954","324533","pSARL_v2","pSARL_v2opvtn7js","57b270d576b2ea0001c98812","freq","img/orange_2bandit_b2.png","70","70","test","1","180","180","8","",""
"null","325023","pSARL_v2","pSARL_v2opvtn7js","57b270d576b2ea0001c98812","freq_resp","img/orange_2bandit_b.png","70","70","test","","","","8","",""
"null","325181","pSARL_v2","pSARL_v2opvtn7js","57b270d576b2ea0001c98812","fixation","img/fixation.png","null","","test","","","","","",""
"511.2999999821186","325696","pSARL_v2","pSARL_v2opvtn7js","57b270d576b2ea0001c98812","freq","img/orange_2bandit_b2.png","70","70","test","1","181","181","8","",""
"null","325998","pSARL_v2","pSARL_v2opvtn7js","57b270d576b2ea0001c98812","freq_resp","img/orange_2bandit_b.png","70","70","test","","","","8","",""
"null","326161","pSARL_v2","pSARL_v2opvtn7js","57b270d576b2ea0001c98812","fixation","img/fixation.png","null","","test","","","","","",""
"424.40000000596046","326589","pSARL_v2","pSARL_v2opvtn7js","57b270d576b2ea0001c98812","freq","img/orange_2bandit_b2.png","70","70","test","1","182","182","8","",""
"null","326976","pSARL_v2","pSARL_v2opvtn7js","57b270d576b2ea0001c98812","freq_resp","img/orange_2bandit_b.png","70","70","test","","","","8","",""
"null","327136","pSARL_v2","pSARL_v2opvtn7js","57b270d576b2ea0001c98812","fixation","img/fixation.png","null","","test","","","","","",""
"380","327520","pSARL_v2","pSARL_v2opvtn7js","57b270d576b2ea0001c98812","freq","img/orange_2bandit_b2.png","70","70","test","1","183","183","8","",""
"null","327949","pSARL_v2","pSARL_v2opvtn7js","57b270d576b2ea0001c98812","freq_resp","img/orange_2bandit_b.png","70","70","test","","","","8","",""
"null","328111","pSARL_v2","pSARL_v2opvtn7js","57b270d576b2ea0001c98812","fixation","img/fixation.png","null","","test","","","","","",""
"450","328565","pSARL_v2","pSARL_v2opvtn7js","57b270d576b2ea0001c98812","reward","img/slot.png","74","","test","","","","","",""
"null","329324","pSARL_v2","pSARL_v2opvtn7js","57b270d576b2ea0001c98812","points","<div class=""verylowPoints""> -4 </div>","null","na","test","","","","8","-4","7"
"445.5","329773","pSARL_v2","pSARL_v2opvtn7js","57b270d576b2ea0001c98812","freq","img/orange_2bandit_b2.png","70","70","test","1","184","184","9","",""
"null","330143","pSARL_v2","pSARL_v2opvtn7js","57b270d576b2ea0001c98812","freq_resp","img/orange_2bandit_b.png","70","70","test","","","","9","",""
"null","330304","pSARL_v2","pSARL_v2opvtn7js","57b270d576b2ea0001c98812","fixation","img/fixation.png","null","","test","","","","","",""
"395.19999998807907","330704","pSARL_v2","pSARL_v2opvtn7js","57b270d576b2ea0001c98812","freq","img/orange_2bandit_b2.png","70","70","test","1","185","185","9","",""
"null","331118","pSARL_v2","pSARL_v2opvtn7js","57b270d576b2ea0001c98812","freq_resp","img/orange_2bandit_b.png","70","70","test","","","","9","",""
"null","331281","pSARL_v2","pSARL_v2opvtn7js","57b270d576b2ea0001c98812","fixation","img/fixation.png","null","","test","","","","","",""
"320.80000001192093","331606","pSARL_v2","pSARL_v2opvtn7js","57b270d576b2ea0001c98812","freq","img/orange_2bandit_b2.png","70","70","test","1","186","186","9","",""
"null","332093","pSARL_v2","pSARL_v2opvtn7js","57b270d576b2ea0001c98812","freq_resp","img/orange_2bandit_b.png","70","70","test","","","","9","",""
"null","332256","pSARL_v2","pSARL_v2opvtn7js","57b270d576b2ea0001c98812","fixation","img/fixation.png","null","","test","","","","","",""
"299.5","332560","pSARL_v2","pSARL_v2opvtn7js","57b270d576b2ea0001c98812","freq","img/orange_2bandit_b2.png","70","70","test","1","187","187","9","",""
"null","333068","pSARL_v2","pSARL_v2opvtn7js","57b270d576b2ea0001c98812","freq_resp","img/orange_2bandit_b.png","70","70","test","","","","9","",""
"null","333231","pSARL_v2","pSARL_v2opvtn7js","57b270d576b2ea0001c98812","fixation","img/fixation.png","null","","test","","","","","",""
"290.10000002384186","333526","pSARL_v2","pSARL_v2opvtn7js","57b270d576b2ea0001c98812","infreq","img/green_2bandit_b2.png","70","68","test","0","188","188","9","",""
"null","334044","pSARL_v2","pSARL_v2opvtn7js","57b270d576b2ea0001c98812","infreq_resp","img/green_2bandit_b.png","70","68","test","","","","9","",""
"null","334206","pSARL_v2","pSARL_v2opvtn7js","57b270d576b2ea0001c98812","fixation","img/fixation.png","null","","test","","","","","",""
"189","334399","pSARL_v2","pSARL_v2opvtn7js","57b270d576b2ea0001c98812","freq","img/orange_2bandit_b2.png","70","70","test","1","189","189","9","",""
"null","335024","pSARL_v2","pSARL_v2opvtn7js","57b270d576b2ea0001c98812","freq_resp","img/orange_2bandit_b.png","70","70","test","","","","9","",""
"null","335181","pSARL_v2","pSARL_v2opvtn7js","57b270d576b2ea0001c98812","fixation","img/fixation.png","null","","test","","","","","",""
"483.59999999403954","335669","pSARL_v2","pSARL_v2opvtn7js","57b270d576b2ea0001c98812","infreq","img/green_2bandit_b2.png","68","68","test","1","190","190","9","",""
"null","336000","pSARL_v2","pSARL_v2opvtn7js","57b270d576b2ea0001c98812","infreq_resp","img/green_2bandit_b.png","68","68","test","","","","9","",""
"null","336156","pSARL_v2","pSARL_v2opvtn7js","57b270d576b2ea0001c98812","fixation","img/fixation.png","null","","test","","","","","",""
"461","336621","pSARL_v2","pSARL_v2opvtn7js","57b270d576b2ea0001c98812","freq","img/orange_2bandit_b2.png","70","70","test","1","191","191","9","",""
"null","336975","pSARL_v2","pSARL_v2opvtn7js","57b270d576b2ea0001c98812","freq_resp","img/orange_2bandit_b.png","70","70","test","","","","9","",""
"null","337132","pSARL_v2","pSARL_v2opvtn7js","57b270d576b2ea0001c98812","fixation","img/fixation.png","null","","test","","","","","",""
"351.5","337487","pSARL_v2","pSARL_v2opvtn7js","57b270d576b2ea0001c98812","freq","img/orange_2bandit_b2.png","70","70","test","1","192","192","9","",""
"null","337950","pSARL_v2","pSARL_v2opvtn7js","57b270d576b2ea0001c98812","freq_resp","img/orange_2bandit_b.png","70","70","test","","","","9","",""
"null","338112","pSARL_v2","pSARL_v2opvtn7js","57b270d576b2ea0001c98812","fixation","img/fixation.png","null","","test","","","","","",""
"336.30000001192093","338453","pSARL_v2","pSARL_v2opvtn7js","57b270d576b2ea0001c98812","freq","img/orange_2bandit_b2.png","70","70","test","1","193","193","9","",""
"null","338925","pSARL_v2","pSARL_v2opvtn7js","57b270d576b2ea0001c98812","freq_resp","img/orange_2bandit_b.png","70","70","test","","","","9","",""
"null","339084","pSARL_v2","pSARL_v2opvtn7js","57b270d576b2ea0001c98812","fixation","img/fixation.png","null","","test","","","","","",""
"311.09999999403954","339399","pSARL_v2","pSARL_v2opvtn7js","57b270d576b2ea0001c98812","freq","img/orange_2bandit_b2.png","70","70","test","1","194","194","9","",""
"null","339901","pSARL_v2","pSARL_v2opvtn7js","57b270d576b2ea0001c98812","freq_resp","img/orange_2bandit_b.png","70","70","test","","","","9","",""
"null","340063","pSARL_v2","pSARL_v2opvtn7js","57b270d576b2ea0001c98812","fixation","img/fixation.png","null","","test","","","","","",""
"298","340365","pSARL_v2","pSARL_v2opvtn7js","57b270d576b2ea0001c98812","freq","img/orange_2bandit_b2.png","70","70","test","1","195","195","9","",""
"null","340876","pSARL_v2","pSARL_v2opvtn7js","57b270d576b2ea0001c98812","freq_resp","img/orange_2bandit_b.png","70","70","test","","","","9","",""
"null","341038","pSARL_v2","pSARL_v2opvtn7js","57b270d576b2ea0001c98812","fixation","img/fixation.png","null","","test","","","","","",""
"285.60000002384186","341327","pSARL_v2","pSARL_v2opvtn7js","57b270d576b2ea0001c98812","freq","img/orange_2bandit_b2.png","70","70","test","1","196","196","9","",""
"null","341855","pSARL_v2","pSARL_v2opvtn7js","57b270d576b2ea0001c98812","freq_resp","img/orange_2bandit_b.png","70","70","test","","","","9","",""
"null","342014","pSARL_v2","pSARL_v2opvtn7js","57b270d576b2ea0001c98812","fixation","img/fixation.png","null","","test","","","","","",""
"330.90000000596046","342349","pSARL_v2","pSARL_v2opvtn7js","57b270d576b2ea0001c98812","freq","img/orange_2bandit_b2.png","70","70","test","1","197","197","9","",""
"null","342828","pSARL_v2","pSARL_v2opvtn7js","57b270d576b2ea0001c98812","freq_resp","img/orange_2bandit_b.png","70","70","test","","","","9","",""
"null","342989","pSARL_v2","pSARL_v2opvtn7js","57b270d576b2ea0001c98812","fixation","img/fixation.png","null","","test","","","","","",""
"318.09999999403954","343311","pSARL_v2","pSARL_v2opvtn7js","57b270d576b2ea0001c98812","freq","img/orange_2bandit_b2.png","70","70","test","1","198","198","9","",""
"null","343807","pSARL_v2","pSARL_v2opvtn7js","57b270d576b2ea0001c98812","freq_resp","img/orange_2bandit_b.png","70","70","test","","","","9","",""
"null","343964","pSARL_v2","pSARL_v2opvtn7js","57b270d576b2ea0001c98812","fixation","img/fixation.png","null","","test","","","","","",""
"348.69999998807907","344317","pSARL_v2","pSARL_v2opvtn7js","57b270d576b2ea0001c98812","freq","img/orange_2bandit_b2.png","70","70","test","1","199","199","9","",""
"null","344782","pSARL_v2","pSARL_v2opvtn7js","57b270d576b2ea0001c98812","freq_resp","img/orange_2bandit_b.png","70","70","test","","","","9","",""
"null","344940","pSARL_v2","pSARL_v2opvtn7js","57b270d576b2ea0001c98812","fixation","img/fixation.png","null","","test","","","","","",""
"327.2000000178814","345271","pSARL_v2","pSARL_v2opvtn7js","57b270d576b2ea0001c98812","freq","img/orange_2bandit_b2.png","70","70","test","1","200","200","9","",""
"null","345758","pSARL_v2","pSARL_v2opvtn7js","57b270d576b2ea0001c98812","freq_resp","img/orange_2bandit_b.png","70","70","test","","","","9","",""
"null","345919","pSARL_v2","pSARL_v2opvtn7js","57b270d576b2ea0001c98812","fixation","img/fixation.png","null","","test","","","","","",""
"289.90000000596046","346213","pSARL_v2","pSARL_v2opvtn7js","57b270d576b2ea0001c98812","freq","img/orange_2bandit_b2.png","70","70","test","1","201","201","9","",""
"null","346733","pSARL_v2","pSARL_v2opvtn7js","57b270d576b2ea0001c98812","freq_resp","img/orange_2bandit_b.png","70","70","test","","","","9","",""
"null","346895","pSARL_v2","pSARL_v2opvtn7js","57b270d576b2ea0001c98812","fixation","img/fixation.png","null","","test","","","","","",""
"315.40000000596046","347215","pSARL_v2","pSARL_v2opvtn7js","57b270d576b2ea0001c98812","freq","img/orange_2bandit_b2.png","70","70","test","1","202","202","9","",""
"null","347708","pSARL_v2","pSARL_v2opvtn7js","57b270d576b2ea0001c98812","freq_resp","img/orange_2bandit_b.png","70","70","test","","","","9","",""
"null","347871","pSARL_v2","pSARL_v2opvtn7js","57b270d576b2ea0001c98812","fixation","img/fixation.png","null","","test","","","","","",""
"313.59999999403954","348189","pSARL_v2","pSARL_v2opvtn7js","57b270d576b2ea0001c98812","freq","img/orange_2bandit_b2.png","70","70","test","1","203","203","9","",""
"null","348688","pSARL_v2","pSARL_v2opvtn7js","57b270d576b2ea0001c98812","freq_resp","img/orange_2bandit_b.png","70","70","test","","","","9","",""
"null","348846","pSARL_v2","pSARL_v2opvtn7js","57b270d576b2ea0001c98812","fixation","img/fixation.png","null","","test","","","","","",""
"458.30000001192093","349308","pSARL_v2","pSARL_v2opvtn7js","57b270d576b2ea0001c98812","infreq","img/green_2bandit_b2.png","68","68","test","1","204","204","9","",""
"null","349664","pSARL_v2","pSARL_v2opvtn7js","57b270d576b2ea0001c98812","infreq_resp","img/green_2bandit_b.png","68","68","test","","","","9","",""
"null","349820","pSARL_v2","pSARL_v2opvtn7js","57b270d576b2ea0001c98812","fixation","img/fixation.png","null","","test","","","","","",""
"380.09999999403954","350204","pSARL_v2","pSARL_v2opvtn7js","57b270d576b2ea0001c98812","freq","img/orange_2bandit_b2.png","70","70","test","1","205","205","9","",""
"null","350639","pSARL_v2","pSARL_v2opvtn7js","57b270d576b2ea0001c98812","freq_resp","img/orange_2bandit_b.png","70","70","test","","","","9","",""
"null","350796","pSARL_v2","pSARL_v2opvtn7js","57b270d576b2ea0001c98812","fixation","img/fixation.png","null","","test","","","","","",""
"390.69999998807907","351191","pSARL_v2","pSARL_v2opvtn7js","57b270d576b2ea0001c98812","freq","img/orange_2bandit_b2.png","70","70","test","1","206","206","9","",""
"null","351613","pSARL_v2","pSARL_v2opvtn7js","57b270d576b2ea0001c98812","freq_resp","img/orange_2bandit_b.png","70","70","test","","","","9","",""
