"rt","time_elapsed","expId","subject","prolificID","trialType","stimulus","key_press","corrresp","phase","corr","trialNum","attentionRunNum","blockNum","points","rlNum"
"4002.300000190735","4008","pSARL_v2","pSARL_v29muufcm9","5cdad620eae6f70019d4e950","","","","","","","","","","",""
"","6261","pSARL_v2","pSARL_v29muufcm9","5cdad620eae6f70019d4e950","fullscreen","","","","","","","","","",""
"62651.90000009537","68917","pSARL_v2","pSARL_v29muufcm9","5cdad620eae6f70019d4e950","","","","","","","","","","",""
"528.5","69449","pSARL_v2","pSARL_v29muufcm9","5cdad620eae6f70019d4e950","freqPrac","img/orange_2bandit_a2.png","70","70","prac","1","","","","",""
"528.5","69737","pSARL_v2","pSARL_v29muufcm9","5cdad620eae6f70019d4e950","freqPrac_resp","img/orange_2bandit_a.png","70","70","prac","","","","","",""
"null","69898","pSARL_v2","pSARL_v29muufcm9","5cdad620eae6f70019d4e950","fixation","img/fixation.png","null","","prac","","","","","",""
"489.2999999523163","70391","pSARL_v2","pSARL_v29muufcm9","5cdad620eae6f70019d4e950","infreqPrac","img/green_2bandit_a2.png","68","68","prac","1","","","","",""
"489.2999999523163","70720","pSARL_v2","pSARL_v29muufcm9","5cdad620eae6f70019d4e950","infreqPrac_resp","img/green_2bandit_a.png","68","68","prac","","","","","",""
"null","70874","pSARL_v2","pSARL_v29muufcm9","5cdad620eae6f70019d4e950","fixation","img/fixation.png","null","","prac","","","","","",""
"394.7999999523163","71272","pSARL_v2","pSARL_v29muufcm9","5cdad620eae6f70019d4e950","freqPrac","img/orange_2bandit_a2.png","70","70","prac","1","","","","",""
"394.7999999523163","71694","pSARL_v2","pSARL_v29muufcm9","5cdad620eae6f70019d4e950","freqPrac_resp","img/orange_2bandit_a.png","70","70","prac","","","","","",""
"null","71856","pSARL_v2","pSARL_v29muufcm9","5cdad620eae6f70019d4e950","fixation","img/fixation.png","null","","prac","","","","","",""
"379.10000014305115","72238","pSARL_v2","pSARL_v29muufcm9","5cdad620eae6f70019d4e950","infreqPrac","img/green_2bandit_a2.png","68","68","prac","1","","","","",""
"379.10000014305115","72664","pSARL_v2","pSARL_v29muufcm9","5cdad620eae6f70019d4e950","infreqPrac_resp","img/green_2bandit_a.png","68","68","prac","","","","","",""
"null","72823","pSARL_v2","pSARL_v29muufcm9","5cdad620eae6f70019d4e950","fixation","img/fixation.png","null","","prac","","","","","",""
"345.90000009536743","73171","pSARL_v2","pSARL_v29muufcm9","5cdad620eae6f70019d4e950","infreqPrac","img/green_2bandit_a2.png","68","68","prac","1","","","","",""
"345.90000009536743","73640","pSARL_v2","pSARL_v29muufcm9","5cdad620eae6f70019d4e950","infreqPrac_resp","img/green_2bandit_a.png","68","68","prac","","","","","",""
"null","73799","pSARL_v2","pSARL_v29muufcm9","5cdad620eae6f70019d4e950","fixation","img/fixation.png","null","","prac","","","","","",""
"297.7999999523163","74100","pSARL_v2","pSARL_v29muufcm9","5cdad620eae6f70019d4e950","infreqPrac","img/green_2bandit_a2.png","68","68","prac","1","","","","",""
"297.7999999523163","74606","pSARL_v2","pSARL_v29muufcm9","5cdad620eae6f70019d4e950","infreqPrac_resp","img/green_2bandit_a.png","68","68","prac","","","","","",""
"null","74769","pSARL_v2","pSARL_v29muufcm9","5cdad620eae6f70019d4e950","fixation","img/fixation.png","null","","prac","","","","","",""
"317.2999999523163","75089","pSARL_v2","pSARL_v29muufcm9","5cdad620eae6f70019d4e950","freqPrac","img/orange_2bandit_a2.png","70","70","prac","1","","","","",""
"317.2999999523163","75585","pSARL_v2","pSARL_v29muufcm9","5cdad620eae6f70019d4e950","freqPrac_resp","img/orange_2bandit_a.png","70","70","prac","","","","","",""
"null","75748","pSARL_v2","pSARL_v29muufcm9","5cdad620eae6f70019d4e950","fixation","img/fixation.png","null","","prac","","","","","",""
"401.89999985694885","76154","pSARL_v2","pSARL_v29muufcm9","5cdad620eae6f70019d4e950","infreqPrac","img/green_2bandit_a2.png","68","68","prac","1","","","","",""
"401.89999985694885","76562","pSARL_v2","pSARL_v29muufcm9","5cdad620eae6f70019d4e950","infreqPrac_resp","img/green_2bandit_a.png","68","68","prac","","","","","",""
"null","76725","pSARL_v2","pSARL_v29muufcm9","5cdad620eae6f70019d4e950","fixation","img/fixation.png","null","","prac","","","","","",""
"321.40000009536743","77050","pSARL_v2","pSARL_v29muufcm9","5cdad620eae6f70019d4e950","freqPrac","img/orange_2bandit_a2.png","70","70","prac","1","","","","",""
"321.40000009536743","77548","pSARL_v2","pSARL_v29muufcm9","5cdad620eae6f70019d4e950","freqPrac_resp","img/orange_2bandit_a.png","70","70","prac","","","","","",""
"null","77710","pSARL_v2","pSARL_v29muufcm9","5cdad620eae6f70019d4e950","fixation","img/fixation.png","null","","prac","","","","","",""
"258.5","77971","pSARL_v2","pSARL_v29muufcm9","5cdad620eae6f70019d4e950","freqPrac","img/orange_2bandit_a2.png","70","70","prac","1","","","","",""
"258.5","78520","pSARL_v2","pSARL_v29muufcm9","5cdad620eae6f70019d4e950","freqPrac_resp","img/orange_2bandit_a.png","70","70","prac","","","","","",""
"null","78683","pSARL_v2","pSARL_v29muufcm9","5cdad620eae6f70019d4e950","fixation","img/fixation.png","null","","prac","","","","","",""
"16739.89999985695","95426","pSARL_v2","pSARL_v29muufcm9","5cdad620eae6f70019d4e950","","","","","prac","","","","","",""
"684.4000000953674","96115","pSARL_v2","pSARL_v29muufcm9","5cdad620eae6f70019d4e950","rewardPractice","img/slot.png","74","","prac","","","","","",""
"null","96869","pSARL_v2","pSARL_v29muufcm9","5cdad620eae6f70019d4e950","feedback","<div class=""veryhighPoints""> +15 </div>","null","na","prac","","","","","",""
"null","97041","pSARL_v2","pSARL_v29muufcm9","5cdad620eae6f70019d4e950","fixation","img/fixation.png","null","","prac","","","","","",""
"12845.200000047684","109890","pSARL_v2","pSARL_v29muufcm9","5cdad620eae6f70019d4e950","","","","","prac","","","","","",""
"645.6000001430511","110540","pSARL_v2","pSARL_v29muufcm9","5cdad620eae6f70019d4e950","freq","img/orange_2bandit_a2.png","70","70","test","1","1","1","1","",""
"null","110705","pSARL_v2","pSARL_v29muufcm9","5cdad620eae6f70019d4e950","freq_resp","img/orange_2bandit_a.png","70","70","test","","","","1","",""
"null","110861","pSARL_v2","pSARL_v29muufcm9","5cdad620eae6f70019d4e950","fixation","img/fixation.png","null","","test","","","","","",""
"471","111336","pSARL_v2","pSARL_v29muufcm9","5cdad620eae6f70019d4e950","freq","img/orange_2bandit_a2.png","70","70","test","1","2","2","1","",""
"null","111669","pSARL_v2","pSARL_v29muufcm9","5cdad620eae6f70019d4e950","freq_resp","img/orange_2bandit_a.png","70","70","test","","","","1","",""
"null","111834","pSARL_v2","pSARL_v29muufcm9","5cdad620eae6f70019d4e950","fixation","img/fixation.png","null","","test","","","","","",""
"345.80000019073486","112183","pSARL_v2","pSARL_v29muufcm9","5cdad620eae6f70019d4e950","freq","img/orange_2bandit_a2.png","70","70","test","1","3","3","1","",""
"null","112647","pSARL_v2","pSARL_v29muufcm9","5cdad620eae6f70019d4e950","freq_resp","img/orange_2bandit_a.png","70","70","test","","","","1","",""
"null","112805","pSARL_v2","pSARL_v29muufcm9","5cdad620eae6f70019d4e950","fixation","img/fixation.png","null","","test","","","","","",""
"273.7999999523163","113082","pSARL_v2","pSARL_v29muufcm9","5cdad620eae6f70019d4e950","freq","img/orange_2bandit_a2.png","70","70","test","1","4","4","1","",""
"null","113616","pSARL_v2","pSARL_v29muufcm9","5cdad620eae6f70019d4e950","freq_resp","img/orange_2bandit_a.png","70","70","test","","","","1","",""
"null","113779","pSARL_v2","pSARL_v29muufcm9","5cdad620eae6f70019d4e950","fixation","img/fixation.png","null","","test","","","","","",""
"311.19999980926514","114094","pSARL_v2","pSARL_v29muufcm9","5cdad620eae6f70019d4e950","freq","img/orange_2bandit_a2.png","70","70","test","1","5","5","1","",""
"null","114598","pSARL_v2","pSARL_v29muufcm9","5cdad620eae6f70019d4e950","freq_resp","img/orange_2bandit_a.png","70","70","test","","","","1","",""
"null","114759","pSARL_v2","pSARL_v29muufcm9","5cdad620eae6f70019d4e950","fixation","img/fixation.png","null","","test","","","","","",""
"324.40000009536743","115088","pSARL_v2","pSARL_v29muufcm9","5cdad620eae6f70019d4e950","infreq","img/green_2bandit_a2.png","68","68","test","1","6","6","1","",""
"null","115577","pSARL_v2","pSARL_v29muufcm9","5cdad620eae6f70019d4e950","infreq_resp","img/green_2bandit_a.png","68","68","test","","","","1","",""
"null","115740","pSARL_v2","pSARL_v29muufcm9","5cdad620eae6f70019d4e950","fixation","img/fixation.png","null","","test","","","","","",""
"271.2999999523163","116015","pSARL_v2","pSARL_v29muufcm9","5cdad620eae6f70019d4e950","infreq","img/green_2bandit_a2.png","68","68","test","1","7","7","1","",""
"null","116558","pSARL_v2","pSARL_v29muufcm9","5cdad620eae6f70019d4e950","infreq_resp","img/green_2bandit_a.png","68","68","test","","","","1","",""
"null","116731","pSARL_v2","pSARL_v29muufcm9","5cdad620eae6f70019d4e950","fixation","img/fixation.png","null","","test","","","","","",""
"340.7000000476837","117076","pSARL_v2","pSARL_v29muufcm9","5cdad620eae6f70019d4e950","freq","img/orange_2bandit_a2.png","70","70","test","1","8","8","1","",""
"null","117552","pSARL_v2","pSARL_v29muufcm9","5cdad620eae6f70019d4e950","freq_resp","img/orange_2bandit_a.png","70","70","test","","","","1","",""
"null","117717","pSARL_v2","pSARL_v29muufcm9","5cdad620eae6f70019d4e950","fixation","img/fixation.png","null","","test","","","","","",""
"260.7999999523163","117982","pSARL_v2","pSARL_v29muufcm9","5cdad620eae6f70019d4e950","freq","img/orange_2bandit_a2.png","70","70","test","1","9","9","1","",""
"null","118543","pSARL_v2","pSARL_v29muufcm9","5cdad620eae6f70019d4e950","freq_resp","img/orange_2bandit_a.png","70","70","test","","","","1","",""
"null","118711","pSARL_v2","pSARL_v29muufcm9","5cdad620eae6f70019d4e950","fixation","img/fixation.png","null","","test","","","","","",""
"248.5","118962","pSARL_v2","pSARL_v29muufcm9","5cdad620eae6f70019d4e950","freq","img/orange_2bandit_a2.png","70","70","test","1","10","10","1","",""
"null","119537","pSARL_v2","pSARL_v29muufcm9","5cdad620eae6f70019d4e950","freq_resp","img/orange_2bandit_a.png","70","70","test","","","","1","",""
"null","119711","pSARL_v2","pSARL_v29muufcm9","5cdad620eae6f70019d4e950","fixation","img/fixation.png","null","","test","","","","","",""
"278.2999999523163","119993","pSARL_v2","pSARL_v29muufcm9","5cdad620eae6f70019d4e950","freq","img/orange_2bandit_a2.png","70","70","test","1","11","11","1","",""
"null","120530","pSARL_v2","pSARL_v29muufcm9","5cdad620eae6f70019d4e950","freq_resp","img/orange_2bandit_a.png","70","70","test","","","","1","",""
"null","120684","pSARL_v2","pSARL_v29muufcm9","5cdad620eae6f70019d4e950","fixation","img/fixation.png","null","","test","","","","","",""
"259.7999999523163","120948","pSARL_v2","pSARL_v29muufcm9","5cdad620eae6f70019d4e950","freq","img/orange_2bandit_a2.png","70","70","test","1","12","12","1","",""
"null","121504","pSARL_v2","pSARL_v29muufcm9","5cdad620eae6f70019d4e950","freq_resp","img/orange_2bandit_a.png","70","70","test","","","","1","",""
"null","121671","pSARL_v2","pSARL_v29muufcm9","5cdad620eae6f70019d4e950","fixation","img/fixation.png","null","","test","","","","","",""
"265.09999990463257","121940","pSARL_v2","pSARL_v29muufcm9","5cdad620eae6f70019d4e950","freq","img/orange_2bandit_a2.png","70","70","test","1","13","13","1","",""
"null","122492","pSARL_v2","pSARL_v29muufcm9","5cdad620eae6f70019d4e950","freq_resp","img/orange_2bandit_a.png","70","70","test","","","","1","",""
"null","122656","pSARL_v2","pSARL_v29muufcm9","5cdad620eae6f70019d4e950","fixation","img/fixation.png","null","","test","","","","","",""
"287.90000009536743","122948","pSARL_v2","pSARL_v29muufcm9","5cdad620eae6f70019d4e950","freq","img/orange_2bandit_a2.png","70","70","test","1","14","14","1","",""
"null","123474","pSARL_v2","pSARL_v29muufcm9","5cdad620eae6f70019d4e950","freq_resp","img/orange_2bandit_a.png","70","70","test","","","","1","",""
"null","123643","pSARL_v2","pSARL_v29muufcm9","5cdad620eae6f70019d4e950","fixation","img/fixation.png","null","","test","","","","","",""
"255.39999985694885","123903","pSARL_v2","pSARL_v29muufcm9","5cdad620eae6f70019d4e950","freq","img/orange_2bandit_a2.png","70","70","test","1","15","15","1","",""
"null","124462","pSARL_v2","pSARL_v29muufcm9","5cdad620eae6f70019d4e950","freq_resp","img/orange_2bandit_a.png","70","70","test","","","","1","",""
"null","124626","pSARL_v2","pSARL_v29muufcm9","5cdad620eae6f70019d4e950","fixation","img/fixation.png","null","","test","","","","","",""
"274.89999985694885","124905","pSARL_v2","pSARL_v29muufcm9","5cdad620eae6f70019d4e950","freq","img/orange_2bandit_a2.png","70","70","test","1","16","16","1","",""
"null","125445","pSARL_v2","pSARL_v29muufcm9","5cdad620eae6f70019d4e950","freq_resp","img/orange_2bandit_a.png","70","70","test","","","","1","",""
"null","125599","pSARL_v2","pSARL_v29muufcm9","5cdad620eae6f70019d4e950","fixation","img/fixation.png","null","","test","","","","","",""
"217.89999985694885","125821","pSARL_v2","pSARL_v29muufcm9","5cdad620eae6f70019d4e950","freq","img/orange_2bandit_a2.png","70","70","test","1","17","17","1","",""
"null","126413","pSARL_v2","pSARL_v29muufcm9","5cdad620eae6f70019d4e950","freq_resp","img/orange_2bandit_a.png","70","70","test","","","","1","",""
"null","126577","pSARL_v2","pSARL_v29muufcm9","5cdad620eae6f70019d4e950","fixation","img/fixation.png","null","","test","","","","","",""
"262.40000009536743","126844","pSARL_v2","pSARL_v29muufcm9","5cdad620eae6f70019d4e950","freq","img/orange_2bandit_a2.png","70","70","test","1","18","18","1","",""
"null","127386","pSARL_v2","pSARL_v29muufcm9","5cdad620eae6f70019d4e950","freq_resp","img/orange_2bandit_a.png","70","70","test","","","","1","",""
"null","127546","pSARL_v2","pSARL_v29muufcm9","5cdad620eae6f70019d4e950","fixation","img/fixation.png","null","","test","","","","","",""
"288.59999990463257","127838","pSARL_v2","pSARL_v29muufcm9","5cdad620eae6f70019d4e950","freq","img/orange_2bandit_a2.png","70","70","test","1","19","19","1","",""
"null","128359","pSARL_v2","pSARL_v29muufcm9","5cdad620eae6f70019d4e950","freq_resp","img/orange_2bandit_a.png","70","70","test","","","","1","",""
"null","128521","pSARL_v2","pSARL_v29muufcm9","5cdad620eae6f70019d4e950","fixation","img/fixation.png","null","","test","","","","","",""
"305.10000014305115","128830","pSARL_v2","pSARL_v29muufcm9","5cdad620eae6f70019d4e950","freq","img/orange_2bandit_a2.png","70","70","test","1","20","20","1","",""
"null","129343","pSARL_v2","pSARL_v29muufcm9","5cdad620eae6f70019d4e950","freq_resp","img/orange_2bandit_a.png","70","70","test","","","","1","",""
"null","129503","pSARL_v2","pSARL_v29muufcm9","5cdad620eae6f70019d4e950","fixation","img/fixation.png","null","","test","","","","","",""
"271.5","129779","pSARL_v2","pSARL_v29muufcm9","5cdad620eae6f70019d4e950","freq","img/orange_2bandit_a2.png","70","70","test","1","21","21","1","",""
"null","130317","pSARL_v2","pSARL_v29muufcm9","5cdad620eae6f70019d4e950","freq_resp","img/orange_2bandit_a.png","70","70","test","","","","1","",""
"null","130486","pSARL_v2","pSARL_v29muufcm9","5cdad620eae6f70019d4e950","fixation","img/fixation.png","null","","test","","","","","",""
"451.09999990463257","130940","pSARL_v2","pSARL_v29muufcm9","5cdad620eae6f70019d4e950","reward","img/slot.png","74","","test","","","","","",""
"null","131710","pSARL_v2","pSARL_v29muufcm9","5cdad620eae6f70019d4e950","points","<div class=""verylowPoints""> -6 </div>","null","na","test","","","","1","-6","0"
"615.0999999046326","132328","pSARL_v2","pSARL_v29muufcm9","5cdad620eae6f70019d4e950","freq","img/orange_2bandit_a2.png","70","70","test","1","22","22","2","",""
"null","132529","pSARL_v2","pSARL_v29muufcm9","5cdad620eae6f70019d4e950","freq_resp","img/orange_2bandit_a.png","70","70","test","","","","2","",""
"null","132697","pSARL_v2","pSARL_v29muufcm9","5cdad620eae6f70019d4e950","fixation","img/fixation.png","null","","test","","","","","",""
"467.2999999523163","133168","pSARL_v2","pSARL_v29muufcm9","5cdad620eae6f70019d4e950","infreq","img/green_2bandit_a2.png","68","68","test","1","23","23","2","",""
"null","133517","pSARL_v2","pSARL_v29muufcm9","5cdad620eae6f70019d4e950","infreq_resp","img/green_2bandit_a.png","68","68","test","","","","2","",""
"null","133681","pSARL_v2","pSARL_v29muufcm9","5cdad620eae6f70019d4e950","fixation","img/fixation.png","null","","test","","","","","",""
"343.89999985694885","134029","pSARL_v2","pSARL_v29muufcm9","5cdad620eae6f70019d4e950","freq","img/orange_2bandit_a2.png","70","70","test","1","24","24","2","",""
"null","134494","pSARL_v2","pSARL_v29muufcm9","5cdad620eae6f70019d4e950","freq_resp","img/orange_2bandit_a.png","70","70","test","","","","2","",""
"null","134667","pSARL_v2","pSARL_v29muufcm9","5cdad620eae6f70019d4e950","fixation","img/fixation.png","null","","test","","","","","",""
"302.09999990463257","134973","pSARL_v2","pSARL_v29muufcm9","5cdad620eae6f70019d4e950","freq","img/orange_2bandit_a2.png","70","70","test","1","25","25","2","",""
"null","135492","pSARL_v2","pSARL_v29muufcm9","5cdad620eae6f70019d4e950","freq_resp","img/orange_2bandit_a.png","70","70","test","","","","2","",""
"null","135655","pSARL_v2","pSARL_v29muufcm9","5cdad620eae6f70019d4e950","fixation","img/fixation.png","null","","test","","","","","",""
"279.60000014305115","135938","pSARL_v2","pSARL_v29muufcm9","5cdad620eae6f70019d4e950","freq","img/orange_2bandit_a2.png","70","70","test","1","26","26","2","",""
"null","136474","pSARL_v2","pSARL_v29muufcm9","5cdad620eae6f70019d4e950","freq_resp","img/orange_2bandit_a.png","70","70","test","","","","2","",""
"null","136634","pSARL_v2","pSARL_v29muufcm9","5cdad620eae6f70019d4e950","fixation","img/fixation.png","null","","test","","","","","",""
"274.7999999523163","136911","pSARL_v2","pSARL_v29muufcm9","5cdad620eae6f70019d4e950","freq","img/orange_2bandit_a2.png","70","70","test","1","27","27","2","",""
"null","137453","pSARL_v2","pSARL_v29muufcm9","5cdad620eae6f70019d4e950","freq_resp","img/orange_2bandit_a.png","70","70","test","","","","2","",""
"null","137615","pSARL_v2","pSARL_v29muufcm9","5cdad620eae6f70019d4e950","fixation","img/fixation.png","null","","test","","","","","",""
"328.5","137947","pSARL_v2","pSARL_v29muufcm9","5cdad620eae6f70019d4e950","freq","img/orange_2bandit_a2.png","70","70","test","1","28","28","2","",""
"null","138439","pSARL_v2","pSARL_v29muufcm9","5cdad620eae6f70019d4e950","freq_resp","img/orange_2bandit_a.png","70","70","test","","","","2","",""
"null","138603","pSARL_v2","pSARL_v29muufcm9","5cdad620eae6f70019d4e950","fixation","img/fixation.png","null","","test","","","","","",""
"276.5","138884","pSARL_v2","pSARL_v29muufcm9","5cdad620eae6f70019d4e950","freq","img/orange_2bandit_a2.png","70","70","test","1","29","29","2","",""
"null","139414","pSARL_v2","pSARL_v29muufcm9","5cdad620eae6f70019d4e950","freq_resp","img/orange_2bandit_a.png","70","70","test","","","","2","",""
"null","139577","pSARL_v2","pSARL_v29muufcm9","5cdad620eae6f70019d4e950","fixation","img/fixation.png","null","","test","","","","","",""
"263.39999985694885","139845","pSARL_v2","pSARL_v29muufcm9","5cdad620eae6f70019d4e950","freq","img/orange_2bandit_a2.png","70","70","test","1","30","30","2","",""
"null","140396","pSARL_v2","pSARL_v29muufcm9","5cdad620eae6f70019d4e950","freq_resp","img/orange_2bandit_a.png","70","70","test","","","","2","",""
"null","140551","pSARL_v2","pSARL_v29muufcm9","5cdad620eae6f70019d4e950","fixation","img/fixation.png","null","","test","","","","","",""
"233.90000009536743","140789","pSARL_v2","pSARL_v29muufcm9","5cdad620eae6f70019d4e950","freq","img/orange_2bandit_a2.png","70","70","test","1","31","31","2","",""
"null","141368","pSARL_v2","pSARL_v29muufcm9","5cdad620eae6f70019d4e950","freq_resp","img/orange_2bandit_a.png","70","70","test","","","","2","",""
"null","141538","pSARL_v2","pSARL_v29muufcm9","5cdad620eae6f70019d4e950","fixation","img/fixation.png","null","","test","","","","","",""
"169.29999995231628","141711","pSARL_v2","pSARL_v29muufcm9","5cdad620eae6f70019d4e950","freq","img/orange_2bandit_a2.png","70","70","test","1","32","32","2","",""
"null","142344","pSARL_v2","pSARL_v29muufcm9","5cdad620eae6f70019d4e950","freq_resp","img/orange_2bandit_a.png","70","70","test","","","","2","",""
"null","142508","pSARL_v2","pSARL_v29muufcm9","5cdad620eae6f70019d4e950","fixation","img/fixation.png","null","","test","","","","","",""
"180.5","142692","pSARL_v2","pSARL_v29muufcm9","5cdad620eae6f70019d4e950","freq","img/orange_2bandit_a2.png","70","70","test","1","33","33","2","",""
"null","143324","pSARL_v2","pSARL_v29muufcm9","5cdad620eae6f70019d4e950","freq_resp","img/orange_2bandit_a.png","70","70","test","","","","2","",""
"null","143488","pSARL_v2","pSARL_v29muufcm9","5cdad620eae6f70019d4e950","fixation","img/fixation.png","null","","test","","","","","",""
"164.59999990463257","143656","pSARL_v2","pSARL_v29muufcm9","5cdad620eae6f70019d4e950","freq","img/orange_2bandit_a2.png","70","70","test","1","34","34","2","",""
"null","144311","pSARL_v2","pSARL_v29muufcm9","5cdad620eae6f70019d4e950","freq_resp","img/orange_2bandit_a.png","70","70","test","","","","2","",""
"null","144474","pSARL_v2","pSARL_v29muufcm9","5cdad620eae6f70019d4e950","fixation","img/fixation.png","null","","test","","","","","",""
"200.60000014305115","144678","pSARL_v2","pSARL_v29muufcm9","5cdad620eae6f70019d4e950","freq","img/orange_2bandit_a2.png","70","70","test","1","35","35","2","",""
"null","145285","pSARL_v2","pSARL_v29muufcm9","5cdad620eae6f70019d4e950","freq_resp","img/orange_2bandit_a.png","70","70","test","","","","2","",""
"null","145450","pSARL_v2","pSARL_v29muufcm9","5cdad620eae6f70019d4e950","fixation","img/fixation.png","null","","test","","","","","",""
"246.89999985694885","145701","pSARL_v2","pSARL_v29muufcm9","5cdad620eae6f70019d4e950","infreq","img/green_2bandit_a2.png","70","68","test","0","36","36","2","",""
"null","146267","pSARL_v2","pSARL_v29muufcm9","5cdad620eae6f70019d4e950","infreq_resp","img/green_2bandit_a.png","70","68","test","","","","2","",""
"null","146430","pSARL_v2","pSARL_v29muufcm9","5cdad620eae6f70019d4e950","fixation","img/fixation.png","null","","test","","","","","",""
"229.89999985694885","146662","pSARL_v2","pSARL_v29muufcm9","5cdad620eae6f70019d4e950","freq","img/orange_2bandit_a2.png","70","70","test","1","37","37","2","",""
"null","147252","pSARL_v2","pSARL_v29muufcm9","5cdad620eae6f70019d4e950","freq_resp","img/orange_2bandit_a.png","70","70","test","","","","2","",""
"null","147412","pSARL_v2","pSARL_v29muufcm9","5cdad620eae6f70019d4e950","fixation","img/fixation.png","null","","test","","","","","",""
"248.40000009536743","147663","pSARL_v2","pSARL_v29muufcm9","5cdad620eae6f70019d4e950","freq","img/orange_2bandit_a2.png","70","70","test","1","38","38","2","",""
"null","148238","pSARL_v2","pSARL_v29muufcm9","5cdad620eae6f70019d4e950","freq_resp","img/orange_2bandit_a.png","70","70","test","","","","2","",""
"null","148411","pSARL_v2","pSARL_v29muufcm9","5cdad620eae6f70019d4e950","fixation","img/fixation.png","null","","test","","","","","",""
"254.59999990463257","148669","pSARL_v2","pSARL_v29muufcm9","5cdad620eae6f70019d4e950","freq","img/orange_2bandit_a2.png","70","70","test","1","39","39","2","",""
"null","149231","pSARL_v2","pSARL_v29muufcm9","5cdad620eae6f70019d4e950","freq_resp","img/orange_2bandit_a.png","70","70","test","","","","2","",""
"null","149394","pSARL_v2","pSARL_v29muufcm9","5cdad620eae6f70019d4e950","fixation","img/fixation.png","null","","test","","","","","",""
"248.09999990463257","149645","pSARL_v2","pSARL_v29muufcm9","5cdad620eae6f70019d4e950","freq","img/orange_2bandit_a2.png","70","70","test","1","40","40","2","",""
"null","150218","pSARL_v2","pSARL_v29muufcm9","5cdad620eae6f70019d4e950","freq_resp","img/orange_2bandit_a.png","70","70","test","","","","2","",""
"null","150386","pSARL_v2","pSARL_v29muufcm9","5cdad620eae6f70019d4e950","fixation","img/fixation.png","null","","test","","","","","",""
"170.5","150560","pSARL_v2","pSARL_v29muufcm9","5cdad620eae6f70019d4e950","freq","img/orange_2bandit_a2.png","70","70","test","1","41","41","2","",""
"null","151195","pSARL_v2","pSARL_v29muufcm9","5cdad620eae6f70019d4e950","freq_resp","img/orange_2bandit_a.png","70","70","test","","","","2","",""
"null","151368","pSARL_v2","pSARL_v29muufcm9","5cdad620eae6f70019d4e950","fixation","img/fixation.png","null","","test","","","","","",""
"115","151487","pSARL_v2","pSARL_v29muufcm9","5cdad620eae6f70019d4e950","freq","img/orange_2bandit_a2.png","70","70","test","1","42","42","2","",""
"null","152186","pSARL_v2","pSARL_v29muufcm9","5cdad620eae6f70019d4e950","freq_resp","img/orange_2bandit_a.png","70","70","test","","","","2","",""
"null","152351","pSARL_v2","pSARL_v29muufcm9","5cdad620eae6f70019d4e950","fixation","img/fixation.png","null","","test","","","","","",""
"239.79999995231628","152594","pSARL_v2","pSARL_v29muufcm9","5cdad620eae6f70019d4e950","freq","img/orange_2bandit_a2.png","70","70","test","1","43","43","2","",""
"null","153170","pSARL_v2","pSARL_v29muufcm9","5cdad620eae6f70019d4e950","freq_resp","img/orange_2bandit_a.png","70","70","test","","","","2","",""
"null","153337","pSARL_v2","pSARL_v29muufcm9","5cdad620eae6f70019d4e950","fixation","img/fixation.png","null","","test","","","","","",""
"384.40000009536743","153726","pSARL_v2","pSARL_v29muufcm9","5cdad620eae6f70019d4e950","reward","img/slot.png","74","","test","","","","","",""
"null","154499","pSARL_v2","pSARL_v29muufcm9","5cdad620eae6f70019d4e950","points","<div class=""verylowPoints""> -11 </div>","null","na","test","","","","2","-11","1"
"734.2999999523163","155237","pSARL_v2","pSARL_v29muufcm9","5cdad620eae6f70019d4e950","freq","img/orange_2bandit_a2.png","70","70","test","1","44","44","3","",""
"null","155307","pSARL_v2","pSARL_v29muufcm9","5cdad620eae6f70019d4e950","freq_resp","img/orange_2bandit_a.png","70","70","test","","","","3","",""
"null","155474","pSARL_v2","pSARL_v29muufcm9","5cdad620eae6f70019d4e950","fixation","img/fixation.png","null","","test","","","","","",""
"427.5","155905","pSARL_v2","pSARL_v29muufcm9","5cdad620eae6f70019d4e950","freq","img/orange_2bandit_a2.png","70","70","test","1","45","45","3","",""
"null","156301","pSARL_v2","pSARL_v29muufcm9","5cdad620eae6f70019d4e950","freq_resp","img/orange_2bandit_a.png","70","70","test","","","","3","",""
"null","156475","pSARL_v2","pSARL_v29muufcm9","5cdad620eae6f70019d4e950","fixation","img/fixation.png","null","","test","","","","","",""
"311","156790","pSARL_v2","pSARL_v29muufcm9","5cdad620eae6f70019d4e950","freq","img/orange_2bandit_a2.png","70","70","test","1","46","46","3","",""
"null","157295","pSARL_v2","pSARL_v29muufcm9","5cdad620eae6f70019d4e950","freq_resp","img/orange_2bandit_a.png","70","70","test","","","","3","",""
"null","157452","pSARL_v2","pSARL_v29muufcm9","5cdad620eae6f70019d4e950","fixation","img/fixation.png","null","","test","","","","","",""
"288.5","157743","pSARL_v2","pSARL_v29muufcm9","5cdad620eae6f70019d4e950","freq","img/orange_2bandit_a2.png","70","70","test","1","47","47","3","",""
"null","158260","pSARL_v2","pSARL_v29muufcm9","5cdad620eae6f70019d4e950","freq_resp","img/orange_2bandit_a.png","70","70","test","","","","3","",""
"null","158423","pSARL_v2","pSARL_v29muufcm9","5cdad620eae6f70019d4e950","fixation","img/fixation.png","null","","test","","","","","",""
"276","158703","pSARL_v2","pSARL_v29muufcm9","5cdad620eae6f70019d4e950","freq","img/orange_2bandit_a2.png","70","70","test","1","48","48","3","",""
"null","159237","pSARL_v2","pSARL_v29muufcm9","5cdad620eae6f70019d4e950","freq_resp","img/orange_2bandit_a.png","70","70","test","","","","3","",""
"null","159411","pSARL_v2","pSARL_v29muufcm9","5cdad620eae6f70019d4e950","fixation","img/fixation.png","null","","test","","","","","",""
"256.2999999523163","159672","pSARL_v2","pSARL_v29muufcm9","5cdad620eae6f70019d4e950","freq","img/orange_2bandit_a2.png","70","70","test","1","49","49","3","",""
"null","160235","pSARL_v2","pSARL_v29muufcm9","5cdad620eae6f70019d4e950","freq_resp","img/orange_2bandit_a.png","70","70","test","","","","3","",""
"null","160397","pSARL_v2","pSARL_v29muufcm9","5cdad620eae6f70019d4e950","fixation","img/fixation.png","null","","test","","","","","",""
"244","160644","pSARL_v2","pSARL_v29muufcm9","5cdad620eae6f70019d4e950","freq","img/orange_2bandit_a2.png","70","70","test","1","50","50","3","",""
"null","161222","pSARL_v2","pSARL_v29muufcm9","5cdad620eae6f70019d4e950","freq_resp","img/orange_2bandit_a.png","70","70","test","","","","3","",""
"null","161391","pSARL_v2","pSARL_v29muufcm9","5cdad620eae6f70019d4e950","fixation","img/fixation.png","null","","test","","","","","",""
"221.09999990463257","161616","pSARL_v2","pSARL_v29muufcm9","5cdad620eae6f70019d4e950","freq","img/orange_2bandit_a2.png","70","70","test","1","51","51","3","",""
"null","162204","pSARL_v2","pSARL_v29muufcm9","5cdad620eae6f70019d4e950","freq_resp","img/orange_2bandit_a.png","70","70","test","","","","3","",""
"null","162363","pSARL_v2","pSARL_v29muufcm9","5cdad620eae6f70019d4e950","fixation","img/fixation.png","null","","test","","","","","",""
"202.20000004768372","162569","pSARL_v2","pSARL_v29muufcm9","5cdad620eae6f70019d4e950","freq","img/orange_2bandit_a2.png","70","70","test","1","52","52","3","",""
"null","163172","pSARL_v2","pSARL_v29muufcm9","5cdad620eae6f70019d4e950","freq_resp","img/orange_2bandit_a.png","70","70","test","","","","3","",""
"null","163332","pSARL_v2","pSARL_v29muufcm9","5cdad620eae6f70019d4e950","fixation","img/fixation.png","null","","test","","","","","",""
"243.09999990463257","163579","pSARL_v2","pSARL_v29muufcm9","5cdad620eae6f70019d4e950","freq","img/orange_2bandit_a2.png","70","70","test","1","53","53","3","",""
"null","164142","pSARL_v2","pSARL_v29muufcm9","5cdad620eae6f70019d4e950","freq_resp","img/orange_2bandit_a.png","70","70","test","","","","3","",""
"null","164297","pSARL_v2","pSARL_v29muufcm9","5cdad620eae6f70019d4e950","fixation","img/fixation.png","null","","test","","","","","",""
"235.89999985694885","164537","pSARL_v2","pSARL_v29muufcm9","5cdad620eae6f70019d4e950","freq","img/orange_2bandit_a2.png","70","70","test","1","54","54","3","",""
"null","165116","pSARL_v2","pSARL_v29muufcm9","5cdad620eae6f70019d4e950","freq_resp","img/orange_2bandit_a.png","70","70","test","","","","3","",""
"null","165281","pSARL_v2","pSARL_v29muufcm9","5cdad620eae6f70019d4e950","fixation","img/fixation.png","null","","test","","","","","",""
"187.79999995231628","165473","pSARL_v2","pSARL_v29muufcm9","5cdad620eae6f70019d4e950","freq","img/orange_2bandit_a2.png","70","70","test","1","55","55","3","",""
"null","166098","pSARL_v2","pSARL_v29muufcm9","5cdad620eae6f70019d4e950","freq_resp","img/orange_2bandit_a.png","70","70","test","","","","3","",""
"null","166255","pSARL_v2","pSARL_v29muufcm9","5cdad620eae6f70019d4e950","fixation","img/fixation.png","null","","test","","","","","",""
"108.39999985694885","166367","pSARL_v2","pSARL_v29muufcm9","5cdad620eae6f70019d4e950","freq","img/orange_2bandit_a2.png","70","70","test","1","56","56","3","",""
"null","167066","pSARL_v2","pSARL_v29muufcm9","5cdad620eae6f70019d4e950","freq_resp","img/orange_2bandit_a.png","70","70","test","","","","3","",""
"null","167232","pSARL_v2","pSARL_v29muufcm9","5cdad620eae6f70019d4e950","fixation","img/fixation.png","null","","test","","","","","",""
"95.10000014305115","167331","pSARL_v2","pSARL_v29muufcm9","5cdad620eae6f70019d4e950","freq","img/orange_2bandit_a2.png","70","70","test","1","57","57","3","",""
"null","168050","pSARL_v2","pSARL_v29muufcm9","5cdad620eae6f70019d4e950","freq_resp","img/orange_2bandit_a.png","70","70","test","","","","3","",""
"null","168224","pSARL_v2","pSARL_v29muufcm9","5cdad620eae6f70019d4e950","fixation","img/fixation.png","null","","test","","","","","",""
"129.79999995231628","168357","pSARL_v2","pSARL_v29muufcm9","5cdad620eae6f70019d4e950","infreq","img/green_2bandit_a2.png","70","68","test","0","58","58","3","",""
"null","169047","pSARL_v2","pSARL_v29muufcm9","5cdad620eae6f70019d4e950","infreq_resp","img/green_2bandit_a.png","70","68","test","","","","3","",""
"null","169212","pSARL_v2","pSARL_v29muufcm9","5cdad620eae6f70019d4e950","fixation","img/fixation.png","null","","test","","","","","",""
"301","169516","pSARL_v2","pSARL_v29muufcm9","5cdad620eae6f70019d4e950","freq","img/orange_2bandit_a2.png","70","70","test","1","59","59","3","",""
"null","170031","pSARL_v2","pSARL_v29muufcm9","5cdad620eae6f70019d4e950","freq_resp","img/orange_2bandit_a.png","70","70","test","","","","3","",""
"null","170194","pSARL_v2","pSARL_v29muufcm9","5cdad620eae6f70019d4e950","fixation","img/fixation.png","null","","test","","","","","",""
"205.59999990463257","170404","pSARL_v2","pSARL_v29muufcm9","5cdad620eae6f70019d4e950","freq","img/orange_2bandit_a2.png","70","70","test","1","60","60","3","",""
"null","171014","pSARL_v2","pSARL_v29muufcm9","5cdad620eae6f70019d4e950","freq_resp","img/orange_2bandit_a.png","70","70","test","","","","3","",""
"null","171167","pSARL_v2","pSARL_v29muufcm9","5cdad620eae6f70019d4e950","fixation","img/fixation.png","null","","test","","","","","",""
"285.5","171456","pSARL_v2","pSARL_v29muufcm9","5cdad620eae6f70019d4e950","freq","img/orange_2bandit_a2.png","70","70","test","1","61","61","3","",""
"null","171992","pSARL_v2","pSARL_v29muufcm9","5cdad620eae6f70019d4e950","freq_resp","img/orange_2bandit_a.png","70","70","test","","","","3","",""
"null","172155","pSARL_v2","pSARL_v29muufcm9","5cdad620eae6f70019d4e950","fixation","img/fixation.png","null","","test","","","","","",""
"256.59999990463257","172416","pSARL_v2","pSARL_v29muufcm9","5cdad620eae6f70019d4e950","freq","img/orange_2bandit_a2.png","70","70","test","1","62","62","3","",""
"null","172969","pSARL_v2","pSARL_v29muufcm9","5cdad620eae6f70019d4e950","freq_resp","img/orange_2bandit_a.png","70","70","test","","","","3","",""
"null","173133","pSARL_v2","pSARL_v29muufcm9","5cdad620eae6f70019d4e950","fixation","img/fixation.png","null","","test","","","","","",""
"206.09999990463257","173343","pSARL_v2","pSARL_v29muufcm9","5cdad620eae6f70019d4e950","freq","img/orange_2bandit_a2.png","70","70","test","1","63","63","3","",""
"null","173942","pSARL_v2","pSARL_v29muufcm9","5cdad620eae6f70019d4e950","freq_resp","img/orange_2bandit_a.png","70","70","test","","","","3","",""
"null","174105","pSARL_v2","pSARL_v29muufcm9","5cdad620eae6f70019d4e950","fixation","img/fixation.png","null","","test","","","","","",""
"236.89999985694885","174346","pSARL_v2","pSARL_v29muufcm9","5cdad620eae6f70019d4e950","freq","img/orange_2bandit_a2.png","70","70","test","1","64","64","3","",""
"null","174919","pSARL_v2","pSARL_v29muufcm9","5cdad620eae6f70019d4e950","freq_resp","img/orange_2bandit_a.png","70","70","test","","","","3","",""
"null","175084","pSARL_v2","pSARL_v29muufcm9","5cdad620eae6f70019d4e950","fixation","img/fixation.png","null","","test","","","","","",""
"552.7999999523163","175639","pSARL_v2","pSARL_v29muufcm9","5cdad620eae6f70019d4e950","infreq","img/green_2bandit_a2.png","68","68","test","1","65","65","3","",""
"null","175896","pSARL_v2","pSARL_v29muufcm9","5cdad620eae6f70019d4e950","infreq_resp","img/green_2bandit_a.png","68","68","test","","","","3","",""
"null","176070","pSARL_v2","pSARL_v29muufcm9","5cdad620eae6f70019d4e950","fixation","img/fixation.png","null","","test","","","","","",""
"367.09999990463257","176441","pSARL_v2","pSARL_v29muufcm9","5cdad620eae6f70019d4e950","freq","img/orange_2bandit_a2.png","70","70","test","1","66","66","3","",""
"null","176889","pSARL_v2","pSARL_v29muufcm9","5cdad620eae6f70019d4e950","freq_resp","img/orange_2bandit_a.png","70","70","test","","","","3","",""
"null","177053","pSARL_v2","pSARL_v29muufcm9","5cdad620eae6f70019d4e950","fixation","img/fixation.png","null","","test","","","","","",""
"440.90000009536743","177498","pSARL_v2","pSARL_v29muufcm9","5cdad620eae6f70019d4e950","reward","img/slot.png","74","","test","","","","","",""
"null","178269","pSARL_v2","pSARL_v29muufcm9","5cdad620eae6f70019d4e950","points","<div class=""verylowPoints""> -7 </div>","null","na","test","","","","3","-7","2"
"381.09999990463257","178654","pSARL_v2","pSARL_v29muufcm9","5cdad620eae6f70019d4e950","freq","img/orange_2bandit_a2.png","70","70","test","1","67","67","4","",""
"null","179081","pSARL_v2","pSARL_v29muufcm9","5cdad620eae6f70019d4e950","freq_resp","img/orange_2bandit_a.png","70","70","test","","","","4","",""
"null","179245","pSARL_v2","pSARL_v29muufcm9","5cdad620eae6f70019d4e950","fixation","img/fixation.png","null","","test","","","","","",""
"218.79999995231628","179467","pSARL_v2","pSARL_v29muufcm9","5cdad620eae6f70019d4e950","freq","img/orange_2bandit_a2.png","70","70","test","1","68","68","4","",""
"null","180073","pSARL_v2","pSARL_v29muufcm9","5cdad620eae6f70019d4e950","freq_resp","img/orange_2bandit_a.png","70","70","test","","","","4","",""
"null","180226","pSARL_v2","pSARL_v29muufcm9","5cdad620eae6f70019d4e950","fixation","img/fixation.png","null","","test","","","","","",""
"302.10000014305115","180533","pSARL_v2","pSARL_v29muufcm9","5cdad620eae6f70019d4e950","freq","img/orange_2bandit_a2.png","70","70","test","1","69","69","4","",""
"null","181045","pSARL_v2","pSARL_v29muufcm9","5cdad620eae6f70019d4e950","freq_resp","img/orange_2bandit_a.png","70","70","test","","","","4","",""
"null","181210","pSARL_v2","pSARL_v29muufcm9","5cdad620eae6f70019d4e950","fixation","img/fixation.png","null","","test","","","","","",""
"381.19999980926514","181595","pSARL_v2","pSARL_v29muufcm9","5cdad620eae6f70019d4e950","freq","img/orange_2bandit_a2.png","70","70","test","1","70","70","4","",""
"null","182023","pSARL_v2","pSARL_v29muufcm9","5cdad620eae6f70019d4e950","freq_resp","img/orange_2bandit_a.png","70","70","test","","","","4","",""
"null","182187","pSARL_v2","pSARL_v29muufcm9","5cdad620eae6f70019d4e950","fixation","img/fixation.png","null","","test","","","","","",""
"273.5","182464","pSARL_v2","pSARL_v29muufcm9","5cdad620eae6f70019d4e950","freq","img/orange_2bandit_a2.png","70","70","test","1","71","71","4","",""
"null","183010","pSARL_v2","pSARL_v29muufcm9","5cdad620eae6f70019d4e950","freq_resp","img/orange_2bandit_a.png","70","70","test","","","","4","",""
"null","183170","pSARL_v2","pSARL_v29muufcm9","5cdad620eae6f70019d4e950","fixation","img/fixation.png","null","","test","","","","","",""
"239.89999985694885","183414","pSARL_v2","pSARL_v29muufcm9","5cdad620eae6f70019d4e950","freq","img/orange_2bandit_a2.png","70","70","test","1","72","72","4","",""
"null","183984","pSARL_v2","pSARL_v29muufcm9","5cdad620eae6f70019d4e950","freq_resp","img/orange_2bandit_a.png","70","70","test","","","","4","",""
"null","184149","pSARL_v2","pSARL_v29muufcm9","5cdad620eae6f70019d4e950","fixation","img/fixation.png","null","","test","","","","","",""
"252","184405","pSARL_v2","pSARL_v29muufcm9","5cdad620eae6f70019d4e950","freq","img/orange_2bandit_a2.png","70","70","test","1","73","73","4","",""
"null","184957","pSARL_v2","pSARL_v29muufcm9","5cdad620eae6f70019d4e950","freq_resp","img/orange_2bandit_a.png","70","70","test","","","","4","",""
"null","185120","pSARL_v2","pSARL_v29muufcm9","5cdad620eae6f70019d4e950","fixation","img/fixation.png","null","","test","","","","","",""
"375","185499","pSARL_v2","pSARL_v29muufcm9","5cdad620eae6f70019d4e950","infreq","img/green_2bandit_a2.png","68","68","test","1","74","74","4","",""
"null","185944","pSARL_v2","pSARL_v29muufcm9","5cdad620eae6f70019d4e950","infreq_resp","img/green_2bandit_a.png","68","68","test","","","","4","",""
"null","186101","pSARL_v2","pSARL_v29muufcm9","5cdad620eae6f70019d4e950","fixation","img/fixation.png","null","","test","","","","","",""
"376.7999999523163","186482","pSARL_v2","pSARL_v29muufcm9","5cdad620eae6f70019d4e950","freq","img/orange_2bandit_a2.png","70","70","test","1","75","75","4","",""
"null","186910","pSARL_v2","pSARL_v29muufcm9","5cdad620eae6f70019d4e950","freq_resp","img/orange_2bandit_a.png","70","70","test","","","","4","",""
"null","187064","pSARL_v2","pSARL_v29muufcm9","5cdad620eae6f70019d4e950","fixation","img/fixation.png","null","","test","","","","","",""
"264.89999985694885","187333","pSARL_v2","pSARL_v29muufcm9","5cdad620eae6f70019d4e950","freq","img/orange_2bandit_a2.png","70","70","test","1","76","76","4","",""
"null","187885","pSARL_v2","pSARL_v29muufcm9","5cdad620eae6f70019d4e950","freq_resp","img/orange_2bandit_a.png","70","70","test","","","","4","",""
"null","188049","pSARL_v2","pSARL_v29muufcm9","5cdad620eae6f70019d4e950","fixation","img/fixation.png","null","","test","","","","","",""
"259.60000014305115","188314","pSARL_v2","pSARL_v29muufcm9","5cdad620eae6f70019d4e950","freq","img/orange_2bandit_a2.png","70","70","test","1","77","77","4","",""
"null","188863","pSARL_v2","pSARL_v29muufcm9","5cdad620eae6f70019d4e950","freq_resp","img/orange_2bandit_a.png","70","70","test","","","","4","",""
"null","189037","pSARL_v2","pSARL_v29muufcm9","5cdad620eae6f70019d4e950","fixation","img/fixation.png","null","","test","","","","","",""
"247.70000004768372","189289","pSARL_v2","pSARL_v29muufcm9","5cdad620eae6f70019d4e950","freq","img/orange_2bandit_a2.png","70","70","test","1","78","78","4","",""
"null","189851","pSARL_v2","pSARL_v29muufcm9","5cdad620eae6f70019d4e950","freq_resp","img/orange_2bandit_a.png","70","70","test","","","","4","",""
"null","190024","pSARL_v2","pSARL_v29muufcm9","5cdad620eae6f70019d4e950","fixation","img/fixation.png","null","","test","","","","","",""
"258.2999999523163","190287","pSARL_v2","pSARL_v29muufcm9","5cdad620eae6f70019d4e950","freq","img/orange_2bandit_a2.png","70","70","test","1","79","79","4","",""
"null","190835","pSARL_v2","pSARL_v29muufcm9","5cdad620eae6f70019d4e950","freq_resp","img/orange_2bandit_a.png","70","70","test","","","","4","",""
"null","190988","pSARL_v2","pSARL_v29muufcm9","5cdad620eae6f70019d4e950","fixation","img/fixation.png","null","","test","","","","","",""
"215.70000004768372","191208","pSARL_v2","pSARL_v29muufcm9","5cdad620eae6f70019d4e950","freq","img/orange_2bandit_a2.png","70","70","test","1","80","80","4","",""
"null","191808","pSARL_v2","pSARL_v29muufcm9","5cdad620eae6f70019d4e950","freq_resp","img/orange_2bandit_a.png","70","70","test","","","","4","",""
"null","191972","pSARL_v2","pSARL_v29muufcm9","5cdad620eae6f70019d4e950","fixation","img/fixation.png","null","","test","","","","","",""
"233.39999985694885","192210","pSARL_v2","pSARL_v29muufcm9","5cdad620eae6f70019d4e950","freq","img/orange_2bandit_a2.png","70","70","test","1","81","81","4","",""
"null","192797","pSARL_v2","pSARL_v29muufcm9","5cdad620eae6f70019d4e950","freq_resp","img/orange_2bandit_a.png","70","70","test","","","","4","",""
"null","192959","pSARL_v2","pSARL_v29muufcm9","5cdad620eae6f70019d4e950","fixation","img/fixation.png","null","","test","","","","","",""
"222","193185","pSARL_v2","pSARL_v29muufcm9","5cdad620eae6f70019d4e950","freq","img/orange_2bandit_a2.png","70","70","test","1","82","82","4","",""
"null","193774","pSARL_v2","pSARL_v29muufcm9","5cdad620eae6f70019d4e950","freq_resp","img/orange_2bandit_a.png","70","70","test","","","","4","",""
"null","193933","pSARL_v2","pSARL_v29muufcm9","5cdad620eae6f70019d4e950","fixation","img/fixation.png","null","","test","","","","","",""
"237.60000014305115","194174","pSARL_v2","pSARL_v29muufcm9","5cdad620eae6f70019d4e950","freq","img/orange_2bandit_a2.png","70","70","test","1","83","83","4","",""
"null","194743","pSARL_v2","pSARL_v29muufcm9","5cdad620eae6f70019d4e950","freq_resp","img/orange_2bandit_a.png","70","70","test","","","","4","",""
"null","194917","pSARL_v2","pSARL_v29muufcm9","5cdad620eae6f70019d4e950","fixation","img/fixation.png","null","","test","","","","","",""
"459.09999990463257","195380","pSARL_v2","pSARL_v29muufcm9","5cdad620eae6f70019d4e950","infreq","img/green_2bandit_a2.png","68","68","test","1","84","84","4","",""
"null","195725","pSARL_v2","pSARL_v29muufcm9","5cdad620eae6f70019d4e950","infreq_resp","img/green_2bandit_a.png","68","68","test","","","","4","",""
"null","195899","pSARL_v2","pSARL_v29muufcm9","5cdad620eae6f70019d4e950","fixation","img/fixation.png","null","","test","","","","","",""
"326.2000000476837","196229","pSARL_v2","pSARL_v29muufcm9","5cdad620eae6f70019d4e950","freq","img/orange_2bandit_a2.png","70","70","test","1","85","85","4","",""
"null","196705","pSARL_v2","pSARL_v29muufcm9","5cdad620eae6f70019d4e950","freq_resp","img/orange_2bandit_a.png","70","70","test","","","","4","",""
"null","196869","pSARL_v2","pSARL_v29muufcm9","5cdad620eae6f70019d4e950","fixation","img/fixation.png","null","","test","","","","","",""
"264.5","197138","pSARL_v2","pSARL_v29muufcm9","5cdad620eae6f70019d4e950","freq","img/orange_2bandit_a2.png","70","70","test","1","86","86","4","",""
"null","197694","pSARL_v2","pSARL_v29muufcm9","5cdad620eae6f70019d4e950","freq_resp","img/orange_2bandit_a.png","70","70","test","","","","4","",""
"null","197857","pSARL_v2","pSARL_v29muufcm9","5cdad620eae6f70019d4e950","fixation","img/fixation.png","null","","test","","","","","",""
"261.2000000476837","198122","pSARL_v2","pSARL_v29muufcm9","5cdad620eae6f70019d4e950","freq","img/orange_2bandit_a2.png","70","70","test","1","87","87","4","",""
"null","198677","pSARL_v2","pSARL_v29muufcm9","5cdad620eae6f70019d4e950","freq_resp","img/orange_2bandit_a.png","70","70","test","","","","4","",""
"null","198840","pSARL_v2","pSARL_v29muufcm9","5cdad620eae6f70019d4e950","fixation","img/fixation.png","null","","test","","","","","",""
"300.7999999523163","199145","pSARL_v2","pSARL_v29muufcm9","5cdad620eae6f70019d4e950","freq","img/orange_2bandit_a2.png","70","70","test","1","88","88","4","",""
"null","199655","pSARL_v2","pSARL_v29muufcm9","5cdad620eae6f70019d4e950","freq_resp","img/orange_2bandit_a.png","70","70","test","","","","4","",""
"null","199819","pSARL_v2","pSARL_v29muufcm9","5cdad620eae6f70019d4e950","fixation","img/fixation.png","null","","test","","","","","",""
"293.2999999523163","200116","pSARL_v2","pSARL_v29muufcm9","5cdad620eae6f70019d4e950","freq","img/orange_2bandit_a2.png","70","70","test","1","89","89","4","",""
"null","200640","pSARL_v2","pSARL_v29muufcm9","5cdad620eae6f70019d4e950","freq_resp","img/orange_2bandit_a.png","70","70","test","","","","4","",""
"null","200793","pSARL_v2","pSARL_v29muufcm9","5cdad620eae6f70019d4e950","fixation","img/fixation.png","null","","test","","","","","",""
"249.60000014305115","201047","pSARL_v2","pSARL_v29muufcm9","5cdad620eae6f70019d4e950","freq","img/orange_2bandit_a2.png","70","70","test","1","90","90","4","",""
"null","201608","pSARL_v2","pSARL_v29muufcm9","5cdad620eae6f70019d4e950","freq_resp","img/orange_2bandit_a.png","70","70","test","","","","4","",""
"null","201772","pSARL_v2","pSARL_v29muufcm9","5cdad620eae6f70019d4e950","fixation","img/fixation.png","null","","test","","","","","",""
"280.2999999523163","202056","pSARL_v2","pSARL_v29muufcm9","5cdad620eae6f70019d4e950","freq","img/orange_2bandit_a2.png","70","70","test","1","91","91","4","",""
"null","202587","pSARL_v2","pSARL_v29muufcm9","5cdad620eae6f70019d4e950","freq_resp","img/orange_2bandit_a.png","70","70","test","","","","4","",""
"null","202750","pSARL_v2","pSARL_v29muufcm9","5cdad620eae6f70019d4e950","fixation","img/fixation.png","null","","test","","","","","",""
"445.09999990463257","203198","pSARL_v2","pSARL_v29muufcm9","5cdad620eae6f70019d4e950","reward","img/slot.png","74","","test","","","","","",""
"null","203970","pSARL_v2","pSARL_v29muufcm9","5cdad620eae6f70019d4e950","points","<div class=""verylowPoints""> -3 </div>","null","na","test","","","","4","-3","3"
"349.09999990463257","204323","pSARL_v2","pSARL_v29muufcm9","5cdad620eae6f70019d4e950","freq","img/orange_2bandit_a2.png","70","70","test","1","92","92","5","",""
"null","204787","pSARL_v2","pSARL_v29muufcm9","5cdad620eae6f70019d4e950","freq_resp","img/orange_2bandit_a.png","70","70","test","","","","5","",""
"null","204946","pSARL_v2","pSARL_v29muufcm9","5cdad620eae6f70019d4e950","fixation","img/fixation.png","null","","test","","","","","",""
"287.40000009536743","205238","pSARL_v2","pSARL_v29muufcm9","5cdad620eae6f70019d4e950","freq","img/orange_2bandit_a2.png","70","70","test","1","93","93","5","",""
"null","205763","pSARL_v2","pSARL_v29muufcm9","5cdad620eae6f70019d4e950","freq_resp","img/orange_2bandit_a.png","70","70","test","","","","5","",""
"null","205932","pSARL_v2","pSARL_v29muufcm9","5cdad620eae6f70019d4e950","fixation","img/fixation.png","null","","test","","","","","",""
"290.69999980926514","206227","pSARL_v2","pSARL_v29muufcm9","5cdad620eae6f70019d4e950","freq","img/orange_2bandit_a2.png","70","70","test","1","94","94","5","",""
"null","206758","pSARL_v2","pSARL_v29muufcm9","5cdad620eae6f70019d4e950","freq_resp","img/orange_2bandit_a.png","70","70","test","","","","5","",""
"null","206924","pSARL_v2","pSARL_v29muufcm9","5cdad620eae6f70019d4e950","fixation","img/fixation.png","null","","test","","","","","",""
"365.2999999523163","207294","pSARL_v2","pSARL_v29muufcm9","5cdad620eae6f70019d4e950","infreq","img/green_2bandit_a2.png","68","68","test","1","95","95","5","",""
"null","207743","pSARL_v2","pSARL_v29muufcm9","5cdad620eae6f70019d4e950","infreq_resp","img/green_2bandit_a.png","68","68","test","","","","5","",""
"null","207911","pSARL_v2","pSARL_v29muufcm9","5cdad620eae6f70019d4e950","fixation","img/fixation.png","null","","test","","","","","",""
"303.2999999523163","208218","pSARL_v2","pSARL_v29muufcm9","5cdad620eae6f70019d4e950","freq","img/orange_2bandit_a2.png","70","70","test","1","96","96","5","",""
"null","208729","pSARL_v2","pSARL_v29muufcm9","5cdad620eae6f70019d4e950","freq_resp","img/orange_2bandit_a.png","70","70","test","","","","5","",""
"null","208887","pSARL_v2","pSARL_v29muufcm9","5cdad620eae6f70019d4e950","fixation","img/fixation.png","null","","test","","","","","",""
"352.7999999523163","209244","pSARL_v2","pSARL_v29muufcm9","5cdad620eae6f70019d4e950","infreq","img/green_2bandit_a2.png","68","68","test","1","97","97","5","",""
"null","209706","pSARL_v2","pSARL_v29muufcm9","5cdad620eae6f70019d4e950","infreq_resp","img/green_2bandit_a.png","68","68","test","","","","5","",""
"null","209868","pSARL_v2","pSARL_v29muufcm9","5cdad620eae6f70019d4e950","fixation","img/fixation.png","null","","test","","","","","",""
"294.2999999523163","210167","pSARL_v2","pSARL_v29muufcm9","5cdad620eae6f70019d4e950","freq","img/orange_2bandit_a2.png","70","70","test","1","98","98","5","",""
"null","210689","pSARL_v2","pSARL_v29muufcm9","5cdad620eae6f70019d4e950","freq_resp","img/orange_2bandit_a.png","70","70","test","","","","5","",""
"null","210863","pSARL_v2","pSARL_v29muufcm9","5cdad620eae6f70019d4e950","fixation","img/fixation.png","null","","test","","","","","",""
"205.70000004768372","211072","pSARL_v2","pSARL_v29muufcm9","5cdad620eae6f70019d4e950","freq","img/orange_2bandit_a2.png","70","70","test","1","99","99","5","",""
"null","211675","pSARL_v2","pSARL_v29muufcm9","5cdad620eae6f70019d4e950","freq_resp","img/orange_2bandit_a.png","70","70","test","","","","5","",""
"null","211828","pSARL_v2","pSARL_v29muufcm9","5cdad620eae6f70019d4e950","fixation","img/fixation.png","null","","test","","","","","",""
"200.80000019073486","212032","pSARL_v2","pSARL_v29muufcm9","5cdad620eae6f70019d4e950","freq","img/orange_2bandit_a2.png","70","70","test","1","100","100","5","",""
"null","212652","pSARL_v2","pSARL_v29muufcm9","5cdad620eae6f70019d4e950","freq_resp","img/orange_2bandit_a.png","70","70","test","","","","5","",""
"null","212806","pSARL_v2","pSARL_v29muufcm9","5cdad620eae6f70019d4e950","fixation","img/fixation.png","null","","test","","","","","",""
"238.5","213048","pSARL_v2","pSARL_v29muufcm9","5cdad620eae6f70019d4e950","freq","img/orange_2bandit_a2.png","70","70","test","1","101","101","5","",""
"null","213619","pSARL_v2","pSARL_v29muufcm9","5cdad620eae6f70019d4e950","freq_resp","img/orange_2bandit_a.png","70","70","test","","","","5","",""
"null","213783","pSARL_v2","pSARL_v29muufcm9","5cdad620eae6f70019d4e950","fixation","img/fixation.png","null","","test","","","","","",""
"255.79999995231628","214043","pSARL_v2","pSARL_v29muufcm9","5cdad620eae6f70019d4e950","freq","img/orange_2bandit_a2.png","70","70","test","1","102","102","5","",""
"null","214598","pSARL_v2","pSARL_v29muufcm9","5cdad620eae6f70019d4e950","freq_resp","img/orange_2bandit_a.png","70","70","test","","","","5","",""
"null","214771","pSARL_v2","pSARL_v29muufcm9","5cdad620eae6f70019d4e950","fixation","img/fixation.png","null","","test","","","","","",""
"235.20000004768372","215010","pSARL_v2","pSARL_v29muufcm9","5cdad620eae6f70019d4e950","freq","img/orange_2bandit_a2.png","70","70","test","1","103","103","5","",""
"null","215592","pSARL_v2","pSARL_v29muufcm9","5cdad620eae6f70019d4e950","freq_resp","img/orange_2bandit_a.png","70","70","test","","","","5","",""
"null","215756","pSARL_v2","pSARL_v29muufcm9","5cdad620eae6f70019d4e950","fixation","img/fixation.png","null","","test","","","","","",""
"249.79999995231628","216010","pSARL_v2","pSARL_v29muufcm9","5cdad620eae6f70019d4e950","freq","img/orange_2bandit_a2.png","70","70","test","1","104","104","5","",""
"null","216575","pSARL_v2","pSARL_v29muufcm9","5cdad620eae6f70019d4e950","freq_resp","img/orange_2bandit_a.png","70","70","test","","","","5","",""
"null","216731","pSARL_v2","pSARL_v29muufcm9","5cdad620eae6f70019d4e950","fixation","img/fixation.png","null","","test","","","","","",""
"284.5","217019","pSARL_v2","pSARL_v29muufcm9","5cdad620eae6f70019d4e950","freq","img/orange_2bandit_a2.png","70","70","test","1","105","105","5","",""
"null","217541","pSARL_v2","pSARL_v29muufcm9","5cdad620eae6f70019d4e950","freq_resp","img/orange_2bandit_a.png","70","70","test","","","","5","",""
"null","217709","pSARL_v2","pSARL_v29muufcm9","5cdad620eae6f70019d4e950","fixation","img/fixation.png","null","","test","","","","","",""
"259.60000014305115","217973","pSARL_v2","pSARL_v29muufcm9","5cdad620eae6f70019d4e950","freq","img/orange_2bandit_a2.png","70","70","test","1","106","106","5","",""
"null","218526","pSARL_v2","pSARL_v29muufcm9","5cdad620eae6f70019d4e950","freq_resp","img/orange_2bandit_a.png","70","70","test","","","","5","",""
"null","218690","pSARL_v2","pSARL_v29muufcm9","5cdad620eae6f70019d4e950","fixation","img/fixation.png","null","","test","","","","","",""
"239.90000009536743","218934","pSARL_v2","pSARL_v29muufcm9","5cdad620eae6f70019d4e950","freq","img/orange_2bandit_a2.png","70","70","test","1","107","107","5","",""
"null","219514","pSARL_v2","pSARL_v29muufcm9","5cdad620eae6f70019d4e950","freq_resp","img/orange_2bandit_a.png","70","70","test","","","","5","",""
"null","219684","pSARL_v2","pSARL_v29muufcm9","5cdad620eae6f70019d4e950","fixation","img/fixation.png","null","","test","","","","","",""
"246.09999990463257","219934","pSARL_v2","pSARL_v29muufcm9","5cdad620eae6f70019d4e950","freq","img/orange_2bandit_a2.png","70","70","test","1","108","108","5","",""
"null","220497","pSARL_v2","pSARL_v29muufcm9","5cdad620eae6f70019d4e950","freq_resp","img/orange_2bandit_a.png","70","70","test","","","","5","",""
"null","220660","pSARL_v2","pSARL_v29muufcm9","5cdad620eae6f70019d4e950","fixation","img/fixation.png","null","","test","","","","","",""
"139.09999990463257","220802","pSARL_v2","pSARL_v29muufcm9","5cdad620eae6f70019d4e950","freq","img/orange_2bandit_a2.png","70","70","test","1","109","109","5","",""
"null","221481","pSARL_v2","pSARL_v29muufcm9","5cdad620eae6f70019d4e950","freq_resp","img/orange_2bandit_a.png","70","70","test","","","","5","",""
"null","221645","pSARL_v2","pSARL_v29muufcm9","5cdad620eae6f70019d4e950","fixation","img/fixation.png","null","","test","","","","","",""
"178.80000019073486","221827","pSARL_v2","pSARL_v29muufcm9","5cdad620eae6f70019d4e950","freq","img/orange_2bandit_a2.png","70","70","test","1","110","110","5","",""
"null","222464","pSARL_v2","pSARL_v29muufcm9","5cdad620eae6f70019d4e950","freq_resp","img/orange_2bandit_a.png","70","70","test","","","","5","",""
"null","222628","pSARL_v2","pSARL_v29muufcm9","5cdad620eae6f70019d4e950","fixation","img/fixation.png","null","","test","","","","","",""
"159.5","222791","pSARL_v2","pSARL_v29muufcm9","5cdad620eae6f70019d4e950","freq","img/orange_2bandit_a2.png","70","70","test","1","111","111","5","",""
"null","223451","pSARL_v2","pSARL_v29muufcm9","5cdad620eae6f70019d4e950","freq_resp","img/orange_2bandit_a.png","70","70","test","","","","5","",""
"null","223613","pSARL_v2","pSARL_v29muufcm9","5cdad620eae6f70019d4e950","fixation","img/fixation.png","null","","test","","","","","",""
"79.20000004768372","223696","pSARL_v2","pSARL_v29muufcm9","5cdad620eae6f70019d4e950","infreq","img/green_2bandit_a2.png","70","68","test","0","112","112","5","",""
"null","224438","pSARL_v2","pSARL_v29muufcm9","5cdad620eae6f70019d4e950","infreq_resp","img/green_2bandit_a.png","70","68","test","","","","5","",""
"null","224613","pSARL_v2","pSARL_v29muufcm9","5cdad620eae6f70019d4e950","fixation","img/fixation.png","null","","test","","","","","",""
"296.5","224913","pSARL_v2","pSARL_v29muufcm9","5cdad620eae6f70019d4e950","freq","img/orange_2bandit_a2.png","70","70","test","1","113","113","5","",""
"null","225426","pSARL_v2","pSARL_v29muufcm9","5cdad620eae6f70019d4e950","freq_resp","img/orange_2bandit_a.png","70","70","test","","","","5","",""
"null","225590","pSARL_v2","pSARL_v29muufcm9","5cdad620eae6f70019d4e950","fixation","img/fixation.png","null","","test","","","","","",""
"285.5","225880","pSARL_v2","pSARL_v29muufcm9","5cdad620eae6f70019d4e950","freq","img/orange_2bandit_a2.png","70","70","test","1","114","114","5","",""
"null","226415","pSARL_v2","pSARL_v29muufcm9","5cdad620eae6f70019d4e950","freq_resp","img/orange_2bandit_a.png","70","70","test","","","","5","",""
"null","226574","pSARL_v2","pSARL_v29muufcm9","5cdad620eae6f70019d4e950","fixation","img/fixation.png","null","","test","","","","","",""
"400.80000019073486","226979","pSARL_v2","pSARL_v29muufcm9","5cdad620eae6f70019d4e950","reward","img/slot.png","74","","test","","","","","",""
"null","227736","pSARL_v2","pSARL_v29muufcm9","5cdad620eae6f70019d4e950","points","<div class=""veryhighPoints""> +1 </div>","null","na","test","","","","5","1","4"
"322.30000019073486","228062","pSARL_v2","pSARL_v29muufcm9","5cdad620eae6f70019d4e950","freq","img/orange_2bandit_a2.png","70","70","test","1","115","115","6","",""
"null","228562","pSARL_v2","pSARL_v29muufcm9","5cdad620eae6f70019d4e950","freq_resp","img/orange_2bandit_a.png","70","70","test","","","","6","",""
"null","228717","pSARL_v2","pSARL_v29muufcm9","5cdad620eae6f70019d4e950","fixation","img/fixation.png","null","","test","","","","","",""
"220.79999995231628","228941","pSARL_v2","pSARL_v29muufcm9","5cdad620eae6f70019d4e950","freq","img/orange_2bandit_a2.png","70","70","test","1","116","116","6","",""
"null","229539","pSARL_v2","pSARL_v29muufcm9","5cdad620eae6f70019d4e950","freq_resp","img/orange_2bandit_a.png","70","70","test","","","","6","",""
"null","229703","pSARL_v2","pSARL_v29muufcm9","5cdad620eae6f70019d4e950","fixation","img/fixation.png","null","","test","","","","","",""
"179.10000014305115","229886","pSARL_v2","pSARL_v29muufcm9","5cdad620eae6f70019d4e950","freq","img/orange_2bandit_a2.png","70","70","test","1","117","117","6","",""
"null","230527","pSARL_v2","pSARL_v29muufcm9","5cdad620eae6f70019d4e950","freq_resp","img/orange_2bandit_a.png","70","70","test","","","","6","",""
"null","230701","pSARL_v2","pSARL_v29muufcm9","5cdad620eae6f70019d4e950","fixation","img/fixation.png","null","","test","","","","","",""
"279.7999999523163","230985","pSARL_v2","pSARL_v29muufcm9","5cdad620eae6f70019d4e950","freq","img/orange_2bandit_a2.png","70","70","test","1","118","118","6","",""
"null","231510","pSARL_v2","pSARL_v29muufcm9","5cdad620eae6f70019d4e950","freq_resp","img/orange_2bandit_a.png","70","70","test","","","","6","",""
"null","231678","pSARL_v2","pSARL_v29muufcm9","5cdad620eae6f70019d4e950","fixation","img/fixation.png","null","","test","","","","","",""
"218.59999990463257","231901","pSARL_v2","pSARL_v29muufcm9","5cdad620eae6f70019d4e950","infreq","img/green_2bandit_a2.png","70","68","test","0","119","119","6","",""
"null","232488","pSARL_v2","pSARL_v29muufcm9","5cdad620eae6f70019d4e950","infreq_resp","img/green_2bandit_a.png","70","68","test","","","","6","",""
"null","232643","pSARL_v2","pSARL_v29muufcm9","5cdad620eae6f70019d4e950","fixation","img/fixation.png","null","","test","","","","","",""
"738","233385","pSARL_v2","pSARL_v29muufcm9","5cdad620eae6f70019d4e950","freq","img/orange_2bandit_a2.png","70","70","test","1","120","120","6","",""
"null","233451","pSARL_v2","pSARL_v29muufcm9","5cdad620eae6f70019d4e950","freq_resp","img/orange_2bandit_a.png","70","70","test","","","","6","",""
"null","233619","pSARL_v2","pSARL_v29muufcm9","5cdad620eae6f70019d4e950","fixation","img/fixation.png","null","","test","","","","","",""
"481.89999985694885","234105","pSARL_v2","pSARL_v29muufcm9","5cdad620eae6f70019d4e950","freq","img/orange_2bandit_a2.png","70","70","test","1","121","121","6","",""
"null","234436","pSARL_v2","pSARL_v29muufcm9","5cdad620eae6f70019d4e950","freq_resp","img/orange_2bandit_a.png","70","70","test","","","","6","",""
"null","234610","pSARL_v2","pSARL_v29muufcm9","5cdad620eae6f70019d4e950","fixation","img/fixation.png","null","","test","","","","","",""
"294","234908","pSARL_v2","pSARL_v29muufcm9","5cdad620eae6f70019d4e950","freq","img/orange_2bandit_a2.png","70","70","test","1","122","122","6","",""
"null","235433","pSARL_v2","pSARL_v29muufcm9","5cdad620eae6f70019d4e950","freq_resp","img/orange_2bandit_a.png","70","70","test","","","","6","",""
"null","235593","pSARL_v2","pSARL_v29muufcm9","5cdad620eae6f70019d4e950","fixation","img/fixation.png","null","","test","","","","","",""
"267.09999990463257","235864","pSARL_v2","pSARL_v29muufcm9","5cdad620eae6f70019d4e950","freq","img/orange_2bandit_a2.png","70","70","test","1","123","123","6","",""
"null","236410","pSARL_v2","pSARL_v29muufcm9","5cdad620eae6f70019d4e950","freq_resp","img/orange_2bandit_a.png","70","70","test","","","","6","",""
"null","236579","pSARL_v2","pSARL_v29muufcm9","5cdad620eae6f70019d4e950","fixation","img/fixation.png","null","","test","","","","","",""
"281","236864","pSARL_v2","pSARL_v29muufcm9","5cdad620eae6f70019d4e950","freq","img/orange_2bandit_a2.png","70","70","test","1","124","124","6","",""
"null","237393","pSARL_v2","pSARL_v29muufcm9","5cdad620eae6f70019d4e950","freq_resp","img/orange_2bandit_a.png","70","70","test","","","","6","",""
"null","237562","pSARL_v2","pSARL_v29muufcm9","5cdad620eae6f70019d4e950","fixation","img/fixation.png","null","","test","","","","","",""
"307.2999999523163","237873","pSARL_v2","pSARL_v29muufcm9","5cdad620eae6f70019d4e950","freq","img/orange_2bandit_a2.png","70","70","test","1","125","125","6","",""
"null","238369","pSARL_v2","pSARL_v29muufcm9","5cdad620eae6f70019d4e950","freq_resp","img/orange_2bandit_a.png","70","70","test","","","","6","",""
"null","238534","pSARL_v2","pSARL_v29muufcm9","5cdad620eae6f70019d4e950","fixation","img/fixation.png","null","","test","","","","","",""
"332.60000014305115","238870","pSARL_v2","pSARL_v29muufcm9","5cdad620eae6f70019d4e950","freq","img/orange_2bandit_a2.png","70","70","test","1","126","126","6","",""
"null","239360","pSARL_v2","pSARL_v29muufcm9","5cdad620eae6f70019d4e950","freq_resp","img/orange_2bandit_a.png","70","70","test","","","","6","",""
"null","239522","pSARL_v2","pSARL_v29muufcm9","5cdad620eae6f70019d4e950","fixation","img/fixation.png","null","","test","","","","","",""
"317.5","239844","pSARL_v2","pSARL_v29muufcm9","5cdad620eae6f70019d4e950","freq","img/orange_2bandit_a2.png","70","70","test","1","127","127","6","",""
"null","240336","pSARL_v2","pSARL_v29muufcm9","5cdad620eae6f70019d4e950","freq_resp","img/orange_2bandit_a.png","70","70","test","","","","6","",""
"null","240508","pSARL_v2","pSARL_v29muufcm9","5cdad620eae6f70019d4e950","fixation","img/fixation.png","null","","test","","","","","",""
"332.19999980926514","240845","pSARL_v2","pSARL_v29muufcm9","5cdad620eae6f70019d4e950","freq","img/orange_2bandit_a2.png","70","70","test","1","128","128","6","",""
"null","241327","pSARL_v2","pSARL_v29muufcm9","5cdad620eae6f70019d4e950","freq_resp","img/orange_2bandit_a.png","70","70","test","","","","6","",""
"null","241494","pSARL_v2","pSARL_v29muufcm9","5cdad620eae6f70019d4e950","fixation","img/fixation.png","null","","test","","","","","",""
"328","241825","pSARL_v2","pSARL_v29muufcm9","5cdad620eae6f70019d4e950","freq","img/orange_2bandit_a2.png","70","70","test","1","129","129","6","",""
"null","242304","pSARL_v2","pSARL_v29muufcm9","5cdad620eae6f70019d4e950","freq_resp","img/orange_2bandit_a.png","70","70","test","","","","6","",""
"null","242467","pSARL_v2","pSARL_v29muufcm9","5cdad620eae6f70019d4e950","fixation","img/fixation.png","null","","test","","","","","",""
"334.2000000476837","242806","pSARL_v2","pSARL_v29muufcm9","5cdad620eae6f70019d4e950","freq","img/orange_2bandit_a2.png","70","70","test","1","130","130","6","",""
"null","243286","pSARL_v2","pSARL_v29muufcm9","5cdad620eae6f70019d4e950","freq_resp","img/orange_2bandit_a.png","70","70","test","","","","6","",""
"null","243450","pSARL_v2","pSARL_v29muufcm9","5cdad620eae6f70019d4e950","fixation","img/fixation.png","null","","test","","","","","",""
"419.5","243874","pSARL_v2","pSARL_v29muufcm9","5cdad620eae6f70019d4e950","infreq","img/green_2bandit_a2.png","68","68","test","1","131","131","6","",""
"null","244279","pSARL_v2","pSARL_v29muufcm9","5cdad620eae6f70019d4e950","infreq_resp","img/green_2bandit_a.png","68","68","test","","","","6","",""
"null","244451","pSARL_v2","pSARL_v29muufcm9","5cdad620eae6f70019d4e950","fixation","img/fixation.png","null","","test","","","","","",""
"377.10000014305115","244833","pSARL_v2","pSARL_v29muufcm9","5cdad620eae6f70019d4e950","freq","img/orange_2bandit_a2.png","70","70","test","1","132","132","6","",""
"null","245270","pSARL_v2","pSARL_v29muufcm9","5cdad620eae6f70019d4e950","freq_resp","img/orange_2bandit_a.png","70","70","test","","","","6","",""
"null","245443","pSARL_v2","pSARL_v29muufcm9","5cdad620eae6f70019d4e950","fixation","img/fixation.png","null","","test","","","","","",""
"321.2999999523163","245769","pSARL_v2","pSARL_v29muufcm9","5cdad620eae6f70019d4e950","freq","img/orange_2bandit_a2.png","70","70","test","1","133","133","6","",""
"null","246263","pSARL_v2","pSARL_v29muufcm9","5cdad620eae6f70019d4e950","freq_resp","img/orange_2bandit_a.png","70","70","test","","","","6","",""
"null","246428","pSARL_v2","pSARL_v29muufcm9","5cdad620eae6f70019d4e950","fixation","img/fixation.png","null","","test","","","","","",""
"293.2999999523163","246725","pSARL_v2","pSARL_v29muufcm9","5cdad620eae6f70019d4e950","freq","img/orange_2bandit_a2.png","70","70","test","1","134","134","6","",""
"null","247235","pSARL_v2","pSARL_v29muufcm9","5cdad620eae6f70019d4e950","freq_resp","img/orange_2bandit_a.png","70","70","test","","","","6","",""
"null","247403","pSARL_v2","pSARL_v29muufcm9","5cdad620eae6f70019d4e950","fixation","img/fixation.png","null","","test","","","","","",""
"292.60000014305115","247699","pSARL_v2","pSARL_v29muufcm9","5cdad620eae6f70019d4e950","freq","img/orange_2bandit_a2.png","70","70","test","1","135","135","6","",""
"null","248225","pSARL_v2","pSARL_v29muufcm9","5cdad620eae6f70019d4e950","freq_resp","img/orange_2bandit_a.png","70","70","test","","","","6","",""
"null","248385","pSARL_v2","pSARL_v29muufcm9","5cdad620eae6f70019d4e950","fixation","img/fixation.png","null","","test","","","","","",""
"311.40000009536743","248702","pSARL_v2","pSARL_v29muufcm9","5cdad620eae6f70019d4e950","freq","img/orange_2bandit_a2.png","70","70","test","1","136","136","6","",""
"null","249199","pSARL_v2","pSARL_v29muufcm9","5cdad620eae6f70019d4e950","freq_resp","img/orange_2bandit_a.png","70","70","test","","","","6","",""
"null","249372","pSARL_v2","pSARL_v29muufcm9","5cdad620eae6f70019d4e950","fixation","img/fixation.png","null","","test","","","","","",""
"378.7999999523163","249755","pSARL_v2","pSARL_v29muufcm9","5cdad620eae6f70019d4e950","reward","img/slot.png","74","","test","","","","","",""
"null","250517","pSARL_v2","pSARL_v29muufcm9","5cdad620eae6f70019d4e950","points","<div class=""verylowPoints""> -7 </div>","null","na","test","","","","6","-7","5"
"332.2000000476837","250853","pSARL_v2","pSARL_v29muufcm9","5cdad620eae6f70019d4e950","freq","img/orange_2bandit_a2.png","70","70","test","1","137","137","7","",""
"null","251332","pSARL_v2","pSARL_v29muufcm9","5cdad620eae6f70019d4e950","freq_resp","img/orange_2bandit_a.png","70","70","test","","","","7","",""
"null","251495","pSARL_v2","pSARL_v29muufcm9","5cdad620eae6f70019d4e950","fixation","img/fixation.png","null","","test","","","","","",""
"287.2999999523163","251786","pSARL_v2","pSARL_v29muufcm9","5cdad620eae6f70019d4e950","freq","img/orange_2bandit_a2.png","70","70","test","1","138","138","7","",""
"null","252317","pSARL_v2","pSARL_v29muufcm9","5cdad620eae6f70019d4e950","freq_resp","img/orange_2bandit_a.png","70","70","test","","","","7","",""
"null","252479","pSARL_v2","pSARL_v29muufcm9","5cdad620eae6f70019d4e950","fixation","img/fixation.png","null","","test","","","","","",""
"268.90000009536743","252752","pSARL_v2","pSARL_v29muufcm9","5cdad620eae6f70019d4e950","freq","img/orange_2bandit_a2.png","70","70","test","1","139","139","7","",""
"null","253293","pSARL_v2","pSARL_v29muufcm9","5cdad620eae6f70019d4e950","freq_resp","img/orange_2bandit_a.png","70","70","test","","","","7","",""
"null","253457","pSARL_v2","pSARL_v29muufcm9","5cdad620eae6f70019d4e950","fixation","img/fixation.png","null","","test","","","","","",""
"222.29999995231628","253683","pSARL_v2","pSARL_v29muufcm9","5cdad620eae6f70019d4e950","freq","img/orange_2bandit_a2.png","70","70","test","1","140","140","7","",""
"null","254275","pSARL_v2","pSARL_v29muufcm9","5cdad620eae6f70019d4e950","freq_resp","img/orange_2bandit_a.png","70","70","test","","","","7","",""
"null","254438","pSARL_v2","pSARL_v29muufcm9","5cdad620eae6f70019d4e950","fixation","img/fixation.png","null","","test","","","","","",""
"230.10000014305115","254672","pSARL_v2","pSARL_v29muufcm9","5cdad620eae6f70019d4e950","freq","img/orange_2bandit_a2.png","70","70","test","1","141","141","7","",""
"null","255246","pSARL_v2","pSARL_v29muufcm9","5cdad620eae6f70019d4e950","freq_resp","img/orange_2bandit_a.png","70","70","test","","","","7","",""
"null","255410","pSARL_v2","pSARL_v29muufcm9","5cdad620eae6f70019d4e950","fixation","img/fixation.png","null","","test","","","","","",""
"239.09999990463257","255652","pSARL_v2","pSARL_v29muufcm9","5cdad620eae6f70019d4e950","freq","img/orange_2bandit_a2.png","70","70","test","1","142","142","7","",""
"null","256224","pSARL_v2","pSARL_v29muufcm9","5cdad620eae6f70019d4e950","freq_resp","img/orange_2bandit_a.png","70","70","test","","","","7","",""
"null","256387","pSARL_v2","pSARL_v29muufcm9","5cdad620eae6f70019d4e950","fixation","img/fixation.png","null","","test","","","","","",""
"309.7999999523163","256701","pSARL_v2","pSARL_v29muufcm9","5cdad620eae6f70019d4e950","freq","img/orange_2bandit_a2.png","70","70","test","1","143","143","7","",""
"null","257201","pSARL_v2","pSARL_v29muufcm9","5cdad620eae6f70019d4e950","freq_resp","img/orange_2bandit_a.png","70","70","test","","","","7","",""
"null","257369","pSARL_v2","pSARL_v29muufcm9","5cdad620eae6f70019d4e950","fixation","img/fixation.png","null","","test","","","","","",""
"410.7000000476837","257784","pSARL_v2","pSARL_v29muufcm9","5cdad620eae6f70019d4e950","infreq","img/green_2bandit_a2.png","68","68","test","1","144","144","7","",""
"null","258193","pSARL_v2","pSARL_v29muufcm9","5cdad620eae6f70019d4e950","infreq_resp","img/green_2bandit_a.png","68","68","test","","","","7","",""
"null","258351","pSARL_v2","pSARL_v29muufcm9","5cdad620eae6f70019d4e950","fixation","img/fixation.png","null","","test","","","","","",""
"375.90000009536743","258731","pSARL_v2","pSARL_v29muufcm9","5cdad620eae6f70019d4e950","infreq","img/green_2bandit_a2.png","68","68","test","1","145","145","7","",""
"null","259169","pSARL_v2","pSARL_v29muufcm9","5cdad620eae6f70019d4e950","infreq_resp","img/green_2bandit_a.png","68","68","test","","","","7","",""
"null","259326","pSARL_v2","pSARL_v29muufcm9","5cdad620eae6f70019d4e950","fixation","img/fixation.png","null","","test","","","","","",""
"341.5","259671","pSARL_v2","pSARL_v29muufcm9","5cdad620eae6f70019d4e950","freq","img/orange_2bandit_a2.png","70","70","test","1","146","146","7","",""
"null","260145","pSARL_v2","pSARL_v29muufcm9","5cdad620eae6f70019d4e950","freq_resp","img/orange_2bandit_a.png","70","70","test","","","","7","",""
"null","260299","pSARL_v2","pSARL_v29muufcm9","5cdad620eae6f70019d4e950","fixation","img/fixation.png","null","","test","","","","","",""
"294.7000000476837","260597","pSARL_v2","pSARL_v29muufcm9","5cdad620eae6f70019d4e950","freq","img/orange_2bandit_a2.png","70","70","test","1","147","147","7","",""
"null","261108","pSARL_v2","pSARL_v29muufcm9","5cdad620eae6f70019d4e950","freq_resp","img/orange_2bandit_a.png","70","70","test","","","","7","",""
"null","261272","pSARL_v2","pSARL_v29muufcm9","5cdad620eae6f70019d4e950","fixation","img/fixation.png","null","","test","","","","","",""
"295","261571","pSARL_v2","pSARL_v29muufcm9","5cdad620eae6f70019d4e950","freq","img/orange_2bandit_a2.png","70","70","test","1","148","148","7","",""
"null","262080","pSARL_v2","pSARL_v29muufcm9","5cdad620eae6f70019d4e950","freq_resp","img/orange_2bandit_a.png","70","70","test","","","","7","",""
"null","262243","pSARL_v2","pSARL_v29muufcm9","5cdad620eae6f70019d4e950","fixation","img/fixation.png","null","","test","","","","","",""
"460.2000000476837","262707","pSARL_v2","pSARL_v29muufcm9","5cdad620eae6f70019d4e950","freq","img/orange_2bandit_a2.png","70","70","test","1","149","149","7","",""
"null","263057","pSARL_v2","pSARL_v29muufcm9","5cdad620eae6f70019d4e950","freq_resp","img/orange_2bandit_a.png","70","70","test","","","","7","",""
"null","263212","pSARL_v2","pSARL_v29muufcm9","5cdad620eae6f70019d4e950","fixation","img/fixation.png","null","","test","","","","","",""
"309.39999985694885","263525","pSARL_v2","pSARL_v29muufcm9","5cdad620eae6f70019d4e950","freq","img/orange_2bandit_a2.png","70","70","test","1","150","150","7","",""
"null","264030","pSARL_v2","pSARL_v29muufcm9","5cdad620eae6f70019d4e950","freq_resp","img/orange_2bandit_a.png","70","70","test","","","","7","",""
"null","264194","pSARL_v2","pSARL_v29muufcm9","5cdad620eae6f70019d4e950","fixation","img/fixation.png","null","","test","","","","","",""
"200.79999995231628","264400","pSARL_v2","pSARL_v29muufcm9","5cdad620eae6f70019d4e950","freq","img/orange_2bandit_a2.png","70","70","test","1","151","151","7","",""
"null","265012","pSARL_v2","pSARL_v29muufcm9","5cdad620eae6f70019d4e950","freq_resp","img/orange_2bandit_a.png","70","70","test","","","","7","",""
"null","265185","pSARL_v2","pSARL_v29muufcm9","5cdad620eae6f70019d4e950","fixation","img/fixation.png","null","","test","","","","","",""
"225.70000004768372","265414","pSARL_v2","pSARL_v29muufcm9","5cdad620eae6f70019d4e950","freq","img/orange_2bandit_a2.png","70","70","test","1","152","152","7","",""
"null","266006","pSARL_v2","pSARL_v29muufcm9","5cdad620eae6f70019d4e950","freq_resp","img/orange_2bandit_a.png","70","70","test","","","","7","",""
"null","266168","pSARL_v2","pSARL_v29muufcm9","5cdad620eae6f70019d4e950","fixation","img/fixation.png","null","","test","","","","","",""
"197.5","266370","pSARL_v2","pSARL_v29muufcm9","5cdad620eae6f70019d4e950","freq","img/orange_2bandit_a2.png","70","70","test","1","153","153","7","",""
"null","266994","pSARL_v2","pSARL_v29muufcm9","5cdad620eae6f70019d4e950","freq_resp","img/orange_2bandit_a.png","70","70","test","","","","7","",""
"null","267168","pSARL_v2","pSARL_v29muufcm9","5cdad620eae6f70019d4e950","fixation","img/fixation.png","null","","test","","","","","",""
"197.29999995231628","267369","pSARL_v2","pSARL_v29muufcm9","5cdad620eae6f70019d4e950","freq","img/orange_2bandit_a2.png","70","70","test","1","154","154","7","",""
"null","267992","pSARL_v2","pSARL_v29muufcm9","5cdad620eae6f70019d4e950","freq_resp","img/orange_2bandit_a.png","70","70","test","","","","7","",""
"null","268165","pSARL_v2","pSARL_v29muufcm9","5cdad620eae6f70019d4e950","fixation","img/fixation.png","null","","test","","","","","",""
"271.59999990463257","268440","pSARL_v2","pSARL_v29muufcm9","5cdad620eae6f70019d4e950","freq","img/orange_2bandit_a2.png","70","70","test","1","155","155","7","",""
"null","268979","pSARL_v2","pSARL_v29muufcm9","5cdad620eae6f70019d4e950","freq_resp","img/orange_2bandit_a.png","70","70","test","","","","7","",""
"null","269148","pSARL_v2","pSARL_v29muufcm9","5cdad620eae6f70019d4e950","fixation","img/fixation.png","null","","test","","","","","",""
"269.7000000476837","269421","pSARL_v2","pSARL_v29muufcm9","5cdad620eae6f70019d4e950","freq","img/orange_2bandit_a2.png","70","70","test","1","156","156","7","",""
"null","269968","pSARL_v2","pSARL_v29muufcm9","5cdad620eae6f70019d4e950","freq_resp","img/orange_2bandit_a.png","70","70","test","","","","7","",""
"null","270132","pSARL_v2","pSARL_v29muufcm9","5cdad620eae6f70019d4e950","fixation","img/fixation.png","null","","test","","","","","",""
"228.59999990463257","270364","pSARL_v2","pSARL_v29muufcm9","5cdad620eae6f70019d4e950","freq","img/orange_2bandit_a2.png","70","70","test","1","157","157","7","",""
"null","270955","pSARL_v2","pSARL_v29muufcm9","5cdad620eae6f70019d4e950","freq_resp","img/orange_2bandit_a.png","70","70","test","","","","7","",""
"null","271118","pSARL_v2","pSARL_v29muufcm9","5cdad620eae6f70019d4e950","fixation","img/fixation.png","null","","test","","","","","",""
"231.59999990463257","271354","pSARL_v2","pSARL_v29muufcm9","5cdad620eae6f70019d4e950","freq","img/orange_2bandit_a2.png","70","70","test","1","158","158","7","",""
"null","271937","pSARL_v2","pSARL_v29muufcm9","5cdad620eae6f70019d4e950","freq_resp","img/orange_2bandit_a.png","70","70","test","","","","7","",""
"null","272111","pSARL_v2","pSARL_v29muufcm9","5cdad620eae6f70019d4e950","fixation","img/fixation.png","null","","test","","","","","",""
"156.89999985694885","272272","pSARL_v2","pSARL_v29muufcm9","5cdad620eae6f70019d4e950","freq","img/orange_2bandit_a2.png","70","70","test","1","159","159","7","",""
"null","272924","pSARL_v2","pSARL_v29muufcm9","5cdad620eae6f70019d4e950","freq_resp","img/orange_2bandit_a.png","70","70","test","","","","7","",""
"null","273093","pSARL_v2","pSARL_v29muufcm9","5cdad620eae6f70019d4e950","fixation","img/fixation.png","null","","test","","","","","",""
"170.29999995231628","273267","pSARL_v2","pSARL_v29muufcm9","5cdad620eae6f70019d4e950","freq","img/orange_2bandit_a2.png","70","70","test","1","160","160","7","",""
"null","273902","pSARL_v2","pSARL_v29muufcm9","5cdad620eae6f70019d4e950","freq_resp","img/orange_2bandit_a.png","70","70","test","","","","7","",""
"null","274076","pSARL_v2","pSARL_v29muufcm9","5cdad620eae6f70019d4e950","fixation","img/fixation.png","null","","test","","","","","",""
"555","274635","pSARL_v2","pSARL_v29muufcm9","5cdad620eae6f70019d4e950","reward","img/slot.png","74","","test","","","","","",""
"null","275406","pSARL_v2","pSARL_v29muufcm9","5cdad620eae6f70019d4e950","points","<div class=""verylowPoints""> -6 </div>","null","na","test","","","","7","-6","6"
"420.09999990463257","275829","pSARL_v2","pSARL_v29muufcm9","5cdad620eae6f70019d4e950","freq","img/orange_2bandit_a2.png","70","70","test","1","161","161","8","",""
"null","276221","pSARL_v2","pSARL_v29muufcm9","5cdad620eae6f70019d4e950","freq_resp","img/orange_2bandit_a.png","70","70","test","","","","8","",""
"null","276374","pSARL_v2","pSARL_v29muufcm9","5cdad620eae6f70019d4e950","fixation","img/fixation.png","null","","test","","","","","",""
"277","276655","pSARL_v2","pSARL_v29muufcm9","5cdad620eae6f70019d4e950","freq","img/orange_2bandit_a2.png","70","70","test","1","162","162","8","",""
"null","277201","pSARL_v2","pSARL_v29muufcm9","5cdad620eae6f70019d4e950","freq_resp","img/orange_2bandit_a.png","70","70","test","","","","8","",""
"null","277365","pSARL_v2","pSARL_v29muufcm9","5cdad620eae6f70019d4e950","fixation","img/fixation.png","null","","test","","","","","",""
"227.5","277596","pSARL_v2","pSARL_v29muufcm9","5cdad620eae6f70019d4e950","freq","img/orange_2bandit_a2.png","70","70","test","1","163","163","8","",""
"null","278188","pSARL_v2","pSARL_v29muufcm9","5cdad620eae6f70019d4e950","freq_resp","img/orange_2bandit_a.png","70","70","test","","","","8","",""
"null","278347","pSARL_v2","pSARL_v29muufcm9","5cdad620eae6f70019d4e950","fixation","img/fixation.png","null","","test","","","","","",""
"244.09999990463257","278596","pSARL_v2","pSARL_v29muufcm9","5cdad620eae6f70019d4e950","freq","img/orange_2bandit_a2.png","70","70","test","1","164","164","8","",""
"null","279166","pSARL_v2","pSARL_v29muufcm9","5cdad620eae6f70019d4e950","freq_resp","img/orange_2bandit_a.png","70","70","test","","","","8","",""
"null","279335","pSARL_v2","pSARL_v29muufcm9","5cdad620eae6f70019d4e950","fixation","img/fixation.png","null","","test","","","","","",""
"197.60000014305115","279537","pSARL_v2","pSARL_v29muufcm9","5cdad620eae6f70019d4e950","freq","img/orange_2bandit_a2.png","70","70","test","1","165","165","8","",""
"null","280158","pSARL_v2","pSARL_v29muufcm9","5cdad620eae6f70019d4e950","freq_resp","img/orange_2bandit_a.png","70","70","test","","","","8","",""
"null","280326","pSARL_v2","pSARL_v29muufcm9","5cdad620eae6f70019d4e950","fixation","img/fixation.png","null","","test","","","","","",""
"398","280727","pSARL_v2","pSARL_v29muufcm9","5cdad620eae6f70019d4e950","infreq","img/green_2bandit_a2.png","68","68","test","1","166","166","8","",""
"null","281141","pSARL_v2","pSARL_v29muufcm9","5cdad620eae6f70019d4e950","infreq_resp","img/green_2bandit_a.png","68","68","test","","","","8","",""
"null","281305","pSARL_v2","pSARL_v29muufcm9","5cdad620eae6f70019d4e950","fixation","img/fixation.png","null","","test","","","","","",""
"308.60000014305115","281618","pSARL_v2","pSARL_v29muufcm9","5cdad620eae6f70019d4e950","freq","img/orange_2bandit_a2.png","70","70","test","1","167","167","8","",""
"null","282123","pSARL_v2","pSARL_v29muufcm9","5cdad620eae6f70019d4e950","freq_resp","img/orange_2bandit_a.png","70","70","test","","","","8","",""
"null","282293","pSARL_v2","pSARL_v29muufcm9","5cdad620eae6f70019d4e950","fixation","img/fixation.png","null","","test","","","","","",""
"282.5","282580","pSARL_v2","pSARL_v29muufcm9","5cdad620eae6f70019d4e950","freq","img/orange_2bandit_a2.png","70","70","test","1","168","168","8","",""
"null","283117","pSARL_v2","pSARL_v29muufcm9","5cdad620eae6f70019d4e950","freq_resp","img/orange_2bandit_a.png","70","70","test","","","","8","",""
"null","283278","pSARL_v2","pSARL_v29muufcm9","5cdad620eae6f70019d4e950","fixation","img/fixation.png","null","","test","","","","","",""
"263","283545","pSARL_v2","pSARL_v29muufcm9","5cdad620eae6f70019d4e950","freq","img/orange_2bandit_a2.png","70","70","test","1","169","169","8","",""
"null","284098","pSARL_v2","pSARL_v29muufcm9","5cdad620eae6f70019d4e950","freq_resp","img/orange_2bandit_a.png","70","70","test","","","","8","",""
"null","284271","pSARL_v2","pSARL_v29muufcm9","5cdad620eae6f70019d4e950","fixation","img/fixation.png","null","","test","","","","","",""
"287.60000014305115","284562","pSARL_v2","pSARL_v29muufcm9","5cdad620eae6f70019d4e950","freq","img/orange_2bandit_a2.png","70","70","test","1","170","170","8","",""
"null","285078","pSARL_v2","pSARL_v29muufcm9","5cdad620eae6f70019d4e950","freq_resp","img/orange_2bandit_a.png","70","70","test","","","","8","",""
"null","285240","pSARL_v2","pSARL_v29muufcm9","5cdad620eae6f70019d4e950","fixation","img/fixation.png","null","","test","","","","","",""
"218.19999980926514","285462","pSARL_v2","pSARL_v29muufcm9","5cdad620eae6f70019d4e950","freq","img/orange_2bandit_a2.png","70","70","test","1","171","171","8","",""
"null","286064","pSARL_v2","pSARL_v29muufcm9","5cdad620eae6f70019d4e950","freq_resp","img/orange_2bandit_a.png","70","70","test","","","","8","",""
"null","286233","pSARL_v2","pSARL_v29muufcm9","5cdad620eae6f70019d4e950","fixation","img/fixation.png","null","","test","","","","","",""
"408.10000014305115","286645","pSARL_v2","pSARL_v29muufcm9","5cdad620eae6f70019d4e950","infreq","img/green_2bandit_a2.png","68","68","test","1","172","172","8","",""
"null","287047","pSARL_v2","pSARL_v29muufcm9","5cdad620eae6f70019d4e950","infreq_resp","img/green_2bandit_a.png","68","68","test","","","","8","",""
"null","287201","pSARL_v2","pSARL_v29muufcm9","5cdad620eae6f70019d4e950","fixation","img/fixation.png","null","","test","","","","","",""
"294.7000000476837","287499","pSARL_v2","pSARL_v29muufcm9","5cdad620eae6f70019d4e950","freq","img/orange_2bandit_a2.png","70","70","test","1","173","173","8","",""
"null","288026","pSARL_v2","pSARL_v29muufcm9","5cdad620eae6f70019d4e950","freq_resp","img/orange_2bandit_a.png","70","70","test","","","","8","",""
"null","288200","pSARL_v2","pSARL_v29muufcm9","5cdad620eae6f70019d4e950","fixation","img/fixation.png","null","","test","","","","","",""
"277.7000000476837","288482","pSARL_v2","pSARL_v29muufcm9","5cdad620eae6f70019d4e950","freq","img/orange_2bandit_a2.png","70","70","test","1","174","174","8","",""
"null","289008","pSARL_v2","pSARL_v29muufcm9","5cdad620eae6f70019d4e950","freq_resp","img/orange_2bandit_a.png","70","70","test","","","","8","",""
"null","289173","pSARL_v2","pSARL_v29muufcm9","5cdad620eae6f70019d4e950","fixation","img/fixation.png","null","","test","","","","","",""
"291.2999999523163","289468","pSARL_v2","pSARL_v29muufcm9","5cdad620eae6f70019d4e950","freq","img/orange_2bandit_a2.png","70","70","test","1","175","175","8","",""
"null","289999","pSARL_v2","pSARL_v29muufcm9","5cdad620eae6f70019d4e950","freq_resp","img/orange_2bandit_a.png","70","70","test","","","","8","",""
"null","290161","pSARL_v2","pSARL_v29muufcm9","5cdad620eae6f70019d4e950","fixation","img/fixation.png","null","","test","","","","","",""
"273.5","290438","pSARL_v2","pSARL_v29muufcm9","5cdad620eae6f70019d4e950","freq","img/orange_2bandit_a2.png","70","70","test","1","176","176","8","",""
"null","290969","pSARL_v2","pSARL_v29muufcm9","5cdad620eae6f70019d4e950","freq_resp","img/orange_2bandit_a.png","70","70","test","","","","8","",""
"null","291129","pSARL_v2","pSARL_v29muufcm9","5cdad620eae6f70019d4e950","fixation","img/fixation.png","null","","test","","","","","",""
"239.79999995231628","291373","pSARL_v2","pSARL_v29muufcm9","5cdad620eae6f70019d4e950","freq","img/orange_2bandit_a2.png","70","70","test","1","177","177","8","",""
"null","291948","pSARL_v2","pSARL_v29muufcm9","5cdad620eae6f70019d4e950","freq_resp","img/orange_2bandit_a.png","70","70","test","","","","8","",""
"null","292111","pSARL_v2","pSARL_v29muufcm9","5cdad620eae6f70019d4e950","fixation","img/fixation.png","null","","test","","","","","",""
"224.70000004768372","292339","pSARL_v2","pSARL_v29muufcm9","5cdad620eae6f70019d4e950","freq","img/orange_2bandit_a2.png","70","70","test","1","178","178","8","",""
"null","292925","pSARL_v2","pSARL_v29muufcm9","5cdad620eae6f70019d4e950","freq_resp","img/orange_2bandit_a.png","70","70","test","","","","8","",""
"null","293087","pSARL_v2","pSARL_v29muufcm9","5cdad620eae6f70019d4e950","fixation","img/fixation.png","null","","test","","","","","",""
"219.89999985694885","293311","pSARL_v2","pSARL_v29muufcm9","5cdad620eae6f70019d4e950","freq","img/orange_2bandit_a2.png","70","70","test","1","179","179","8","",""
"null","293914","pSARL_v2","pSARL_v29muufcm9","5cdad620eae6f70019d4e950","freq_resp","img/orange_2bandit_a.png","70","70","test","","","","8","",""
"null","294070","pSARL_v2","pSARL_v29muufcm9","5cdad620eae6f70019d4e950","fixation","img/fixation.png","null","","test","","","","","",""
"308.90000009536743","294383","pSARL_v2","pSARL_v29muufcm9","5cdad620eae6f70019d4e950","freq","img/orange_2bandit_a2.png","70","70","test","1","180","180","8","",""
"null","294879","pSARL_v2","pSARL_v29muufcm9","5cdad620eae6f70019d4e950","freq_resp","img/orange_2bandit_a.png","70","70","test","","","","8","",""
"null","295044","pSARL_v2","pSARL_v29muufcm9","5cdad620eae6f70019d4e950","fixation","img/fixation.png","null","","test","","","","","",""
"551","295598","pSARL_v2","pSARL_v29muufcm9","5cdad620eae6f70019d4e950","freq","img/orange_2bandit_a2.png","70","70","test","1","181","181","8","",""
"null","295868","pSARL_v2","pSARL_v29muufcm9","5cdad620eae6f70019d4e950","freq_resp","img/orange_2bandit_a.png","70","70","test","","","","8","",""
"null","296041","pSARL_v2","pSARL_v29muufcm9","5cdad620eae6f70019d4e950","fixation","img/fixation.png","null","","test","","","","","",""
"267.2000000476837","296312","pSARL_v2","pSARL_v29muufcm9","5cdad620eae6f70019d4e950","freq","img/orange_2bandit_a2.png","70","70","test","1","182","182","8","",""
"null","296866","pSARL_v2","pSARL_v29muufcm9","5cdad620eae6f70019d4e950","freq_resp","img/orange_2bandit_a.png","70","70","test","","","","8","",""
"null","297020","pSARL_v2","pSARL_v29muufcm9","5cdad620eae6f70019d4e950","fixation","img/fixation.png","null","","test","","","","","",""
"346.89999985694885","297371","pSARL_v2","pSARL_v29muufcm9","5cdad620eae6f70019d4e950","freq","img/orange_2bandit_a2.png","70","70","test","1","183","183","8","",""
"null","297835","pSARL_v2","pSARL_v29muufcm9","5cdad620eae6f70019d4e950","freq_resp","img/orange_2bandit_a.png","70","70","test","","","","8","",""
"null","297993","pSARL_v2","pSARL_v29muufcm9","5cdad620eae6f70019d4e950","fixation","img/fixation.png","null","","test","","","","","",""
"515.7999999523163","298513","pSARL_v2","pSARL_v29muufcm9","5cdad620eae6f70019d4e950","reward","img/slot.png","74","","test","","","","","",""
"null","299273","pSARL_v2","pSARL_v29muufcm9","5cdad620eae6f70019d4e950","points","<div class=""verylowPoints""> -4 </div>","null","na","test","","","","8","-4","7"
"370.5","299647","pSARL_v2","pSARL_v29muufcm9","5cdad620eae6f70019d4e950","freq","img/orange_2bandit_a2.png","70","70","test","1","184","184","9","",""
"null","300092","pSARL_v2","pSARL_v29muufcm9","5cdad620eae6f70019d4e950","freq_resp","img/orange_2bandit_a.png","70","70","test","","","","9","",""
"null","300255","pSARL_v2","pSARL_v29muufcm9","5cdad620eae6f70019d4e950","fixation","img/fixation.png","null","","test","","","","","",""
"220.30000019073486","300480","pSARL_v2","pSARL_v29muufcm9","5cdad620eae6f70019d4e950","freq","img/orange_2bandit_a2.png","70","70","test","1","185","185","9","",""
"null","301079","pSARL_v2","pSARL_v29muufcm9","5cdad620eae6f70019d4e950","freq_resp","img/orange_2bandit_a.png","70","70","test","","","","9","",""
"null","301243","pSARL_v2","pSARL_v29muufcm9","5cdad620eae6f70019d4e950","fixation","img/fixation.png","null","","test","","","","","",""
"110.79999995231628","301358","pSARL_v2","pSARL_v29muufcm9","5cdad620eae6f70019d4e950","freq","img/orange_2bandit_a2.png","70","70","test","1","186","186","9","",""
"null","302058","pSARL_v2","pSARL_v29muufcm9","5cdad620eae6f70019d4e950","freq_resp","img/orange_2bandit_a.png","70","70","test","","","","9","",""
"null","302217","pSARL_v2","pSARL_v29muufcm9","5cdad620eae6f70019d4e950","fixation","img/fixation.png","null","","test","","","","","",""
"271.59999990463257","302492","pSARL_v2","pSARL_v29muufcm9","5cdad620eae6f70019d4e950","freq","img/orange_2bandit_a2.png","70","70","test","1","187","187","9","",""
"null","303035","pSARL_v2","pSARL_v29muufcm9","5cdad620eae6f70019d4e950","freq_resp","img/orange_2bandit_a.png","70","70","test","","","","9","",""
"null","303199","pSARL_v2","pSARL_v29muufcm9","5cdad620eae6f70019d4e950","fixation","img/fixation.png","null","","test","","","","","",""
"265.5","303468","pSARL_v2","pSARL_v29muufcm9","5cdad620eae6f70019d4e950","freq","img/orange_2bandit_a2.png","70","70","test","1","188","188","9","",""
"null","304023","pSARL_v2","pSARL_v29muufcm9","5cdad620eae6f70019d4e950","freq_resp","img/orange_2bandit_a.png","70","70","test","","","","9","",""
"null","304188","pSARL_v2","pSARL_v29muufcm9","5cdad620eae6f70019d4e950","fixation","img/fixation.png","null","","test","","","","","",""
"264.60000014305115","304456","pSARL_v2","pSARL_v29muufcm9","5cdad620eae6f70019d4e950","freq","img/orange_2bandit_a2.png","70","70","test","1","189","189","9","",""
"null","304997","pSARL_v2","pSARL_v29muufcm9","5cdad620eae6f70019d4e950","freq_resp","img/orange_2bandit_a.png","70","70","test","","","","9","",""
"null","305162","pSARL_v2","pSARL_v29muufcm9","5cdad620eae6f70019d4e950","fixation","img/fixation.png","null","","test","","","","","",""
"282.7999999523163","305449","pSARL_v2","pSARL_v29muufcm9","5cdad620eae6f70019d4e950","freq","img/orange_2bandit_a2.png","70","70","test","1","190","190","9","",""
"null","305981","pSARL_v2","pSARL_v29muufcm9","5cdad620eae6f70019d4e950","freq_resp","img/orange_2bandit_a.png","70","70","test","","","","9","",""
"null","306145","pSARL_v2","pSARL_v29muufcm9","5cdad620eae6f70019d4e950","fixation","img/fixation.png","null","","test","","","","","",""
"539.2999999523163","306688","pSARL_v2","pSARL_v29muufcm9","5cdad620eae6f70019d4e950","infreq","img/green_2bandit_a2.png","68","68","test","1","191","191","9","",""
"null","306963","pSARL_v2","pSARL_v29muufcm9","5cdad620eae6f70019d4e950","infreq_resp","img/green_2bandit_a.png","68","68","test","","","","9","",""
"null","307126","pSARL_v2","pSARL_v29muufcm9","5cdad620eae6f70019d4e950","fixation","img/fixation.png","null","","test","","","","","",""
"340.69999980926514","307472","pSARL_v2","pSARL_v29muufcm9","5cdad620eae6f70019d4e950","freq","img/orange_2bandit_a2.png","70","70","test","1","192","192","9","",""
"null","307943","pSARL_v2","pSARL_v29muufcm9","5cdad620eae6f70019d4e950","freq_resp","img/orange_2bandit_a.png","70","70","test","","","","9","",""
"null","308106","pSARL_v2","pSARL_v29muufcm9","5cdad620eae6f70019d4e950","fixation","img/fixation.png","null","","test","","","","","",""
"281.39999985694885","308391","pSARL_v2","pSARL_v29muufcm9","5cdad620eae6f70019d4e950","freq","img/orange_2bandit_a2.png","70","70","test","1","193","193","9","",""
"null","308919","pSARL_v2","pSARL_v29muufcm9","5cdad620eae6f70019d4e950","freq_resp","img/orange_2bandit_a.png","70","70","test","","","","9","",""
"null","309082","pSARL_v2","pSARL_v29muufcm9","5cdad620eae6f70019d4e950","fixation","img/fixation.png","null","","test","","","","","",""
"403.10000014305115","309491","pSARL_v2","pSARL_v29muufcm9","5cdad620eae6f70019d4e950","infreq","img/green_2bandit_a2.png","68","68","test","1","194","194","9","",""
"null","309907","pSARL_v2","pSARL_v29muufcm9","5cdad620eae6f70019d4e950","infreq_resp","img/green_2bandit_a.png","68","68","test","","","","9","",""
"null","310077","pSARL_v2","pSARL_v29muufcm9","5cdad620eae6f70019d4e950","fixation","img/fixation.png","null","","test","","","","","",""
"497.7999999523163","310579","pSARL_v2","pSARL_v29muufcm9","5cdad620eae6f70019d4e950","infreq","img/green_2bandit_a2.png","68","68","test","1","195","195","9","",""
"null","310886","pSARL_v2","pSARL_v29muufcm9","5cdad620eae6f70019d4e950","infreq_resp","img/green_2bandit_a.png","68","68","test","","","","9","",""
"null","311050","pSARL_v2","pSARL_v29muufcm9","5cdad620eae6f70019d4e950","fixation","img/fixation.png","null","","test","","","","","",""
"345.5","311400","pSARL_v2","pSARL_v29muufcm9","5cdad620eae6f70019d4e950","freq","img/orange_2bandit_a2.png","70","70","test","1","196","196","9","",""
"null","311870","pSARL_v2","pSARL_v29muufcm9","5cdad620eae6f70019d4e950","freq_resp","img/orange_2bandit_a.png","70","70","test","","","","9","",""
"null","312034","pSARL_v2","pSARL_v29muufcm9","5cdad620eae6f70019d4e950","fixation","img/fixation.png","null","","test","","","","","",""
"267.90000009536743","312306","pSARL_v2","pSARL_v29muufcm9","5cdad620eae6f70019d4e950","freq","img/orange_2bandit_a2.png","70","70","test","1","197","197","9","",""
"null","312859","pSARL_v2","pSARL_v29muufcm9","5cdad620eae6f70019d4e950","freq_resp","img/orange_2bandit_a.png","70","70","test","","","","9","",""
"null","313013","pSARL_v2","pSARL_v29muufcm9","5cdad620eae6f70019d4e950","fixation","img/fixation.png","null","","test","","","","","",""
"233.40000009536743","313251","pSARL_v2","pSARL_v29muufcm9","5cdad620eae6f70019d4e950","freq","img/orange_2bandit_a2.png","70","70","test","1","198","198","9","",""
"null","313839","pSARL_v2","pSARL_v29muufcm9","5cdad620eae6f70019d4e950","freq_resp","img/orange_2bandit_a.png","70","70","test","","","","9","",""
"null","314003","pSARL_v2","pSARL_v29muufcm9","5cdad620eae6f70019d4e950","fixation","img/fixation.png","null","","test","","","","","",""
"176.19999980926514","314183","pSARL_v2","pSARL_v29muufcm9","5cdad620eae6f70019d4e950","freq","img/orange_2bandit_a2.png","70","70","test","1","199","199","9","",""
"null","314822","pSARL_v2","pSARL_v29muufcm9","5cdad620eae6f70019d4e950","freq_resp","img/orange_2bandit_a.png","70","70","test","","","","9","",""
"null","314985","pSARL_v2","pSARL_v29muufcm9","5cdad620eae6f70019d4e950","fixation","img/fixation.png","null","","test","","","","","",""
"134.40000009536743","315123","pSARL_v2","pSARL_v29muufcm9","5cdad620eae6f70019d4e950","freq","img/orange_2bandit_a2.png","70","70","test","1","200","200","9","",""
"null","315810","pSARL_v2","pSARL_v29muufcm9","5cdad620eae6f70019d4e950","freq_resp","img/orange_2bandit_a.png","70","70","test","","","","9","",""
"null","315985","pSARL_v2","pSARL_v29muufcm9","5cdad620eae6f70019d4e950","fixation","img/fixation.png","null","","test","","","","","",""
"139.5","316128","pSARL_v2","pSARL_v29muufcm9","5cdad620eae6f70019d4e950","freq","img/orange_2bandit_a2.png","70","70","test","1","201","201","9","",""
"null","316807","pSARL_v2","pSARL_v29muufcm9","5cdad620eae6f70019d4e950","freq_resp","img/orange_2bandit_a.png","70","70","test","","","","9","",""
"null","316967","pSARL_v2","pSARL_v29muufcm9","5cdad620eae6f70019d4e950","fixation","img/fixation.png","null","","test","","","","","",""
"144.89999985694885","317115","pSARL_v2","pSARL_v29muufcm9","5cdad620eae6f70019d4e950","freq","img/orange_2bandit_a2.png","70","70","test","1","202","202","9","",""
"null","317777","pSARL_v2","pSARL_v29muufcm9","5cdad620eae6f70019d4e950","freq_resp","img/orange_2bandit_a.png","70","70","test","","","","9","",""
"null","317950","pSARL_v2","pSARL_v29muufcm9","5cdad620eae6f70019d4e950","fixation","img/fixation.png","null","","test","","","","","",""
"293.7999999523163","318248","pSARL_v2","pSARL_v29muufcm9","5cdad620eae6f70019d4e950","freq","img/orange_2bandit_a2.png","70","70","test","1","203","203","9","",""
"null","318770","pSARL_v2","pSARL_v29muufcm9","5cdad620eae6f70019d4e950","freq_resp","img/orange_2bandit_a.png","70","70","test","","","","9","",""
"null","318937","pSARL_v2","pSARL_v29muufcm9","5cdad620eae6f70019d4e950","fixation","img/fixation.png","null","","test","","","","","",""
"262.30000019073486","319203","pSARL_v2","pSARL_v29muufcm9","5cdad620eae6f70019d4e950","freq","img/orange_2bandit_a2.png","70","70","test","1","204","204","9","",""
"null","319756","pSARL_v2","pSARL_v29muufcm9","5cdad620eae6f70019d4e950","freq_resp","img/orange_2bandit_a.png","70","70","test","","","","9","",""
"null","319914","pSARL_v2","pSARL_v29muufcm9","5cdad620eae6f70019d4e950","fixation","img/fixation.png","null","","test","","","","","",""
"253.60000014305115","320171","pSARL_v2","pSARL_v29muufcm9","5cdad620eae6f70019d4e950","freq","img/orange_2bandit_a2.png","70","70","test","1","205","205","9","",""
"null","320729","pSARL_v2","pSARL_v29muufcm9","5cdad620eae6f70019d4e950","freq_resp","img/orange_2bandit_a.png","70","70","test","","","","9","",""
"null","320893","pSARL_v2","pSARL_v29muufcm9","5cdad620eae6f70019d4e950","fixation","img/fixation.png","null","","test","","","","","",""
