"rt","time_elapsed","expId","subject","prolificID","trialType","stimulus","key_press","corrresp","phase","corr","trialNum","attentionRunNum","blockNum","points","rlNum"
"1791.2000000029802","1798","pSARL_v2","pSARL_v2azuv9vh0","5d74001d391b6600175f433b","","","","","","","","","","",""
"","3817","pSARL_v2","pSARL_v2azuv9vh0","5d74001d391b6600175f433b","fullscreen","","","","","","","","","",""
"30047.699999999255","33873","pSARL_v2","pSARL_v2azuv9vh0","5d74001d391b6600175f433b","","","","","","","","","","",""
"null","34687","pSARL_v2","pSARL_v2azuv9vh0","5d74001d391b6600175f433b","freqPrac","img/green_2bandit_b2.png","null","70","prac","0","","","","",""
"null","35702","pSARL_v2","pSARL_v2azuv9vh0","5d74001d391b6600175f433b","feedback","img/tooSlow.png","null","na","prac","","","","","",""
"null","35863","pSARL_v2","pSARL_v2azuv9vh0","5d74001d391b6600175f433b","fixation","img/fixation.png","null","","prac","","","","","",""
"458.1000000014901","36330","pSARL_v2","pSARL_v2azuv9vh0","5d74001d391b6600175f433b","infreqPrac","img/orange_2bandit_b2.png","68","68","prac","1","","","","",""
"458.1000000014901","36686","pSARL_v2","pSARL_v2azuv9vh0","5d74001d391b6600175f433b","infreqPrac_resp","img/orange_2bandit_b.png","68","68","prac","","","","","",""
"null","36851","pSARL_v2","pSARL_v2azuv9vh0","5d74001d391b6600175f433b","fixation","img/fixation.png","null","","prac","","","","","",""
"457","37317","pSARL_v2","pSARL_v2azuv9vh0","5d74001d391b6600175f433b","freqPrac","img/green_2bandit_b2.png","70","70","prac","1","","","","",""
"457","37670","pSARL_v2","pSARL_v2azuv9vh0","5d74001d391b6600175f433b","freqPrac_resp","img/green_2bandit_b.png","70","70","prac","","","","","",""
"null","37825","pSARL_v2","pSARL_v2azuv9vh0","5d74001d391b6600175f433b","fixation","img/fixation.png","null","","prac","","","","","",""
"499","38334","pSARL_v2","pSARL_v2azuv9vh0","5d74001d391b6600175f433b","infreqPrac","img/orange_2bandit_b2.png","68","68","prac","1","","","","",""
"499","38647","pSARL_v2","pSARL_v2azuv9vh0","5d74001d391b6600175f433b","infreqPrac_resp","img/orange_2bandit_b.png","68","68","prac","","","","","",""
"null","38812","pSARL_v2","pSARL_v2azuv9vh0","5d74001d391b6600175f433b","fixation","img/fixation.png","null","","prac","","","","","",""
"330.1000000014901","39150","pSARL_v2","pSARL_v2azuv9vh0","5d74001d391b6600175f433b","infreqPrac","img/orange_2bandit_b2.png","68","68","prac","1","","","","",""
"330.1000000014901","39633","pSARL_v2","pSARL_v2azuv9vh0","5d74001d391b6600175f433b","infreqPrac_resp","img/orange_2bandit_b.png","68","68","prac","","","","","",""
"null","39797","pSARL_v2","pSARL_v2azuv9vh0","5d74001d391b6600175f433b","fixation","img/fixation.png","null","","prac","","","","","",""
"330","40135","pSARL_v2","pSARL_v2azuv9vh0","5d74001d391b6600175f433b","infreqPrac","img/orange_2bandit_b2.png","68","68","prac","1","","","","",""
"330","40622","pSARL_v2","pSARL_v2azuv9vh0","5d74001d391b6600175f433b","infreqPrac_resp","img/orange_2bandit_b.png","68","68","prac","","","","","",""
"null","40791","pSARL_v2","pSARL_v2azuv9vh0","5d74001d391b6600175f433b","fixation","img/fixation.png","null","","prac","","","","","",""
"393.5","41186","pSARL_v2","pSARL_v2azuv9vh0","5d74001d391b6600175f433b","freqPrac","img/green_2bandit_b2.png","68","70","prac","0","","","","",""
"393.5","41605","pSARL_v2","pSARL_v2azuv9vh0","5d74001d391b6600175f433b","freqPrac_resp","img/green_2bandit_b.png","68","70","prac","","","","","",""
"null","42613","pSARL_v2","pSARL_v2azuv9vh0","5d74001d391b6600175f433b","feedback","img/wrongKey.png","null","na","prac","","","","","",""
"null","42776","pSARL_v2","pSARL_v2azuv9vh0","5d74001d391b6600175f433b","fixation","img/fixation.png","null","","prac","","","","","",""
"510.1000000014901","43296","pSARL_v2","pSARL_v2azuv9vh0","5d74001d391b6600175f433b","infreqPrac","img/orange_2bandit_b2.png","68","68","prac","1","","","","",""
"510.1000000014901","43600","pSARL_v2","pSARL_v2azuv9vh0","5d74001d391b6600175f433b","infreqPrac_resp","img/orange_2bandit_b.png","68","68","prac","","","","","",""
"null","43765","pSARL_v2","pSARL_v2azuv9vh0","5d74001d391b6600175f433b","fixation","img/fixation.png","null","","prac","","","","","",""
"664.9000000022352","44439","pSARL_v2","pSARL_v2azuv9vh0","5d74001d391b6600175f433b","freqPrac","img/green_2bandit_b2.png","70","70","prac","1","","","","",""
"664.9000000022352","44583","pSARL_v2","pSARL_v2azuv9vh0","5d74001d391b6600175f433b","freqPrac_resp","img/green_2bandit_b.png","70","70","prac","","","","","",""
"null","44752","pSARL_v2","pSARL_v2azuv9vh0","5d74001d391b6600175f433b","fixation","img/fixation.png","null","","prac","","","","","",""
"503.80000000074506","45270","pSARL_v2","pSARL_v2azuv9vh0","5d74001d391b6600175f433b","freqPrac","img/green_2bandit_b2.png","70","70","prac","1","","","","",""
"503.80000000074506","45579","pSARL_v2","pSARL_v2azuv9vh0","5d74001d391b6600175f433b","freqPrac_resp","img/green_2bandit_b.png","70","70","prac","","","","","",""
"null","45743","pSARL_v2","pSARL_v2azuv9vh0","5d74001d391b6600175f433b","fixation","img/fixation.png","null","","prac","","","","","",""
"13213.89999999851","58966","pSARL_v2","pSARL_v2azuv9vh0","5d74001d391b6600175f433b","","","","","prac","","","","","",""
"1210.6000000014901","60186","pSARL_v2","pSARL_v2azuv9vh0","5d74001d391b6600175f433b","rewardPractice","img/slot.png","74","","prac","","","","","",""
"null","60953","pSARL_v2","pSARL_v2azuv9vh0","5d74001d391b6600175f433b","feedback","<div class=""veryhighPoints""> +15 </div>","null","na","prac","","","","","",""
"null","61125","pSARL_v2","pSARL_v2azuv9vh0","5d74001d391b6600175f433b","fixation","img/fixation.png","null","","prac","","","","","",""
"5786.199999999255","66922","pSARL_v2","pSARL_v2azuv9vh0","5d74001d391b6600175f433b","","","","","prac","","","","","",""
"693.5","67626","pSARL_v2","pSARL_v2azuv9vh0","5d74001d391b6600175f433b","freq","img/green_2bandit_b2.png","70","70","test","1","1","1","1","",""
"null","67747","pSARL_v2","pSARL_v2azuv9vh0","5d74001d391b6600175f433b","freq_resp","img/green_2bandit_b.png","70","70","test","","","","1","",""
"null","67910","pSARL_v2","pSARL_v2azuv9vh0","5d74001d391b6600175f433b","fixation","img/fixation.png","null","","test","","","","","",""
"422.9000000022352","68344","pSARL_v2","pSARL_v2azuv9vh0","5d74001d391b6600175f433b","freq","img/green_2bandit_b2.png","70","70","test","1","2","2","1","",""
"null","68727","pSARL_v2","pSARL_v2azuv9vh0","5d74001d391b6600175f433b","freq_resp","img/green_2bandit_b.png","70","70","test","","","","1","",""
"null","68892","pSARL_v2","pSARL_v2azuv9vh0","5d74001d391b6600175f433b","fixation","img/fixation.png","null","","test","","","","","",""
"354","69253","pSARL_v2","pSARL_v2azuv9vh0","5d74001d391b6600175f433b","freq","img/green_2bandit_b2.png","70","70","test","1","3","3","1","",""
"null","69712","pSARL_v2","pSARL_v2azuv9vh0","5d74001d391b6600175f433b","freq_resp","img/green_2bandit_b.png","70","70","test","","","","1","",""
"null","69877","pSARL_v2","pSARL_v2azuv9vh0","5d74001d391b6600175f433b","fixation","img/fixation.png","null","","test","","","","","",""
"355.69999999925494","70240","pSARL_v2","pSARL_v2azuv9vh0","5d74001d391b6600175f433b","freq","img/green_2bandit_b2.png","70","70","test","1","4","4","1","",""
"null","70698","pSARL_v2","pSARL_v2azuv9vh0","5d74001d391b6600175f433b","freq_resp","img/green_2bandit_b.png","70","70","test","","","","1","",""
"null","70861","pSARL_v2","pSARL_v2azuv9vh0","5d74001d391b6600175f433b","fixation","img/fixation.png","null","","test","","","","","",""
"294.80000000074506","71163","pSARL_v2","pSARL_v2azuv9vh0","5d74001d391b6600175f433b","freq","img/green_2bandit_b2.png","70","70","test","1","5","5","1","",""
"null","71680","pSARL_v2","pSARL_v2azuv9vh0","5d74001d391b6600175f433b","freq_resp","img/green_2bandit_b.png","70","70","test","","","","1","",""
"null","71848","pSARL_v2","pSARL_v2azuv9vh0","5d74001d391b6600175f433b","fixation","img/fixation.png","null","","test","","","","","",""
"405.0999999977648","72262","pSARL_v2","pSARL_v2azuv9vh0","5d74001d391b6600175f433b","freq","img/green_2bandit_b2.png","70","70","test","1","6","6","1","",""
"null","72674","pSARL_v2","pSARL_v2azuv9vh0","5d74001d391b6600175f433b","freq_resp","img/green_2bandit_b.png","70","70","test","","","","1","",""
"null","72837","pSARL_v2","pSARL_v2azuv9vh0","5d74001d391b6600175f433b","fixation","img/fixation.png","null","","test","","","","","",""
"357.3999999985099","73202","pSARL_v2","pSARL_v2azuv9vh0","5d74001d391b6600175f433b","freq","img/green_2bandit_b2.png","70","70","test","1","7","7","1","",""
"null","73657","pSARL_v2","pSARL_v2azuv9vh0","5d74001d391b6600175f433b","freq_resp","img/green_2bandit_b.png","70","70","test","","","","1","",""
"null","73814","pSARL_v2","pSARL_v2azuv9vh0","5d74001d391b6600175f433b","fixation","img/fixation.png","null","","test","","","","","",""
"408.30000000074506","74232","pSARL_v2","pSARL_v2azuv9vh0","5d74001d391b6600175f433b","infreq","img/orange_2bandit_b2.png","68","68","test","1","8","8","1","",""
"null","74637","pSARL_v2","pSARL_v2azuv9vh0","5d74001d391b6600175f433b","infreq_resp","img/orange_2bandit_b.png","68","68","test","","","","1","",""
"null","74804","pSARL_v2","pSARL_v2azuv9vh0","5d74001d391b6600175f433b","fixation","img/fixation.png","null","","test","","","","","",""
"453.19999999925494","75272","pSARL_v2","pSARL_v2azuv9vh0","5d74001d391b6600175f433b","freq","img/green_2bandit_b2.png","70","70","test","1","9","9","1","",""
"null","75631","pSARL_v2","pSARL_v2azuv9vh0","5d74001d391b6600175f433b","freq_resp","img/green_2bandit_b.png","70","70","test","","","","1","",""
"null","75796","pSARL_v2","pSARL_v2azuv9vh0","5d74001d391b6600175f433b","fixation","img/fixation.png","null","","test","","","","","",""
"349.30000000074506","76154","pSARL_v2","pSARL_v2azuv9vh0","5d74001d391b6600175f433b","freq","img/green_2bandit_b2.png","70","70","test","1","10","10","1","",""
"null","76615","pSARL_v2","pSARL_v2azuv9vh0","5d74001d391b6600175f433b","freq_resp","img/green_2bandit_b.png","70","70","test","","","","1","",""
"null","76784","pSARL_v2","pSARL_v2azuv9vh0","5d74001d391b6600175f433b","fixation","img/fixation.png","null","","test","","","","","",""
"304.80000000074506","77098","pSARL_v2","pSARL_v2azuv9vh0","5d74001d391b6600175f433b","freq","img/green_2bandit_b2.png","70","70","test","1","11","11","1","",""
"null","77603","pSARL_v2","pSARL_v2azuv9vh0","5d74001d391b6600175f433b","freq_resp","img/green_2bandit_b.png","70","70","test","","","","1","",""
"null","77765","pSARL_v2","pSARL_v2azuv9vh0","5d74001d391b6600175f433b","fixation","img/fixation.png","null","","test","","","","","",""
"310.3999999985099","78084","pSARL_v2","pSARL_v2azuv9vh0","5d74001d391b6600175f433b","freq","img/green_2bandit_b2.png","70","70","test","1","12","12","1","",""
"null","78584","pSARL_v2","pSARL_v2azuv9vh0","5d74001d391b6600175f433b","freq_resp","img/green_2bandit_b.png","70","70","test","","","","1","",""
"null","78746","pSARL_v2","pSARL_v2azuv9vh0","5d74001d391b6600175f433b","fixation","img/fixation.png","null","","test","","","","","",""
"331.3999999985099","79083","pSARL_v2","pSARL_v2azuv9vh0","5d74001d391b6600175f433b","freq","img/green_2bandit_b2.png","70","70","test","1","13","13","1","",""
"null","79566","pSARL_v2","pSARL_v2azuv9vh0","5d74001d391b6600175f433b","freq_resp","img/green_2bandit_b.png","70","70","test","","","","1","",""
"null","79733","pSARL_v2","pSARL_v2azuv9vh0","5d74001d391b6600175f433b","fixation","img/fixation.png","null","","test","","","","","",""
"400.5999999977648","80146","pSARL_v2","pSARL_v2azuv9vh0","5d74001d391b6600175f433b","freq","img/green_2bandit_b2.png","70","70","test","1","14","14","1","",""
"null","80560","pSARL_v2","pSARL_v2azuv9vh0","5d74001d391b6600175f433b","freq_resp","img/green_2bandit_b.png","70","70","test","","","","1","",""
"null","80724","pSARL_v2","pSARL_v2azuv9vh0","5d74001d391b6600175f433b","fixation","img/fixation.png","null","","test","","","","","",""
"306.19999999925494","81042","pSARL_v2","pSARL_v2azuv9vh0","5d74001d391b6600175f433b","freq","img/green_2bandit_b2.png","70","70","test","1","15","15","1","",""
"null","81548","pSARL_v2","pSARL_v2azuv9vh0","5d74001d391b6600175f433b","freq_resp","img/green_2bandit_b.png","70","70","test","","","","1","",""
"null","81714","pSARL_v2","pSARL_v2azuv9vh0","5d74001d391b6600175f433b","fixation","img/fixation.png","null","","test","","","","","",""
"370.30000000074506","82094","pSARL_v2","pSARL_v2azuv9vh0","5d74001d391b6600175f433b","freq","img/green_2bandit_b2.png","70","70","test","1","16","16","1","",""
"null","82538","pSARL_v2","pSARL_v2azuv9vh0","5d74001d391b6600175f433b","freq_resp","img/green_2bandit_b.png","70","70","test","","","","1","",""
"null","82704","pSARL_v2","pSARL_v2azuv9vh0","5d74001d391b6600175f433b","fixation","img/fixation.png","null","","test","","","","","",""
"319.6000000014901","83032","pSARL_v2","pSARL_v2azuv9vh0","5d74001d391b6600175f433b","freq","img/green_2bandit_b2.png","70","70","test","1","17","17","1","",""
"null","83524","pSARL_v2","pSARL_v2azuv9vh0","5d74001d391b6600175f433b","freq_resp","img/green_2bandit_b.png","70","70","test","","","","1","",""
"null","83684","pSARL_v2","pSARL_v2azuv9vh0","5d74001d391b6600175f433b","fixation","img/fixation.png","null","","test","","","","","",""
"319.19999999925494","84013","pSARL_v2","pSARL_v2azuv9vh0","5d74001d391b6600175f433b","freq","img/green_2bandit_b2.png","70","70","test","1","18","18","1","",""
"null","84508","pSARL_v2","pSARL_v2azuv9vh0","5d74001d391b6600175f433b","freq_resp","img/green_2bandit_b.png","70","70","test","","","","1","",""
"null","84673","pSARL_v2","pSARL_v2azuv9vh0","5d74001d391b6600175f433b","fixation","img/fixation.png","null","","test","","","","","",""
"307.69999999925494","84990","pSARL_v2","pSARL_v2azuv9vh0","5d74001d391b6600175f433b","freq","img/green_2bandit_b2.png","70","70","test","1","19","19","1","",""
"null","85493","pSARL_v2","pSARL_v2azuv9vh0","5d74001d391b6600175f433b","freq_resp","img/green_2bandit_b.png","70","70","test","","","","1","",""
"null","85660","pSARL_v2","pSARL_v2azuv9vh0","5d74001d391b6600175f433b","fixation","img/fixation.png","null","","test","","","","","",""
"332.69999999925494","86002","pSARL_v2","pSARL_v2azuv9vh0","5d74001d391b6600175f433b","freq","img/green_2bandit_b2.png","70","70","test","1","20","20","1","",""
"null","86481","pSARL_v2","pSARL_v2azuv9vh0","5d74001d391b6600175f433b","freq_resp","img/green_2bandit_b.png","70","70","test","","","","1","",""
"null","86648","pSARL_v2","pSARL_v2azuv9vh0","5d74001d391b6600175f433b","fixation","img/fixation.png","null","","test","","","","","",""
"335.5","86991","pSARL_v2","pSARL_v2azuv9vh0","5d74001d391b6600175f433b","freq","img/green_2bandit_b2.png","70","70","test","1","21","21","1","",""
"null","87472","pSARL_v2","pSARL_v2azuv9vh0","5d74001d391b6600175f433b","freq_resp","img/green_2bandit_b.png","70","70","test","","","","1","",""
"null","87635","pSARL_v2","pSARL_v2azuv9vh0","5d74001d391b6600175f433b","fixation","img/fixation.png","null","","test","","","","","",""
"351.19999999925494","87994","pSARL_v2","pSARL_v2azuv9vh0","5d74001d391b6600175f433b","freq","img/green_2bandit_b2.png","70","70","test","1","22","22","1","",""
"null","88455","pSARL_v2","pSARL_v2azuv9vh0","5d74001d391b6600175f433b","freq_resp","img/green_2bandit_b.png","70","70","test","","","","1","",""
"null","88615","pSARL_v2","pSARL_v2azuv9vh0","5d74001d391b6600175f433b","fixation","img/fixation.png","null","","test","","","","","",""
"477.30000000074506","89103","pSARL_v2","pSARL_v2azuv9vh0","5d74001d391b6600175f433b","infreq","img/orange_2bandit_b2.png","68","68","test","1","23","23","1","",""
"null","89441","pSARL_v2","pSARL_v2azuv9vh0","5d74001d391b6600175f433b","infreq_resp","img/orange_2bandit_b.png","68","68","test","","","","1","",""
"null","89607","pSARL_v2","pSARL_v2azuv9vh0","5d74001d391b6600175f433b","fixation","img/fixation.png","null","","test","","","","","",""
"551.5999999977648","90169","pSARL_v2","pSARL_v2azuv9vh0","5d74001d391b6600175f433b","freq","img/green_2bandit_b2.png","70","70","test","1","24","24","1","",""
"null","90436","pSARL_v2","pSARL_v2azuv9vh0","5d74001d391b6600175f433b","freq_resp","img/green_2bandit_b.png","70","70","test","","","","1","",""
"null","90596","pSARL_v2","pSARL_v2azuv9vh0","5d74001d391b6600175f433b","fixation","img/fixation.png","null","","test","","","","","",""
"486.3999999985099","91086","pSARL_v2","pSARL_v2azuv9vh0","5d74001d391b6600175f433b","freq","img/green_2bandit_b2.png","70","70","test","1","25","25","1","",""
"null","91407","pSARL_v2","pSARL_v2azuv9vh0","5d74001d391b6600175f433b","freq_resp","img/green_2bandit_b.png","70","70","test","","","","1","",""
"null","91565","pSARL_v2","pSARL_v2azuv9vh0","5d74001d391b6600175f433b","fixation","img/fixation.png","null","","test","","","","","",""
"340.4000000022352","91915","pSARL_v2","pSARL_v2azuv9vh0","5d74001d391b6600175f433b","freq","img/green_2bandit_b2.png","70","70","test","1","26","26","1","",""
"null","92387","pSARL_v2","pSARL_v2azuv9vh0","5d74001d391b6600175f433b","freq_resp","img/green_2bandit_b.png","70","70","test","","","","1","",""
"null","92554","pSARL_v2","pSARL_v2azuv9vh0","5d74001d391b6600175f433b","fixation","img/fixation.png","null","","test","","","","","",""
"423.80000000074506","92988","pSARL_v2","pSARL_v2azuv9vh0","5d74001d391b6600175f433b","reward","img/slot.png","74","","test","","","","","",""
"null","93754","pSARL_v2","pSARL_v2azuv9vh0","5d74001d391b6600175f433b","points","<div class=""verylowPoints""> -6 </div>","null","na","test","","","","1","-6","0"
"642.0999999977648","94405","pSARL_v2","pSARL_v2azuv9vh0","5d74001d391b6600175f433b","freq","img/green_2bandit_b2.png","70","70","test","1","27","27","2","",""
"null","94576","pSARL_v2","pSARL_v2azuv9vh0","5d74001d391b6600175f433b","freq_resp","img/green_2bandit_b.png","70","70","test","","","","2","",""
"null","94744","pSARL_v2","pSARL_v2azuv9vh0","5d74001d391b6600175f433b","fixation","img/fixation.png","null","","test","","","","","",""
"433.3999999985099","95187","pSARL_v2","pSARL_v2azuv9vh0","5d74001d391b6600175f433b","freq","img/green_2bandit_b2.png","70","70","test","1","28","28","2","",""
"null","95566","pSARL_v2","pSARL_v2azuv9vh0","5d74001d391b6600175f433b","freq_resp","img/green_2bandit_b.png","70","70","test","","","","2","",""
"null","95732","pSARL_v2","pSARL_v2azuv9vh0","5d74001d391b6600175f433b","fixation","img/fixation.png","null","","test","","","","","",""
"365.8999999985099","96110","pSARL_v2","pSARL_v2azuv9vh0","5d74001d391b6600175f433b","freq","img/green_2bandit_b2.png","70","70","test","1","29","29","2","",""
"null","96553","pSARL_v2","pSARL_v2azuv9vh0","5d74001d391b6600175f433b","freq_resp","img/green_2bandit_b.png","70","70","test","","","","2","",""
"null","96715","pSARL_v2","pSARL_v2azuv9vh0","5d74001d391b6600175f433b","fixation","img/fixation.png","null","","test","","","","","",""
"398.19999999925494","97122","pSARL_v2","pSARL_v2azuv9vh0","5d74001d391b6600175f433b","infreq","img/orange_2bandit_b2.png","68","68","test","1","30","30","2","",""
"null","97538","pSARL_v2","pSARL_v2azuv9vh0","5d74001d391b6600175f433b","infreq_resp","img/orange_2bandit_b.png","68","68","test","","","","2","",""
"null","97704","pSARL_v2","pSARL_v2azuv9vh0","5d74001d391b6600175f433b","fixation","img/fixation.png","null","","test","","","","","",""
"462.6000000014901","98175","pSARL_v2","pSARL_v2azuv9vh0","5d74001d391b6600175f433b","freq","img/green_2bandit_b2.png","70","70","test","1","31","31","2","",""
"null","98522","pSARL_v2","pSARL_v2azuv9vh0","5d74001d391b6600175f433b","freq_resp","img/green_2bandit_b.png","70","70","test","","","","2","",""
"null","98683","pSARL_v2","pSARL_v2azuv9vh0","5d74001d391b6600175f433b","fixation","img/fixation.png","null","","test","","","","","",""
"532.0999999977648","99223","pSARL_v2","pSARL_v2azuv9vh0","5d74001d391b6600175f433b","freq","img/green_2bandit_b2.png","70","70","test","1","32","32","2","",""
"null","99502","pSARL_v2","pSARL_v2azuv9vh0","5d74001d391b6600175f433b","freq_resp","img/green_2bandit_b.png","70","70","test","","","","2","",""
"null","99663","pSARL_v2","pSARL_v2azuv9vh0","5d74001d391b6600175f433b","fixation","img/fixation.png","null","","test","","","","","",""
"670.6999999992549","100342","pSARL_v2","pSARL_v2azuv9vh0","5d74001d391b6600175f433b","freq","img/green_2bandit_b2.png","70","70","test","1","33","33","2","",""
"null","100492","pSARL_v2","pSARL_v2azuv9vh0","5d74001d391b6600175f433b","freq_resp","img/green_2bandit_b.png","70","70","test","","","","2","",""
"null","100657","pSARL_v2","pSARL_v2azuv9vh0","5d74001d391b6600175f433b","fixation","img/fixation.png","null","","test","","","","","",""
"532.5","101192","pSARL_v2","pSARL_v2azuv9vh0","5d74001d391b6600175f433b","infreq","img/orange_2bandit_b2.png","68","68","test","1","34","34","2","",""
"null","101470","pSARL_v2","pSARL_v2azuv9vh0","5d74001d391b6600175f433b","infreq_resp","img/orange_2bandit_b.png","68","68","test","","","","2","",""
"null","101635","pSARL_v2","pSARL_v2azuv9vh0","5d74001d391b6600175f433b","fixation","img/fixation.png","null","","test","","","","","",""
"470.19999999925494","102113","pSARL_v2","pSARL_v2azuv9vh0","5d74001d391b6600175f433b","freq","img/green_2bandit_b2.png","70","70","test","1","35","35","2","",""
"null","102453","pSARL_v2","pSARL_v2azuv9vh0","5d74001d391b6600175f433b","freq_resp","img/green_2bandit_b.png","70","70","test","","","","2","",""
"null","102617","pSARL_v2","pSARL_v2azuv9vh0","5d74001d391b6600175f433b","fixation","img/fixation.png","null","","test","","","","","",""
"481.30000000074506","103102","pSARL_v2","pSARL_v2azuv9vh0","5d74001d391b6600175f433b","freq","img/green_2bandit_b2.png","70","70","test","1","36","36","2","",""
"null","103428","pSARL_v2","pSARL_v2azuv9vh0","5d74001d391b6600175f433b","freq_resp","img/green_2bandit_b.png","70","70","test","","","","2","",""
"null","103587","pSARL_v2","pSARL_v2azuv9vh0","5d74001d391b6600175f433b","fixation","img/fixation.png","null","","test","","","","","",""
"427.80000000074506","104024","pSARL_v2","pSARL_v2azuv9vh0","5d74001d391b6600175f433b","freq","img/green_2bandit_b2.png","70","70","test","1","37","37","2","",""
"null","104410","pSARL_v2","pSARL_v2azuv9vh0","5d74001d391b6600175f433b","freq_resp","img/green_2bandit_b.png","70","70","test","","","","2","",""
"null","104571","pSARL_v2","pSARL_v2azuv9vh0","5d74001d391b6600175f433b","fixation","img/fixation.png","null","","test","","","","","",""
"316.9000000022352","104897","pSARL_v2","pSARL_v2azuv9vh0","5d74001d391b6600175f433b","freq","img/green_2bandit_b2.png","70","70","test","1","38","38","2","",""
"null","105393","pSARL_v2","pSARL_v2azuv9vh0","5d74001d391b6600175f433b","freq_resp","img/green_2bandit_b.png","70","70","test","","","","2","",""
"null","105556","pSARL_v2","pSARL_v2azuv9vh0","5d74001d391b6600175f433b","fixation","img/fixation.png","null","","test","","","","","",""
"303.3999999985099","105869","pSARL_v2","pSARL_v2azuv9vh0","5d74001d391b6600175f433b","freq","img/green_2bandit_b2.png","70","70","test","1","39","39","2","",""
"null","106379","pSARL_v2","pSARL_v2azuv9vh0","5d74001d391b6600175f433b","freq_resp","img/green_2bandit_b.png","70","70","test","","","","2","",""
"null","106538","pSARL_v2","pSARL_v2azuv9vh0","5d74001d391b6600175f433b","fixation","img/fixation.png","null","","test","","","","","",""
"387.5","106934","pSARL_v2","pSARL_v2azuv9vh0","5d74001d391b6600175f433b","freq","img/green_2bandit_b2.png","70","70","test","1","40","40","2","",""
"null","107360","pSARL_v2","pSARL_v2azuv9vh0","5d74001d391b6600175f433b","freq_resp","img/green_2bandit_b.png","70","70","test","","","","2","",""
"null","107528","pSARL_v2","pSARL_v2azuv9vh0","5d74001d391b6600175f433b","fixation","img/fixation.png","null","","test","","","","","",""
"393.8999999985099","107931","pSARL_v2","pSARL_v2azuv9vh0","5d74001d391b6600175f433b","freq","img/green_2bandit_b2.png","70","70","test","1","41","41","2","",""
"null","108354","pSARL_v2","pSARL_v2azuv9vh0","5d74001d391b6600175f433b","freq_resp","img/green_2bandit_b.png","70","70","test","","","","2","",""
"null","108518","pSARL_v2","pSARL_v2azuv9vh0","5d74001d391b6600175f433b","fixation","img/fixation.png","null","","test","","","","","",""
"354.80000000074506","108881","pSARL_v2","pSARL_v2azuv9vh0","5d74001d391b6600175f433b","freq","img/green_2bandit_b2.png","70","70","test","1","42","42","2","",""
"null","109339","pSARL_v2","pSARL_v2azuv9vh0","5d74001d391b6600175f433b","freq_resp","img/green_2bandit_b.png","70","70","test","","","","2","",""
"null","109504","pSARL_v2","pSARL_v2azuv9vh0","5d74001d391b6600175f433b","fixation","img/fixation.png","null","","test","","","","","",""
"403.1000000014901","109916","pSARL_v2","pSARL_v2azuv9vh0","5d74001d391b6600175f433b","freq","img/green_2bandit_b2.png","70","70","test","1","43","43","2","",""
"null","110333","pSARL_v2","pSARL_v2azuv9vh0","5d74001d391b6600175f433b","freq_resp","img/green_2bandit_b.png","70","70","test","","","","2","",""
"null","110500","pSARL_v2","pSARL_v2azuv9vh0","5d74001d391b6600175f433b","fixation","img/fixation.png","null","","test","","","","","",""
"346.80000000074506","110857","pSARL_v2","pSARL_v2azuv9vh0","5d74001d391b6600175f433b","freq","img/green_2bandit_b2.png","70","70","test","1","44","44","2","",""
"null","111328","pSARL_v2","pSARL_v2azuv9vh0","5d74001d391b6600175f433b","freq_resp","img/green_2bandit_b.png","70","70","test","","","","2","",""
"null","111494","pSARL_v2","pSARL_v2azuv9vh0","5d74001d391b6600175f433b","fixation","img/fixation.png","null","","test","","","","","",""
"349","111853","pSARL_v2","pSARL_v2azuv9vh0","5d74001d391b6600175f433b","freq","img/green_2bandit_b2.png","70","70","test","1","45","45","2","",""
"null","112323","pSARL_v2","pSARL_v2azuv9vh0","5d74001d391b6600175f433b","freq_resp","img/green_2bandit_b.png","70","70","test","","","","2","",""
"null","112491","pSARL_v2","pSARL_v2azuv9vh0","5d74001d391b6600175f433b","fixation","img/fixation.png","null","","test","","","","","",""
"350.0999999977648","112851","pSARL_v2","pSARL_v2azuv9vh0","5d74001d391b6600175f433b","freq","img/green_2bandit_b2.png","70","70","test","1","46","46","2","",""
"null","113309","pSARL_v2","pSARL_v2azuv9vh0","5d74001d391b6600175f433b","freq_resp","img/green_2bandit_b.png","70","70","test","","","","2","",""
"null","113467","pSARL_v2","pSARL_v2azuv9vh0","5d74001d391b6600175f433b","fixation","img/fixation.png","null","","test","","","","","",""
"338","113813","pSARL_v2","pSARL_v2azuv9vh0","5d74001d391b6600175f433b","freq","img/green_2bandit_b2.png","70","70","test","1","47","47","2","",""
"null","114290","pSARL_v2","pSARL_v2azuv9vh0","5d74001d391b6600175f433b","freq_resp","img/green_2bandit_b.png","70","70","test","","","","2","",""
"null","114461","pSARL_v2","pSARL_v2azuv9vh0","5d74001d391b6600175f433b","fixation","img/fixation.png","null","","test","","","","","",""
"298.9000000022352","114769","pSARL_v2","pSARL_v2azuv9vh0","5d74001d391b6600175f433b","freq","img/green_2bandit_b2.png","70","70","test","1","48","48","2","",""
"null","115281","pSARL_v2","pSARL_v2azuv9vh0","5d74001d391b6600175f433b","freq_resp","img/green_2bandit_b.png","70","70","test","","","","2","",""
"null","115444","pSARL_v2","pSARL_v2azuv9vh0","5d74001d391b6600175f433b","fixation","img/fixation.png","null","","test","","","","","",""
"562.8000000007451","116016","pSARL_v2","pSARL_v2azuv9vh0","5d74001d391b6600175f433b","reward","img/slot.png","74","","test","","","","","",""
"null","116781","pSARL_v2","pSARL_v2azuv9vh0","5d74001d391b6600175f433b","points","<div class=""verylowPoints""> -11 </div>","null","na","test","","","","2","-11","1"
"736.1000000014901","117526","pSARL_v2","pSARL_v2azuv9vh0","5d74001d391b6600175f433b","freq","img/green_2bandit_b2.png","70","70","test","1","49","49","3","",""
"null","117600","pSARL_v2","pSARL_v2azuv9vh0","5d74001d391b6600175f433b","freq_resp","img/green_2bandit_b.png","70","70","test","","","","3","",""
"null","117763","pSARL_v2","pSARL_v2azuv9vh0","5d74001d391b6600175f433b","fixation","img/fixation.png","null","","test","","","","","",""
"489.30000000074506","118261","pSARL_v2","pSARL_v2azuv9vh0","5d74001d391b6600175f433b","freq","img/green_2bandit_b2.png","70","70","test","1","50","50","3","",""
"null","118581","pSARL_v2","pSARL_v2azuv9vh0","5d74001d391b6600175f433b","freq_resp","img/green_2bandit_b.png","70","70","test","","","","3","",""
"null","118748","pSARL_v2","pSARL_v2azuv9vh0","5d74001d391b6600175f433b","fixation","img/fixation.png","null","","test","","","","","",""
"327.30000000074506","119085","pSARL_v2","pSARL_v2azuv9vh0","5d74001d391b6600175f433b","freq","img/green_2bandit_b2.png","70","70","test","1","51","51","3","",""
"null","119572","pSARL_v2","pSARL_v2azuv9vh0","5d74001d391b6600175f433b","freq_resp","img/green_2bandit_b.png","70","70","test","","","","3","",""
"null","119740","pSARL_v2","pSARL_v2azuv9vh0","5d74001d391b6600175f433b","fixation","img/fixation.png","null","","test","","","","","",""
"303.3999999985099","120052","pSARL_v2","pSARL_v2azuv9vh0","5d74001d391b6600175f433b","freq","img/green_2bandit_b2.png","70","70","test","1","52","52","3","",""
"null","120559","pSARL_v2","pSARL_v2azuv9vh0","5d74001d391b6600175f433b","freq_resp","img/green_2bandit_b.png","70","70","test","","","","3","",""
"null","120724","pSARL_v2","pSARL_v2azuv9vh0","5d74001d391b6600175f433b","fixation","img/fixation.png","null","","test","","","","","",""
"267","121001","pSARL_v2","pSARL_v2azuv9vh0","5d74001d391b6600175f433b","freq","img/green_2bandit_b2.png","70","70","test","1","53","53","3","",""
"null","121549","pSARL_v2","pSARL_v2azuv9vh0","5d74001d391b6600175f433b","freq_resp","img/green_2bandit_b.png","70","70","test","","","","3","",""
"null","121714","pSARL_v2","pSARL_v2azuv9vh0","5d74001d391b6600175f433b","fixation","img/fixation.png","null","","test","","","","","",""
"496.5","122219","pSARL_v2","pSARL_v2azuv9vh0","5d74001d391b6600175f433b","freq","img/green_2bandit_b2.png","70","70","test","1","54","54","3","",""
"null","122539","pSARL_v2","pSARL_v2azuv9vh0","5d74001d391b6600175f433b","freq_resp","img/green_2bandit_b.png","70","70","test","","","","3","",""
"null","122706","pSARL_v2","pSARL_v2azuv9vh0","5d74001d391b6600175f433b","fixation","img/fixation.png","null","","test","","","","","",""
"581.3000000007451","123297","pSARL_v2","pSARL_v2azuv9vh0","5d74001d391b6600175f433b","infreq","img/orange_2bandit_b2.png","68","68","test","1","55","55","3","",""
"null","123533","pSARL_v2","pSARL_v2azuv9vh0","5d74001d391b6600175f433b","infreq_resp","img/orange_2bandit_b.png","68","68","test","","","","3","",""
"null","123696","pSARL_v2","pSARL_v2azuv9vh0","5d74001d391b6600175f433b","fixation","img/fixation.png","null","","test","","","","","",""
"675.8000000007451","124380","pSARL_v2","pSARL_v2azuv9vh0","5d74001d391b6600175f433b","freq","img/green_2bandit_b2.png","70","70","test","1","56","56","3","",""
"null","124518","pSARL_v2","pSARL_v2azuv9vh0","5d74001d391b6600175f433b","freq_resp","img/green_2bandit_b.png","70","70","test","","","","3","",""
"null","124682","pSARL_v2","pSARL_v2azuv9vh0","5d74001d391b6600175f433b","fixation","img/fixation.png","null","","test","","","","","",""
"635.3000000007451","125324","pSARL_v2","pSARL_v2azuv9vh0","5d74001d391b6600175f433b","freq","img/green_2bandit_b2.png","70","70","test","1","57","57","3","",""
"null","125499","pSARL_v2","pSARL_v2azuv9vh0","5d74001d391b6600175f433b","freq_resp","img/green_2bandit_b.png","70","70","test","","","","3","",""
"null","125658","pSARL_v2","pSARL_v2azuv9vh0","5d74001d391b6600175f433b","fixation","img/fixation.png","null","","test","","","","","",""
"488.80000000074506","126156","pSARL_v2","pSARL_v2azuv9vh0","5d74001d391b6600175f433b","freq","img/green_2bandit_b2.png","70","70","test","1","58","58","3","",""
"null","126478","pSARL_v2","pSARL_v2azuv9vh0","5d74001d391b6600175f433b","freq_resp","img/green_2bandit_b.png","70","70","test","","","","3","",""
"null","126637","pSARL_v2","pSARL_v2azuv9vh0","5d74001d391b6600175f433b","fixation","img/fixation.png","null","","test","","","","","",""
"580.1999999992549","127226","pSARL_v2","pSARL_v2azuv9vh0","5d74001d391b6600175f433b","infreq","img/orange_2bandit_b2.png","68","68","test","1","59","59","3","",""
"null","127460","pSARL_v2","pSARL_v2azuv9vh0","5d74001d391b6600175f433b","infreq_resp","img/orange_2bandit_b.png","68","68","test","","","","3","",""
"null","127625","pSARL_v2","pSARL_v2azuv9vh0","5d74001d391b6600175f433b","fixation","img/fixation.png","null","","test","","","","","",""
"562.3000000007451","128196","pSARL_v2","pSARL_v2azuv9vh0","5d74001d391b6600175f433b","freq","img/green_2bandit_b2.png","70","70","test","1","60","60","3","",""
"null","128448","pSARL_v2","pSARL_v2azuv9vh0","5d74001d391b6600175f433b","freq_resp","img/green_2bandit_b.png","70","70","test","","","","3","",""
"null","128612","pSARL_v2","pSARL_v2azuv9vh0","5d74001d391b6600175f433b","fixation","img/fixation.png","null","","test","","","","","",""
"555.1999999992549","129177","pSARL_v2","pSARL_v2azuv9vh0","5d74001d391b6600175f433b","freq","img/green_2bandit_b2.png","70","70","test","1","61","61","3","",""
"null","129438","pSARL_v2","pSARL_v2azuv9vh0","5d74001d391b6600175f433b","freq_resp","img/green_2bandit_b.png","70","70","test","","","","3","",""
"null","129603","pSARL_v2","pSARL_v2azuv9vh0","5d74001d391b6600175f433b","fixation","img/fixation.png","null","","test","","","","","",""
"463.80000000074506","130075","pSARL_v2","pSARL_v2azuv9vh0","5d74001d391b6600175f433b","freq","img/green_2bandit_b2.png","70","70","test","1","62","62","3","",""
"null","130428","pSARL_v2","pSARL_v2azuv9vh0","5d74001d391b6600175f433b","freq_resp","img/green_2bandit_b.png","70","70","test","","","","3","",""
"null","130583","pSARL_v2","pSARL_v2azuv9vh0","5d74001d391b6600175f433b","fixation","img/fixation.png","null","","test","","","","","",""
"341.70000000298023","130929","pSARL_v2","pSARL_v2azuv9vh0","5d74001d391b6600175f433b","freq","img/green_2bandit_b2.png","70","70","test","1","63","63","3","",""
"null","131400","pSARL_v2","pSARL_v2azuv9vh0","5d74001d391b6600175f433b","freq_resp","img/green_2bandit_b.png","70","70","test","","","","3","",""
"null","131565","pSARL_v2","pSARL_v2azuv9vh0","5d74001d391b6600175f433b","fixation","img/fixation.png","null","","test","","","","","",""
"320.8999999985099","131894","pSARL_v2","pSARL_v2azuv9vh0","5d74001d391b6600175f433b","freq","img/green_2bandit_b2.png","70","70","test","1","64","64","3","",""
"null","132386","pSARL_v2","pSARL_v2azuv9vh0","5d74001d391b6600175f433b","freq_resp","img/green_2bandit_b.png","70","70","test","","","","3","",""
"null","132552","pSARL_v2","pSARL_v2azuv9vh0","5d74001d391b6600175f433b","fixation","img/fixation.png","null","","test","","","","","",""
"285.0999999977648","132845","pSARL_v2","pSARL_v2azuv9vh0","5d74001d391b6600175f433b","freq","img/green_2bandit_b2.png","70","70","test","1","65","65","3","",""
"null","133377","pSARL_v2","pSARL_v2azuv9vh0","5d74001d391b6600175f433b","freq_resp","img/green_2bandit_b.png","70","70","test","","","","3","",""
"null","133542","pSARL_v2","pSARL_v2azuv9vh0","5d74001d391b6600175f433b","fixation","img/fixation.png","null","","test","","","","","",""
"293.3999999985099","133845","pSARL_v2","pSARL_v2azuv9vh0","5d74001d391b6600175f433b","freq","img/green_2bandit_b2.png","70","70","test","1","66","66","3","",""
"null","134364","pSARL_v2","pSARL_v2azuv9vh0","5d74001d391b6600175f433b","freq_resp","img/green_2bandit_b.png","70","70","test","","","","3","",""
"null","134528","pSARL_v2","pSARL_v2azuv9vh0","5d74001d391b6600175f433b","fixation","img/fixation.png","null","","test","","","","","",""
"279.80000000074506","134818","pSARL_v2","pSARL_v2azuv9vh0","5d74001d391b6600175f433b","freq","img/green_2bandit_b2.png","70","70","test","1","67","67","3","",""
"null","135354","pSARL_v2","pSARL_v2azuv9vh0","5d74001d391b6600175f433b","freq_resp","img/green_2bandit_b.png","70","70","test","","","","3","",""
"null","135517","pSARL_v2","pSARL_v2azuv9vh0","5d74001d391b6600175f433b","fixation","img/fixation.png","null","","test","","","","","",""
"285.30000000074506","135815","pSARL_v2","pSARL_v2azuv9vh0","5d74001d391b6600175f433b","freq","img/green_2bandit_b2.png","70","70","test","1","68","68","3","",""
"null","136341","pSARL_v2","pSARL_v2azuv9vh0","5d74001d391b6600175f433b","freq_resp","img/green_2bandit_b.png","70","70","test","","","","3","",""
"null","136507","pSARL_v2","pSARL_v2azuv9vh0","5d74001d391b6600175f433b","fixation","img/fixation.png","null","","test","","","","","",""
"261.6000000014901","136777","pSARL_v2","pSARL_v2azuv9vh0","5d74001d391b6600175f433b","freq","img/green_2bandit_b2.png","70","70","test","1","69","69","3","",""
"null","137327","pSARL_v2","pSARL_v2azuv9vh0","5d74001d391b6600175f433b","freq_resp","img/green_2bandit_b.png","70","70","test","","","","3","",""
"null","137493","pSARL_v2","pSARL_v2azuv9vh0","5d74001d391b6600175f433b","fixation","img/fixation.png","null","","test","","","","","",""
"190.39999999850988","137693","pSARL_v2","pSARL_v2azuv9vh0","5d74001d391b6600175f433b","freq","img/green_2bandit_b2.png","70","70","test","1","70","70","3","",""
"null","138309","pSARL_v2","pSARL_v2azuv9vh0","5d74001d391b6600175f433b","freq_resp","img/green_2bandit_b.png","70","70","test","","","","3","",""
"null","138466","pSARL_v2","pSARL_v2azuv9vh0","5d74001d391b6600175f433b","fixation","img/fixation.png","null","","test","","","","","",""
"366.0999999977648","138835","pSARL_v2","pSARL_v2azuv9vh0","5d74001d391b6600175f433b","freq","img/green_2bandit_b2.png","70","70","test","1","71","71","3","",""
"null","139274","pSARL_v2","pSARL_v2azuv9vh0","5d74001d391b6600175f433b","freq_resp","img/green_2bandit_b.png","70","70","test","","","","3","",""
"null","139437","pSARL_v2","pSARL_v2azuv9vh0","5d74001d391b6600175f433b","fixation","img/fixation.png","null","","test","","","","","",""
"566.1999999992549","140012","pSARL_v2","pSARL_v2azuv9vh0","5d74001d391b6600175f433b","reward","img/slot.png","74","","test","","","","","",""
"null","140776","pSARL_v2","pSARL_v2azuv9vh0","5d74001d391b6600175f433b","points","<div class=""verylowPoints""> -7 </div>","null","na","test","","","","3","-7","2"
"349.30000000074506","141130","pSARL_v2","pSARL_v2azuv9vh0","5d74001d391b6600175f433b","freq","img/green_2bandit_b2.png","70","70","test","1","72","72","4","",""
"null","141591","pSARL_v2","pSARL_v2azuv9vh0","5d74001d391b6600175f433b","freq_resp","img/green_2bandit_b.png","70","70","test","","","","4","",""
"null","141755","pSARL_v2","pSARL_v2azuv9vh0","5d74001d391b6600175f433b","fixation","img/fixation.png","null","","test","","","","","",""
"281.9000000022352","142044","pSARL_v2","pSARL_v2azuv9vh0","5d74001d391b6600175f433b","freq","img/green_2bandit_b2.png","70","70","test","1","73","73","4","",""
"null","142574","pSARL_v2","pSARL_v2azuv9vh0","5d74001d391b6600175f433b","freq_resp","img/green_2bandit_b.png","70","70","test","","","","4","",""
"null","142739","pSARL_v2","pSARL_v2azuv9vh0","5d74001d391b6600175f433b","fixation","img/fixation.png","null","","test","","","","","",""
"292.80000000074506","143039","pSARL_v2","pSARL_v2azuv9vh0","5d74001d391b6600175f433b","freq","img/green_2bandit_b2.png","70","70","test","1","74","74","4","",""
"null","143557","pSARL_v2","pSARL_v2azuv9vh0","5d74001d391b6600175f433b","freq_resp","img/green_2bandit_b.png","70","70","test","","","","4","",""
"null","143718","pSARL_v2","pSARL_v2azuv9vh0","5d74001d391b6600175f433b","fixation","img/fixation.png","null","","test","","","","","",""
"265.9000000022352","143995","pSARL_v2","pSARL_v2azuv9vh0","5d74001d391b6600175f433b","freq","img/green_2bandit_b2.png","70","70","test","1","75","75","4","",""
"null","144545","pSARL_v2","pSARL_v2azuv9vh0","5d74001d391b6600175f433b","freq_resp","img/green_2bandit_b.png","70","70","test","","","","4","",""
"null","144713","pSARL_v2","pSARL_v2azuv9vh0","5d74001d391b6600175f433b","fixation","img/fixation.png","null","","test","","","","","",""
"293.69999999925494","145015","pSARL_v2","pSARL_v2azuv9vh0","5d74001d391b6600175f433b","freq","img/green_2bandit_b2.png","70","70","test","1","76","76","4","",""
"null","145540","pSARL_v2","pSARL_v2azuv9vh0","5d74001d391b6600175f433b","freq_resp","img/green_2bandit_b.png","70","70","test","","","","4","",""
"null","145708","pSARL_v2","pSARL_v2azuv9vh0","5d74001d391b6600175f433b","fixation","img/fixation.png","null","","test","","","","","",""
"207.5","145924","pSARL_v2","pSARL_v2azuv9vh0","5d74001d391b6600175f433b","freq","img/green_2bandit_b2.png","70","70","test","1","77","77","4","",""
"null","146532","pSARL_v2","pSARL_v2azuv9vh0","5d74001d391b6600175f433b","freq_resp","img/green_2bandit_b.png","70","70","test","","","","4","",""
"null","146690","pSARL_v2","pSARL_v2azuv9vh0","5d74001d391b6600175f433b","fixation","img/fixation.png","null","","test","","","","","",""
"309.8999999985099","147009","pSARL_v2","pSARL_v2azuv9vh0","5d74001d391b6600175f433b","freq","img/green_2bandit_b2.png","70","70","test","1","78","78","4","",""
"null","147510","pSARL_v2","pSARL_v2azuv9vh0","5d74001d391b6600175f433b","freq_resp","img/green_2bandit_b.png","70","70","test","","","","4","",""
"null","147674","pSARL_v2","pSARL_v2azuv9vh0","5d74001d391b6600175f433b","fixation","img/fixation.png","null","","test","","","","","",""
"316.30000000074506","148000","pSARL_v2","pSARL_v2azuv9vh0","5d74001d391b6600175f433b","freq","img/green_2bandit_b2.png","70","70","test","1","79","79","4","",""
"null","148500","pSARL_v2","pSARL_v2azuv9vh0","5d74001d391b6600175f433b","freq_resp","img/green_2bandit_b.png","70","70","test","","","","4","",""
"null","148661","pSARL_v2","pSARL_v2azuv9vh0","5d74001d391b6600175f433b","fixation","img/fixation.png","null","","test","","","","","",""
"649","149319","pSARL_v2","pSARL_v2azuv9vh0","5d74001d391b6600175f433b","infreq","img/orange_2bandit_b2.png","68","68","test","1","80","80","4","",""
"null","149483","pSARL_v2","pSARL_v2azuv9vh0","5d74001d391b6600175f433b","infreq_resp","img/orange_2bandit_b.png","68","68","test","","","","4","",""
"null","149645","pSARL_v2","pSARL_v2azuv9vh0","5d74001d391b6600175f433b","fixation","img/fixation.png","null","","test","","","","","",""
"616.3000000007451","150272","pSARL_v2","pSARL_v2azuv9vh0","5d74001d391b6600175f433b","freq","img/green_2bandit_b2.png","70","70","test","1","81","81","4","",""
"null","150468","pSARL_v2","pSARL_v2azuv9vh0","5d74001d391b6600175f433b","freq_resp","img/green_2bandit_b.png","70","70","test","","","","4","",""
"null","150633","pSARL_v2","pSARL_v2azuv9vh0","5d74001d391b6600175f433b","fixation","img/fixation.png","null","","test","","","","","",""
"762.1000000014901","151401","pSARL_v2","pSARL_v2azuv9vh0","5d74001d391b6600175f433b","freq","img/green_2bandit_b2.png","70","70","test","1","82","82","4","",""
"null","151454","pSARL_v2","pSARL_v2azuv9vh0","5d74001d391b6600175f433b","freq_resp","img/green_2bandit_b.png","70","70","test","","","","4","",""
"null","151618","pSARL_v2","pSARL_v2azuv9vh0","5d74001d391b6600175f433b","fixation","img/fixation.png","null","","test","","","","","",""
"433.3999999985099","152061","pSARL_v2","pSARL_v2azuv9vh0","5d74001d391b6600175f433b","freq","img/green_2bandit_b2.png","70","70","test","1","83","83","4","",""
"null","152443","pSARL_v2","pSARL_v2azuv9vh0","5d74001d391b6600175f433b","freq_resp","img/green_2bandit_b.png","70","70","test","","","","4","",""
"null","152603","pSARL_v2","pSARL_v2azuv9vh0","5d74001d391b6600175f433b","fixation","img/fixation.png","null","","test","","","","","",""
"321.30000000074506","152934","pSARL_v2","pSARL_v2azuv9vh0","5d74001d391b6600175f433b","freq","img/green_2bandit_b2.png","70","70","test","1","84","84","4","",""
"null","153426","pSARL_v2","pSARL_v2azuv9vh0","5d74001d391b6600175f433b","freq_resp","img/green_2bandit_b.png","70","70","test","","","","4","",""
"null","153588","pSARL_v2","pSARL_v2azuv9vh0","5d74001d391b6600175f433b","fixation","img/fixation.png","null","","test","","","","","",""
"309","153904","pSARL_v2","pSARL_v2azuv9vh0","5d74001d391b6600175f433b","freq","img/green_2bandit_b2.png","70","70","test","1","85","85","4","",""
"null","154406","pSARL_v2","pSARL_v2azuv9vh0","5d74001d391b6600175f433b","freq_resp","img/green_2bandit_b.png","70","70","test","","","","4","",""
"null","154569","pSARL_v2","pSARL_v2azuv9vh0","5d74001d391b6600175f433b","fixation","img/fixation.png","null","","test","","","","","",""
"338.80000000074506","154917","pSARL_v2","pSARL_v2azuv9vh0","5d74001d391b6600175f433b","freq","img/green_2bandit_b2.png","70","70","test","1","86","86","4","",""
"null","155399","pSARL_v2","pSARL_v2azuv9vh0","5d74001d391b6600175f433b","freq_resp","img/green_2bandit_b.png","70","70","test","","","","4","",""
"null","155562","pSARL_v2","pSARL_v2azuv9vh0","5d74001d391b6600175f433b","fixation","img/fixation.png","null","","test","","","","","",""
"474.8999999985099","156046","pSARL_v2","pSARL_v2azuv9vh0","5d74001d391b6600175f433b","infreq","img/orange_2bandit_b2.png","68","68","test","1","87","87","4","",""
"null","156384","pSARL_v2","pSARL_v2azuv9vh0","5d74001d391b6600175f433b","infreq_resp","img/orange_2bandit_b.png","68","68","test","","","","4","",""
"null","156545","pSARL_v2","pSARL_v2azuv9vh0","5d74001d391b6600175f433b","fixation","img/fixation.png","null","","test","","","","","",""
"585.6000000014901","157138","pSARL_v2","pSARL_v2azuv9vh0","5d74001d391b6600175f433b","freq","img/green_2bandit_b2.png","70","70","test","1","88","88","4","",""
"null","157366","pSARL_v2","pSARL_v2azuv9vh0","5d74001d391b6600175f433b","freq_resp","img/green_2bandit_b.png","70","70","test","","","","4","",""
"null","157532","pSARL_v2","pSARL_v2azuv9vh0","5d74001d391b6600175f433b","fixation","img/fixation.png","null","","test","","","","","",""
"355.29999999701977","157896","pSARL_v2","pSARL_v2azuv9vh0","5d74001d391b6600175f433b","freq","img/green_2bandit_b2.png","70","70","test","1","89","89","4","",""
"null","158356","pSARL_v2","pSARL_v2azuv9vh0","5d74001d391b6600175f433b","freq_resp","img/green_2bandit_b.png","70","70","test","","","","4","",""
"null","158522","pSARL_v2","pSARL_v2azuv9vh0","5d74001d391b6600175f433b","fixation","img/fixation.png","null","","test","","","","","",""
"303.69999999925494","158835","pSARL_v2","pSARL_v2azuv9vh0","5d74001d391b6600175f433b","freq","img/green_2bandit_b2.png","70","70","test","1","90","90","4","",""
"null","159339","pSARL_v2","pSARL_v2azuv9vh0","5d74001d391b6600175f433b","freq_resp","img/green_2bandit_b.png","70","70","test","","","","4","",""
"null","159502","pSARL_v2","pSARL_v2azuv9vh0","5d74001d391b6600175f433b","fixation","img/fixation.png","null","","test","","","","","",""
"561.3000000007451","160071","pSARL_v2","pSARL_v2azuv9vh0","5d74001d391b6600175f433b","reward","img/slot.png","74","","test","","","","","",""
"null","160839","pSARL_v2","pSARL_v2azuv9vh0","5d74001d391b6600175f433b","points","<div class=""verylowPoints""> -3 </div>","null","na","test","","","","4","-3","3"
"746","161593","pSARL_v2","pSARL_v2azuv9vh0","5d74001d391b6600175f433b","freq","img/green_2bandit_b2.png","70","70","test","1","91","91","5","",""
"null","161659","pSARL_v2","pSARL_v2azuv9vh0","5d74001d391b6600175f433b","freq_resp","img/green_2bandit_b.png","70","70","test","","","","5","",""
"null","161828","pSARL_v2","pSARL_v2azuv9vh0","5d74001d391b6600175f433b","fixation","img/fixation.png","null","","test","","","","","",""
"null","162646","pSARL_v2","pSARL_v2azuv9vh0","5d74001d391b6600175f433b","freq","img/green_2bandit_b2.png","null","70","test","0","92","92","5","",""
"null","162812","pSARL_v2","pSARL_v2azuv9vh0","5d74001d391b6600175f433b","fixation","img/fixation.png","null","","test","","","","","",""
"null","163622","pSARL_v2","pSARL_v2azuv9vh0","5d74001d391b6600175f433b","freq","img/green_2bandit_b2.png","null","70","test","0","93","93","5","",""
"null","163787","pSARL_v2","pSARL_v2azuv9vh0","5d74001d391b6600175f433b","fixation","img/fixation.png","null","","test","","","","","",""
"351.69999999925494","164148","pSARL_v2","pSARL_v2azuv9vh0","5d74001d391b6600175f433b","freq","img/green_2bandit_b2.png","70","70","test","1","94","94","5","",""
"null","164608","pSARL_v2","pSARL_v2azuv9vh0","5d74001d391b6600175f433b","freq_resp","img/green_2bandit_b.png","70","70","test","","","","5","",""
"null","164771","pSARL_v2","pSARL_v2azuv9vh0","5d74001d391b6600175f433b","fixation","img/fixation.png","null","","test","","","","","",""
"351.3999999985099","165130","pSARL_v2","pSARL_v2azuv9vh0","5d74001d391b6600175f433b","freq","img/green_2bandit_b2.png","70","70","test","1","95","95","5","",""
"null","165593","pSARL_v2","pSARL_v2azuv9vh0","5d74001d391b6600175f433b","freq_resp","img/green_2bandit_b.png","70","70","test","","","","5","",""
"null","165761","pSARL_v2","pSARL_v2azuv9vh0","5d74001d391b6600175f433b","fixation","img/fixation.png","null","","test","","","","","",""
"369.69999999925494","166140","pSARL_v2","pSARL_v2azuv9vh0","5d74001d391b6600175f433b","freq","img/green_2bandit_b2.png","70","70","test","1","96","96","5","",""
"null","166584","pSARL_v2","pSARL_v2azuv9vh0","5d74001d391b6600175f433b","freq_resp","img/green_2bandit_b.png","70","70","test","","","","5","",""
"null","166751","pSARL_v2","pSARL_v2azuv9vh0","5d74001d391b6600175f433b","fixation","img/fixation.png","null","","test","","","","","",""
"457","167217","pSARL_v2","pSARL_v2azuv9vh0","5d74001d391b6600175f433b","freq","img/green_2bandit_b2.png","70","70","test","1","97","97","5","",""
"null","167572","pSARL_v2","pSARL_v2azuv9vh0","5d74001d391b6600175f433b","freq_resp","img/green_2bandit_b.png","70","70","test","","","","5","",""
"null","167734","pSARL_v2","pSARL_v2azuv9vh0","5d74001d391b6600175f433b","fixation","img/fixation.png","null","","test","","","","","",""
"424.5","168166","pSARL_v2","pSARL_v2azuv9vh0","5d74001d391b6600175f433b","freq","img/green_2bandit_b2.png","70","70","test","1","98","98","5","",""
"null","168558","pSARL_v2","pSARL_v2azuv9vh0","5d74001d391b6600175f433b","freq_resp","img/green_2bandit_b.png","70","70","test","","","","5","",""
"null","168726","pSARL_v2","pSARL_v2azuv9vh0","5d74001d391b6600175f433b","fixation","img/fixation.png","null","","test","","","","","",""
"421.80000000074506","169158","pSARL_v2","pSARL_v2azuv9vh0","5d74001d391b6600175f433b","freq","img/green_2bandit_b2.png","70","70","test","1","99","99","5","",""
"null","169547","pSARL_v2","pSARL_v2azuv9vh0","5d74001d391b6600175f433b","freq_resp","img/green_2bandit_b.png","70","70","test","","","","5","",""
"null","169714","pSARL_v2","pSARL_v2azuv9vh0","5d74001d391b6600175f433b","fixation","img/fixation.png","null","","test","","","","","",""
"404.1000000014901","170127","pSARL_v2","pSARL_v2azuv9vh0","5d74001d391b6600175f433b","freq","img/green_2bandit_b2.png","70","70","test","1","100","100","5","",""
"null","170537","pSARL_v2","pSARL_v2azuv9vh0","5d74001d391b6600175f433b","freq_resp","img/green_2bandit_b.png","70","70","test","","","","5","",""
"null","170700","pSARL_v2","pSARL_v2azuv9vh0","5d74001d391b6600175f433b","fixation","img/fixation.png","null","","test","","","","","",""
"402.80000000074506","171111","pSARL_v2","pSARL_v2azuv9vh0","5d74001d391b6600175f433b","freq","img/green_2bandit_b2.png","70","70","test","1","101","101","5","",""
"null","171524","pSARL_v2","pSARL_v2azuv9vh0","5d74001d391b6600175f433b","freq_resp","img/green_2bandit_b.png","70","70","test","","","","5","",""
"null","171694","pSARL_v2","pSARL_v2azuv9vh0","5d74001d391b6600175f433b","fixation","img/fixation.png","null","","test","","","","","",""
"350.1000000014901","172053","pSARL_v2","pSARL_v2azuv9vh0","5d74001d391b6600175f433b","freq","img/green_2bandit_b2.png","70","70","test","1","102","102","5","",""
"null","172516","pSARL_v2","pSARL_v2azuv9vh0","5d74001d391b6600175f433b","freq_resp","img/green_2bandit_b.png","70","70","test","","","","5","",""
"null","172677","pSARL_v2","pSARL_v2azuv9vh0","5d74001d391b6600175f433b","fixation","img/fixation.png","null","","test","","","","","",""
"435.80000000074506","173123","pSARL_v2","pSARL_v2azuv9vh0","5d74001d391b6600175f433b","infreq","img/orange_2bandit_b2.png","68","68","test","1","103","103","5","",""
"null","173503","pSARL_v2","pSARL_v2azuv9vh0","5d74001d391b6600175f433b","infreq_resp","img/orange_2bandit_b.png","68","68","test","","","","5","",""
"null","173664","pSARL_v2","pSARL_v2azuv9vh0","5d74001d391b6600175f433b","fixation","img/fixation.png","null","","test","","","","","",""
"556","174229","pSARL_v2","pSARL_v2azuv9vh0","5d74001d391b6600175f433b","freq","img/green_2bandit_b2.png","70","70","test","1","104","104","5","",""
"null","174489","pSARL_v2","pSARL_v2azuv9vh0","5d74001d391b6600175f433b","freq_resp","img/green_2bandit_b.png","70","70","test","","","","5","",""
"null","174650","pSARL_v2","pSARL_v2azuv9vh0","5d74001d391b6600175f433b","fixation","img/fixation.png","null","","test","","","","","",""
"445.8999999985099","175104","pSARL_v2","pSARL_v2azuv9vh0","5d74001d391b6600175f433b","freq","img/green_2bandit_b2.png","70","70","test","1","105","105","5","",""
"null","175471","pSARL_v2","pSARL_v2azuv9vh0","5d74001d391b6600175f433b","freq_resp","img/green_2bandit_b.png","70","70","test","","","","5","",""
"null","175635","pSARL_v2","pSARL_v2azuv9vh0","5d74001d391b6600175f433b","fixation","img/fixation.png","null","","test","","","","","",""
"335.5","175980","pSARL_v2","pSARL_v2azuv9vh0","5d74001d391b6600175f433b","freq","img/green_2bandit_b2.png","70","70","test","1","106","106","5","",""
"null","176456","pSARL_v2","pSARL_v2azuv9vh0","5d74001d391b6600175f433b","freq_resp","img/green_2bandit_b.png","70","70","test","","","","5","",""
"null","176613","pSARL_v2","pSARL_v2azuv9vh0","5d74001d391b6600175f433b","fixation","img/fixation.png","null","","test","","","","","",""
"318.19999999925494","176940","pSARL_v2","pSARL_v2azuv9vh0","5d74001d391b6600175f433b","freq","img/green_2bandit_b2.png","70","70","test","1","107","107","5","",""
"null","177426","pSARL_v2","pSARL_v2azuv9vh0","5d74001d391b6600175f433b","freq_resp","img/green_2bandit_b.png","70","70","test","","","","5","",""
"null","177592","pSARL_v2","pSARL_v2azuv9vh0","5d74001d391b6600175f433b","fixation","img/fixation.png","null","","test","","","","","",""
"353.20000000298023","177955","pSARL_v2","pSARL_v2azuv9vh0","5d74001d391b6600175f433b","freq","img/green_2bandit_b2.png","70","70","test","1","108","108","5","",""
"null","178419","pSARL_v2","pSARL_v2azuv9vh0","5d74001d391b6600175f433b","freq_resp","img/green_2bandit_b.png","70","70","test","","","","5","",""
"null","178579","pSARL_v2","pSARL_v2azuv9vh0","5d74001d391b6600175f433b","fixation","img/fixation.png","null","","test","","","","","",""
"394.1000000014901","178982","pSARL_v2","pSARL_v2azuv9vh0","5d74001d391b6600175f433b","freq","img/green_2bandit_b2.png","70","70","test","1","109","109","5","",""
"null","179404","pSARL_v2","pSARL_v2azuv9vh0","5d74001d391b6600175f433b","freq_resp","img/green_2bandit_b.png","70","70","test","","","","5","",""
"null","179567","pSARL_v2","pSARL_v2azuv9vh0","5d74001d391b6600175f433b","fixation","img/fixation.png","null","","test","","","","","",""
"387.0999999977648","179966","pSARL_v2","pSARL_v2azuv9vh0","5d74001d391b6600175f433b","freq","img/green_2bandit_b2.png","70","70","test","1","110","110","5","",""
"null","180395","pSARL_v2","pSARL_v2azuv9vh0","5d74001d391b6600175f433b","freq_resp","img/green_2bandit_b.png","70","70","test","","","","5","",""
"null","180554","pSARL_v2","pSARL_v2azuv9vh0","5d74001d391b6600175f433b","fixation","img/fixation.png","null","","test","","","","","",""
"459.80000000074506","181024","pSARL_v2","pSARL_v2azuv9vh0","5d74001d391b6600175f433b","infreq","img/orange_2bandit_b2.png","68","68","test","1","111","111","5","",""
"null","181381","pSARL_v2","pSARL_v2azuv9vh0","5d74001d391b6600175f433b","infreq_resp","img/orange_2bandit_b.png","68","68","test","","","","5","",""
"null","181546","pSARL_v2","pSARL_v2azuv9vh0","5d74001d391b6600175f433b","fixation","img/fixation.png","null","","test","","","","","",""
"457.4000000022352","182012","pSARL_v2","pSARL_v2azuv9vh0","5d74001d391b6600175f433b","freq","img/green_2bandit_b2.png","70","70","test","1","112","112","5","",""
"null","182367","pSARL_v2","pSARL_v2azuv9vh0","5d74001d391b6600175f433b","freq_resp","img/green_2bandit_b.png","70","70","test","","","","5","",""
"null","182529","pSARL_v2","pSARL_v2azuv9vh0","5d74001d391b6600175f433b","fixation","img/fixation.png","null","","test","","","","","",""
"381.80000000074506","182919","pSARL_v2","pSARL_v2azuv9vh0","5d74001d391b6600175f433b","freq","img/green_2bandit_b2.png","70","70","test","1","113","113","5","",""
"null","183350","pSARL_v2","pSARL_v2azuv9vh0","5d74001d391b6600175f433b","freq_resp","img/green_2bandit_b.png","70","70","test","","","","5","",""
"null","183516","pSARL_v2","pSARL_v2azuv9vh0","5d74001d391b6600175f433b","fixation","img/fixation.png","null","","test","","","","","",""
"401.4000000022352","183925","pSARL_v2","pSARL_v2azuv9vh0","5d74001d391b6600175f433b","freq","img/green_2bandit_b2.png","70","70","test","1","114","114","5","",""
"null","184338","pSARL_v2","pSARL_v2azuv9vh0","5d74001d391b6600175f433b","freq_resp","img/green_2bandit_b.png","70","70","test","","","","5","",""
"null","184503","pSARL_v2","pSARL_v2azuv9vh0","5d74001d391b6600175f433b","fixation","img/fixation.png","null","","test","","","","","",""
"337.5999999977648","184849","pSARL_v2","pSARL_v2azuv9vh0","5d74001d391b6600175f433b","freq","img/green_2bandit_b2.png","70","70","test","1","115","115","5","",""
"null","185324","pSARL_v2","pSARL_v2azuv9vh0","5d74001d391b6600175f433b","freq_resp","img/green_2bandit_b.png","70","70","test","","","","5","",""
"null","185490","pSARL_v2","pSARL_v2azuv9vh0","5d74001d391b6600175f433b","fixation","img/fixation.png","null","","test","","","","","",""
"477.0999999977648","185976","pSARL_v2","pSARL_v2azuv9vh0","5d74001d391b6600175f433b","reward","img/slot.png","74","","test","","","","","",""
"null","186741","pSARL_v2","pSARL_v2azuv9vh0","5d74001d391b6600175f433b","points","<div class=""veryhighPoints""> +1 </div>","null","na","test","","","","5","1","4"
"528","187279","pSARL_v2","pSARL_v2azuv9vh0","5d74001d391b6600175f433b","freq","img/green_2bandit_b2.png","70","70","test","1","116","116","6","",""
"null","187563","pSARL_v2","pSARL_v2azuv9vh0","5d74001d391b6600175f433b","freq_resp","img/green_2bandit_b.png","70","70","test","","","","6","",""
"null","187731","pSARL_v2","pSARL_v2azuv9vh0","5d74001d391b6600175f433b","fixation","img/fixation.png","null","","test","","","","","",""
"305.29999999701977","188045","pSARL_v2","pSARL_v2azuv9vh0","5d74001d391b6600175f433b","freq","img/green_2bandit_b2.png","70","70","test","1","117","117","6","",""
"null","188553","pSARL_v2","pSARL_v2azuv9vh0","5d74001d391b6600175f433b","freq_resp","img/green_2bandit_b.png","70","70","test","","","","6","",""
"null","188718","pSARL_v2","pSARL_v2azuv9vh0","5d74001d391b6600175f433b","fixation","img/fixation.png","null","","test","","","","","",""
"318.6000000014901","189047","pSARL_v2","pSARL_v2azuv9vh0","5d74001d391b6600175f433b","freq","img/green_2bandit_b2.png","70","70","test","1","118","118","6","",""
"null","189550","pSARL_v2","pSARL_v2azuv9vh0","5d74001d391b6600175f433b","freq_resp","img/green_2bandit_b.png","70","70","test","","","","6","",""
"null","189713","pSARL_v2","pSARL_v2azuv9vh0","5d74001d391b6600175f433b","fixation","img/fixation.png","null","","test","","","","","",""
"317.30000000074506","190040","pSARL_v2","pSARL_v2azuv9vh0","5d74001d391b6600175f433b","freq","img/green_2bandit_b2.png","70","70","test","1","119","119","6","",""
"null","190535","pSARL_v2","pSARL_v2azuv9vh0","5d74001d391b6600175f433b","freq_resp","img/green_2bandit_b.png","70","70","test","","","","6","",""
"null","190700","pSARL_v2","pSARL_v2azuv9vh0","5d74001d391b6600175f433b","fixation","img/fixation.png","null","","test","","","","","",""
"334.6000000014901","191044","pSARL_v2","pSARL_v2azuv9vh0","5d74001d391b6600175f433b","freq","img/green_2bandit_b2.png","70","70","test","1","120","120","6","",""
"null","191522","pSARL_v2","pSARL_v2azuv9vh0","5d74001d391b6600175f433b","freq_resp","img/green_2bandit_b.png","70","70","test","","","","6","",""
"null","191690","pSARL_v2","pSARL_v2azuv9vh0","5d74001d391b6600175f433b","fixation","img/fixation.png","null","","test","","","","","",""
"334.0999999977648","192035","pSARL_v2","pSARL_v2azuv9vh0","5d74001d391b6600175f433b","freq","img/green_2bandit_b2.png","70","70","test","1","121","121","6","",""
"null","192517","pSARL_v2","pSARL_v2azuv9vh0","5d74001d391b6600175f433b","freq_resp","img/green_2bandit_b.png","70","70","test","","","","6","",""
"null","192681","pSARL_v2","pSARL_v2azuv9vh0","5d74001d391b6600175f433b","fixation","img/fixation.png","null","","test","","","","","",""
"380.6000000014901","193072","pSARL_v2","pSARL_v2azuv9vh0","5d74001d391b6600175f433b","freq","img/green_2bandit_b2.png","70","70","test","1","122","122","6","",""
"null","193505","pSARL_v2","pSARL_v2azuv9vh0","5d74001d391b6600175f433b","freq_resp","img/green_2bandit_b.png","70","70","test","","","","6","",""
"null","193669","pSARL_v2","pSARL_v2azuv9vh0","5d74001d391b6600175f433b","fixation","img/fixation.png","null","","test","","","","","",""
"382.30000000074506","194060","pSARL_v2","pSARL_v2azuv9vh0","5d74001d391b6600175f433b","freq","img/green_2bandit_b2.png","70","70","test","1","123","123","6","",""
"null","194492","pSARL_v2","pSARL_v2azuv9vh0","5d74001d391b6600175f433b","freq_resp","img/green_2bandit_b.png","70","70","test","","","","6","",""
"null","194655","pSARL_v2","pSARL_v2azuv9vh0","5d74001d391b6600175f433b","fixation","img/fixation.png","null","","test","","","","","",""
"333.69999999925494","194996","pSARL_v2","pSARL_v2azuv9vh0","5d74001d391b6600175f433b","freq","img/green_2bandit_b2.png","70","70","test","1","124","124","6","",""
"null","195478","pSARL_v2","pSARL_v2azuv9vh0","5d74001d391b6600175f433b","freq_resp","img/green_2bandit_b.png","70","70","test","","","","6","",""
"null","195644","pSARL_v2","pSARL_v2azuv9vh0","5d74001d391b6600175f433b","fixation","img/fixation.png","null","","test","","","","","",""
"305.69999999925494","195957","pSARL_v2","pSARL_v2azuv9vh0","5d74001d391b6600175f433b","freq","img/green_2bandit_b2.png","70","70","test","1","125","125","6","",""
"null","196463","pSARL_v2","pSARL_v2azuv9vh0","5d74001d391b6600175f433b","freq_resp","img/green_2bandit_b.png","70","70","test","","","","6","",""
"null","196622","pSARL_v2","pSARL_v2azuv9vh0","5d74001d391b6600175f433b","fixation","img/fixation.png","null","","test","","","","","",""
"336.1000000014901","196967","pSARL_v2","pSARL_v2azuv9vh0","5d74001d391b6600175f433b","freq","img/green_2bandit_b2.png","70","70","test","1","126","126","6","",""
"null","197451","pSARL_v2","pSARL_v2azuv9vh0","5d74001d391b6600175f433b","freq_resp","img/green_2bandit_b.png","70","70","test","","","","6","",""
"null","197620","pSARL_v2","pSARL_v2azuv9vh0","5d74001d391b6600175f433b","fixation","img/fixation.png","null","","test","","","","","",""
"316.69999999925494","197945","pSARL_v2","pSARL_v2azuv9vh0","5d74001d391b6600175f433b","freq","img/green_2bandit_b2.png","70","70","test","1","127","127","6","",""
"null","198444","pSARL_v2","pSARL_v2azuv9vh0","5d74001d391b6600175f433b","freq_resp","img/green_2bandit_b.png","70","70","test","","","","6","",""
"null","198609","pSARL_v2","pSARL_v2azuv9vh0","5d74001d391b6600175f433b","fixation","img/fixation.png","null","","test","","","","","",""
"328.5","198946","pSARL_v2","pSARL_v2azuv9vh0","5d74001d391b6600175f433b","freq","img/green_2bandit_b2.png","70","70","test","1","128","128","6","",""
"null","199426","pSARL_v2","pSARL_v2azuv9vh0","5d74001d391b6600175f433b","freq_resp","img/green_2bandit_b.png","70","70","test","","","","6","",""
"null","199591","pSARL_v2","pSARL_v2azuv9vh0","5d74001d391b6600175f433b","fixation","img/fixation.png","null","","test","","","","","",""
"316","199915","pSARL_v2","pSARL_v2azuv9vh0","5d74001d391b6600175f433b","freq","img/green_2bandit_b2.png","70","70","test","1","129","129","6","",""
"null","200414","pSARL_v2","pSARL_v2azuv9vh0","5d74001d391b6600175f433b","freq_resp","img/green_2bandit_b.png","70","70","test","","","","6","",""
"null","200576","pSARL_v2","pSARL_v2azuv9vh0","5d74001d391b6600175f433b","fixation","img/fixation.png","null","","test","","","","","",""
"455.1000000014901","201040","pSARL_v2","pSARL_v2azuv9vh0","5d74001d391b6600175f433b","infreq","img/orange_2bandit_b2.png","68","68","test","1","130","130","6","",""
"null","201399","pSARL_v2","pSARL_v2azuv9vh0","5d74001d391b6600175f433b","infreq_resp","img/orange_2bandit_b.png","68","68","test","","","","6","",""
"null","201561","pSARL_v2","pSARL_v2azuv9vh0","5d74001d391b6600175f433b","fixation","img/fixation.png","null","","test","","","","","",""
"509.19999999925494","202076","pSARL_v2","pSARL_v2azuv9vh0","5d74001d391b6600175f433b","freq","img/green_2bandit_b2.png","70","70","test","1","131","131","6","",""
"null","202379","pSARL_v2","pSARL_v2azuv9vh0","5d74001d391b6600175f433b","freq_resp","img/green_2bandit_b.png","70","70","test","","","","6","",""
"null","202544","pSARL_v2","pSARL_v2azuv9vh0","5d74001d391b6600175f433b","fixation","img/fixation.png","null","","test","","","","","",""
"454","203006","pSARL_v2","pSARL_v2azuv9vh0","5d74001d391b6600175f433b","freq","img/green_2bandit_b2.png","70","70","test","1","132","132","6","",""
"null","203365","pSARL_v2","pSARL_v2azuv9vh0","5d74001d391b6600175f433b","freq_resp","img/green_2bandit_b.png","70","70","test","","","","6","",""
"null","203535","pSARL_v2","pSARL_v2azuv9vh0","5d74001d391b6600175f433b","fixation","img/fixation.png","null","","test","","","","","",""
"509.69999999925494","204055","pSARL_v2","pSARL_v2azuv9vh0","5d74001d391b6600175f433b","infreq","img/orange_2bandit_b2.png","68","68","test","1","133","133","6","",""
"null","204356","pSARL_v2","pSARL_v2azuv9vh0","5d74001d391b6600175f433b","infreq_resp","img/orange_2bandit_b.png","68","68","test","","","","6","",""
"null","204522","pSARL_v2","pSARL_v2azuv9vh0","5d74001d391b6600175f433b","fixation","img/fixation.png","null","","test","","","","","",""
"395.20000000298023","204929","pSARL_v2","pSARL_v2azuv9vh0","5d74001d391b6600175f433b","freq","img/green_2bandit_b2.png","68","70","test","0","134","134","6","",""
"null","205343","pSARL_v2","pSARL_v2azuv9vh0","5d74001d391b6600175f433b","freq_resp","img/green_2bandit_b.png","68","70","test","","","","6","",""
"null","205508","pSARL_v2","pSARL_v2azuv9vh0","5d74001d391b6600175f433b","fixation","img/fixation.png","null","","test","","","","","",""
"497.79999999701977","206015","pSARL_v2","pSARL_v2azuv9vh0","5d74001d391b6600175f433b","freq","img/green_2bandit_b2.png","70","70","test","1","135","135","6","",""
"null","206333","pSARL_v2","pSARL_v2azuv9vh0","5d74001d391b6600175f433b","freq_resp","img/green_2bandit_b.png","70","70","test","","","","6","",""
"null","206497","pSARL_v2","pSARL_v2azuv9vh0","5d74001d391b6600175f433b","fixation","img/fixation.png","null","","test","","","","","",""
"484.69999999925494","206990","pSARL_v2","pSARL_v2azuv9vh0","5d74001d391b6600175f433b","reward","img/slot.png","74","","test","","","","","",""
"null","207761","pSARL_v2","pSARL_v2azuv9vh0","5d74001d391b6600175f433b","points","<div class=""verylowPoints""> -7 </div>","null","na","test","","","","6","-7","5"
"413.69999999925494","208185","pSARL_v2","pSARL_v2azuv9vh0","5d74001d391b6600175f433b","freq","img/green_2bandit_b2.png","70","70","test","1","136","136","7","",""
"null","208582","pSARL_v2","pSARL_v2azuv9vh0","5d74001d391b6600175f433b","freq_resp","img/green_2bandit_b.png","70","70","test","","","","7","",""
"null","208748","pSARL_v2","pSARL_v2azuv9vh0","5d74001d391b6600175f433b","fixation","img/fixation.png","null","","test","","","","","",""
"358.8999999985099","209117","pSARL_v2","pSARL_v2azuv9vh0","5d74001d391b6600175f433b","infreq","img/orange_2bandit_b2.png","70","68","test","0","137","137","7","",""
"null","209572","pSARL_v2","pSARL_v2azuv9vh0","5d74001d391b6600175f433b","infreq_resp","img/orange_2bandit_b.png","70","68","test","","","","7","",""
"null","209736","pSARL_v2","pSARL_v2azuv9vh0","5d74001d391b6600175f433b","fixation","img/fixation.png","null","","test","","","","","",""
"491.19999999925494","210239","pSARL_v2","pSARL_v2azuv9vh0","5d74001d391b6600175f433b","freq","img/green_2bandit_b2.png","70","70","test","1","138","138","7","",""
"null","210556","pSARL_v2","pSARL_v2azuv9vh0","5d74001d391b6600175f433b","freq_resp","img/green_2bandit_b.png","70","70","test","","","","7","",""
"null","210724","pSARL_v2","pSARL_v2azuv9vh0","5d74001d391b6600175f433b","fixation","img/fixation.png","null","","test","","","","","",""
"522","211255","pSARL_v2","pSARL_v2azuv9vh0","5d74001d391b6600175f433b","infreq","img/orange_2bandit_b2.png","68","68","test","1","139","139","7","",""
"null","211545","pSARL_v2","pSARL_v2azuv9vh0","5d74001d391b6600175f433b","infreq_resp","img/orange_2bandit_b.png","68","68","test","","","","7","",""
"null","211710","pSARL_v2","pSARL_v2azuv9vh0","5d74001d391b6600175f433b","fixation","img/fixation.png","null","","test","","","","","",""
"494.5999999977648","212213","pSARL_v2","pSARL_v2azuv9vh0","5d74001d391b6600175f433b","freq","img/green_2bandit_b2.png","70","70","test","1","140","140","7","",""
"null","212535","pSARL_v2","pSARL_v2azuv9vh0","5d74001d391b6600175f433b","freq_resp","img/green_2bandit_b.png","70","70","test","","","","7","",""
"null","212703","pSARL_v2","pSARL_v2azuv9vh0","5d74001d391b6600175f433b","fixation","img/fixation.png","null","","test","","","","","",""
"466.19999999925494","213177","pSARL_v2","pSARL_v2azuv9vh0","5d74001d391b6600175f433b","freq","img/green_2bandit_b2.png","70","70","test","1","141","141","7","",""
"null","213515","pSARL_v2","pSARL_v2azuv9vh0","5d74001d391b6600175f433b","freq_resp","img/green_2bandit_b.png","70","70","test","","","","7","",""
"null","213681","pSARL_v2","pSARL_v2azuv9vh0","5d74001d391b6600175f433b","fixation","img/fixation.png","null","","test","","","","","",""
"394.8999999985099","214085","pSARL_v2","pSARL_v2azuv9vh0","5d74001d391b6600175f433b","freq","img/green_2bandit_b2.png","70","70","test","1","142","142","7","",""
"null","214502","pSARL_v2","pSARL_v2azuv9vh0","5d74001d391b6600175f433b","freq_resp","img/green_2bandit_b.png","70","70","test","","","","7","",""
"null","214663","pSARL_v2","pSARL_v2azuv9vh0","5d74001d391b6600175f433b","fixation","img/fixation.png","null","","test","","","","","",""
"762.1999999992549","215432","pSARL_v2","pSARL_v2azuv9vh0","5d74001d391b6600175f433b","freq","img/green_2bandit_b2.png","70","70","test","1","143","143","7","",""
"null","215481","pSARL_v2","pSARL_v2azuv9vh0","5d74001d391b6600175f433b","freq_resp","img/green_2bandit_b.png","70","70","test","","","","7","",""
"null","215643","pSARL_v2","pSARL_v2azuv9vh0","5d74001d391b6600175f433b","fixation","img/fixation.png","null","","test","","","","","",""
"474.5","216128","pSARL_v2","pSARL_v2azuv9vh0","5d74001d391b6600175f433b","freq","img/green_2bandit_b2.png","70","70","test","1","144","144","7","",""
"null","216465","pSARL_v2","pSARL_v2azuv9vh0","5d74001d391b6600175f433b","freq_resp","img/green_2bandit_b.png","70","70","test","","","","7","",""
"null","216635","pSARL_v2","pSARL_v2azuv9vh0","5d74001d391b6600175f433b","fixation","img/fixation.png","null","","test","","","","","",""
"305.3999999985099","216951","pSARL_v2","pSARL_v2azuv9vh0","5d74001d391b6600175f433b","freq","img/green_2bandit_b2.png","70","70","test","1","145","145","7","",""
"null","217458","pSARL_v2","pSARL_v2azuv9vh0","5d74001d391b6600175f433b","freq_resp","img/green_2bandit_b.png","70","70","test","","","","7","",""
"null","217619","pSARL_v2","pSARL_v2azuv9vh0","5d74001d391b6600175f433b","fixation","img/fixation.png","null","","test","","","","","",""
"331","217958","pSARL_v2","pSARL_v2azuv9vh0","5d74001d391b6600175f433b","freq","img/green_2bandit_b2.png","70","70","test","1","146","146","7","",""
"null","218445","pSARL_v2","pSARL_v2azuv9vh0","5d74001d391b6600175f433b","freq_resp","img/green_2bandit_b.png","70","70","test","","","","7","",""
"null","218608","pSARL_v2","pSARL_v2azuv9vh0","5d74001d391b6600175f433b","fixation","img/fixation.png","null","","test","","","","","",""
"355.30000000074506","218969","pSARL_v2","pSARL_v2azuv9vh0","5d74001d391b6600175f433b","freq","img/green_2bandit_b2.png","70","70","test","1","147","147","7","",""
"null","219426","pSARL_v2","pSARL_v2azuv9vh0","5d74001d391b6600175f433b","freq_resp","img/green_2bandit_b.png","70","70","test","","","","7","",""
"null","219589","pSARL_v2","pSARL_v2azuv9vh0","5d74001d391b6600175f433b","fixation","img/fixation.png","null","","test","","","","","",""
"338.1000000014901","219937","pSARL_v2","pSARL_v2azuv9vh0","5d74001d391b6600175f433b","freq","img/green_2bandit_b2.png","70","70","test","1","148","148","7","",""
"null","220415","pSARL_v2","pSARL_v2azuv9vh0","5d74001d391b6600175f433b","freq_resp","img/green_2bandit_b.png","70","70","test","","","","7","",""
"null","220577","pSARL_v2","pSARL_v2azuv9vh0","5d74001d391b6600175f433b","fixation","img/fixation.png","null","","test","","","","","",""
"367.30000000074506","220955","pSARL_v2","pSARL_v2azuv9vh0","5d74001d391b6600175f433b","freq","img/green_2bandit_b2.png","70","70","test","1","149","149","7","",""
"null","221405","pSARL_v2","pSARL_v2azuv9vh0","5d74001d391b6600175f433b","freq_resp","img/green_2bandit_b.png","70","70","test","","","","7","",""
"null","221569","pSARL_v2","pSARL_v2azuv9vh0","5d74001d391b6600175f433b","fixation","img/fixation.png","null","","test","","","","","",""
"288.30000000074506","221866","pSARL_v2","pSARL_v2azuv9vh0","5d74001d391b6600175f433b","freq","img/green_2bandit_b2.png","70","70","test","1","150","150","7","",""
"null","222392","pSARL_v2","pSARL_v2azuv9vh0","5d74001d391b6600175f433b","freq_resp","img/green_2bandit_b.png","70","70","test","","","","7","",""
"null","222557","pSARL_v2","pSARL_v2azuv9vh0","5d74001d391b6600175f433b","fixation","img/fixation.png","null","","test","","","","","",""
"386.3999999985099","222953","pSARL_v2","pSARL_v2azuv9vh0","5d74001d391b6600175f433b","freq","img/green_2bandit_b2.png","70","70","test","1","151","151","7","",""
"null","223385","pSARL_v2","pSARL_v2azuv9vh0","5d74001d391b6600175f433b","freq_resp","img/green_2bandit_b.png","70","70","test","","","","7","",""
"null","223547","pSARL_v2","pSARL_v2azuv9vh0","5d74001d391b6600175f433b","fixation","img/fixation.png","null","","test","","","","","",""
"398.9000000022352","223956","pSARL_v2","pSARL_v2azuv9vh0","5d74001d391b6600175f433b","freq","img/green_2bandit_b2.png","70","70","test","1","152","152","7","",""
"null","224371","pSARL_v2","pSARL_v2azuv9vh0","5d74001d391b6600175f433b","freq_resp","img/green_2bandit_b.png","70","70","test","","","","7","",""
"null","224537","pSARL_v2","pSARL_v2azuv9vh0","5d74001d391b6600175f433b","fixation","img/fixation.png","null","","test","","","","","",""
"371","224918","pSARL_v2","pSARL_v2azuv9vh0","5d74001d391b6600175f433b","freq","img/green_2bandit_b2.png","68","70","test","0","153","153","7","",""
"null","225359","pSARL_v2","pSARL_v2azuv9vh0","5d74001d391b6600175f433b","freq_resp","img/green_2bandit_b.png","68","70","test","","","","7","",""
"null","225523","pSARL_v2","pSARL_v2azuv9vh0","5d74001d391b6600175f433b","fixation","img/fixation.png","null","","test","","","","","",""
"null","226343","pSARL_v2","pSARL_v2azuv9vh0","5d74001d391b6600175f433b","freq","img/green_2bandit_b2.png","null","70","test","0","154","154","7","",""
"null","226504","pSARL_v2","pSARL_v2azuv9vh0","5d74001d391b6600175f433b","fixation","img/fixation.png","null","","test","","","","","",""
"null","227321","pSARL_v2","pSARL_v2azuv9vh0","5d74001d391b6600175f433b","freq","img/green_2bandit_b2.png","null","70","test","0","155","155","7","",""
"null","227482","pSARL_v2","pSARL_v2azuv9vh0","5d74001d391b6600175f433b","fixation","img/fixation.png","null","","test","","","","","",""
"1647.5","229138","pSARL_v2","pSARL_v2azuv9vh0","5d74001d391b6600175f433b","reward","img/slot.png","74","","test","","","","","",""
"null","229900","pSARL_v2","pSARL_v2azuv9vh0","5d74001d391b6600175f433b","points","<div class=""verylowPoints""> -6 </div>","null","na","test","","","","7","-6","6"
"null","230717","pSARL_v2","pSARL_v2azuv9vh0","5d74001d391b6600175f433b","freq","img/green_2bandit_b2.png","null","70","test","0","156","156","8","",""
"null","230886","pSARL_v2","pSARL_v2azuv9vh0","5d74001d391b6600175f433b","fixation","img/fixation.png","null","","test","","","","","",""
"443.0999999977648","231339","pSARL_v2","pSARL_v2azuv9vh0","5d74001d391b6600175f433b","freq","img/green_2bandit_b2.png","70","70","test","1","157","157","8","",""
"null","231709","pSARL_v2","pSARL_v2azuv9vh0","5d74001d391b6600175f433b","freq_resp","img/green_2bandit_b.png","70","70","test","","","","8","",""
"null","231872","pSARL_v2","pSARL_v2azuv9vh0","5d74001d391b6600175f433b","fixation","img/fixation.png","null","","test","","","","","",""
"378.4000000022352","232255","pSARL_v2","pSARL_v2azuv9vh0","5d74001d391b6600175f433b","freq","img/green_2bandit_b2.png","70","70","test","1","158","158","8","",""
"null","232684","pSARL_v2","pSARL_v2azuv9vh0","5d74001d391b6600175f433b","freq_resp","img/green_2bandit_b.png","70","70","test","","","","8","",""
"null","232850","pSARL_v2","pSARL_v2azuv9vh0","5d74001d391b6600175f433b","fixation","img/fixation.png","null","","test","","","","","",""
"310.70000000298023","233170","pSARL_v2","pSARL_v2azuv9vh0","5d74001d391b6600175f433b","freq","img/green_2bandit_b2.png","70","70","test","1","159","159","8","",""
"null","233671","pSARL_v2","pSARL_v2azuv9vh0","5d74001d391b6600175f433b","freq_resp","img/green_2bandit_b.png","70","70","test","","","","8","",""
"null","233837","pSARL_v2","pSARL_v2azuv9vh0","5d74001d391b6600175f433b","fixation","img/fixation.png","null","","test","","","","","",""
"284.19999999925494","234130","pSARL_v2","pSARL_v2azuv9vh0","5d74001d391b6600175f433b","freq","img/green_2bandit_b2.png","70","70","test","1","160","160","8","",""
"null","234657","pSARL_v2","pSARL_v2azuv9vh0","5d74001d391b6600175f433b","freq_resp","img/green_2bandit_b.png","70","70","test","","","","8","",""
"null","234819","pSARL_v2","pSARL_v2azuv9vh0","5d74001d391b6600175f433b","fixation","img/fixation.png","null","","test","","","","","",""
"308.9000000022352","235135","pSARL_v2","pSARL_v2azuv9vh0","5d74001d391b6600175f433b","freq","img/green_2bandit_b2.png","70","70","test","1","161","161","8","",""
"null","235637","pSARL_v2","pSARL_v2azuv9vh0","5d74001d391b6600175f433b","freq_resp","img/green_2bandit_b.png","70","70","test","","","","8","",""
"null","235800","pSARL_v2","pSARL_v2azuv9vh0","5d74001d391b6600175f433b","fixation","img/fixation.png","null","","test","","","","","",""
"499.8999999985099","236309","pSARL_v2","pSARL_v2azuv9vh0","5d74001d391b6600175f433b","infreq","img/orange_2bandit_b2.png","68","68","test","1","162","162","8","",""
"null","236627","pSARL_v2","pSARL_v2azuv9vh0","5d74001d391b6600175f433b","infreq_resp","img/orange_2bandit_b.png","68","68","test","","","","8","",""
"null","236793","pSARL_v2","pSARL_v2azuv9vh0","5d74001d391b6600175f433b","fixation","img/fixation.png","null","","test","","","","","",""
"417.80000000074506","237220","pSARL_v2","pSARL_v2azuv9vh0","5d74001d391b6600175f433b","freq","img/green_2bandit_b2.png","68","70","test","0","163","163","8","",""
"null","237612","pSARL_v2","pSARL_v2azuv9vh0","5d74001d391b6600175f433b","freq_resp","img/green_2bandit_b.png","68","70","test","","","","8","",""
"null","237778","pSARL_v2","pSARL_v2azuv9vh0","5d74001d391b6600175f433b","fixation","img/fixation.png","null","","test","","","","","",""
"375.5999999977648","238163","pSARL_v2","pSARL_v2azuv9vh0","5d74001d391b6600175f433b","freq","img/green_2bandit_b2.png","70","70","test","1","164","164","8","",""
"null","238602","pSARL_v2","pSARL_v2azuv9vh0","5d74001d391b6600175f433b","freq_resp","img/green_2bandit_b.png","70","70","test","","","","8","",""
"null","238766","pSARL_v2","pSARL_v2azuv9vh0","5d74001d391b6600175f433b","fixation","img/fixation.png","null","","test","","","","","",""
"360.20000000298023","239139","pSARL_v2","pSARL_v2azuv9vh0","5d74001d391b6600175f433b","freq","img/green_2bandit_b2.png","70","70","test","1","165","165","8","",""
"null","239593","pSARL_v2","pSARL_v2azuv9vh0","5d74001d391b6600175f433b","freq_resp","img/green_2bandit_b.png","70","70","test","","","","8","",""
"null","239759","pSARL_v2","pSARL_v2azuv9vh0","5d74001d391b6600175f433b","fixation","img/fixation.png","null","","test","","","","","",""
"737.5","240507","pSARL_v2","pSARL_v2azuv9vh0","5d74001d391b6600175f433b","infreq","img/orange_2bandit_b2.png","68","68","test","1","166","166","8","",""
"null","240577","pSARL_v2","pSARL_v2azuv9vh0","5d74001d391b6600175f433b","infreq_resp","img/orange_2bandit_b.png","68","68","test","","","","8","",""
"null","240742","pSARL_v2","pSARL_v2azuv9vh0","5d74001d391b6600175f433b","fixation","img/fixation.png","null","","test","","","","","",""
"710.7000000029802","241462","pSARL_v2","pSARL_v2azuv9vh0","5d74001d391b6600175f433b","freq","img/green_2bandit_b2.png","70","70","test","1","167","167","8","",""
"null","241560","pSARL_v2","pSARL_v2azuv9vh0","5d74001d391b6600175f433b","freq_resp","img/green_2bandit_b.png","70","70","test","","","","8","",""
"null","241725","pSARL_v2","pSARL_v2azuv9vh0","5d74001d391b6600175f433b","fixation","img/fixation.png","null","","test","","","","","",""
"473.5","242207","pSARL_v2","pSARL_v2azuv9vh0","5d74001d391b6600175f433b","freq","img/green_2bandit_b2.png","70","70","test","1","168","168","8","",""
"null","242545","pSARL_v2","pSARL_v2azuv9vh0","5d74001d391b6600175f433b","freq_resp","img/green_2bandit_b.png","70","70","test","","","","8","",""
"null","242712","pSARL_v2","pSARL_v2azuv9vh0","5d74001d391b6600175f433b","fixation","img/fixation.png","null","","test","","","","","",""
"441.5","243163","pSARL_v2","pSARL_v2azuv9vh0","5d74001d391b6600175f433b","freq","img/green_2bandit_b2.png","70","70","test","1","169","169","8","",""
"null","243537","pSARL_v2","pSARL_v2azuv9vh0","5d74001d391b6600175f433b","freq_resp","img/green_2bandit_b.png","70","70","test","","","","8","",""
"null","243703","pSARL_v2","pSARL_v2azuv9vh0","5d74001d391b6600175f433b","fixation","img/fixation.png","null","","test","","","","","",""
"445.30000000074506","244158","pSARL_v2","pSARL_v2azuv9vh0","5d74001d391b6600175f433b","freq","img/green_2bandit_b2.png","70","70","test","1","170","170","8","",""
"null","244523","pSARL_v2","pSARL_v2azuv9vh0","5d74001d391b6600175f433b","freq_resp","img/green_2bandit_b.png","70","70","test","","","","8","",""
"null","244687","pSARL_v2","pSARL_v2azuv9vh0","5d74001d391b6600175f433b","fixation","img/fixation.png","null","","test","","","","","",""
"464.19999999925494","245159","pSARL_v2","pSARL_v2azuv9vh0","5d74001d391b6600175f433b","freq","img/green_2bandit_b2.png","70","70","test","1","171","171","8","",""
"null","245509","pSARL_v2","pSARL_v2azuv9vh0","5d74001d391b6600175f433b","freq_resp","img/green_2bandit_b.png","70","70","test","","","","8","",""
"null","245668","pSARL_v2","pSARL_v2azuv9vh0","5d74001d391b6600175f433b","fixation","img/fixation.png","null","","test","","","","","",""
"535.3999999985099","246213","pSARL_v2","pSARL_v2azuv9vh0","5d74001d391b6600175f433b","freq","img/green_2bandit_b2.png","70","70","test","1","172","172","8","",""
"null","246491","pSARL_v2","pSARL_v2azuv9vh0","5d74001d391b6600175f433b","freq_resp","img/green_2bandit_b.png","70","70","test","","","","8","",""
"null","246657","pSARL_v2","pSARL_v2azuv9vh0","5d74001d391b6600175f433b","fixation","img/fixation.png","null","","test","","","","","",""
"361.9000000022352","247028","pSARL_v2","pSARL_v2azuv9vh0","5d74001d391b6600175f433b","freq","img/green_2bandit_b2.png","70","70","test","1","173","173","8","",""
"null","247481","pSARL_v2","pSARL_v2azuv9vh0","5d74001d391b6600175f433b","freq_resp","img/green_2bandit_b.png","70","70","test","","","","8","",""
"null","247645","pSARL_v2","pSARL_v2azuv9vh0","5d74001d391b6600175f433b","fixation","img/fixation.png","null","","test","","","","","",""
"453.8999999985099","248108","pSARL_v2","pSARL_v2azuv9vh0","5d74001d391b6600175f433b","freq","img/green_2bandit_b2.png","70","70","test","1","174","174","8","",""
"null","248466","pSARL_v2","pSARL_v2azuv9vh0","5d74001d391b6600175f433b","freq_resp","img/green_2bandit_b.png","70","70","test","","","","8","",""
"null","248632","pSARL_v2","pSARL_v2azuv9vh0","5d74001d391b6600175f433b","fixation","img/fixation.png","null","","test","","","","","",""
"501.5","249140","pSARL_v2","pSARL_v2azuv9vh0","5d74001d391b6600175f433b","reward","img/slot.png","74","","test","","","","","",""
"null","249905","pSARL_v2","pSARL_v2azuv9vh0","5d74001d391b6600175f433b","points","<div class=""verylowPoints""> -4 </div>","null","na","test","","","","8","-4","7"
"665.2000000029802","250580","pSARL_v2","pSARL_v2azuv9vh0","5d74001d391b6600175f433b","freq","img/green_2bandit_b2.png","70","70","test","1","175","175","9","",""
"null","250733","pSARL_v2","pSARL_v2azuv9vh0","5d74001d391b6600175f433b","freq_resp","img/green_2bandit_b.png","70","70","test","","","","9","",""
"null","250899","pSARL_v2","pSARL_v2azuv9vh0","5d74001d391b6600175f433b","fixation","img/fixation.png","null","","test","","","","","",""
"527.8000000007451","251435","pSARL_v2","pSARL_v2azuv9vh0","5d74001d391b6600175f433b","infreq","img/orange_2bandit_b2.png","68","68","test","1","176","176","9","",""
"null","251720","pSARL_v2","pSARL_v2azuv9vh0","5d74001d391b6600175f433b","infreq_resp","img/orange_2bandit_b.png","68","68","test","","","","9","",""
"null","251885","pSARL_v2","pSARL_v2azuv9vh0","5d74001d391b6600175f433b","fixation","img/fixation.png","null","","test","","","","","",""
"392.80000000074506","252287","pSARL_v2","pSARL_v2azuv9vh0","5d74001d391b6600175f433b","freq","img/green_2bandit_b2.png","70","70","test","1","177","177","9","",""
"null","252710","pSARL_v2","pSARL_v2azuv9vh0","5d74001d391b6600175f433b","freq_resp","img/green_2bandit_b.png","70","70","test","","","","9","",""
"null","252873","pSARL_v2","pSARL_v2azuv9vh0","5d74001d391b6600175f433b","fixation","img/fixation.png","null","","test","","","","","",""
"null","253688","pSARL_v2","pSARL_v2azuv9vh0","5d74001d391b6600175f433b","freq","img/green_2bandit_b2.png","null","70","test","0","178","178","9","",""
"null","253844","pSARL_v2","pSARL_v2azuv9vh0","5d74001d391b6600175f433b","fixation","img/fixation.png","null","","test","","","","","",""
"650.6000000014901","254505","pSARL_v2","pSARL_v2azuv9vh0","5d74001d391b6600175f433b","freq","img/green_2bandit_b2.png","70","70","test","1","179","179","9","",""
"null","254666","pSARL_v2","pSARL_v2azuv9vh0","5d74001d391b6600175f433b","freq_resp","img/green_2bandit_b.png","70","70","test","","","","9","",""
"null","254832","pSARL_v2","pSARL_v2azuv9vh0","5d74001d391b6600175f433b","fixation","img/fixation.png","null","","test","","","","","",""
"407.4000000022352","255248","pSARL_v2","pSARL_v2azuv9vh0","5d74001d391b6600175f433b","freq","img/green_2bandit_b2.png","70","70","test","1","180","180","9","",""
"null","255656","pSARL_v2","pSARL_v2azuv9vh0","5d74001d391b6600175f433b","freq_resp","img/green_2bandit_b.png","70","70","test","","","","9","",""
"null","255820","pSARL_v2","pSARL_v2azuv9vh0","5d74001d391b6600175f433b","fixation","img/fixation.png","null","","test","","","","","",""
"272.3999999985099","256100","pSARL_v2","pSARL_v2azuv9vh0","5d74001d391b6600175f433b","freq","img/green_2bandit_b2.png","70","70","test","1","181","181","9","",""
"null","256642","pSARL_v2","pSARL_v2azuv9vh0","5d74001d391b6600175f433b","freq_resp","img/green_2bandit_b.png","70","70","test","","","","9","",""
"null","256806","pSARL_v2","pSARL_v2azuv9vh0","5d74001d391b6600175f433b","fixation","img/fixation.png","null","","test","","","","","",""
"253.40000000223517","257070","pSARL_v2","pSARL_v2azuv9vh0","5d74001d391b6600175f433b","freq","img/green_2bandit_b2.png","70","70","test","1","182","182","9","",""
"null","257633","pSARL_v2","pSARL_v2azuv9vh0","5d74001d391b6600175f433b","freq_resp","img/green_2bandit_b.png","70","70","test","","","","9","",""
"null","257797","pSARL_v2","pSARL_v2azuv9vh0","5d74001d391b6600175f433b","fixation","img/fixation.png","null","","test","","","","","",""
"306.69999999925494","258113","pSARL_v2","pSARL_v2azuv9vh0","5d74001d391b6600175f433b","freq","img/green_2bandit_b2.png","70","70","test","1","183","183","9","",""
"null","258615","pSARL_v2","pSARL_v2azuv9vh0","5d74001d391b6600175f433b","freq_resp","img/green_2bandit_b.png","70","70","test","","","","9","",""
"null","258784","pSARL_v2","pSARL_v2azuv9vh0","5d74001d391b6600175f433b","fixation","img/fixation.png","null","","test","","","","","",""
"303.6000000014901","259092","pSARL_v2","pSARL_v2azuv9vh0","5d74001d391b6600175f433b","freq","img/green_2bandit_b2.png","70","70","test","1","184","184","9","",""
"null","259600","pSARL_v2","pSARL_v2azuv9vh0","5d74001d391b6600175f433b","freq_resp","img/green_2bandit_b.png","70","70","test","","","","9","",""
"null","259763","pSARL_v2","pSARL_v2azuv9vh0","5d74001d391b6600175f433b","fixation","img/fixation.png","null","","test","","","","","",""
"328.5","260104","pSARL_v2","pSARL_v2azuv9vh0","5d74001d391b6600175f433b","freq","img/green_2bandit_b2.png","70","70","test","1","185","185","9","",""
"null","260589","pSARL_v2","pSARL_v2azuv9vh0","5d74001d391b6600175f433b","freq_resp","img/green_2bandit_b.png","70","70","test","","","","9","",""
"null","260755","pSARL_v2","pSARL_v2azuv9vh0","5d74001d391b6600175f433b","fixation","img/fixation.png","null","","test","","","","","",""
"306","261073","pSARL_v2","pSARL_v2azuv9vh0","5d74001d391b6600175f433b","freq","img/green_2bandit_b2.png","70","70","test","1","186","186","9","",""
"null","261577","pSARL_v2","pSARL_v2azuv9vh0","5d74001d391b6600175f433b","freq_resp","img/green_2bandit_b.png","70","70","test","","","","9","",""
"null","261741","pSARL_v2","pSARL_v2azuv9vh0","5d74001d391b6600175f433b","fixation","img/fixation.png","null","","test","","","","","",""
"336.30000000074506","262085","pSARL_v2","pSARL_v2azuv9vh0","5d74001d391b6600175f433b","freq","img/green_2bandit_b2.png","70","70","test","1","187","187","9","",""
"null","262560","pSARL_v2","pSARL_v2azuv9vh0","5d74001d391b6600175f433b","freq_resp","img/green_2bandit_b.png","70","70","test","","","","9","",""
"null","262726","pSARL_v2","pSARL_v2azuv9vh0","5d74001d391b6600175f433b","fixation","img/fixation.png","null","","test","","","","","",""
"411.69999999925494","263150","pSARL_v2","pSARL_v2azuv9vh0","5d74001d391b6600175f433b","freq","img/green_2bandit_b2.png","70","70","test","1","188","188","9","",""
"null","263552","pSARL_v2","pSARL_v2azuv9vh0","5d74001d391b6600175f433b","freq_resp","img/green_2bandit_b.png","70","70","test","","","","9","",""
"null","263712","pSARL_v2","pSARL_v2azuv9vh0","5d74001d391b6600175f433b","fixation","img/fixation.png","null","","test","","","","","",""
"552.0999999977648","264276","pSARL_v2","pSARL_v2azuv9vh0","5d74001d391b6600175f433b","infreq","img/orange_2bandit_b2.png","68","68","test","1","189","189","9","",""
"null","264540","pSARL_v2","pSARL_v2azuv9vh0","5d74001d391b6600175f433b","infreq_resp","img/orange_2bandit_b.png","68","68","test","","","","9","",""
"null","264705","pSARL_v2","pSARL_v2azuv9vh0","5d74001d391b6600175f433b","fixation","img/fixation.png","null","","test","","","","","",""
"549.1999999992549","265264","pSARL_v2","pSARL_v2azuv9vh0","5d74001d391b6600175f433b","freq","img/green_2bandit_b2.png","70","70","test","1","190","190","9","",""
"null","265532","pSARL_v2","pSARL_v2azuv9vh0","5d74001d391b6600175f433b","freq_resp","img/green_2bandit_b.png","70","70","test","","","","9","",""
"null","265698","pSARL_v2","pSARL_v2azuv9vh0","5d74001d391b6600175f433b","fixation","img/fixation.png","null","","test","","","","","",""
"529.5999999977648","266234","pSARL_v2","pSARL_v2azuv9vh0","5d74001d391b6600175f433b","freq","img/green_2bandit_b2.png","70","70","test","1","191","191","9","",""
"null","266517","pSARL_v2","pSARL_v2azuv9vh0","5d74001d391b6600175f433b","freq_resp","img/green_2bandit_b.png","70","70","test","","","","9","",""
"null","266673","pSARL_v2","pSARL_v2azuv9vh0","5d74001d391b6600175f433b","fixation","img/fixation.png","null","","test","","","","","",""
"410.6000000014901","267086","pSARL_v2","pSARL_v2azuv9vh0","5d74001d391b6600175f433b","freq","img/green_2bandit_b2.png","70","70","test","1","192","192","9","",""
"null","267490","pSARL_v2","pSARL_v2azuv9vh0","5d74001d391b6600175f433b","freq_resp","img/green_2bandit_b.png","70","70","test","","","","9","",""
"null","267648","pSARL_v2","pSARL_v2azuv9vh0","5d74001d391b6600175f433b","fixation","img/fixation.png","null","","test","","","","","",""
"268","267923","pSARL_v2","pSARL_v2azuv9vh0","5d74001d391b6600175f433b","freq","img/green_2bandit_b2.png","70","70","test","1","193","193","9","",""
"null","268465","pSARL_v2","pSARL_v2azuv9vh0","5d74001d391b6600175f433b","freq_resp","img/green_2bandit_b.png","70","70","test","","","","9","",""
"null","268633","pSARL_v2","pSARL_v2azuv9vh0","5d74001d391b6600175f433b","fixation","img/fixation.png","null","","test","","","","","",""
"300.1000000014901","268946","pSARL_v2","pSARL_v2azuv9vh0","5d74001d391b6600175f433b","freq","img/green_2bandit_b2.png","70","70","test","1","194","194","9","",""
"null","269455","pSARL_v2","pSARL_v2azuv9vh0","5d74001d391b6600175f433b","freq_resp","img/green_2bandit_b.png","70","70","test","","","","9","",""
"null","269619","pSARL_v2","pSARL_v2azuv9vh0","5d74001d391b6600175f433b","fixation","img/fixation.png","null","","test","","","","","",""
"310.0999999977648","269938","pSARL_v2","pSARL_v2azuv9vh0","5d74001d391b6600175f433b","freq","img/green_2bandit_b2.png","70","70","test","1","195","195","9","",""
"null","270438","pSARL_v2","pSARL_v2azuv9vh0","5d74001d391b6600175f433b","freq_resp","img/green_2bandit_b.png","70","70","test","","","","9","",""
"null","270601","pSARL_v2","pSARL_v2azuv9vh0","5d74001d391b6600175f433b","fixation","img/fixation.png","null","","test","","","","","",""
"432.3999999985099","271037","pSARL_v2","pSARL_v2azuv9vh0","5d74001d391b6600175f433b","freq","img/green_2bandit_b2.png","70","70","test","1","196","196","9","",""
"null","271422","pSARL_v2","pSARL_v2azuv9vh0","5d74001d391b6600175f433b","freq_resp","img/green_2bandit_b.png","70","70","test","","","","9","",""
"null","271582","pSARL_v2","pSARL_v2azuv9vh0","5d74001d391b6600175f433b","fixation","img/fixation.png","null","","test","","","","","",""
"475.80000000074506","272067","pSARL_v2","pSARL_v2azuv9vh0","5d74001d391b6600175f433b","freq","img/green_2bandit_b2.png","70","70","test","1","197","197","9","",""
"null","272404","pSARL_v2","pSARL_v2azuv9vh0","5d74001d391b6600175f433b","freq_resp","img/green_2bandit_b.png","70","70","test","","","","9","",""
"null","272566","pSARL_v2","pSARL_v2azuv9vh0","5d74001d391b6600175f433b","fixation","img/fixation.png","null","","test","","","","","",""
"332.9000000022352","272908","pSARL_v2","pSARL_v2azuv9vh0","5d74001d391b6600175f433b","freq","img/green_2bandit_b2.png","70","70","test","1","198","198","9","",""
"null","273391","pSARL_v2","pSARL_v2azuv9vh0","5d74001d391b6600175f433b","freq_resp","img/green_2bandit_b.png","70","70","test","","","","9","",""
"null","273561","pSARL_v2","pSARL_v2azuv9vh0","5d74001d391b6600175f433b","fixation","img/fixation.png","null","","test","","","","","",""
"430.30000000074506","274001","pSARL_v2","pSARL_v2azuv9vh0","5d74001d391b6600175f433b","freq","img/green_2bandit_b2.png","70","70","test","1","199","199","9","",""
"null","274388","pSARL_v2","pSARL_v2azuv9vh0","5d74001d391b6600175f433b","freq_resp","img/green_2bandit_b.png","70","70","test","","","","9","",""
"null","274551","pSARL_v2","pSARL_v2azuv9vh0","5d74001d391b6600175f433b","fixation","img/fixation.png","null","","test","","","","","",""
"496.4000000022352","275051","pSARL_v2","pSARL_v2azuv9vh0","5d74001d391b6600175f433b","reward","img/slot.png","74","","test","","","","","",""
"null","275816","pSARL_v2","pSARL_v2azuv9vh0","5d74001d391b6600175f433b","points","<div class=""verylowPoints""> -3 </div>","null","na","test","","","","9","-3","8"
"665.5","276489","pSARL_v2","pSARL_v2azuv9vh0","5d74001d391b6600175f433b","freq","img/green_2bandit_b2.png","70","70","test","1","200","200","10","",""
"null","276630","pSARL_v2","pSARL_v2azuv9vh0","5d74001d391b6600175f433b","freq_resp","img/green_2bandit_b.png","70","70","test","","","","10","",""
"null","276796","pSARL_v2","pSARL_v2azuv9vh0","5d74001d391b6600175f433b","fixation","img/fixation.png","null","","test","","","","","",""
"null","277611","pSARL_v2","pSARL_v2azuv9vh0","5d74001d391b6600175f433b","infreq","img/orange_2bandit_b2.png","null","68","test","0","201","201","10","",""
"null","277775","pSARL_v2","pSARL_v2azuv9vh0","5d74001d391b6600175f433b","fixation","img/fixation.png","null","","test","","","","","",""
"514.1000000014901","278298","pSARL_v2","pSARL_v2azuv9vh0","5d74001d391b6600175f433b","infreq","img/orange_2bandit_b2.png","68","68","test","1","202","202","10","",""
"null","278596","pSARL_v2","pSARL_v2azuv9vh0","5d74001d391b6600175f433b","infreq_resp","img/orange_2bandit_b.png","68","68","test","","","","10","",""
"null","278760","pSARL_v2","pSARL_v2azuv9vh0","5d74001d391b6600175f433b","fixation","img/fixation.png","null","","test","","","","","",""
"494.5999999977648","279264","pSARL_v2","pSARL_v2azuv9vh0","5d74001d391b6600175f433b","freq","img/green_2bandit_b2.png","70","70","test","1","203","203","10","",""
"null","279580","pSARL_v2","pSARL_v2azuv9vh0","5d74001d391b6600175f433b","freq_resp","img/green_2bandit_b.png","70","70","test","","","","10","",""
"null","279743","pSARL_v2","pSARL_v2azuv9vh0","5d74001d391b6600175f433b","fixation","img/fixation.png","null","","test","","","","","",""
"323.70000000298023","280076","pSARL_v2","pSARL_v2azuv9vh0","5d74001d391b6600175f433b","freq","img/green_2bandit_b2.png","70","70","test","1","204","204","10","",""
"null","280564","pSARL_v2","pSARL_v2azuv9vh0","5d74001d391b6600175f433b","freq_resp","img/green_2bandit_b.png","70","70","test","","","","10","",""
"null","280728","pSARL_v2","pSARL_v2azuv9vh0","5d74001d391b6600175f433b","fixation","img/fixation.png","null","","test","","","","","",""
"403.6000000014901","281134","pSARL_v2","pSARL_v2azuv9vh0","5d74001d391b6600175f433b","freq","img/green_2bandit_b2.png","70","70","test","1","205","205","10","",""
"null","281544","pSARL_v2","pSARL_v2azuv9vh0","5d74001d391b6600175f433b","freq_resp","img/green_2bandit_b.png","70","70","test","","","","10","",""
"null","281712","pSARL_v2","pSARL_v2azuv9vh0","5d74001d391b6600175f433b","fixation","img/fixation.png","null","","test","","","","","",""
"237.30000000074506","281959","pSARL_v2","pSARL_v2azuv9vh0","5d74001d391b6600175f433b","freq","img/green_2bandit_b2.png","70","70","test","1","206","206","10","",""
"null","282538","pSARL_v2","pSARL_v2azuv9vh0","5d74001d391b6600175f433b","freq_resp","img/green_2bandit_b.png","70","70","test","","","","10","",""
"null","282706","pSARL_v2","pSARL_v2azuv9vh0","5d74001d391b6600175f433b","fixation","img/fixation.png","null","","test","","","","","",""
"560.8000000007451","283275","pSARL_v2","pSARL_v2azuv9vh0","5d74001d391b6600175f433b","freq","img/green_2bandit_b2.png","70","70","test","1","207","207","10","",""
"null","283527","pSARL_v2","pSARL_v2azuv9vh0","5d74001d391b6600175f433b","freq_resp","img/green_2bandit_b.png","70","70","test","","","","10","",""
"null","283691","pSARL_v2","pSARL_v2azuv9vh0","5d74001d391b6600175f433b","fixation","img/fixation.png","null","","test","","","","","",""
"621.7999999970198","284322","pSARL_v2","pSARL_v2azuv9vh0","5d74001d391b6600175f433b","freq","img/green_2bandit_b2.png","70","70","test","1","208","208","10","",""
"null","284512","pSARL_v2","pSARL_v2azuv9vh0","5d74001d391b6600175f433b","freq_resp","img/green_2bandit_b.png","70","70","test","","","","10","",""
