"rt","time_elapsed","expId","subject","prolificID","trialType","stimulus","key_press","corrresp","phase","corr","trialNum","attentionRunNum","blockNum","points","rlNum"
"8246.5","8259","pSARL_v2","pSARL_v2l34y4ws0","607f7f18d84d010ea2cd8664","","","","","","","","","","",""
"","11764","pSARL_v2","pSARL_v2l34y4ws0","607f7f18d84d010ea2cd8664","fullscreen","","","","","","","","","",""
"105386.70000004768","117160","pSARL_v2","pSARL_v2l34y4ws0","607f7f18d84d010ea2cd8664","","","","","","","","","","",""
"null","117971","pSARL_v2","pSARL_v2l34y4ws0","607f7f18d84d010ea2cd8664","freqPrac","img/orange_2bandit_b2.png","null","70","prac","0","","","","",""
"null","118985","pSARL_v2","pSARL_v2l34y4ws0","607f7f18d84d010ea2cd8664","feedback","img/tooSlow.png","null","na","prac","","","","","",""
"null","119159","pSARL_v2","pSARL_v2l34y4ws0","607f7f18d84d010ea2cd8664","fixation","img/fixation.png","null","","prac","","","","","",""
"488.90000009536743","119658","pSARL_v2","pSARL_v2l34y4ws0","607f7f18d84d010ea2cd8664","infreqPrac","img/green_2bandit_b2.png","68","68","prac","1","","","","",""
"488.90000009536743","119979","pSARL_v2","pSARL_v2l34y4ws0","607f7f18d84d010ea2cd8664","infreqPrac_resp","img/green_2bandit_b.png","68","68","prac","","","","","",""
"null","120146","pSARL_v2","pSARL_v2l34y4ws0","607f7f18d84d010ea2cd8664","fixation","img/fixation.png","null","","prac","","","","","",""
"413.7000000476837","120567","pSARL_v2","pSARL_v2l34y4ws0","607f7f18d84d010ea2cd8664","freqPrac","img/orange_2bandit_b2.png","70","70","prac","1","","","","",""
"413.7000000476837","120976","pSARL_v2","pSARL_v2l34y4ws0","607f7f18d84d010ea2cd8664","freqPrac_resp","img/orange_2bandit_b.png","70","70","prac","","","","","",""
"null","121143","pSARL_v2","pSARL_v2l34y4ws0","607f7f18d84d010ea2cd8664","fixation","img/fixation.png","null","","prac","","","","","",""
"439.60000014305115","121592","pSARL_v2","pSARL_v2l34y4ws0","607f7f18d84d010ea2cd8664","infreqPrac","img/green_2bandit_b2.png","70","68","prac","0","","","","",""
"439.60000014305115","121965","pSARL_v2","pSARL_v2l34y4ws0","607f7f18d84d010ea2cd8664","infreqPrac_resp","img/green_2bandit_b.png","70","68","prac","","","","","",""
"null","122987","pSARL_v2","pSARL_v2l34y4ws0","607f7f18d84d010ea2cd8664","feedback","img/wrongKey.png","null","na","prac","","","","","",""
"null","123161","pSARL_v2","pSARL_v2l34y4ws0","607f7f18d84d010ea2cd8664","fixation","img/fixation.png","null","","prac","","","","","",""
"513","123684","pSARL_v2","pSARL_v2l34y4ws0","607f7f18d84d010ea2cd8664","infreqPrac","img/green_2bandit_b2.png","68","68","prac","1","","","","",""
"513","123986","pSARL_v2","pSARL_v2l34y4ws0","607f7f18d84d010ea2cd8664","infreqPrac_resp","img/green_2bandit_b.png","68","68","prac","","","","","",""
"null","124156","pSARL_v2","pSARL_v2l34y4ws0","607f7f18d84d010ea2cd8664","fixation","img/fixation.png","null","","prac","","","","","",""
"385","124550","pSARL_v2","pSARL_v2l34y4ws0","607f7f18d84d010ea2cd8664","infreqPrac","img/green_2bandit_b2.png","68","68","prac","1","","","","",""
"385","124980","pSARL_v2","pSARL_v2l34y4ws0","607f7f18d84d010ea2cd8664","infreqPrac_resp","img/green_2bandit_b.png","68","68","prac","","","","","",""
"null","125145","pSARL_v2","pSARL_v2l34y4ws0","607f7f18d84d010ea2cd8664","fixation","img/fixation.png","null","","prac","","","","","",""
"511.7999999523163","125664","pSARL_v2","pSARL_v2l34y4ws0","607f7f18d84d010ea2cd8664","freqPrac","img/orange_2bandit_b2.png","70","70","prac","1","","","","",""
"511.7999999523163","125966","pSARL_v2","pSARL_v2l34y4ws0","607f7f18d84d010ea2cd8664","freqPrac_resp","img/orange_2bandit_b.png","70","70","prac","","","","","",""
"null","126126","pSARL_v2","pSARL_v2l34y4ws0","607f7f18d84d010ea2cd8664","fixation","img/fixation.png","null","","prac","","","","","",""
"760","126896","pSARL_v2","pSARL_v2l34y4ws0","607f7f18d84d010ea2cd8664","infreqPrac","img/green_2bandit_b2.png","68","68","prac","1","","","","",""
"760","126962","pSARL_v2","pSARL_v2l34y4ws0","607f7f18d84d010ea2cd8664","infreqPrac_resp","img/green_2bandit_b.png","68","68","prac","","","","","",""
"null","127134","pSARL_v2","pSARL_v2l34y4ws0","607f7f18d84d010ea2cd8664","fixation","img/fixation.png","null","","prac","","","","","",""
"509.7000000476837","127651","pSARL_v2","pSARL_v2l34y4ws0","607f7f18d84d010ea2cd8664","freqPrac","img/orange_2bandit_b2.png","70","70","prac","1","","","","",""
"509.7000000476837","127950","pSARL_v2","pSARL_v2l34y4ws0","607f7f18d84d010ea2cd8664","freqPrac_resp","img/orange_2bandit_b.png","70","70","prac","","","","","",""
"null","128126","pSARL_v2","pSARL_v2l34y4ws0","607f7f18d84d010ea2cd8664","fixation","img/fixation.png","null","","prac","","","","","",""
"378.2000000476837","128517","pSARL_v2","pSARL_v2l34y4ws0","607f7f18d84d010ea2cd8664","freqPrac","img/orange_2bandit_b2.png","70","70","prac","1","","","","",""
"378.2000000476837","128962","pSARL_v2","pSARL_v2l34y4ws0","607f7f18d84d010ea2cd8664","freqPrac_resp","img/orange_2bandit_b.png","70","70","prac","","","","","",""
"null","129124","pSARL_v2","pSARL_v2l34y4ws0","607f7f18d84d010ea2cd8664","fixation","img/fixation.png","null","","prac","","","","","",""
"24409.200000047684","153538","pSARL_v2","pSARL_v2l34y4ws0","607f7f18d84d010ea2cd8664","","","","","prac","","","","","",""
"1179.8000001907349","154733","pSARL_v2","pSARL_v2l34y4ws0","607f7f18d84d010ea2cd8664","rewardPractice","img/slot.png","74","","prac","","","","","",""
"null","155503","pSARL_v2","pSARL_v2l34y4ws0","607f7f18d84d010ea2cd8664","feedback","<div class=""veryhighPoints""> +15 </div>","null","na","prac","","","","","",""
"null","155669","pSARL_v2","pSARL_v2l34y4ws0","607f7f18d84d010ea2cd8664","fixation","img/fixation.png","null","","prac","","","","","",""
"22765.400000095367","178445","pSARL_v2","pSARL_v2l34y4ws0","607f7f18d84d010ea2cd8664","","","","","prac","","","","","",""
"null","179274","pSARL_v2","pSARL_v2l34y4ws0","607f7f18d84d010ea2cd8664","freq","img/orange_2bandit_b2.png","null","70","test","0","1","1","1","",""
"null","179436","pSARL_v2","pSARL_v2l34y4ws0","607f7f18d84d010ea2cd8664","fixation","img/fixation.png","null","","test","","","","","",""
"0.2999999523162842","179448","pSARL_v2","pSARL_v2l34y4ws0","607f7f18d84d010ea2cd8664","freq","img/orange_2bandit_b2.png","70","70","test","1","2","2","1","",""
"null","180270","pSARL_v2","pSARL_v2l34y4ws0","607f7f18d84d010ea2cd8664","freq_resp","img/orange_2bandit_b.png","70","70","test","","","","1","",""
"null","180441","pSARL_v2","pSARL_v2l34y4ws0","607f7f18d84d010ea2cd8664","fixation","img/fixation.png","null","","test","","","","","",""
"537.2999999523163","180988","pSARL_v2","pSARL_v2l34y4ws0","607f7f18d84d010ea2cd8664","freq","img/orange_2bandit_b2.png","70","70","test","1","3","3","1","",""
"null","181262","pSARL_v2","pSARL_v2l34y4ws0","607f7f18d84d010ea2cd8664","freq_resp","img/orange_2bandit_b.png","70","70","test","","","","1","",""
"null","181437","pSARL_v2","pSARL_v2l34y4ws0","607f7f18d84d010ea2cd8664","fixation","img/fixation.png","null","","test","","","","","",""
"388.90000009536743","181837","pSARL_v2","pSARL_v2l34y4ws0","607f7f18d84d010ea2cd8664","freq","img/orange_2bandit_b2.png","70","70","test","1","4","4","1","",""
"null","182268","pSARL_v2","pSARL_v2l34y4ws0","607f7f18d84d010ea2cd8664","freq_resp","img/orange_2bandit_b.png","70","70","test","","","","1","",""
"null","182433","pSARL_v2","pSARL_v2l34y4ws0","607f7f18d84d010ea2cd8664","fixation","img/fixation.png","null","","test","","","","","",""
"351.90000009536743","182793","pSARL_v2","pSARL_v2l34y4ws0","607f7f18d84d010ea2cd8664","freq","img/orange_2bandit_b2.png","70","70","test","1","5","5","1","",""
"null","183250","pSARL_v2","pSARL_v2l34y4ws0","607f7f18d84d010ea2cd8664","freq_resp","img/orange_2bandit_b.png","70","70","test","","","","1","",""
"null","183417","pSARL_v2","pSARL_v2l34y4ws0","607f7f18d84d010ea2cd8664","fixation","img/fixation.png","null","","test","","","","","",""
"289.7000000476837","183714","pSARL_v2","pSARL_v2l34y4ws0","607f7f18d84d010ea2cd8664","freq","img/orange_2bandit_b2.png","70","70","test","1","6","6","1","",""
"null","184246","pSARL_v2","pSARL_v2l34y4ws0","607f7f18d84d010ea2cd8664","freq_resp","img/orange_2bandit_b.png","70","70","test","","","","1","",""
"null","184420","pSARL_v2","pSARL_v2l34y4ws0","607f7f18d84d010ea2cd8664","fixation","img/fixation.png","null","","test","","","","","",""
"303.2000000476837","184733","pSARL_v2","pSARL_v2l34y4ws0","607f7f18d84d010ea2cd8664","freq","img/orange_2bandit_b2.png","70","70","test","1","7","7","1","",""
"null","185250","pSARL_v2","pSARL_v2l34y4ws0","607f7f18d84d010ea2cd8664","freq_resp","img/orange_2bandit_b.png","70","70","test","","","","1","",""
"null","185416","pSARL_v2","pSARL_v2l34y4ws0","607f7f18d84d010ea2cd8664","fixation","img/fixation.png","null","","test","","","","","",""
"441.59999990463257","185865","pSARL_v2","pSARL_v2l34y4ws0","607f7f18d84d010ea2cd8664","infreq","img/green_2bandit_b2.png","68","68","test","1","8","8","1","",""
"null","186239","pSARL_v2","pSARL_v2l34y4ws0","607f7f18d84d010ea2cd8664","infreq_resp","img/green_2bandit_b.png","68","68","test","","","","1","",""
"null","186405","pSARL_v2","pSARL_v2l34y4ws0","607f7f18d84d010ea2cd8664","fixation","img/fixation.png","null","","test","","","","","",""
"553.2000000476837","186967","pSARL_v2","pSARL_v2l34y4ws0","607f7f18d84d010ea2cd8664","freq","img/orange_2bandit_b2.png","70","70","test","1","9","9","1","",""
"null","187228","pSARL_v2","pSARL_v2l34y4ws0","607f7f18d84d010ea2cd8664","freq_resp","img/orange_2bandit_b.png","70","70","test","","","","1","",""
"null","187401","pSARL_v2","pSARL_v2l34y4ws0","607f7f18d84d010ea2cd8664","fixation","img/fixation.png","null","","test","","","","","",""
"405.5","187819","pSARL_v2","pSARL_v2l34y4ws0","607f7f18d84d010ea2cd8664","freq","img/orange_2bandit_b2.png","70","70","test","1","10","10","1","",""
"null","188222","pSARL_v2","pSARL_v2l34y4ws0","607f7f18d84d010ea2cd8664","freq_resp","img/orange_2bandit_b.png","70","70","test","","","","1","",""
"null","188385","pSARL_v2","pSARL_v2l34y4ws0","607f7f18d84d010ea2cd8664","fixation","img/fixation.png","null","","test","","","","","",""
"454.2000000476837","188848","pSARL_v2","pSARL_v2l34y4ws0","607f7f18d84d010ea2cd8664","freq","img/orange_2bandit_b2.png","70","70","test","1","11","11","1","",""
"null","189205","pSARL_v2","pSARL_v2l34y4ws0","607f7f18d84d010ea2cd8664","freq_resp","img/orange_2bandit_b.png","70","70","test","","","","1","",""
"null","189369","pSARL_v2","pSARL_v2l34y4ws0","607f7f18d84d010ea2cd8664","fixation","img/fixation.png","null","","test","","","","","",""
"412.39999985694885","189789","pSARL_v2","pSARL_v2l34y4ws0","607f7f18d84d010ea2cd8664","freq","img/orange_2bandit_b2.png","70","70","test","1","12","12","1","",""
"null","190186","pSARL_v2","pSARL_v2l34y4ws0","607f7f18d84d010ea2cd8664","freq_resp","img/orange_2bandit_b.png","70","70","test","","","","1","",""
"null","190352","pSARL_v2","pSARL_v2l34y4ws0","607f7f18d84d010ea2cd8664","fixation","img/fixation.png","null","","test","","","","","",""
"427.5","190792","pSARL_v2","pSARL_v2l34y4ws0","607f7f18d84d010ea2cd8664","freq","img/orange_2bandit_b2.png","70","70","test","1","13","13","1","",""
"null","191185","pSARL_v2","pSARL_v2l34y4ws0","607f7f18d84d010ea2cd8664","freq_resp","img/orange_2bandit_b.png","70","70","test","","","","1","",""
"null","191352","pSARL_v2","pSARL_v2l34y4ws0","607f7f18d84d010ea2cd8664","fixation","img/fixation.png","null","","test","","","","","",""
"386.7999999523163","191745","pSARL_v2","pSARL_v2l34y4ws0","607f7f18d84d010ea2cd8664","freq","img/orange_2bandit_b2.png","70","70","test","1","14","14","1","",""
"null","192170","pSARL_v2","pSARL_v2l34y4ws0","607f7f18d84d010ea2cd8664","freq_resp","img/orange_2bandit_b.png","70","70","test","","","","1","",""
"null","192336","pSARL_v2","pSARL_v2l34y4ws0","607f7f18d84d010ea2cd8664","fixation","img/fixation.png","null","","test","","","","","",""
"352.39999985694885","192701","pSARL_v2","pSARL_v2l34y4ws0","607f7f18d84d010ea2cd8664","freq","img/orange_2bandit_b2.png","70","70","test","1","15","15","1","",""
"null","193169","pSARL_v2","pSARL_v2l34y4ws0","607f7f18d84d010ea2cd8664","freq_resp","img/orange_2bandit_b.png","70","70","test","","","","1","",""
"null","193332","pSARL_v2","pSARL_v2l34y4ws0","607f7f18d84d010ea2cd8664","fixation","img/fixation.png","null","","test","","","","","",""
"330.2999999523163","193673","pSARL_v2","pSARL_v2l34y4ws0","607f7f18d84d010ea2cd8664","freq","img/orange_2bandit_b2.png","70","70","test","1","16","16","1","",""
"null","194151","pSARL_v2","pSARL_v2l34y4ws0","607f7f18d84d010ea2cd8664","freq_resp","img/orange_2bandit_b.png","70","70","test","","","","1","",""
"null","194318","pSARL_v2","pSARL_v2l34y4ws0","607f7f18d84d010ea2cd8664","fixation","img/fixation.png","null","","test","","","","","",""
"292.2000000476837","194618","pSARL_v2","pSARL_v2l34y4ws0","607f7f18d84d010ea2cd8664","freq","img/orange_2bandit_b2.png","70","70","test","1","17","17","1","",""
"null","195146","pSARL_v2","pSARL_v2l34y4ws0","607f7f18d84d010ea2cd8664","freq_resp","img/orange_2bandit_b.png","70","70","test","","","","1","",""
"null","195318","pSARL_v2","pSARL_v2l34y4ws0","607f7f18d84d010ea2cd8664","fixation","img/fixation.png","null","","test","","","","","",""
"304","195637","pSARL_v2","pSARL_v2l34y4ws0","607f7f18d84d010ea2cd8664","freq","img/orange_2bandit_b2.png","70","70","test","1","18","18","1","",""
"null","196147","pSARL_v2","pSARL_v2l34y4ws0","607f7f18d84d010ea2cd8664","freq_resp","img/orange_2bandit_b.png","70","70","test","","","","1","",""
"null","196319","pSARL_v2","pSARL_v2l34y4ws0","607f7f18d84d010ea2cd8664","fixation","img/fixation.png","null","","test","","","","","",""
"284.5","196611","pSARL_v2","pSARL_v2l34y4ws0","607f7f18d84d010ea2cd8664","freq","img/orange_2bandit_b2.png","70","70","test","1","19","19","1","",""
"null","197145","pSARL_v2","pSARL_v2l34y4ws0","607f7f18d84d010ea2cd8664","freq_resp","img/orange_2bandit_b.png","70","70","test","","","","1","",""
"null","197317","pSARL_v2","pSARL_v2l34y4ws0","607f7f18d84d010ea2cd8664","fixation","img/fixation.png","null","","test","","","","","",""
"278.2000000476837","197604","pSARL_v2","pSARL_v2l34y4ws0","607f7f18d84d010ea2cd8664","freq","img/orange_2bandit_b2.png","70","70","test","1","20","20","1","",""
"null","198150","pSARL_v2","pSARL_v2l34y4ws0","607f7f18d84d010ea2cd8664","freq_resp","img/orange_2bandit_b.png","70","70","test","","","","1","",""
"null","198315","pSARL_v2","pSARL_v2l34y4ws0","607f7f18d84d010ea2cd8664","fixation","img/fixation.png","null","","test","","","","","",""
"289.89999985694885","198617","pSARL_v2","pSARL_v2l34y4ws0","607f7f18d84d010ea2cd8664","freq","img/orange_2bandit_b2.png","70","70","test","1","21","21","1","",""
"null","199145","pSARL_v2","pSARL_v2l34y4ws0","607f7f18d84d010ea2cd8664","freq_resp","img/orange_2bandit_b.png","70","70","test","","","","1","",""
"null","199319","pSARL_v2","pSARL_v2l34y4ws0","607f7f18d84d010ea2cd8664","fixation","img/fixation.png","null","","test","","","","","",""
"283.60000014305115","199615","pSARL_v2","pSARL_v2l34y4ws0","607f7f18d84d010ea2cd8664","freq","img/orange_2bandit_b2.png","70","70","test","1","22","22","1","",""
"null","200145","pSARL_v2","pSARL_v2l34y4ws0","607f7f18d84d010ea2cd8664","freq_resp","img/orange_2bandit_b.png","70","70","test","","","","1","",""
"null","200313","pSARL_v2","pSARL_v2l34y4ws0","607f7f18d84d010ea2cd8664","fixation","img/fixation.png","null","","test","","","","","",""
"307","200629","pSARL_v2","pSARL_v2l34y4ws0","607f7f18d84d010ea2cd8664","infreq","img/green_2bandit_b2.png","70","68","test","0","23","23","1","",""
"null","201135","pSARL_v2","pSARL_v2l34y4ws0","607f7f18d84d010ea2cd8664","infreq_resp","img/green_2bandit_b.png","70","68","test","","","","1","",""
"null","201298","pSARL_v2","pSARL_v2l34y4ws0","607f7f18d84d010ea2cd8664","fixation","img/fixation.png","null","","test","","","","","",""
"764.7999999523163","202071","pSARL_v2","pSARL_v2l34y4ws0","607f7f18d84d010ea2cd8664","freq","img/orange_2bandit_b2.png","70","70","test","1","24","24","1","",""
"null","202119","pSARL_v2","pSARL_v2l34y4ws0","607f7f18d84d010ea2cd8664","freq_resp","img/orange_2bandit_b.png","70","70","test","","","","1","",""
"null","202285","pSARL_v2","pSARL_v2l34y4ws0","607f7f18d84d010ea2cd8664","fixation","img/fixation.png","null","","test","","","","","",""
"555.1000001430511","202848","pSARL_v2","pSARL_v2l34y4ws0","607f7f18d84d010ea2cd8664","freq","img/orange_2bandit_b2.png","70","70","test","1","25","25","1","",""
"null","203108","pSARL_v2","pSARL_v2l34y4ws0","607f7f18d84d010ea2cd8664","freq_resp","img/orange_2bandit_b.png","70","70","test","","","","1","",""
"null","203267","pSARL_v2","pSARL_v2l34y4ws0","607f7f18d84d010ea2cd8664","fixation","img/fixation.png","null","","test","","","","","",""
"375.90000009536743","203651","pSARL_v2","pSARL_v2l34y4ws0","607f7f18d84d010ea2cd8664","freq","img/orange_2bandit_b2.png","70","70","test","1","26","26","1","",""
"null","204098","pSARL_v2","pSARL_v2l34y4ws0","607f7f18d84d010ea2cd8664","freq_resp","img/orange_2bandit_b.png","70","70","test","","","","1","",""
"null","204265","pSARL_v2","pSARL_v2l34y4ws0","607f7f18d84d010ea2cd8664","fixation","img/fixation.png","null","","test","","","","","",""
"732.0999999046326","205004","pSARL_v2","pSARL_v2l34y4ws0","607f7f18d84d010ea2cd8664","reward","img/slot.png","74","","test","","","","","",""
"null","205765","pSARL_v2","pSARL_v2l34y4ws0","607f7f18d84d010ea2cd8664","points","<div class=""verylowPoints""> -6 </div>","null","na","test","","","","1","-6","0"
"770","206546","pSARL_v2","pSARL_v2l34y4ws0","607f7f18d84d010ea2cd8664","freq","img/orange_2bandit_b2.png","70","70","test","1","27","27","2","",""
"null","206585","pSARL_v2","pSARL_v2l34y4ws0","607f7f18d84d010ea2cd8664","freq_resp","img/orange_2bandit_b.png","70","70","test","","","","2","",""
"null","206753","pSARL_v2","pSARL_v2l34y4ws0","607f7f18d84d010ea2cd8664","fixation","img/fixation.png","null","","test","","","","","",""
"634.2000000476837","207399","pSARL_v2","pSARL_v2l34y4ws0","607f7f18d84d010ea2cd8664","freq","img/orange_2bandit_b2.png","70","70","test","1","28","28","2","",""
"null","207582","pSARL_v2","pSARL_v2l34y4ws0","607f7f18d84d010ea2cd8664","freq_resp","img/orange_2bandit_b.png","70","70","test","","","","2","",""
"null","207753","pSARL_v2","pSARL_v2l34y4ws0","607f7f18d84d010ea2cd8664","fixation","img/fixation.png","null","","test","","","","","",""
"539.9000000953674","208303","pSARL_v2","pSARL_v2l34y4ws0","607f7f18d84d010ea2cd8664","freq","img/orange_2bandit_b2.png","70","70","test","1","29","29","2","",""
"null","208575","pSARL_v2","pSARL_v2l34y4ws0","607f7f18d84d010ea2cd8664","freq_resp","img/orange_2bandit_b.png","70","70","test","","","","2","",""
"null","208747","pSARL_v2","pSARL_v2l34y4ws0","607f7f18d84d010ea2cd8664","fixation","img/fixation.png","null","","test","","","","","",""
"608.5999999046326","209362","pSARL_v2","pSARL_v2l34y4ws0","607f7f18d84d010ea2cd8664","infreq","img/green_2bandit_b2.png","68","68","test","1","30","30","2","",""
"null","209563","pSARL_v2","pSARL_v2l34y4ws0","607f7f18d84d010ea2cd8664","infreq_resp","img/green_2bandit_b.png","68","68","test","","","","2","",""
"null","209730","pSARL_v2","pSARL_v2l34y4ws0","607f7f18d84d010ea2cd8664","fixation","img/fixation.png","null","","test","","","","","",""
"635.9000000953674","210373","pSARL_v2","pSARL_v2l34y4ws0","607f7f18d84d010ea2cd8664","freq","img/orange_2bandit_b2.png","70","70","test","1","31","31","2","",""
"null","210545","pSARL_v2","pSARL_v2l34y4ws0","607f7f18d84d010ea2cd8664","freq_resp","img/orange_2bandit_b.png","70","70","test","","","","2","",""
"null","210716","pSARL_v2","pSARL_v2l34y4ws0","607f7f18d84d010ea2cd8664","fixation","img/fixation.png","null","","test","","","","","",""
"435.09999990463257","211165","pSARL_v2","pSARL_v2l34y4ws0","607f7f18d84d010ea2cd8664","freq","img/orange_2bandit_b2.png","70","70","test","1","32","32","2","",""
"null","211550","pSARL_v2","pSARL_v2l34y4ws0","607f7f18d84d010ea2cd8664","freq_resp","img/orange_2bandit_b.png","70","70","test","","","","2","",""
"null","211718","pSARL_v2","pSARL_v2l34y4ws0","607f7f18d84d010ea2cd8664","fixation","img/fixation.png","null","","test","","","","","",""
"380.10000014305115","212106","pSARL_v2","pSARL_v2l34y4ws0","607f7f18d84d010ea2cd8664","freq","img/orange_2bandit_b2.png","70","70","test","1","33","33","2","",""
"null","212535","pSARL_v2","pSARL_v2l34y4ws0","607f7f18d84d010ea2cd8664","freq_resp","img/orange_2bandit_b.png","70","70","test","","","","2","",""
"null","212697","pSARL_v2","pSARL_v2l34y4ws0","607f7f18d84d010ea2cd8664","fixation","img/fixation.png","null","","test","","","","","",""
"505","213209","pSARL_v2","pSARL_v2l34y4ws0","607f7f18d84d010ea2cd8664","infreq","img/green_2bandit_b2.png","68","68","test","1","34","34","2","",""
"null","213521","pSARL_v2","pSARL_v2l34y4ws0","607f7f18d84d010ea2cd8664","infreq_resp","img/green_2bandit_b.png","68","68","test","","","","2","",""
"null","213683","pSARL_v2","pSARL_v2l34y4ws0","607f7f18d84d010ea2cd8664","fixation","img/fixation.png","null","","test","","","","","",""
"514.7999999523163","214206","pSARL_v2","pSARL_v2l34y4ws0","607f7f18d84d010ea2cd8664","freq","img/orange_2bandit_b2.png","70","70","test","1","35","35","2","",""
"null","214505","pSARL_v2","pSARL_v2l34y4ws0","607f7f18d84d010ea2cd8664","freq_resp","img/orange_2bandit_b.png","70","70","test","","","","2","",""
"null","214666","pSARL_v2","pSARL_v2l34y4ws0","607f7f18d84d010ea2cd8664","fixation","img/fixation.png","null","","test","","","","","",""
"298.5","214976","pSARL_v2","pSARL_v2l34y4ws0","607f7f18d84d010ea2cd8664","freq","img/orange_2bandit_b2.png","70","70","test","1","36","36","2","",""
"null","215497","pSARL_v2","pSARL_v2l34y4ws0","607f7f18d84d010ea2cd8664","freq_resp","img/orange_2bandit_b.png","70","70","test","","","","2","",""
"null","215666","pSARL_v2","pSARL_v2l34y4ws0","607f7f18d84d010ea2cd8664","fixation","img/fixation.png","null","","test","","","","","",""
"331.90000009536743","216009","pSARL_v2","pSARL_v2l34y4ws0","607f7f18d84d010ea2cd8664","freq","img/orange_2bandit_b2.png","70","70","test","1","37","37","2","",""
"null","216496","pSARL_v2","pSARL_v2l34y4ws0","607f7f18d84d010ea2cd8664","freq_resp","img/orange_2bandit_b.png","70","70","test","","","","2","",""
"null","216662","pSARL_v2","pSARL_v2l34y4ws0","607f7f18d84d010ea2cd8664","fixation","img/fixation.png","null","","test","","","","","",""
"319.2000000476837","216988","pSARL_v2","pSARL_v2l34y4ws0","607f7f18d84d010ea2cd8664","freq","img/orange_2bandit_b2.png","70","70","test","1","38","38","2","",""
"null","217480","pSARL_v2","pSARL_v2l34y4ws0","607f7f18d84d010ea2cd8664","freq_resp","img/orange_2bandit_b.png","70","70","test","","","","2","",""
"null","217650","pSARL_v2","pSARL_v2l34y4ws0","607f7f18d84d010ea2cd8664","fixation","img/fixation.png","null","","test","","","","","",""
"352.40000009536743","218014","pSARL_v2","pSARL_v2l34y4ws0","607f7f18d84d010ea2cd8664","freq","img/orange_2bandit_b2.png","70","70","test","1","39","39","2","",""
"null","218479","pSARL_v2","pSARL_v2l34y4ws0","607f7f18d84d010ea2cd8664","freq_resp","img/orange_2bandit_b.png","70","70","test","","","","2","",""
"null","218648","pSARL_v2","pSARL_v2l34y4ws0","607f7f18d84d010ea2cd8664","fixation","img/fixation.png","null","","test","","","","","",""
"287.89999985694885","218943","pSARL_v2","pSARL_v2l34y4ws0","607f7f18d84d010ea2cd8664","freq","img/orange_2bandit_b2.png","70","70","test","1","40","40","2","",""
"null","219475","pSARL_v2","pSARL_v2l34y4ws0","607f7f18d84d010ea2cd8664","freq_resp","img/orange_2bandit_b.png","70","70","test","","","","2","",""
"null","219646","pSARL_v2","pSARL_v2l34y4ws0","607f7f18d84d010ea2cd8664","fixation","img/fixation.png","null","","test","","","","","",""
"172.29999995231628","219826","pSARL_v2","pSARL_v2l34y4ws0","607f7f18d84d010ea2cd8664","freq","img/orange_2bandit_b2.png","70","70","test","1","41","41","2","",""
"null","220470","pSARL_v2","pSARL_v2l34y4ws0","607f7f18d84d010ea2cd8664","freq_resp","img/orange_2bandit_b.png","70","70","test","","","","2","",""
"null","220630","pSARL_v2","pSARL_v2l34y4ws0","607f7f18d84d010ea2cd8664","fixation","img/fixation.png","null","","test","","","","","",""
"196.5","220839","pSARL_v2","pSARL_v2l34y4ws0","607f7f18d84d010ea2cd8664","freq","img/orange_2bandit_b2.png","70","70","test","1","42","42","2","",""
"null","221455","pSARL_v2","pSARL_v2l34y4ws0","607f7f18d84d010ea2cd8664","freq_resp","img/orange_2bandit_b.png","70","70","test","","","","2","",""
"null","221629","pSARL_v2","pSARL_v2l34y4ws0","607f7f18d84d010ea2cd8664","fixation","img/fixation.png","null","","test","","","","","",""
"130.60000014305115","221774","pSARL_v2","pSARL_v2l34y4ws0","607f7f18d84d010ea2cd8664","freq","img/orange_2bandit_b2.png","70","70","test","1","43","43","2","",""
"null","222466","pSARL_v2","pSARL_v2l34y4ws0","607f7f18d84d010ea2cd8664","freq_resp","img/orange_2bandit_b.png","70","70","test","","","","2","",""
"null","222632","pSARL_v2","pSARL_v2l34y4ws0","607f7f18d84d010ea2cd8664","fixation","img/fixation.png","null","","test","","","","","",""
"173.39999985694885","222814","pSARL_v2","pSARL_v2l34y4ws0","607f7f18d84d010ea2cd8664","freq","img/orange_2bandit_b2.png","70","70","test","1","44","44","2","",""
"null","223457","pSARL_v2","pSARL_v2l34y4ws0","607f7f18d84d010ea2cd8664","freq_resp","img/orange_2bandit_b.png","70","70","test","","","","2","",""
"null","223632","pSARL_v2","pSARL_v2l34y4ws0","607f7f18d84d010ea2cd8664","fixation","img/fixation.png","null","","test","","","","","",""
"336.40000009536743","223982","pSARL_v2","pSARL_v2l34y4ws0","607f7f18d84d010ea2cd8664","freq","img/orange_2bandit_b2.png","70","70","test","1","45","45","2","",""
"null","224464","pSARL_v2","pSARL_v2l34y4ws0","607f7f18d84d010ea2cd8664","freq_resp","img/orange_2bandit_b.png","70","70","test","","","","2","",""
"null","224629","pSARL_v2","pSARL_v2l34y4ws0","607f7f18d84d010ea2cd8664","fixation","img/fixation.png","null","","test","","","","","",""
"267.7000000476837","224903","pSARL_v2","pSARL_v2l34y4ws0","607f7f18d84d010ea2cd8664","freq","img/orange_2bandit_b2.png","70","70","test","1","46","46","2","",""
"null","225461","pSARL_v2","pSARL_v2l34y4ws0","607f7f18d84d010ea2cd8664","freq_resp","img/orange_2bandit_b.png","70","70","test","","","","2","",""
"null","225631","pSARL_v2","pSARL_v2l34y4ws0","607f7f18d84d010ea2cd8664","fixation","img/fixation.png","null","","test","","","","","",""
"251.89999985694885","225892","pSARL_v2","pSARL_v2l34y4ws0","607f7f18d84d010ea2cd8664","freq","img/orange_2bandit_b2.png","70","70","test","1","47","47","2","",""
"null","226457","pSARL_v2","pSARL_v2l34y4ws0","607f7f18d84d010ea2cd8664","freq_resp","img/orange_2bandit_b.png","70","70","test","","","","2","",""
"null","226634","pSARL_v2","pSARL_v2l34y4ws0","607f7f18d84d010ea2cd8664","fixation","img/fixation.png","null","","test","","","","","",""
"157.09999990463257","226803","pSARL_v2","pSARL_v2l34y4ws0","607f7f18d84d010ea2cd8664","freq","img/orange_2bandit_b2.png","70","70","test","1","48","48","2","",""
"null","227469","pSARL_v2","pSARL_v2l34y4ws0","607f7f18d84d010ea2cd8664","freq_resp","img/orange_2bandit_b.png","70","70","test","","","","2","",""
"null","227628","pSARL_v2","pSARL_v2l34y4ws0","607f7f18d84d010ea2cd8664","fixation","img/fixation.png","null","","test","","","","","",""
"672.4000000953674","228307","pSARL_v2","pSARL_v2l34y4ws0","607f7f18d84d010ea2cd8664","reward","img/slot.png","74","","test","","","","","",""
"null","229080","pSARL_v2","pSARL_v2l34y4ws0","607f7f18d84d010ea2cd8664","points","<div class=""verylowPoints""> -11 </div>","null","na","test","","","","2","-11","1"
"551.9000000953674","229640","pSARL_v2","pSARL_v2l34y4ws0","607f7f18d84d010ea2cd8664","freq","img/orange_2bandit_b2.png","70","70","test","1","49","49","3","",""
"null","229906","pSARL_v2","pSARL_v2l34y4ws0","607f7f18d84d010ea2cd8664","freq_resp","img/orange_2bandit_b.png","70","70","test","","","","3","",""
"null","230079","pSARL_v2","pSARL_v2l34y4ws0","607f7f18d84d010ea2cd8664","fixation","img/fixation.png","null","","test","","","","","",""
"395.09999990463257","230486","pSARL_v2","pSARL_v2l34y4ws0","607f7f18d84d010ea2cd8664","freq","img/orange_2bandit_b2.png","70","70","test","1","50","50","3","",""
"null","230914","pSARL_v2","pSARL_v2l34y4ws0","607f7f18d84d010ea2cd8664","freq_resp","img/orange_2bandit_b.png","70","70","test","","","","3","",""
"null","231079","pSARL_v2","pSARL_v2l34y4ws0","607f7f18d84d010ea2cd8664","fixation","img/fixation.png","null","","test","","","","","",""
"379.40000009536743","231466","pSARL_v2","pSARL_v2l34y4ws0","607f7f18d84d010ea2cd8664","freq","img/orange_2bandit_b2.png","70","70","test","1","51","51","3","",""
"null","231898","pSARL_v2","pSARL_v2l34y4ws0","607f7f18d84d010ea2cd8664","freq_resp","img/orange_2bandit_b.png","70","70","test","","","","3","",""
"null","232062","pSARL_v2","pSARL_v2l34y4ws0","607f7f18d84d010ea2cd8664","fixation","img/fixation.png","null","","test","","","","","",""
"339.40000009536743","232412","pSARL_v2","pSARL_v2l34y4ws0","607f7f18d84d010ea2cd8664","freq","img/orange_2bandit_b2.png","70","70","test","1","52","52","3","",""
"null","232899","pSARL_v2","pSARL_v2l34y4ws0","607f7f18d84d010ea2cd8664","freq_resp","img/orange_2bandit_b.png","70","70","test","","","","3","",""
"null","233060","pSARL_v2","pSARL_v2l34y4ws0","607f7f18d84d010ea2cd8664","fixation","img/fixation.png","null","","test","","","","","",""
"352.2000000476837","233426","pSARL_v2","pSARL_v2l34y4ws0","607f7f18d84d010ea2cd8664","freq","img/orange_2bandit_b2.png","70","70","test","1","53","53","3","",""
"null","233897","pSARL_v2","pSARL_v2l34y4ws0","607f7f18d84d010ea2cd8664","freq_resp","img/orange_2bandit_b.png","70","70","test","","","","3","",""
"null","234058","pSARL_v2","pSARL_v2l34y4ws0","607f7f18d84d010ea2cd8664","fixation","img/fixation.png","null","","test","","","","","",""
"327.19999980926514","234396","pSARL_v2","pSARL_v2l34y4ws0","607f7f18d84d010ea2cd8664","freq","img/orange_2bandit_b2.png","70","70","test","1","54","54","3","",""
"null","234877","pSARL_v2","pSARL_v2l34y4ws0","607f7f18d84d010ea2cd8664","freq_resp","img/orange_2bandit_b.png","70","70","test","","","","3","",""
"null","235046","pSARL_v2","pSARL_v2l34y4ws0","607f7f18d84d010ea2cd8664","fixation","img/fixation.png","null","","test","","","","","",""
"546.0999999046326","235604","pSARL_v2","pSARL_v2l34y4ws0","607f7f18d84d010ea2cd8664","infreq","img/green_2bandit_b2.png","68","68","test","1","55","55","3","",""
"null","235873","pSARL_v2","pSARL_v2l34y4ws0","607f7f18d84d010ea2cd8664","infreq_resp","img/green_2bandit_b.png","68","68","test","","","","3","",""
"null","236043","pSARL_v2","pSARL_v2l34y4ws0","607f7f18d84d010ea2cd8664","fixation","img/fixation.png","null","","test","","","","","",""
"422.30000019073486","236473","pSARL_v2","pSARL_v2l34y4ws0","607f7f18d84d010ea2cd8664","freq","img/orange_2bandit_b2.png","70","70","test","1","56","56","3","",""
"null","236866","pSARL_v2","pSARL_v2l34y4ws0","607f7f18d84d010ea2cd8664","freq_resp","img/orange_2bandit_b.png","70","70","test","","","","3","",""
"null","237027","pSARL_v2","pSARL_v2l34y4ws0","607f7f18d84d010ea2cd8664","fixation","img/fixation.png","null","","test","","","","","",""
"491.7000000476837","237530","pSARL_v2","pSARL_v2l34y4ws0","607f7f18d84d010ea2cd8664","freq","img/orange_2bandit_b2.png","70","70","test","1","57","57","3","",""
"null","237849","pSARL_v2","pSARL_v2l34y4ws0","607f7f18d84d010ea2cd8664","freq_resp","img/orange_2bandit_b.png","70","70","test","","","","3","",""
"null","238013","pSARL_v2","pSARL_v2l34y4ws0","607f7f18d84d010ea2cd8664","fixation","img/fixation.png","null","","test","","","","","",""
"339.59999990463257","238360","pSARL_v2","pSARL_v2l34y4ws0","607f7f18d84d010ea2cd8664","freq","img/orange_2bandit_b2.png","70","70","test","1","58","58","3","",""
"null","238829","pSARL_v2","pSARL_v2l34y4ws0","607f7f18d84d010ea2cd8664","freq_resp","img/orange_2bandit_b.png","70","70","test","","","","3","",""
"null","238995","pSARL_v2","pSARL_v2l34y4ws0","607f7f18d84d010ea2cd8664","fixation","img/fixation.png","null","","test","","","","","",""
"667.9000000953674","239672","pSARL_v2","pSARL_v2l34y4ws0","607f7f18d84d010ea2cd8664","infreq","img/green_2bandit_b2.png","68","68","test","1","59","59","3","",""
"null","239816","pSARL_v2","pSARL_v2l34y4ws0","607f7f18d84d010ea2cd8664","infreq_resp","img/green_2bandit_b.png","68","68","test","","","","3","",""
"null","239977","pSARL_v2","pSARL_v2l34y4ws0","607f7f18d84d010ea2cd8664","fixation","img/fixation.png","null","","test","","","","","",""
"625.2000000476837","240609","pSARL_v2","pSARL_v2l34y4ws0","607f7f18d84d010ea2cd8664","freq","img/orange_2bandit_b2.png","70","70","test","1","60","60","3","",""
"null","240792","pSARL_v2","pSARL_v2l34y4ws0","607f7f18d84d010ea2cd8664","freq_resp","img/orange_2bandit_b.png","70","70","test","","","","3","",""
"null","240963","pSARL_v2","pSARL_v2l34y4ws0","607f7f18d84d010ea2cd8664","fixation","img/fixation.png","null","","test","","","","","",""
"459.09999990463257","241430","pSARL_v2","pSARL_v2l34y4ws0","607f7f18d84d010ea2cd8664","freq","img/orange_2bandit_b2.png","70","70","test","1","61","61","3","",""
"null","241783","pSARL_v2","pSARL_v2l34y4ws0","607f7f18d84d010ea2cd8664","freq_resp","img/orange_2bandit_b.png","70","70","test","","","","3","",""
"null","241946","pSARL_v2","pSARL_v2l34y4ws0","607f7f18d84d010ea2cd8664","fixation","img/fixation.png","null","","test","","","","","",""
"479.5","242433","pSARL_v2","pSARL_v2l34y4ws0","607f7f18d84d010ea2cd8664","freq","img/orange_2bandit_b2.png","70","70","test","1","62","62","3","",""
"null","242768","pSARL_v2","pSARL_v2l34y4ws0","607f7f18d84d010ea2cd8664","freq_resp","img/orange_2bandit_b.png","70","70","test","","","","3","",""
"null","242928","pSARL_v2","pSARL_v2l34y4ws0","607f7f18d84d010ea2cd8664","fixation","img/fixation.png","null","","test","","","","","",""
"380.2999999523163","243318","pSARL_v2","pSARL_v2l34y4ws0","607f7f18d84d010ea2cd8664","freq","img/orange_2bandit_b2.png","70","70","test","1","63","63","3","",""
"null","243747","pSARL_v2","pSARL_v2l34y4ws0","607f7f18d84d010ea2cd8664","freq_resp","img/orange_2bandit_b.png","70","70","test","","","","3","",""
"null","243912","pSARL_v2","pSARL_v2l34y4ws0","607f7f18d84d010ea2cd8664","fixation","img/fixation.png","null","","test","","","","","",""
"347.30000019073486","244270","pSARL_v2","pSARL_v2l34y4ws0","607f7f18d84d010ea2cd8664","freq","img/orange_2bandit_b2.png","70","70","test","1","64","64","3","",""
"null","244744","pSARL_v2","pSARL_v2l34y4ws0","607f7f18d84d010ea2cd8664","freq_resp","img/orange_2bandit_b.png","70","70","test","","","","3","",""
"null","244911","pSARL_v2","pSARL_v2l34y4ws0","607f7f18d84d010ea2cd8664","fixation","img/fixation.png","null","","test","","","","","",""
"340.09999990463257","245259","pSARL_v2","pSARL_v2l34y4ws0","607f7f18d84d010ea2cd8664","freq","img/orange_2bandit_b2.png","70","70","test","1","65","65","3","",""
"null","245744","pSARL_v2","pSARL_v2l34y4ws0","607f7f18d84d010ea2cd8664","freq_resp","img/orange_2bandit_b.png","70","70","test","","","","3","",""
"null","245914","pSARL_v2","pSARL_v2l34y4ws0","607f7f18d84d010ea2cd8664","fixation","img/fixation.png","null","","test","","","","","",""
"350.5","246276","pSARL_v2","pSARL_v2l34y4ws0","607f7f18d84d010ea2cd8664","freq","img/orange_2bandit_b2.png","70","70","test","1","66","66","3","",""
"null","246743","pSARL_v2","pSARL_v2l34y4ws0","607f7f18d84d010ea2cd8664","freq_resp","img/orange_2bandit_b.png","70","70","test","","","","3","",""
"null","246912","pSARL_v2","pSARL_v2l34y4ws0","607f7f18d84d010ea2cd8664","fixation","img/fixation.png","null","","test","","","","","",""
"343","247261","pSARL_v2","pSARL_v2l34y4ws0","607f7f18d84d010ea2cd8664","freq","img/orange_2bandit_b2.png","70","70","test","1","67","67","3","",""
"null","247734","pSARL_v2","pSARL_v2l34y4ws0","607f7f18d84d010ea2cd8664","freq_resp","img/orange_2bandit_b.png","70","70","test","","","","3","",""
"null","247909","pSARL_v2","pSARL_v2l34y4ws0","607f7f18d84d010ea2cd8664","fixation","img/fixation.png","null","","test","","","","","",""
"361.90000009536743","248282","pSARL_v2","pSARL_v2l34y4ws0","607f7f18d84d010ea2cd8664","freq","img/orange_2bandit_b2.png","70","70","test","1","68","68","3","",""
"null","248729","pSARL_v2","pSARL_v2l34y4ws0","607f7f18d84d010ea2cd8664","freq_resp","img/orange_2bandit_b.png","70","70","test","","","","3","",""
"null","248895","pSARL_v2","pSARL_v2l34y4ws0","607f7f18d84d010ea2cd8664","fixation","img/fixation.png","null","","test","","","","","",""
"355.7999999523163","249263","pSARL_v2","pSARL_v2l34y4ws0","607f7f18d84d010ea2cd8664","freq","img/orange_2bandit_b2.png","70","70","test","1","69","69","3","",""
"null","249723","pSARL_v2","pSARL_v2l34y4ws0","607f7f18d84d010ea2cd8664","freq_resp","img/orange_2bandit_b.png","70","70","test","","","","3","",""
"null","249895","pSARL_v2","pSARL_v2l34y4ws0","607f7f18d84d010ea2cd8664","fixation","img/fixation.png","null","","test","","","","","",""
"208.39999985694885","250109","pSARL_v2","pSARL_v2l34y4ws0","607f7f18d84d010ea2cd8664","freq","img/orange_2bandit_b2.png","70","70","test","1","70","70","3","",""
"null","250717","pSARL_v2","pSARL_v2l34y4ws0","607f7f18d84d010ea2cd8664","freq_resp","img/orange_2bandit_b.png","70","70","test","","","","3","",""
"null","250876","pSARL_v2","pSARL_v2l34y4ws0","607f7f18d84d010ea2cd8664","fixation","img/fixation.png","null","","test","","","","","",""
"156.19999980926514","251043","pSARL_v2","pSARL_v2l34y4ws0","607f7f18d84d010ea2cd8664","freq","img/orange_2bandit_b2.png","70","70","test","1","71","71","3","",""
"null","251700","pSARL_v2","pSARL_v2l34y4ws0","607f7f18d84d010ea2cd8664","freq_resp","img/orange_2bandit_b.png","70","70","test","","","","3","",""
"null","251877","pSARL_v2","pSARL_v2l34y4ws0","607f7f18d84d010ea2cd8664","fixation","img/fixation.png","null","","test","","","","","",""
"507.5","252396","pSARL_v2","pSARL_v2l34y4ws0","607f7f18d84d010ea2cd8664","reward","img/slot.png","74","","test","","","","","",""
"null","253155","pSARL_v2","pSARL_v2l34y4ws0","607f7f18d84d010ea2cd8664","points","<div class=""verylowPoints""> -7 </div>","null","na","test","","","","3","-7","2"
"488.89999985694885","253651","pSARL_v2","pSARL_v2l34y4ws0","607f7f18d84d010ea2cd8664","freq","img/orange_2bandit_b2.png","70","70","test","1","72","72","4","",""
"null","253982","pSARL_v2","pSARL_v2l34y4ws0","607f7f18d84d010ea2cd8664","freq_resp","img/orange_2bandit_b.png","70","70","test","","","","4","",""
"null","254139","pSARL_v2","pSARL_v2l34y4ws0","607f7f18d84d010ea2cd8664","fixation","img/fixation.png","null","","test","","","","","",""
"456.90000009536743","254603","pSARL_v2","pSARL_v2l34y4ws0","607f7f18d84d010ea2cd8664","freq","img/orange_2bandit_b2.png","70","70","test","1","73","73","4","",""
"null","254964","pSARL_v2","pSARL_v2l34y4ws0","607f7f18d84d010ea2cd8664","freq_resp","img/orange_2bandit_b.png","70","70","test","","","","4","",""
"null","255128","pSARL_v2","pSARL_v2l34y4ws0","607f7f18d84d010ea2cd8664","fixation","img/fixation.png","null","","test","","","","","",""
"404.2999999523163","255539","pSARL_v2","pSARL_v2l34y4ws0","607f7f18d84d010ea2cd8664","freq","img/orange_2bandit_b2.png","70","70","test","1","74","74","4","",""
"null","255948","pSARL_v2","pSARL_v2l34y4ws0","607f7f18d84d010ea2cd8664","freq_resp","img/orange_2bandit_b.png","70","70","test","","","","4","",""
"null","256125","pSARL_v2","pSARL_v2l34y4ws0","607f7f18d84d010ea2cd8664","fixation","img/fixation.png","null","","test","","","","","",""
"359.60000014305115","256493","pSARL_v2","pSARL_v2l34y4ws0","607f7f18d84d010ea2cd8664","freq","img/orange_2bandit_b2.png","70","70","test","1","75","75","4","",""
"null","256942","pSARL_v2","pSARL_v2l34y4ws0","607f7f18d84d010ea2cd8664","freq_resp","img/orange_2bandit_b.png","70","70","test","","","","4","",""
"null","257111","pSARL_v2","pSARL_v2l34y4ws0","607f7f18d84d010ea2cd8664","fixation","img/fixation.png","null","","test","","","","","",""
"331.09999990463257","257453","pSARL_v2","pSARL_v2l34y4ws0","607f7f18d84d010ea2cd8664","freq","img/orange_2bandit_b2.png","70","70","test","1","76","76","4","",""
"null","257943","pSARL_v2","pSARL_v2l34y4ws0","607f7f18d84d010ea2cd8664","freq_resp","img/orange_2bandit_b.png","70","70","test","","","","4","",""
"null","258111","pSARL_v2","pSARL_v2l34y4ws0","607f7f18d84d010ea2cd8664","fixation","img/fixation.png","null","","test","","","","","",""
"333.5","258457","pSARL_v2","pSARL_v2l34y4ws0","607f7f18d84d010ea2cd8664","freq","img/orange_2bandit_b2.png","70","70","test","1","77","77","4","",""
"null","258944","pSARL_v2","pSARL_v2l34y4ws0","607f7f18d84d010ea2cd8664","freq_resp","img/orange_2bandit_b.png","70","70","test","","","","4","",""
"null","259111","pSARL_v2","pSARL_v2l34y4ws0","607f7f18d84d010ea2cd8664","fixation","img/fixation.png","null","","test","","","","","",""
"326.2999999523163","259445","pSARL_v2","pSARL_v2l34y4ws0","607f7f18d84d010ea2cd8664","freq","img/orange_2bandit_b2.png","70","70","test","1","78","78","4","",""
"null","259937","pSARL_v2","pSARL_v2l34y4ws0","607f7f18d84d010ea2cd8664","freq_resp","img/orange_2bandit_b.png","70","70","test","","","","4","",""
"null","260111","pSARL_v2","pSARL_v2l34y4ws0","607f7f18d84d010ea2cd8664","fixation","img/fixation.png","null","","test","","","","","",""
"334.5","260453","pSARL_v2","pSARL_v2l34y4ws0","607f7f18d84d010ea2cd8664","freq","img/orange_2bandit_b2.png","70","70","test","1","79","79","4","",""
"null","260939","pSARL_v2","pSARL_v2l34y4ws0","607f7f18d84d010ea2cd8664","freq_resp","img/orange_2bandit_b.png","70","70","test","","","","4","",""
"null","261110","pSARL_v2","pSARL_v2l34y4ws0","607f7f18d84d010ea2cd8664","fixation","img/fixation.png","null","","test","","","","","",""
"603.4000000953674","261722","pSARL_v2","pSARL_v2l34y4ws0","607f7f18d84d010ea2cd8664","infreq","img/green_2bandit_b2.png","68","68","test","1","80","80","4","",""
"null","261937","pSARL_v2","pSARL_v2l34y4ws0","607f7f18d84d010ea2cd8664","infreq_resp","img/green_2bandit_b.png","68","68","test","","","","4","",""
"null","262108","pSARL_v2","pSARL_v2l34y4ws0","607f7f18d84d010ea2cd8664","fixation","img/fixation.png","null","","test","","","","","",""
"539.7999999523163","262659","pSARL_v2","pSARL_v2l34y4ws0","607f7f18d84d010ea2cd8664","freq","img/orange_2bandit_b2.png","70","70","test","1","81","81","4","",""
"null","262932","pSARL_v2","pSARL_v2l34y4ws0","607f7f18d84d010ea2cd8664","freq_resp","img/orange_2bandit_b.png","70","70","test","","","","4","",""
"null","263109","pSARL_v2","pSARL_v2l34y4ws0","607f7f18d84d010ea2cd8664","fixation","img/fixation.png","null","","test","","","","","",""
"413.90000009536743","263535","pSARL_v2","pSARL_v2l34y4ws0","607f7f18d84d010ea2cd8664","freq","img/orange_2bandit_b2.png","70","70","test","1","82","82","4","",""
"null","263944","pSARL_v2","pSARL_v2l34y4ws0","607f7f18d84d010ea2cd8664","freq_resp","img/orange_2bandit_b.png","70","70","test","","","","4","",""
"null","264107","pSARL_v2","pSARL_v2l34y4ws0","607f7f18d84d010ea2cd8664","fixation","img/fixation.png","null","","test","","","","","",""
"385.40000009536743","264501","pSARL_v2","pSARL_v2l34y4ws0","607f7f18d84d010ea2cd8664","freq","img/orange_2bandit_b2.png","70","70","test","1","83","83","4","",""
"null","264928","pSARL_v2","pSARL_v2l34y4ws0","607f7f18d84d010ea2cd8664","freq_resp","img/orange_2bandit_b.png","70","70","test","","","","4","",""
"null","265093","pSARL_v2","pSARL_v2l34y4ws0","607f7f18d84d010ea2cd8664","fixation","img/fixation.png","null","","test","","","","","",""
"419.90000009536743","265521","pSARL_v2","pSARL_v2l34y4ws0","607f7f18d84d010ea2cd8664","freq","img/orange_2bandit_b2.png","70","70","test","1","84","84","4","",""
"null","265911","pSARL_v2","pSARL_v2l34y4ws0","607f7f18d84d010ea2cd8664","freq_resp","img/orange_2bandit_b.png","70","70","test","","","","4","",""
"null","266074","pSARL_v2","pSARL_v2l34y4ws0","607f7f18d84d010ea2cd8664","fixation","img/fixation.png","null","","test","","","","","",""
"357.60000014305115","266438","pSARL_v2","pSARL_v2l34y4ws0","607f7f18d84d010ea2cd8664","freq","img/orange_2bandit_b2.png","70","70","test","1","85","85","4","",""
"null","266890","pSARL_v2","pSARL_v2l34y4ws0","607f7f18d84d010ea2cd8664","freq_resp","img/orange_2bandit_b.png","70","70","test","","","","4","",""
"null","267057","pSARL_v2","pSARL_v2l34y4ws0","607f7f18d84d010ea2cd8664","fixation","img/fixation.png","null","","test","","","","","",""
"346.2999999523163","267411","pSARL_v2","pSARL_v2l34y4ws0","607f7f18d84d010ea2cd8664","freq","img/orange_2bandit_b2.png","70","70","test","1","86","86","4","",""
"null","267880","pSARL_v2","pSARL_v2l34y4ws0","607f7f18d84d010ea2cd8664","freq_resp","img/orange_2bandit_b.png","70","70","test","","","","4","",""
"null","268039","pSARL_v2","pSARL_v2l34y4ws0","607f7f18d84d010ea2cd8664","fixation","img/fixation.png","null","","test","","","","","",""
"557.9000000953674","268608","pSARL_v2","pSARL_v2l34y4ws0","607f7f18d84d010ea2cd8664","infreq","img/green_2bandit_b2.png","68","68","test","1","87","87","4","",""
"null","268867","pSARL_v2","pSARL_v2l34y4ws0","607f7f18d84d010ea2cd8664","infreq_resp","img/green_2bandit_b.png","68","68","test","","","","4","",""
"null","269038","pSARL_v2","pSARL_v2l34y4ws0","607f7f18d84d010ea2cd8664","fixation","img/fixation.png","null","","test","","","","","",""
"380.10000014305115","269426","pSARL_v2","pSARL_v2l34y4ws0","607f7f18d84d010ea2cd8664","freq","img/orange_2bandit_b2.png","70","70","test","1","88","88","4","",""
"null","269859","pSARL_v2","pSARL_v2l34y4ws0","607f7f18d84d010ea2cd8664","freq_resp","img/orange_2bandit_b.png","70","70","test","","","","4","",""
"null","270027","pSARL_v2","pSARL_v2l34y4ws0","607f7f18d84d010ea2cd8664","fixation","img/fixation.png","null","","test","","","","","",""
"308","270345","pSARL_v2","pSARL_v2l34y4ws0","607f7f18d84d010ea2cd8664","freq","img/orange_2bandit_b2.png","70","70","test","1","89","89","4","",""
"null","270853","pSARL_v2","pSARL_v2l34y4ws0","607f7f18d84d010ea2cd8664","freq_resp","img/orange_2bandit_b.png","70","70","test","","","","4","",""
"null","271024","pSARL_v2","pSARL_v2l34y4ws0","607f7f18d84d010ea2cd8664","fixation","img/fixation.png","null","","test","","","","","",""
"173.90000009536743","271206","pSARL_v2","pSARL_v2l34y4ws0","607f7f18d84d010ea2cd8664","freq","img/orange_2bandit_b2.png","70","70","test","1","90","90","4","",""
"null","271846","pSARL_v2","pSARL_v2l34y4ws0","607f7f18d84d010ea2cd8664","freq_resp","img/orange_2bandit_b.png","70","70","test","","","","4","",""
"null","272005","pSARL_v2","pSARL_v2l34y4ws0","607f7f18d84d010ea2cd8664","fixation","img/fixation.png","null","","test","","","","","",""
"532.2999999523163","272544","pSARL_v2","pSARL_v2l34y4ws0","607f7f18d84d010ea2cd8664","reward","img/slot.png","74","","test","","","","","",""
"null","273306","pSARL_v2","pSARL_v2l34y4ws0","607f7f18d84d010ea2cd8664","points","<div class=""verylowPoints""> -3 </div>","null","na","test","","","","4","-3","3"
"448.89999985694885","273765","pSARL_v2","pSARL_v2l34y4ws0","607f7f18d84d010ea2cd8664","freq","img/orange_2bandit_b2.png","70","70","test","1","91","91","5","",""
"null","274136","pSARL_v2","pSARL_v2l34y4ws0","607f7f18d84d010ea2cd8664","freq_resp","img/orange_2bandit_b.png","70","70","test","","","","5","",""
"null","274311","pSARL_v2","pSARL_v2l34y4ws0","607f7f18d84d010ea2cd8664","fixation","img/fixation.png","null","","test","","","","","",""
"280.7000000476837","274600","pSARL_v2","pSARL_v2l34y4ws0","607f7f18d84d010ea2cd8664","freq","img/orange_2bandit_b2.png","70","70","test","1","92","92","5","",""
"null","275135","pSARL_v2","pSARL_v2l34y4ws0","607f7f18d84d010ea2cd8664","freq_resp","img/orange_2bandit_b.png","70","70","test","","","","5","",""
"null","275302","pSARL_v2","pSARL_v2l34y4ws0","607f7f18d84d010ea2cd8664","fixation","img/fixation.png","null","","test","","","","","",""
"267.10000014305115","275577","pSARL_v2","pSARL_v2l34y4ws0","607f7f18d84d010ea2cd8664","freq","img/orange_2bandit_b2.png","70","70","test","1","93","93","5","",""
"null","276119","pSARL_v2","pSARL_v2l34y4ws0","607f7f18d84d010ea2cd8664","freq_resp","img/orange_2bandit_b.png","70","70","test","","","","5","",""
"null","276292","pSARL_v2","pSARL_v2l34y4ws0","607f7f18d84d010ea2cd8664","fixation","img/fixation.png","null","","test","","","","","",""
"157.89999985694885","276463","pSARL_v2","pSARL_v2l34y4ws0","607f7f18d84d010ea2cd8664","freq","img/orange_2bandit_b2.png","70","70","test","1","94","94","5","",""
"null","277129","pSARL_v2","pSARL_v2l34y4ws0","607f7f18d84d010ea2cd8664","freq_resp","img/orange_2bandit_b.png","70","70","test","","","","5","",""
"null","277292","pSARL_v2","pSARL_v2l34y4ws0","607f7f18d84d010ea2cd8664","fixation","img/fixation.png","null","","test","","","","","",""
"285.2999999523163","277589","pSARL_v2","pSARL_v2l34y4ws0","607f7f18d84d010ea2cd8664","freq","img/orange_2bandit_b2.png","70","70","test","1","95","95","5","",""
"null","278118","pSARL_v2","pSARL_v2l34y4ws0","607f7f18d84d010ea2cd8664","freq_resp","img/orange_2bandit_b.png","70","70","test","","","","5","",""
"null","278288","pSARL_v2","pSARL_v2l34y4ws0","607f7f18d84d010ea2cd8664","fixation","img/fixation.png","null","","test","","","","","",""
"143.20000004768372","278442","pSARL_v2","pSARL_v2l34y4ws0","607f7f18d84d010ea2cd8664","freq","img/orange_2bandit_b2.png","70","70","test","1","96","96","5","",""
"null","279108","pSARL_v2","pSARL_v2l34y4ws0","607f7f18d84d010ea2cd8664","freq_resp","img/orange_2bandit_b.png","70","70","test","","","","5","",""
"null","279274","pSARL_v2","pSARL_v2l34y4ws0","607f7f18d84d010ea2cd8664","fixation","img/fixation.png","null","","test","","","","","",""
"164.59999990463257","279449","pSARL_v2","pSARL_v2l34y4ws0","607f7f18d84d010ea2cd8664","freq","img/orange_2bandit_b2.png","70","70","test","1","97","97","5","",""
"null","280095","pSARL_v2","pSARL_v2l34y4ws0","607f7f18d84d010ea2cd8664","freq_resp","img/orange_2bandit_b.png","70","70","test","","","","5","",""
"null","280255","pSARL_v2","pSARL_v2l34y4ws0","607f7f18d84d010ea2cd8664","fixation","img/fixation.png","null","","test","","","","","",""
"146.39999985694885","280412","pSARL_v2","pSARL_v2l34y4ws0","607f7f18d84d010ea2cd8664","freq","img/orange_2bandit_b2.png","70","70","test","1","98","98","5","",""
"null","281076","pSARL_v2","pSARL_v2l34y4ws0","607f7f18d84d010ea2cd8664","freq_resp","img/orange_2bandit_b.png","70","70","test","","","","5","",""
"null","281236","pSARL_v2","pSARL_v2l34y4ws0","607f7f18d84d010ea2cd8664","fixation","img/fixation.png","null","","test","","","","","",""
"142.60000014305115","281385","pSARL_v2","pSARL_v2l34y4ws0","607f7f18d84d010ea2cd8664","freq","img/orange_2bandit_b2.png","70","70","test","1","99","99","5","",""
"null","282063","pSARL_v2","pSARL_v2l34y4ws0","607f7f18d84d010ea2cd8664","freq_resp","img/orange_2bandit_b.png","70","70","test","","","","5","",""
"null","282237","pSARL_v2","pSARL_v2l34y4ws0","607f7f18d84d010ea2cd8664","fixation","img/fixation.png","null","","test","","","","","",""
"274.10000014305115","282522","pSARL_v2","pSARL_v2l34y4ws0","607f7f18d84d010ea2cd8664","freq","img/orange_2bandit_b2.png","70","70","test","1","100","100","5","",""
"null","283065","pSARL_v2","pSARL_v2l34y4ws0","607f7f18d84d010ea2cd8664","freq_resp","img/orange_2bandit_b.png","70","70","test","","","","5","",""
"null","283236","pSARL_v2","pSARL_v2l34y4ws0","607f7f18d84d010ea2cd8664","fixation","img/fixation.png","null","","test","","","","","",""
"342.19999980926514","283590","pSARL_v2","pSARL_v2l34y4ws0","607f7f18d84d010ea2cd8664","freq","img/orange_2bandit_b2.png","70","70","test","1","101","101","5","",""
"null","284055","pSARL_v2","pSARL_v2l34y4ws0","607f7f18d84d010ea2cd8664","freq_resp","img/orange_2bandit_b.png","70","70","test","","","","5","",""
"null","284221","pSARL_v2","pSARL_v2l34y4ws0","607f7f18d84d010ea2cd8664","fixation","img/fixation.png","null","","test","","","","","",""
"300.59999990463257","284529","pSARL_v2","pSARL_v2l34y4ws0","607f7f18d84d010ea2cd8664","freq","img/orange_2bandit_b2.png","70","70","test","1","102","102","5","",""
"null","285049","pSARL_v2","pSARL_v2l34y4ws0","607f7f18d84d010ea2cd8664","freq_resp","img/orange_2bandit_b.png","70","70","test","","","","5","",""
"null","285221","pSARL_v2","pSARL_v2l34y4ws0","607f7f18d84d010ea2cd8664","fixation","img/fixation.png","null","","test","","","","","",""
"645.7000000476837","285874","pSARL_v2","pSARL_v2l34y4ws0","607f7f18d84d010ea2cd8664","infreq","img/green_2bandit_b2.png","68","68","test","1","103","103","5","",""
"null","286038","pSARL_v2","pSARL_v2l34y4ws0","607f7f18d84d010ea2cd8664","infreq_resp","img/green_2bandit_b.png","68","68","test","","","","5","",""
"null","286206","pSARL_v2","pSARL_v2l34y4ws0","607f7f18d84d010ea2cd8664","fixation","img/fixation.png","null","","test","","","","","",""
"403.90000009536743","286624","pSARL_v2","pSARL_v2l34y4ws0","607f7f18d84d010ea2cd8664","freq","img/orange_2bandit_b2.png","70","70","test","1","104","104","5","",""
"null","287041","pSARL_v2","pSARL_v2l34y4ws0","607f7f18d84d010ea2cd8664","freq_resp","img/orange_2bandit_b.png","70","70","test","","","","5","",""
"null","287208","pSARL_v2","pSARL_v2l34y4ws0","607f7f18d84d010ea2cd8664","fixation","img/fixation.png","null","","test","","","","","",""
"360.2000000476837","287580","pSARL_v2","pSARL_v2l34y4ws0","607f7f18d84d010ea2cd8664","freq","img/orange_2bandit_b2.png","70","70","test","1","105","105","5","",""
"null","288040","pSARL_v2","pSARL_v2l34y4ws0","607f7f18d84d010ea2cd8664","freq_resp","img/orange_2bandit_b.png","70","70","test","","","","5","",""
"null","288205","pSARL_v2","pSARL_v2l34y4ws0","607f7f18d84d010ea2cd8664","fixation","img/fixation.png","null","","test","","","","","",""
"322","288538","pSARL_v2","pSARL_v2l34y4ws0","607f7f18d84d010ea2cd8664","freq","img/orange_2bandit_b2.png","70","70","test","1","106","106","5","",""
"null","289038","pSARL_v2","pSARL_v2l34y4ws0","607f7f18d84d010ea2cd8664","freq_resp","img/orange_2bandit_b.png","70","70","test","","","","5","",""
"null","289208","pSARL_v2","pSARL_v2l34y4ws0","607f7f18d84d010ea2cd8664","fixation","img/fixation.png","null","","test","","","","","",""
"320.2000000476837","289540","pSARL_v2","pSARL_v2l34y4ws0","607f7f18d84d010ea2cd8664","freq","img/orange_2bandit_b2.png","70","70","test","1","107","107","5","",""
"null","290035","pSARL_v2","pSARL_v2l34y4ws0","607f7f18d84d010ea2cd8664","freq_resp","img/orange_2bandit_b.png","70","70","test","","","","5","",""
"null","290208","pSARL_v2","pSARL_v2l34y4ws0","607f7f18d84d010ea2cd8664","fixation","img/fixation.png","null","","test","","","","","",""
"402.7999999523163","290619","pSARL_v2","pSARL_v2l34y4ws0","607f7f18d84d010ea2cd8664","freq","img/orange_2bandit_b2.png","70","70","test","1","108","108","5","",""
"null","291027","pSARL_v2","pSARL_v2l34y4ws0","607f7f18d84d010ea2cd8664","freq_resp","img/orange_2bandit_b.png","70","70","test","","","","5","",""
"null","291190","pSARL_v2","pSARL_v2l34y4ws0","607f7f18d84d010ea2cd8664","fixation","img/fixation.png","null","","test","","","","","",""
"343.7000000476837","291542","pSARL_v2","pSARL_v2l34y4ws0","607f7f18d84d010ea2cd8664","freq","img/orange_2bandit_b2.png","70","70","test","1","109","109","5","",""
"null","292020","pSARL_v2","pSARL_v2l34y4ws0","607f7f18d84d010ea2cd8664","freq_resp","img/orange_2bandit_b.png","70","70","test","","","","5","",""
"null","292190","pSARL_v2","pSARL_v2l34y4ws0","607f7f18d84d010ea2cd8664","fixation","img/fixation.png","null","","test","","","","","",""
"290.60000014305115","292488","pSARL_v2","pSARL_v2l34y4ws0","607f7f18d84d010ea2cd8664","freq","img/orange_2bandit_b2.png","70","70","test","1","110","110","5","",""
"null","293016","pSARL_v2","pSARL_v2l34y4ws0","607f7f18d84d010ea2cd8664","freq_resp","img/orange_2bandit_b.png","70","70","test","","","","5","",""
"null","293186","pSARL_v2","pSARL_v2l34y4ws0","607f7f18d84d010ea2cd8664","fixation","img/fixation.png","null","","test","","","","","",""
"283.09999990463257","293477","pSARL_v2","pSARL_v2l34y4ws0","607f7f18d84d010ea2cd8664","infreq","img/green_2bandit_b2.png","70","68","test","0","111","111","5","",""
"null","294004","pSARL_v2","pSARL_v2l34y4ws0","607f7f18d84d010ea2cd8664","infreq_resp","img/green_2bandit_b.png","70","68","test","","","","5","",""
"null","294171","pSARL_v2","pSARL_v2l34y4ws0","607f7f18d84d010ea2cd8664","fixation","img/fixation.png","null","","test","","","","","",""
"491.90000009536743","294672","pSARL_v2","pSARL_v2l34y4ws0","607f7f18d84d010ea2cd8664","freq","img/orange_2bandit_b2.png","70","70","test","1","112","112","5","",""
"null","294993","pSARL_v2","pSARL_v2l34y4ws0","607f7f18d84d010ea2cd8664","freq_resp","img/orange_2bandit_b.png","70","70","test","","","","5","",""
"null","295153","pSARL_v2","pSARL_v2l34y4ws0","607f7f18d84d010ea2cd8664","fixation","img/fixation.png","null","","test","","","","","",""
"485.7000000476837","295652","pSARL_v2","pSARL_v2l34y4ws0","607f7f18d84d010ea2cd8664","freq","img/orange_2bandit_b2.png","70","70","test","1","113","113","5","",""
"null","295981","pSARL_v2","pSARL_v2l34y4ws0","607f7f18d84d010ea2cd8664","freq_resp","img/orange_2bandit_b.png","70","70","test","","","","5","",""
"null","296152","pSARL_v2","pSARL_v2l34y4ws0","607f7f18d84d010ea2cd8664","fixation","img/fixation.png","null","","test","","","","","",""
"334.7999999523163","296498","pSARL_v2","pSARL_v2l34y4ws0","607f7f18d84d010ea2cd8664","freq","img/orange_2bandit_b2.png","70","70","test","1","114","114","5","",""
"null","296985","pSARL_v2","pSARL_v2l34y4ws0","607f7f18d84d010ea2cd8664","freq_resp","img/orange_2bandit_b.png","70","70","test","","","","5","",""
"null","297157","pSARL_v2","pSARL_v2l34y4ws0","607f7f18d84d010ea2cd8664","fixation","img/fixation.png","null","","test","","","","","",""
"336","297502","pSARL_v2","pSARL_v2l34y4ws0","607f7f18d84d010ea2cd8664","freq","img/orange_2bandit_b2.png","70","70","test","1","115","115","5","",""
"null","297985","pSARL_v2","pSARL_v2l34y4ws0","607f7f18d84d010ea2cd8664","freq_resp","img/orange_2bandit_b.png","70","70","test","","","","5","",""
"null","298155","pSARL_v2","pSARL_v2l34y4ws0","607f7f18d84d010ea2cd8664","fixation","img/fixation.png","null","","test","","","","","",""
"515.6000001430511","298683","pSARL_v2","pSARL_v2l34y4ws0","607f7f18d84d010ea2cd8664","reward","img/slot.png","74","","test","","","","","",""
"null","299459","pSARL_v2","pSARL_v2l34y4ws0","607f7f18d84d010ea2cd8664","points","<div class=""veryhighPoints""> +1 </div>","null","na","test","","","","5","1","4"
"475","299943","pSARL_v2","pSARL_v2l34y4ws0","607f7f18d84d010ea2cd8664","freq","img/orange_2bandit_b2.png","70","70","test","1","116","116","6","",""
"null","300279","pSARL_v2","pSARL_v2l34y4ws0","607f7f18d84d010ea2cd8664","freq_resp","img/orange_2bandit_b.png","70","70","test","","","","6","",""
"null","300455","pSARL_v2","pSARL_v2l34y4ws0","607f7f18d84d010ea2cd8664","fixation","img/fixation.png","null","","test","","","","","",""
"346.2999999523163","300809","pSARL_v2","pSARL_v2l34y4ws0","607f7f18d84d010ea2cd8664","freq","img/orange_2bandit_b2.png","70","70","test","1","117","117","6","",""
"null","301269","pSARL_v2","pSARL_v2l34y4ws0","607f7f18d84d010ea2cd8664","freq_resp","img/orange_2bandit_b.png","70","70","test","","","","6","",""
"null","301438","pSARL_v2","pSARL_v2l34y4ws0","607f7f18d84d010ea2cd8664","fixation","img/fixation.png","null","","test","","","","","",""
"354.69999980926514","301801","pSARL_v2","pSARL_v2l34y4ws0","607f7f18d84d010ea2cd8664","freq","img/orange_2bandit_b2.png","70","70","test","1","118","118","6","",""
"null","302257","pSARL_v2","pSARL_v2l34y4ws0","607f7f18d84d010ea2cd8664","freq_resp","img/orange_2bandit_b.png","70","70","test","","","","6","",""
"null","302421","pSARL_v2","pSARL_v2l34y4ws0","607f7f18d84d010ea2cd8664","fixation","img/fixation.png","null","","test","","","","","",""
"333.5","302763","pSARL_v2","pSARL_v2l34y4ws0","607f7f18d84d010ea2cd8664","freq","img/orange_2bandit_b2.png","70","70","test","1","119","119","6","",""
"null","303237","pSARL_v2","pSARL_v2l34y4ws0","607f7f18d84d010ea2cd8664","freq_resp","img/orange_2bandit_b.png","70","70","test","","","","6","",""
"null","303404","pSARL_v2","pSARL_v2l34y4ws0","607f7f18d84d010ea2cd8664","fixation","img/fixation.png","null","","test","","","","","",""
"313.7999999523163","303730","pSARL_v2","pSARL_v2l34y4ws0","607f7f18d84d010ea2cd8664","freq","img/orange_2bandit_b2.png","70","70","test","1","120","120","6","",""
"null","304235","pSARL_v2","pSARL_v2l34y4ws0","607f7f18d84d010ea2cd8664","freq_resp","img/orange_2bandit_b.png","70","70","test","","","","6","",""
"null","304405","pSARL_v2","pSARL_v2l34y4ws0","607f7f18d84d010ea2cd8664","fixation","img/fixation.png","null","","test","","","","","",""
"320.5","304734","pSARL_v2","pSARL_v2l34y4ws0","607f7f18d84d010ea2cd8664","freq","img/orange_2bandit_b2.png","70","70","test","1","121","121","6","",""
"null","305237","pSARL_v2","pSARL_v2l34y4ws0","607f7f18d84d010ea2cd8664","freq_resp","img/orange_2bandit_b.png","70","70","test","","","","6","",""
"null","305401","pSARL_v2","pSARL_v2l34y4ws0","607f7f18d84d010ea2cd8664","fixation","img/fixation.png","null","","test","","","","","",""
"232.79999995231628","305642","pSARL_v2","pSARL_v2l34y4ws0","607f7f18d84d010ea2cd8664","freq","img/orange_2bandit_b2.png","70","70","test","1","122","122","6","",""
"null","306232","pSARL_v2","pSARL_v2l34y4ws0","607f7f18d84d010ea2cd8664","freq_resp","img/orange_2bandit_b.png","70","70","test","","","","6","",""
"null","306405","pSARL_v2","pSARL_v2l34y4ws0","607f7f18d84d010ea2cd8664","fixation","img/fixation.png","null","","test","","","","","",""
"109.59999990463257","306526","pSARL_v2","pSARL_v2l34y4ws0","607f7f18d84d010ea2cd8664","freq","img/orange_2bandit_b2.png","70","70","test","1","123","123","6","",""
"null","307236","pSARL_v2","pSARL_v2l34y4ws0","607f7f18d84d010ea2cd8664","freq_resp","img/orange_2bandit_b.png","70","70","test","","","","6","",""
"null","307400","pSARL_v2","pSARL_v2l34y4ws0","607f7f18d84d010ea2cd8664","fixation","img/fixation.png","null","","test","","","","","",""
"94.59999990463257","307501","pSARL_v2","pSARL_v2l34y4ws0","607f7f18d84d010ea2cd8664","freq","img/orange_2bandit_b2.png","70","70","test","1","124","124","6","",""
"null","308224","pSARL_v2","pSARL_v2l34y4ws0","607f7f18d84d010ea2cd8664","freq_resp","img/orange_2bandit_b.png","70","70","test","","","","6","",""
"null","308386","pSARL_v2","pSARL_v2l34y4ws0","607f7f18d84d010ea2cd8664","fixation","img/fixation.png","null","","test","","","","","",""
"81","308474","pSARL_v2","pSARL_v2l34y4ws0","607f7f18d84d010ea2cd8664","freq","img/orange_2bandit_b2.png","70","70","test","1","125","125","6","",""
"null","309202","pSARL_v2","pSARL_v2l34y4ws0","607f7f18d84d010ea2cd8664","freq_resp","img/orange_2bandit_b.png","70","70","test","","","","6","",""
"null","309370","pSARL_v2","pSARL_v2l34y4ws0","607f7f18d84d010ea2cd8664","fixation","img/fixation.png","null","","test","","","","","",""
"58.90000009536743","309439","pSARL_v2","pSARL_v2l34y4ws0","607f7f18d84d010ea2cd8664","freq","img/orange_2bandit_b2.png","70","70","test","1","126","126","6","",""
"null","310188","pSARL_v2","pSARL_v2l34y4ws0","607f7f18d84d010ea2cd8664","freq_resp","img/orange_2bandit_b.png","70","70","test","","","","6","",""
"null","310351","pSARL_v2","pSARL_v2l34y4ws0","607f7f18d84d010ea2cd8664","fixation","img/fixation.png","null","","test","","","","","",""
"105.40000009536743","310466","pSARL_v2","pSARL_v2l34y4ws0","607f7f18d84d010ea2cd8664","freq","img/orange_2bandit_b2.png","70","70","test","1","127","127","6","",""
"null","311173","pSARL_v2","pSARL_v2l34y4ws0","607f7f18d84d010ea2cd8664","freq_resp","img/orange_2bandit_b.png","70","70","test","","","","6","",""
"null","311336","pSARL_v2","pSARL_v2l34y4ws0","607f7f18d84d010ea2cd8664","fixation","img/fixation.png","null","","test","","","","","",""
"102.70000004768372","311446","pSARL_v2","pSARL_v2l34y4ws0","607f7f18d84d010ea2cd8664","freq","img/orange_2bandit_b2.png","70","70","test","1","128","128","6","",""
"null","312153","pSARL_v2","pSARL_v2l34y4ws0","607f7f18d84d010ea2cd8664","freq_resp","img/orange_2bandit_b.png","70","70","test","","","","6","",""
"null","312320","pSARL_v2","pSARL_v2l34y4ws0","607f7f18d84d010ea2cd8664","fixation","img/fixation.png","null","","test","","","","","",""
"130.70000004768372","312463","pSARL_v2","pSARL_v2l34y4ws0","607f7f18d84d010ea2cd8664","freq","img/orange_2bandit_b2.png","70","70","test","1","129","129","6","",""
"null","313155","pSARL_v2","pSARL_v2l34y4ws0","607f7f18d84d010ea2cd8664","freq_resp","img/orange_2bandit_b.png","70","70","test","","","","6","",""
"null","313320","pSARL_v2","pSARL_v2l34y4ws0","607f7f18d84d010ea2cd8664","fixation","img/fixation.png","null","","test","","","","","",""
"137.69999980926514","313467","pSARL_v2","pSARL_v2l34y4ws0","607f7f18d84d010ea2cd8664","infreq","img/green_2bandit_b2.png","70","68","test","0","130","130","6","",""
"null","314142","pSARL_v2","pSARL_v2l34y4ws0","607f7f18d84d010ea2cd8664","infreq_resp","img/green_2bandit_b.png","70","68","test","","","","6","",""
"null","314303","pSARL_v2","pSARL_v2l34y4ws0","607f7f18d84d010ea2cd8664","fixation","img/fixation.png","null","","test","","","","","",""
"null","315113","pSARL_v2","pSARL_v2l34y4ws0","607f7f18d84d010ea2cd8664","freq","img/orange_2bandit_b2.png","null","70","test","0","131","131","6","",""
"null","315279","pSARL_v2","pSARL_v2l34y4ws0","607f7f18d84d010ea2cd8664","fixation","img/fixation.png","null","","test","","","","","",""
"667.3999998569489","315956","pSARL_v2","pSARL_v2l34y4ws0","607f7f18d84d010ea2cd8664","freq","img/orange_2bandit_b2.png","70","70","test","1","132","132","6","",""
"null","316107","pSARL_v2","pSARL_v2l34y4ws0","607f7f18d84d010ea2cd8664","freq_resp","img/orange_2bandit_b.png","70","70","test","","","","6","",""
"null","316265","pSARL_v2","pSARL_v2l34y4ws0","607f7f18d84d010ea2cd8664","fixation","img/fixation.png","null","","test","","","","","",""
"386.2000000476837","316661","pSARL_v2","pSARL_v2l34y4ws0","607f7f18d84d010ea2cd8664","infreq","img/green_2bandit_b2.png","70","68","test","0","133","133","6","",""
"null","317086","pSARL_v2","pSARL_v2l34y4ws0","607f7f18d84d010ea2cd8664","infreq_resp","img/green_2bandit_b.png","70","68","test","","","","6","",""
"null","317251","pSARL_v2","pSARL_v2l34y4ws0","607f7f18d84d010ea2cd8664","fixation","img/fixation.png","null","","test","","","","","",""
"468.90000009536743","317727","pSARL_v2","pSARL_v2l34y4ws0","607f7f18d84d010ea2cd8664","freq","img/orange_2bandit_b2.png","70","70","test","1","134","134","6","",""
"null","318073","pSARL_v2","pSARL_v2l34y4ws0","607f7f18d84d010ea2cd8664","freq_resp","img/orange_2bandit_b.png","70","70","test","","","","6","",""
"null","318234","pSARL_v2","pSARL_v2l34y4ws0","607f7f18d84d010ea2cd8664","fixation","img/fixation.png","null","","test","","","","","",""
"347.7999999523163","318589","pSARL_v2","pSARL_v2l34y4ws0","607f7f18d84d010ea2cd8664","freq","img/orange_2bandit_b2.png","70","70","test","1","135","135","6","",""
"null","319055","pSARL_v2","pSARL_v2l34y4ws0","607f7f18d84d010ea2cd8664","freq_resp","img/orange_2bandit_b.png","70","70","test","","","","6","",""
"null","319214","pSARL_v2","pSARL_v2l34y4ws0","607f7f18d84d010ea2cd8664","fixation","img/fixation.png","null","","test","","","","","",""
"534.2000000476837","319755","pSARL_v2","pSARL_v2l34y4ws0","607f7f18d84d010ea2cd8664","reward","img/slot.png","74","","test","","","","","",""
"null","320515","pSARL_v2","pSARL_v2l34y4ws0","607f7f18d84d010ea2cd8664","points","<div class=""verylowPoints""> -7 </div>","null","na","test","","","","6","-7","5"
"431.30000019073486","320950","pSARL_v2","pSARL_v2l34y4ws0","607f7f18d84d010ea2cd8664","freq","img/orange_2bandit_b2.png","70","70","test","1","136","136","7","",""
"null","321340","pSARL_v2","pSARL_v2l34y4ws0","607f7f18d84d010ea2cd8664","freq_resp","img/orange_2bandit_b.png","70","70","test","","","","7","",""
"null","321503","pSARL_v2","pSARL_v2l34y4ws0","607f7f18d84d010ea2cd8664","fixation","img/fixation.png","null","","test","","","","","",""
"310.59999990463257","321822","pSARL_v2","pSARL_v2l34y4ws0","607f7f18d84d010ea2cd8664","infreq","img/green_2bandit_b2.png","70","68","test","0","137","137","7","",""
"null","322332","pSARL_v2","pSARL_v2l34y4ws0","607f7f18d84d010ea2cd8664","infreq_resp","img/green_2bandit_b.png","70","68","test","","","","7","",""
"null","322503","pSARL_v2","pSARL_v2l34y4ws0","607f7f18d84d010ea2cd8664","fixation","img/fixation.png","null","","test","","","","","",""
"532.8999998569489","323048","pSARL_v2","pSARL_v2l34y4ws0","607f7f18d84d010ea2cd8664","freq","img/orange_2bandit_b2.png","70","70","test","1","138","138","7","",""
"null","323328","pSARL_v2","pSARL_v2l34y4ws0","607f7f18d84d010ea2cd8664","freq_resp","img/orange_2bandit_b.png","70","70","test","","","","7","",""
"null","323499","pSARL_v2","pSARL_v2l34y4ws0","607f7f18d84d010ea2cd8664","fixation","img/fixation.png","null","","test","","","","","",""
"471.09999990463257","323978","pSARL_v2","pSARL_v2l34y4ws0","607f7f18d84d010ea2cd8664","infreq","img/green_2bandit_b2.png","70","68","test","0","139","139","7","",""
"null","324324","pSARL_v2","pSARL_v2l34y4ws0","607f7f18d84d010ea2cd8664","infreq_resp","img/green_2bandit_b.png","70","68","test","","","","7","",""
"null","324487","pSARL_v2","pSARL_v2l34y4ws0","607f7f18d84d010ea2cd8664","fixation","img/fixation.png","null","","test","","","","","",""
"699","325195","pSARL_v2","pSARL_v2l34y4ws0","607f7f18d84d010ea2cd8664","freq","img/orange_2bandit_b2.png","70","70","test","1","140","140","7","",""
"null","325320","pSARL_v2","pSARL_v2l34y4ws0","607f7f18d84d010ea2cd8664","freq_resp","img/orange_2bandit_b.png","70","70","test","","","","7","",""
"null","325484","pSARL_v2","pSARL_v2l34y4ws0","607f7f18d84d010ea2cd8664","fixation","img/fixation.png","null","","test","","","","","",""
"594.7000000476837","326087","pSARL_v2","pSARL_v2l34y4ws0","607f7f18d84d010ea2cd8664","freq","img/orange_2bandit_b2.png","70","70","test","1","141","141","7","",""
"null","326316","pSARL_v2","pSARL_v2l34y4ws0","607f7f18d84d010ea2cd8664","freq_resp","img/orange_2bandit_b.png","70","70","test","","","","7","",""
"null","326486","pSARL_v2","pSARL_v2l34y4ws0","607f7f18d84d010ea2cd8664","fixation","img/fixation.png","null","","test","","","","","",""
"472.90000009536743","326967","pSARL_v2","pSARL_v2l34y4ws0","607f7f18d84d010ea2cd8664","freq","img/orange_2bandit_b2.png","70","70","test","1","142","142","7","",""
"null","327306","pSARL_v2","pSARL_v2l34y4ws0","607f7f18d84d010ea2cd8664","freq_resp","img/orange_2bandit_b.png","70","70","test","","","","7","",""
"null","327469","pSARL_v2","pSARL_v2l34y4ws0","607f7f18d84d010ea2cd8664","fixation","img/fixation.png","null","","test","","","","","",""
"420.69999980926514","327902","pSARL_v2","pSARL_v2l34y4ws0","607f7f18d84d010ea2cd8664","freq","img/orange_2bandit_b2.png","70","70","test","1","143","143","7","",""
"null","328301","pSARL_v2","pSARL_v2l34y4ws0","607f7f18d84d010ea2cd8664","freq_resp","img/orange_2bandit_b.png","70","70","test","","","","7","",""
"null","328469","pSARL_v2","pSARL_v2l34y4ws0","607f7f18d84d010ea2cd8664","fixation","img/fixation.png","null","","test","","","","","",""
"392.69999980926514","328870","pSARL_v2","pSARL_v2l34y4ws0","607f7f18d84d010ea2cd8664","freq","img/orange_2bandit_b2.png","70","70","test","1","144","144","7","",""
"null","329286","pSARL_v2","pSARL_v2l34y4ws0","607f7f18d84d010ea2cd8664","freq_resp","img/orange_2bandit_b.png","70","70","test","","","","7","",""
"null","329451","pSARL_v2","pSARL_v2l34y4ws0","607f7f18d84d010ea2cd8664","fixation","img/fixation.png","null","","test","","","","","",""
"443.7999999523163","329904","pSARL_v2","pSARL_v2l34y4ws0","607f7f18d84d010ea2cd8664","freq","img/orange_2bandit_b2.png","70","70","test","1","145","145","7","",""
"null","330270","pSARL_v2","pSARL_v2l34y4ws0","607f7f18d84d010ea2cd8664","freq_resp","img/orange_2bandit_b.png","70","70","test","","","","7","",""
"null","330431","pSARL_v2","pSARL_v2l34y4ws0","607f7f18d84d010ea2cd8664","fixation","img/fixation.png","null","","test","","","","","",""
"431.90000009536743","330874","pSARL_v2","pSARL_v2l34y4ws0","607f7f18d84d010ea2cd8664","freq","img/orange_2bandit_b2.png","70","70","test","1","146","146","7","",""
"null","331255","pSARL_v2","pSARL_v2l34y4ws0","607f7f18d84d010ea2cd8664","freq_resp","img/orange_2bandit_b.png","70","70","test","","","","7","",""
"null","331419","pSARL_v2","pSARL_v2l34y4ws0","607f7f18d84d010ea2cd8664","fixation","img/fixation.png","null","","test","","","","","",""
"386.10000014305115","331813","pSARL_v2","pSARL_v2l34y4ws0","607f7f18d84d010ea2cd8664","freq","img/orange_2bandit_b2.png","70","70","test","1","147","147","7","",""
"null","332239","pSARL_v2","pSARL_v2l34y4ws0","607f7f18d84d010ea2cd8664","freq_resp","img/orange_2bandit_b.png","70","70","test","","","","7","",""
"null","332411","pSARL_v2","pSARL_v2l34y4ws0","607f7f18d84d010ea2cd8664","fixation","img/fixation.png","null","","test","","","","","",""
"382","332800","pSARL_v2","pSARL_v2l34y4ws0","607f7f18d84d010ea2cd8664","freq","img/orange_2bandit_b2.png","70","70","test","1","148","148","7","",""
"null","333236","pSARL_v2","pSARL_v2l34y4ws0","607f7f18d84d010ea2cd8664","freq_resp","img/orange_2bandit_b.png","70","70","test","","","","7","",""
"null","333395","pSARL_v2","pSARL_v2l34y4ws0","607f7f18d84d010ea2cd8664","fixation","img/fixation.png","null","","test","","","","","",""
"381.40000009536743","333783","pSARL_v2","pSARL_v2l34y4ws0","607f7f18d84d010ea2cd8664","freq","img/orange_2bandit_b2.png","70","70","test","1","149","149","7","",""
"null","334220","pSARL_v2","pSARL_v2l34y4ws0","607f7f18d84d010ea2cd8664","freq_resp","img/orange_2bandit_b.png","70","70","test","","","","7","",""
"null","334381","pSARL_v2","pSARL_v2l34y4ws0","607f7f18d84d010ea2cd8664","fixation","img/fixation.png","null","","test","","","","","",""
"307.40000009536743","334695","pSARL_v2","pSARL_v2l34y4ws0","607f7f18d84d010ea2cd8664","freq","img/orange_2bandit_b2.png","70","70","test","1","150","150","7","",""
"null","335198","pSARL_v2","pSARL_v2l34y4ws0","607f7f18d84d010ea2cd8664","freq_resp","img/orange_2bandit_b.png","70","70","test","","","","7","",""
"null","335366","pSARL_v2","pSARL_v2l34y4ws0","607f7f18d84d010ea2cd8664","fixation","img/fixation.png","null","","test","","","","","",""
"219.59999990463257","335593","pSARL_v2","pSARL_v2l34y4ws0","607f7f18d84d010ea2cd8664","freq","img/orange_2bandit_b2.png","70","70","test","1","151","151","7","",""
"null","336191","pSARL_v2","pSARL_v2l34y4ws0","607f7f18d84d010ea2cd8664","freq_resp","img/orange_2bandit_b.png","70","70","test","","","","7","",""
"null","336363","pSARL_v2","pSARL_v2l34y4ws0","607f7f18d84d010ea2cd8664","fixation","img/fixation.png","null","","test","","","","","",""
"105.19999980926514","336476","pSARL_v2","pSARL_v2l34y4ws0","607f7f18d84d010ea2cd8664","freq","img/orange_2bandit_b2.png","70","70","test","1","152","152","7","",""
"null","337185","pSARL_v2","pSARL_v2l34y4ws0","607f7f18d84d010ea2cd8664","freq_resp","img/orange_2bandit_b.png","70","70","test","","","","7","",""
"null","337351","pSARL_v2","pSARL_v2l34y4ws0","607f7f18d84d010ea2cd8664","fixation","img/fixation.png","null","","test","","","","","",""
"265.7999999523163","337625","pSARL_v2","pSARL_v2l34y4ws0","607f7f18d84d010ea2cd8664","freq","img/orange_2bandit_b2.png","70","70","test","1","153","153","7","",""
"null","338177","pSARL_v2","pSARL_v2l34y4ws0","607f7f18d84d010ea2cd8664","freq_resp","img/orange_2bandit_b.png","70","70","test","","","","7","",""
"null","338350","pSARL_v2","pSARL_v2l34y4ws0","607f7f18d84d010ea2cd8664","fixation","img/fixation.png","null","","test","","","","","",""
"156.59999990463257","338518","pSARL_v2","pSARL_v2l34y4ws0","607f7f18d84d010ea2cd8664","freq","img/orange_2bandit_b2.png","70","70","test","1","154","154","7","",""
"null","339186","pSARL_v2","pSARL_v2l34y4ws0","607f7f18d84d010ea2cd8664","freq_resp","img/orange_2bandit_b.png","70","70","test","","","","7","",""
"null","339347","pSARL_v2","pSARL_v2l34y4ws0","607f7f18d84d010ea2cd8664","fixation","img/fixation.png","null","","test","","","","","",""
"249.09999990463257","339607","pSARL_v2","pSARL_v2l34y4ws0","607f7f18d84d010ea2cd8664","freq","img/orange_2bandit_b2.png","70","70","test","1","155","155","7","",""
"null","340178","pSARL_v2","pSARL_v2l34y4ws0","607f7f18d84d010ea2cd8664","freq_resp","img/orange_2bandit_b.png","70","70","test","","","","7","",""
"null","340346","pSARL_v2","pSARL_v2l34y4ws0","607f7f18d84d010ea2cd8664","fixation","img/fixation.png","null","","test","","","","","",""
"524.0999999046326","340877","pSARL_v2","pSARL_v2l34y4ws0","607f7f18d84d010ea2cd8664","reward","img/slot.png","74","","test","","","","","",""
"null","341649","pSARL_v2","pSARL_v2l34y4ws0","607f7f18d84d010ea2cd8664","points","<div class=""verylowPoints""> -6 </div>","null","na","test","","","","7","-6","6"
"499.59999990463257","342156","pSARL_v2","pSARL_v2l34y4ws0","607f7f18d84d010ea2cd8664","freq","img/orange_2bandit_b2.png","70","70","test","1","156","156","8","",""
"null","342470","pSARL_v2","pSARL_v2l34y4ws0","607f7f18d84d010ea2cd8664","freq_resp","img/orange_2bandit_b.png","70","70","test","","","","8","",""
"null","342634","pSARL_v2","pSARL_v2l34y4ws0","607f7f18d84d010ea2cd8664","fixation","img/fixation.png","null","","test","","","","","",""
"530.2999999523163","343173","pSARL_v2","pSARL_v2l34y4ws0","607f7f18d84d010ea2cd8664","freq","img/orange_2bandit_b2.png","70","70","test","1","157","157","8","",""
"null","343456","pSARL_v2","pSARL_v2l34y4ws0","607f7f18d84d010ea2cd8664","freq_resp","img/orange_2bandit_b.png","70","70","test","","","","8","",""
"null","343631","pSARL_v2","pSARL_v2l34y4ws0","607f7f18d84d010ea2cd8664","fixation","img/fixation.png","null","","test","","","","","",""
"494.09999990463257","344135","pSARL_v2","pSARL_v2l34y4ws0","607f7f18d84d010ea2cd8664","freq","img/orange_2bandit_b2.png","70","70","test","1","158","158","8","",""
"null","344457","pSARL_v2","pSARL_v2l34y4ws0","607f7f18d84d010ea2cd8664","freq_resp","img/orange_2bandit_b.png","70","70","test","","","","8","",""
"null","344633","pSARL_v2","pSARL_v2l34y4ws0","607f7f18d84d010ea2cd8664","fixation","img/fixation.png","null","","test","","","","","",""
"372.60000014305115","345014","pSARL_v2","pSARL_v2l34y4ws0","607f7f18d84d010ea2cd8664","freq","img/orange_2bandit_b2.png","70","70","test","1","159","159","8","",""
"null","345451","pSARL_v2","pSARL_v2l34y4ws0","607f7f18d84d010ea2cd8664","freq_resp","img/orange_2bandit_b.png","70","70","test","","","","8","",""
"null","345617","pSARL_v2","pSARL_v2l34y4ws0","607f7f18d84d010ea2cd8664","fixation","img/fixation.png","null","","test","","","","","",""
"370.7999999523163","345996","pSARL_v2","pSARL_v2l34y4ws0","607f7f18d84d010ea2cd8664","freq","img/orange_2bandit_b2.png","70","70","test","1","160","160","8","",""
"null","346447","pSARL_v2","pSARL_v2l34y4ws0","607f7f18d84d010ea2cd8664","freq_resp","img/orange_2bandit_b.png","70","70","test","","","","8","",""
"null","346614","pSARL_v2","pSARL_v2l34y4ws0","607f7f18d84d010ea2cd8664","fixation","img/fixation.png","null","","test","","","","","",""
"331.09999990463257","346953","pSARL_v2","pSARL_v2l34y4ws0","607f7f18d84d010ea2cd8664","freq","img/orange_2bandit_b2.png","70","70","test","1","161","161","8","",""
"null","347431","pSARL_v2","pSARL_v2l34y4ws0","607f7f18d84d010ea2cd8664","freq_resp","img/orange_2bandit_b.png","70","70","test","","","","8","",""
"null","347600","pSARL_v2","pSARL_v2l34y4ws0","607f7f18d84d010ea2cd8664","fixation","img/fixation.png","null","","test","","","","","",""
"503.7000000476837","348116","pSARL_v2","pSARL_v2l34y4ws0","607f7f18d84d010ea2cd8664","infreq","img/green_2bandit_b2.png","68","68","test","1","162","162","8","",""
"null","348426","pSARL_v2","pSARL_v2l34y4ws0","607f7f18d84d010ea2cd8664","infreq_resp","img/green_2bandit_b.png","68","68","test","","","","8","",""
"null","348599","pSARL_v2","pSARL_v2l34y4ws0","607f7f18d84d010ea2cd8664","fixation","img/fixation.png","null","","test","","","","","",""
"586.2999999523163","349194","pSARL_v2","pSARL_v2l34y4ws0","607f7f18d84d010ea2cd8664","freq","img/orange_2bandit_b2.png","70","70","test","1","163","163","8","",""
"null","349428","pSARL_v2","pSARL_v2l34y4ws0","607f7f18d84d010ea2cd8664","freq_resp","img/orange_2bandit_b.png","70","70","test","","","","8","",""
"null","349596","pSARL_v2","pSARL_v2l34y4ws0","607f7f18d84d010ea2cd8664","fixation","img/fixation.png","null","","test","","","","","",""
"387.7000000476837","349994","pSARL_v2","pSARL_v2l34y4ws0","607f7f18d84d010ea2cd8664","freq","img/orange_2bandit_b2.png","70","70","test","1","164","164","8","",""
"null","350418","pSARL_v2","pSARL_v2l34y4ws0","607f7f18d84d010ea2cd8664","freq_resp","img/orange_2bandit_b.png","70","70","test","","","","8","",""
"null","350584","pSARL_v2","pSARL_v2l34y4ws0","607f7f18d84d010ea2cd8664","fixation","img/fixation.png","null","","test","","","","","",""
"245.39999985694885","350841","pSARL_v2","pSARL_v2l34y4ws0","607f7f18d84d010ea2cd8664","freq","img/orange_2bandit_b2.png","70","70","test","1","165","165","8","",""
"null","351407","pSARL_v2","pSARL_v2l34y4ws0","607f7f18d84d010ea2cd8664","freq_resp","img/orange_2bandit_b.png","70","70","test","","","","8","",""
"null","351581","pSARL_v2","pSARL_v2l34y4ws0","607f7f18d84d010ea2cd8664","fixation","img/fixation.png","null","","test","","","","","",""
"211","351800","pSARL_v2","pSARL_v2l34y4ws0","607f7f18d84d010ea2cd8664","infreq","img/green_2bandit_b2.png","70","68","test","0","166","166","8","",""
"null","352408","pSARL_v2","pSARL_v2l34y4ws0","607f7f18d84d010ea2cd8664","infreq_resp","img/green_2bandit_b.png","70","68","test","","","","8","",""
"null","352581","pSARL_v2","pSARL_v2l34y4ws0","607f7f18d84d010ea2cd8664","fixation","img/fixation.png","null","","test","","","","","",""
"455.59999990463257","353044","pSARL_v2","pSARL_v2l34y4ws0","607f7f18d84d010ea2cd8664","freq","img/orange_2bandit_b2.png","70","70","test","1","167","167","8","",""
"null","353407","pSARL_v2","pSARL_v2l34y4ws0","607f7f18d84d010ea2cd8664","freq_resp","img/orange_2bandit_b.png","70","70","test","","","","8","",""
"null","353581","pSARL_v2","pSARL_v2l34y4ws0","607f7f18d84d010ea2cd8664","fixation","img/fixation.png","null","","test","","","","","",""
"324.2999999523163","353913","pSARL_v2","pSARL_v2l34y4ws0","607f7f18d84d010ea2cd8664","freq","img/orange_2bandit_b2.png","70","70","test","1","168","168","8","",""
"null","354397","pSARL_v2","pSARL_v2l34y4ws0","607f7f18d84d010ea2cd8664","freq_resp","img/orange_2bandit_b.png","70","70","test","","","","8","",""
"null","354562","pSARL_v2","pSARL_v2l34y4ws0","607f7f18d84d010ea2cd8664","fixation","img/fixation.png","null","","test","","","","","",""
"329.40000009536743","354902","pSARL_v2","pSARL_v2l34y4ws0","607f7f18d84d010ea2cd8664","freq","img/orange_2bandit_b2.png","70","70","test","1","169","169","8","",""
"null","355396","pSARL_v2","pSARL_v2l34y4ws0","607f7f18d84d010ea2cd8664","freq_resp","img/orange_2bandit_b.png","70","70","test","","","","8","",""
"null","355562","pSARL_v2","pSARL_v2l34y4ws0","607f7f18d84d010ea2cd8664","fixation","img/fixation.png","null","","test","","","","","",""
"271.69999980926514","355845","pSARL_v2","pSARL_v2l34y4ws0","607f7f18d84d010ea2cd8664","freq","img/orange_2bandit_b2.png","70","70","test","1","170","170","8","",""
"null","356393","pSARL_v2","pSARL_v2l34y4ws0","607f7f18d84d010ea2cd8664","freq_resp","img/orange_2bandit_b.png","70","70","test","","","","8","",""
"null","356562","pSARL_v2","pSARL_v2l34y4ws0","607f7f18d84d010ea2cd8664","fixation","img/fixation.png","null","","test","","","","","",""
"299.7999999523163","356870","pSARL_v2","pSARL_v2l34y4ws0","607f7f18d84d010ea2cd8664","freq","img/orange_2bandit_b2.png","70","70","test","1","171","171","8","",""
"null","357391","pSARL_v2","pSARL_v2l34y4ws0","607f7f18d84d010ea2cd8664","freq_resp","img/orange_2bandit_b.png","70","70","test","","","","8","",""
"null","357561","pSARL_v2","pSARL_v2l34y4ws0","607f7f18d84d010ea2cd8664","fixation","img/fixation.png","null","","test","","","","","",""
"476.39999985694885","358042","pSARL_v2","pSARL_v2l34y4ws0","607f7f18d84d010ea2cd8664","freq","img/orange_2bandit_b2.png","70","70","test","1","172","172","8","",""
"null","358378","pSARL_v2","pSARL_v2l34y4ws0","607f7f18d84d010ea2cd8664","freq_resp","img/orange_2bandit_b.png","70","70","test","","","","8","",""
"null","358543","pSARL_v2","pSARL_v2l34y4ws0","607f7f18d84d010ea2cd8664","fixation","img/fixation.png","null","","test","","","","","",""
"370.39999985694885","358930","pSARL_v2","pSARL_v2l34y4ws0","607f7f18d84d010ea2cd8664","freq","img/orange_2bandit_b2.png","70","70","test","1","173","173","8","",""
"null","359379","pSARL_v2","pSARL_v2l34y4ws0","607f7f18d84d010ea2cd8664","freq_resp","img/orange_2bandit_b.png","70","70","test","","","","8","",""
"null","359542","pSARL_v2","pSARL_v2l34y4ws0","607f7f18d84d010ea2cd8664","fixation","img/fixation.png","null","","test","","","","","",""
"366.5","359917","pSARL_v2","pSARL_v2l34y4ws0","607f7f18d84d010ea2cd8664","freq","img/orange_2bandit_b2.png","70","70","test","1","174","174","8","",""
"null","360366","pSARL_v2","pSARL_v2l34y4ws0","607f7f18d84d010ea2cd8664","freq_resp","img/orange_2bandit_b.png","70","70","test","","","","8","",""
"null","360531","pSARL_v2","pSARL_v2l34y4ws0","607f7f18d84d010ea2cd8664","fixation","img/fixation.png","null","","test","","","","","",""
"505.60000014305115","361045","pSARL_v2","pSARL_v2l34y4ws0","607f7f18d84d010ea2cd8664","reward","img/slot.png","74","","test","","","","","",""
"null","361812","pSARL_v2","pSARL_v2l34y4ws0","607f7f18d84d010ea2cd8664","points","<div class=""verylowPoints""> -4 </div>","null","na","test","","","","8","-4","7"
"394.60000014305115","362213","pSARL_v2","pSARL_v2l34y4ws0","607f7f18d84d010ea2cd8664","freq","img/orange_2bandit_b2.png","70","70","test","1","175","175","9","",""
"null","362635","pSARL_v2","pSARL_v2l34y4ws0","607f7f18d84d010ea2cd8664","freq_resp","img/orange_2bandit_b.png","70","70","test","","","","9","",""
"null","362798","pSARL_v2","pSARL_v2l34y4ws0","607f7f18d84d010ea2cd8664","fixation","img/fixation.png","null","","test","","","","","",""
"460","363267","pSARL_v2","pSARL_v2l34y4ws0","607f7f18d84d010ea2cd8664","infreq","img/green_2bandit_b2.png","70","68","test","0","176","176","9","",""
"null","363621","pSARL_v2","pSARL_v2l34y4ws0","607f7f18d84d010ea2cd8664","infreq_resp","img/green_2bandit_b.png","70","68","test","","","","9","",""
"null","363795","pSARL_v2","pSARL_v2l34y4ws0","607f7f18d84d010ea2cd8664","fixation","img/fixation.png","null","","test","","","","","",""
"506.5","364308","pSARL_v2","pSARL_v2l34y4ws0","607f7f18d84d010ea2cd8664","freq","img/orange_2bandit_b2.png","70","70","test","1","177","177","9","",""
"null","364621","pSARL_v2","pSARL_v2l34y4ws0","607f7f18d84d010ea2cd8664","freq_resp","img/orange_2bandit_b.png","70","70","test","","","","9","",""
"null","364795","pSARL_v2","pSARL_v2l34y4ws0","607f7f18d84d010ea2cd8664","fixation","img/fixation.png","null","","test","","","","","",""
"299.2999999523163","365108","pSARL_v2","pSARL_v2l34y4ws0","607f7f18d84d010ea2cd8664","freq","img/orange_2bandit_b2.png","70","70","test","1","178","178","9","",""
"null","365631","pSARL_v2","pSARL_v2l34y4ws0","607f7f18d84d010ea2cd8664","freq_resp","img/orange_2bandit_b.png","70","70","test","","","","9","",""
"null","365795","pSARL_v2","pSARL_v2l34y4ws0","607f7f18d84d010ea2cd8664","fixation","img/fixation.png","null","","test","","","","","",""
"326.2999999523163","366128","pSARL_v2","pSARL_v2l34y4ws0","607f7f18d84d010ea2cd8664","freq","img/orange_2bandit_b2.png","70","70","test","1","179","179","9","",""
"null","366611","pSARL_v2","pSARL_v2l34y4ws0","607f7f18d84d010ea2cd8664","freq_resp","img/orange_2bandit_b.png","70","70","test","","","","9","",""
"null","366780","pSARL_v2","pSARL_v2l34y4ws0","607f7f18d84d010ea2cd8664","fixation","img/fixation.png","null","","test","","","","","",""
"334.59999990463257","367126","pSARL_v2","pSARL_v2l34y4ws0","607f7f18d84d010ea2cd8664","freq","img/orange_2bandit_b2.png","70","70","test","1","180","180","9","",""
"null","367615","pSARL_v2","pSARL_v2l34y4ws0","607f7f18d84d010ea2cd8664","freq_resp","img/orange_2bandit_b.png","70","70","test","","","","9","",""
"null","367778","pSARL_v2","pSARL_v2l34y4ws0","607f7f18d84d010ea2cd8664","fixation","img/fixation.png","null","","test","","","","","",""
"394.09999990463257","368183","pSARL_v2","pSARL_v2l34y4ws0","607f7f18d84d010ea2cd8664","freq","img/orange_2bandit_b2.png","70","70","test","1","181","181","9","",""
"null","368611","pSARL_v2","pSARL_v2l34y4ws0","607f7f18d84d010ea2cd8664","freq_resp","img/orange_2bandit_b.png","70","70","test","","","","9","",""
"null","368777","pSARL_v2","pSARL_v2l34y4ws0","607f7f18d84d010ea2cd8664","fixation","img/fixation.png","null","","test","","","","","",""
"473.2000000476837","369261","pSARL_v2","pSARL_v2l34y4ws0","607f7f18d84d010ea2cd8664","freq","img/orange_2bandit_b2.png","70","70","test","1","182","182","9","",""
"null","369600","pSARL_v2","pSARL_v2l34y4ws0","607f7f18d84d010ea2cd8664","freq_resp","img/orange_2bandit_b.png","70","70","test","","","","9","",""
"null","369763","pSARL_v2","pSARL_v2l34y4ws0","607f7f18d84d010ea2cd8664","fixation","img/fixation.png","null","","test","","","","","",""
"444.2000000476837","370215","pSARL_v2","pSARL_v2l34y4ws0","607f7f18d84d010ea2cd8664","freq","img/orange_2bandit_b2.png","70","70","test","1","183","183","9","",""
"null","370582","pSARL_v2","pSARL_v2l34y4ws0","607f7f18d84d010ea2cd8664","freq_resp","img/orange_2bandit_b.png","70","70","test","","","","9","",""
"null","370747","pSARL_v2","pSARL_v2l34y4ws0","607f7f18d84d010ea2cd8664","fixation","img/fixation.png","null","","test","","","","","",""
"416.2999999523163","371176","pSARL_v2","pSARL_v2l34y4ws0","607f7f18d84d010ea2cd8664","freq","img/orange_2bandit_b2.png","70","70","test","1","184","184","9","",""
"null","371581","pSARL_v2","pSARL_v2l34y4ws0","607f7f18d84d010ea2cd8664","freq_resp","img/orange_2bandit_b.png","70","70","test","","","","9","",""
"null","371747","pSARL_v2","pSARL_v2l34y4ws0","607f7f18d84d010ea2cd8664","fixation","img/fixation.png","null","","test","","","","","",""
"383.2000000476837","372143","pSARL_v2","pSARL_v2l34y4ws0","607f7f18d84d010ea2cd8664","freq","img/orange_2bandit_b2.png","70","70","test","1","185","185","9","",""
"null","372582","pSARL_v2","pSARL_v2l34y4ws0","607f7f18d84d010ea2cd8664","freq_resp","img/orange_2bandit_b.png","70","70","test","","","","9","",""
"null","372744","pSARL_v2","pSARL_v2l34y4ws0","607f7f18d84d010ea2cd8664","fixation","img/fixation.png","null","","test","","","","","",""
"360.7999999523163","373112","pSARL_v2","pSARL_v2l34y4ws0","607f7f18d84d010ea2cd8664","freq","img/orange_2bandit_b2.png","70","70","test","1","186","186","9","",""
"null","373562","pSARL_v2","pSARL_v2l34y4ws0","607f7f18d84d010ea2cd8664","freq_resp","img/orange_2bandit_b.png","70","70","test","","","","9","",""
"null","373730","pSARL_v2","pSARL_v2l34y4ws0","607f7f18d84d010ea2cd8664","fixation","img/fixation.png","null","","test","","","","","",""
"336.30000019073486","374075","pSARL_v2","pSARL_v2l34y4ws0","607f7f18d84d010ea2cd8664","freq","img/orange_2bandit_b2.png","70","70","test","1","187","187","9","",""
"null","374546","pSARL_v2","pSARL_v2l34y4ws0","607f7f18d84d010ea2cd8664","freq_resp","img/orange_2bandit_b.png","70","70","test","","","","9","",""
"null","374711","pSARL_v2","pSARL_v2l34y4ws0","607f7f18d84d010ea2cd8664","fixation","img/fixation.png","null","","test","","","","","",""
"334.90000009536743","375054","pSARL_v2","pSARL_v2l34y4ws0","607f7f18d84d010ea2cd8664","freq","img/orange_2bandit_b2.png","70","70","test","1","188","188","9","",""
"null","375531","pSARL_v2","pSARL_v2l34y4ws0","607f7f18d84d010ea2cd8664","freq_resp","img/orange_2bandit_b.png","70","70","test","","","","9","",""
"null","375693","pSARL_v2","pSARL_v2l34y4ws0","607f7f18d84d010ea2cd8664","fixation","img/fixation.png","null","","test","","","","","",""
"594.6000001430511","376296","pSARL_v2","pSARL_v2l34y4ws0","607f7f18d84d010ea2cd8664","infreq","img/green_2bandit_b2.png","68","68","test","1","189","189","9","",""
"null","376524","pSARL_v2","pSARL_v2l34y4ws0","607f7f18d84d010ea2cd8664","infreq_resp","img/green_2bandit_b.png","68","68","test","","","","9","",""
"null","376697","pSARL_v2","pSARL_v2l34y4ws0","607f7f18d84d010ea2cd8664","fixation","img/fixation.png","null","","test","","","","","",""
"397.7000000476837","377103","pSARL_v2","pSARL_v2l34y4ws0","607f7f18d84d010ea2cd8664","freq","img/orange_2bandit_b2.png","70","70","test","1","190","190","9","",""
"null","377534","pSARL_v2","pSARL_v2l34y4ws0","607f7f18d84d010ea2cd8664","freq_resp","img/orange_2bandit_b.png","70","70","test","","","","9","",""
"null","377708","pSARL_v2","pSARL_v2l34y4ws0","607f7f18d84d010ea2cd8664","fixation","img/fixation.png","null","","test","","","","","",""
"365.60000014305115","378087","pSARL_v2","pSARL_v2l34y4ws0","607f7f18d84d010ea2cd8664","freq","img/orange_2bandit_b2.png","70","70","test","1","191","191","9","",""
"null","378534","pSARL_v2","pSARL_v2l34y4ws0","607f7f18d84d010ea2cd8664","freq_resp","img/orange_2bandit_b.png","70","70","test","","","","9","",""
"null","378698","pSARL_v2","pSARL_v2l34y4ws0","607f7f18d84d010ea2cd8664","fixation","img/fixation.png","null","","test","","","","","",""
"343.90000009536743","379057","pSARL_v2","pSARL_v2l34y4ws0","607f7f18d84d010ea2cd8664","freq","img/orange_2bandit_b2.png","70","70","test","1","192","192","9","",""
"null","379529","pSARL_v2","pSARL_v2l34y4ws0","607f7f18d84d010ea2cd8664","freq_resp","img/orange_2bandit_b.png","70","70","test","","","","9","",""
"null","379691","pSARL_v2","pSARL_v2l34y4ws0","607f7f18d84d010ea2cd8664","fixation","img/fixation.png","null","","test","","","","","",""
"342.2999999523163","380044","pSARL_v2","pSARL_v2l34y4ws0","607f7f18d84d010ea2cd8664","freq","img/orange_2bandit_b2.png","70","70","test","1","193","193","9","",""
"null","380528","pSARL_v2","pSARL_v2l34y4ws0","607f7f18d84d010ea2cd8664","freq_resp","img/orange_2bandit_b.png","70","70","test","","","","9","",""
"null","380696","pSARL_v2","pSARL_v2l34y4ws0","607f7f18d84d010ea2cd8664","fixation","img/fixation.png","null","","test","","","","","",""
"373.5","381078","pSARL_v2","pSARL_v2l34y4ws0","607f7f18d84d010ea2cd8664","freq","img/orange_2bandit_b2.png","70","70","test","1","194","194","9","",""
"null","381530","pSARL_v2","pSARL_v2l34y4ws0","607f7f18d84d010ea2cd8664","freq_resp","img/orange_2bandit_b.png","70","70","test","","","","9","",""
"null","381698","pSARL_v2","pSARL_v2l34y4ws0","607f7f18d84d010ea2cd8664","fixation","img/fixation.png","null","","test","","","","","",""
"219","381930","pSARL_v2","pSARL_v2l34y4ws0","607f7f18d84d010ea2cd8664","freq","img/orange_2bandit_b2.png","70","70","test","1","195","195","9","",""
"null","382535","pSARL_v2","pSARL_v2l34y4ws0","607f7f18d84d010ea2cd8664","freq_resp","img/orange_2bandit_b.png","70","70","test","","","","9","",""
"null","382711","pSARL_v2","pSARL_v2l34y4ws0","607f7f18d84d010ea2cd8664","fixation","img/fixation.png","null","","test","","","","","",""
"137.30000019073486","382861","pSARL_v2","pSARL_v2l34y4ws0","607f7f18d84d010ea2cd8664","freq","img/orange_2bandit_b2.png","70","70","test","1","196","196","9","",""
"null","383548","pSARL_v2","pSARL_v2l34y4ws0","607f7f18d84d010ea2cd8664","freq_resp","img/orange_2bandit_b.png","70","70","test","","","","9","",""
"null","383710","pSARL_v2","pSARL_v2l34y4ws0","607f7f18d84d010ea2cd8664","fixation","img/fixation.png","null","","test","","","","","",""
"348.5","384069","pSARL_v2","pSARL_v2l34y4ws0","607f7f18d84d010ea2cd8664","freq","img/orange_2bandit_b2.png","70","70","test","1","197","197","9","",""
"null","384541","pSARL_v2","pSARL_v2l34y4ws0","607f7f18d84d010ea2cd8664","freq_resp","img/orange_2bandit_b.png","70","70","test","","","","9","",""
"null","384713","pSARL_v2","pSARL_v2l34y4ws0","607f7f18d84d010ea2cd8664","fixation","img/fixation.png","null","","test","","","","","",""
"401.7999999523163","385123","pSARL_v2","pSARL_v2l34y4ws0","607f7f18d84d010ea2cd8664","freq","img/orange_2bandit_b2.png","70","70","test","1","198","198","9","",""
"null","385529","pSARL_v2","pSARL_v2l34y4ws0","607f7f18d84d010ea2cd8664","freq_resp","img/orange_2bandit_b.png","70","70","test","","","","9","",""
"null","385695","pSARL_v2","pSARL_v2l34y4ws0","607f7f18d84d010ea2cd8664","fixation","img/fixation.png","null","","test","","","","","",""
"354.09999990463257","386057","pSARL_v2","pSARL_v2l34y4ws0","607f7f18d84d010ea2cd8664","freq","img/orange_2bandit_b2.png","70","70","test","1","199","199","9","",""
"null","386514","pSARL_v2","pSARL_v2l34y4ws0","607f7f18d84d010ea2cd8664","freq_resp","img/orange_2bandit_b.png","70","70","test","","","","9","",""
"null","386680","pSARL_v2","pSARL_v2l34y4ws0","607f7f18d84d010ea2cd8664","fixation","img/fixation.png","null","","test","","","","","",""
"580.7999999523163","387270","pSARL_v2","pSARL_v2l34y4ws0","607f7f18d84d010ea2cd8664","reward","img/slot.png","74","","test","","","","","",""
"null","388043","pSARL_v2","pSARL_v2l34y4ws0","607f7f18d84d010ea2cd8664","points","<div class=""verylowPoints""> -3 </div>","null","na","test","","","","9","-3","8"
"355.60000014305115","388411","pSARL_v2","pSARL_v2l34y4ws0","607f7f18d84d010ea2cd8664","freq","img/orange_2bandit_b2.png","70","70","test","1","200","200","10","",""
"null","388876","pSARL_v2","pSARL_v2l34y4ws0","607f7f18d84d010ea2cd8664","freq_resp","img/orange_2bandit_b.png","70","70","test","","","","10","",""
"null","389047","pSARL_v2","pSARL_v2l34y4ws0","607f7f18d84d010ea2cd8664","fixation","img/fixation.png","null","","test","","","","","",""
"218.39999985694885","389274","pSARL_v2","pSARL_v2l34y4ws0","607f7f18d84d010ea2cd8664","infreq","img/green_2bandit_b2.png","70","68","test","0","201","201","10","",""
"null","389870","pSARL_v2","pSARL_v2l34y4ws0","607f7f18d84d010ea2cd8664","infreq_resp","img/green_2bandit_b.png","70","68","test","","","","10","",""
"null","390044","pSARL_v2","pSARL_v2l34y4ws0","607f7f18d84d010ea2cd8664","fixation","img/fixation.png","null","","test","","","","","",""
"645.7000000476837","390699","pSARL_v2","pSARL_v2l34y4ws0","607f7f18d84d010ea2cd8664","infreq","img/green_2bandit_b2.png","68","68","test","1","202","202","10","",""
"null","390873","pSARL_v2","pSARL_v2l34y4ws0","607f7f18d84d010ea2cd8664","infreq_resp","img/green_2bandit_b.png","68","68","test","","","","10","",""
"null","391046","pSARL_v2","pSARL_v2l34y4ws0","607f7f18d84d010ea2cd8664","fixation","img/fixation.png","null","","test","","","","","",""
"545.4000000953674","391600","pSARL_v2","pSARL_v2l34y4ws0","607f7f18d84d010ea2cd8664","freq","img/orange_2bandit_b2.png","70","70","test","1","203","203","10","",""
"null","391867","pSARL_v2","pSARL_v2l34y4ws0","607f7f18d84d010ea2cd8664","freq_resp","img/orange_2bandit_b.png","70","70","test","","","","10","",""
"null","392029","pSARL_v2","pSARL_v2l34y4ws0","607f7f18d84d010ea2cd8664","fixation","img/fixation.png","null","","test","","","","","",""
"416.09999990463257","392454","pSARL_v2","pSARL_v2l34y4ws0","607f7f18d84d010ea2cd8664","freq","img/orange_2bandit_b2.png","70","70","test","1","204","204","10","",""
"null","392845","pSARL_v2","pSARL_v2l34y4ws0","607f7f18d84d010ea2cd8664","freq_resp","img/orange_2bandit_b.png","70","70","test","","","","10","",""
"null","393013","pSARL_v2","pSARL_v2l34y4ws0","607f7f18d84d010ea2cd8664","fixation","img/fixation.png","null","","test","","","","","",""
"463.90000009536743","393485","pSARL_v2","pSARL_v2l34y4ws0","607f7f18d84d010ea2cd8664","freq","img/orange_2bandit_b2.png","70","70","test","1","205","205","10","",""
"null","393831","pSARL_v2","pSARL_v2l34y4ws0","607f7f18d84d010ea2cd8664","freq_resp","img/orange_2bandit_b.png","70","70","test","","","","10","",""
