"rt","time_elapsed","expId","subject","prolificID","trialType","stimulus","key_press","corrresp","phase","corr","trialNum","attentionRunNum","blockNum","points","rlNum"
"19240","19253","pSARL_v2","pSARL_v2zus9k0vc","62865e3456c142785cfad2a7","","","","","","","","","","",""
"","26310","pSARL_v2","pSARL_v2zus9k0vc","62865e3456c142785cfad2a7","fullscreen","","","","","","","","","",""
"76849","103167","pSARL_v2","pSARL_v2zus9k0vc","62865e3456c142785cfad2a7","","","","","","","","","","",""
"null","103989","pSARL_v2","pSARL_v2zus9k0vc","62865e3456c142785cfad2a7","freqPrac","img/orange_2bandit_b2.png","null","70","prac","0","","","","",""
"null","104999","pSARL_v2","pSARL_v2zus9k0vc","62865e3456c142785cfad2a7","feedback","img/tooSlow.png","null","na","prac","","","","","",""
"null","105178","pSARL_v2","pSARL_v2zus9k0vc","62865e3456c142785cfad2a7","fixation","img/fixation.png","null","","prac","","","","","",""
"526","105711","pSARL_v2","pSARL_v2zus9k0vc","62865e3456c142785cfad2a7","infreqPrac","img/green_2bandit_b2.png","68","68","prac","1","","","","",""
"526","105998","pSARL_v2","pSARL_v2zus9k0vc","62865e3456c142785cfad2a7","infreqPrac_resp","img/green_2bandit_b.png","68","68","prac","","","","","",""
"null","106158","pSARL_v2","pSARL_v2zus9k0vc","62865e3456c142785cfad2a7","fixation","img/fixation.png","null","","prac","","","","","",""
"465","106630","pSARL_v2","pSARL_v2zus9k0vc","62865e3456c142785cfad2a7","freqPrac","img/orange_2bandit_b2.png","70","70","prac","1","","","","",""
"465","106979","pSARL_v2","pSARL_v2zus9k0vc","62865e3456c142785cfad2a7","freqPrac_resp","img/orange_2bandit_b.png","70","70","prac","","","","","",""
"null","107140","pSARL_v2","pSARL_v2zus9k0vc","62865e3456c142785cfad2a7","fixation","img/fixation.png","null","","prac","","","","","",""
"522","107670","pSARL_v2","pSARL_v2zus9k0vc","62865e3456c142785cfad2a7","infreqPrac","img/green_2bandit_b2.png","68","68","prac","1","","","","",""
"522","107958","pSARL_v2","pSARL_v2zus9k0vc","62865e3456c142785cfad2a7","infreqPrac_resp","img/green_2bandit_b.png","68","68","prac","","","","","",""
"null","108118","pSARL_v2","pSARL_v2zus9k0vc","62865e3456c142785cfad2a7","fixation","img/fixation.png","null","","prac","","","","","",""
"425","108549","pSARL_v2","pSARL_v2zus9k0vc","62865e3456c142785cfad2a7","infreqPrac","img/green_2bandit_b2.png","68","68","prac","1","","","","",""
"425","108949","pSARL_v2","pSARL_v2zus9k0vc","62865e3456c142785cfad2a7","infreqPrac_resp","img/green_2bandit_b.png","68","68","prac","","","","","",""
"null","109110","pSARL_v2","pSARL_v2zus9k0vc","62865e3456c142785cfad2a7","fixation","img/fixation.png","null","","prac","","","","","",""
"417","109534","pSARL_v2","pSARL_v2zus9k0vc","62865e3456c142785cfad2a7","infreqPrac","img/green_2bandit_b2.png","68","68","prac","1","","","","",""
"417","109929","pSARL_v2","pSARL_v2zus9k0vc","62865e3456c142785cfad2a7","infreqPrac_resp","img/green_2bandit_b.png","68","68","prac","","","","","",""
"null","110088","pSARL_v2","pSARL_v2zus9k0vc","62865e3456c142785cfad2a7","fixation","img/fixation.png","null","","prac","","","","","",""
"471","110562","pSARL_v2","pSARL_v2zus9k0vc","62865e3456c142785cfad2a7","freqPrac","img/orange_2bandit_b2.png","70","70","prac","1","","","","",""
"471","110908","pSARL_v2","pSARL_v2zus9k0vc","62865e3456c142785cfad2a7","freqPrac_resp","img/orange_2bandit_b.png","70","70","prac","","","","","",""
"null","111069","pSARL_v2","pSARL_v2zus9k0vc","62865e3456c142785cfad2a7","fixation","img/fixation.png","null","","prac","","","","","",""
"498","111574","pSARL_v2","pSARL_v2zus9k0vc","62865e3456c142785cfad2a7","infreqPrac","img/green_2bandit_b2.png","68","68","prac","1","","","","",""
"498","111889","pSARL_v2","pSARL_v2zus9k0vc","62865e3456c142785cfad2a7","infreqPrac_resp","img/green_2bandit_b.png","68","68","prac","","","","","",""
"null","112049","pSARL_v2","pSARL_v2zus9k0vc","62865e3456c142785cfad2a7","fixation","img/fixation.png","null","","prac","","","","","",""
"639","112694","pSARL_v2","pSARL_v2zus9k0vc","62865e3456c142785cfad2a7","freqPrac","img/orange_2bandit_b2.png","70","70","prac","1","","","","",""
"639","112880","pSARL_v2","pSARL_v2zus9k0vc","62865e3456c142785cfad2a7","freqPrac_resp","img/orange_2bandit_b.png","70","70","prac","","","","","",""
"null","113039","pSARL_v2","pSARL_v2zus9k0vc","62865e3456c142785cfad2a7","fixation","img/fixation.png","null","","prac","","","","","",""
"465","113510","pSARL_v2","pSARL_v2zus9k0vc","62865e3456c142785cfad2a7","freqPrac","img/orange_2bandit_b2.png","70","70","prac","1","","","","",""
"465","113856","pSARL_v2","pSARL_v2zus9k0vc","62865e3456c142785cfad2a7","freqPrac_resp","img/orange_2bandit_b.png","70","70","prac","","","","","",""
"null","114019","pSARL_v2","pSARL_v2zus9k0vc","62865e3456c142785cfad2a7","fixation","img/fixation.png","null","","prac","","","","","",""
"19308","133334","pSARL_v2","pSARL_v2zus9k0vc","62865e3456c142785cfad2a7","","","","","prac","","","","","",""
"593","133933","pSARL_v2","pSARL_v2zus9k0vc","62865e3456c142785cfad2a7","rewardPractice","img/slot.png","74","","prac","","","","","",""
"null","134698","pSARL_v2","pSARL_v2zus9k0vc","62865e3456c142785cfad2a7","feedback","<div class=""veryhighPoints""> +15 </div>","null","na","prac","","","","","",""
"null","134858","pSARL_v2","pSARL_v2zus9k0vc","62865e3456c142785cfad2a7","fixation","img/fixation.png","null","","prac","","","","","",""
"10046","144909","pSARL_v2","pSARL_v2zus9k0vc","62865e3456c142785cfad2a7","","","","","prac","","","","","",""
"625","145542","pSARL_v2","pSARL_v2zus9k0vc","62865e3456c142785cfad2a7","freq","img/orange_2bandit_b2.png","70","70","test","1","1","1","1","",""
"null","145739","pSARL_v2","pSARL_v2zus9k0vc","62865e3456c142785cfad2a7","freq_resp","img/orange_2bandit_b.png","70","70","test","","","","1","",""
"null","145898","pSARL_v2","pSARL_v2zus9k0vc","62865e3456c142785cfad2a7","fixation","img/fixation.png","null","","test","","","","","",""
"413","146318","pSARL_v2","pSARL_v2zus9k0vc","62865e3456c142785cfad2a7","freq","img/orange_2bandit_b2.png","70","70","test","1","2","2","1","",""
"null","146718","pSARL_v2","pSARL_v2zus9k0vc","62865e3456c142785cfad2a7","freq_resp","img/orange_2bandit_b.png","70","70","test","","","","1","",""
"null","146876","pSARL_v2","pSARL_v2zus9k0vc","62865e3456c142785cfad2a7","fixation","img/fixation.png","null","","test","","","","","",""
"372","147256","pSARL_v2","pSARL_v2zus9k0vc","62865e3456c142785cfad2a7","freq","img/orange_2bandit_b2.png","70","70","test","1","3","3","1","",""
"null","147696","pSARL_v2","pSARL_v2zus9k0vc","62865e3456c142785cfad2a7","freq_resp","img/orange_2bandit_b.png","70","70","test","","","","1","",""
"null","147870","pSARL_v2","pSARL_v2zus9k0vc","62865e3456c142785cfad2a7","fixation","img/fixation.png","null","","test","","","","","",""
"384","148261","pSARL_v2","pSARL_v2zus9k0vc","62865e3456c142785cfad2a7","freq","img/orange_2bandit_b2.png","70","70","test","1","4","4","1","",""
"null","148688","pSARL_v2","pSARL_v2zus9k0vc","62865e3456c142785cfad2a7","freq_resp","img/orange_2bandit_b.png","70","70","test","","","","1","",""
"null","148848","pSARL_v2","pSARL_v2zus9k0vc","62865e3456c142785cfad2a7","fixation","img/fixation.png","null","","test","","","","","",""
"367","149222","pSARL_v2","pSARL_v2zus9k0vc","62865e3456c142785cfad2a7","freq","img/orange_2bandit_b2.png","70","70","test","1","5","5","1","",""
"null","149669","pSARL_v2","pSARL_v2zus9k0vc","62865e3456c142785cfad2a7","freq_resp","img/orange_2bandit_b.png","70","70","test","","","","1","",""
"null","149828","pSARL_v2","pSARL_v2zus9k0vc","62865e3456c142785cfad2a7","fixation","img/fixation.png","null","","test","","","","","",""
"380","150213","pSARL_v2","pSARL_v2zus9k0vc","62865e3456c142785cfad2a7","freq","img/orange_2bandit_b2.png","70","70","test","1","6","6","1","",""
"null","150648","pSARL_v2","pSARL_v2zus9k0vc","62865e3456c142785cfad2a7","freq_resp","img/orange_2bandit_b.png","70","70","test","","","","1","",""
"null","150810","pSARL_v2","pSARL_v2zus9k0vc","62865e3456c142785cfad2a7","fixation","img/fixation.png","null","","test","","","","","",""
"445","151261","pSARL_v2","pSARL_v2zus9k0vc","62865e3456c142785cfad2a7","infreq","img/green_2bandit_b2.png","68","68","test","1","7","7","1","",""
"null","151629","pSARL_v2","pSARL_v2zus9k0vc","62865e3456c142785cfad2a7","infreq_resp","img/green_2bandit_b.png","68","68","test","","","","1","",""
"null","151800","pSARL_v2","pSARL_v2zus9k0vc","62865e3456c142785cfad2a7","fixation","img/fixation.png","null","","test","","","","","",""
"473","152278","pSARL_v2","pSARL_v2zus9k0vc","62865e3456c142785cfad2a7","freq","img/orange_2bandit_b2.png","70","70","test","1","8","8","1","",""
"null","152614","pSARL_v2","pSARL_v2zus9k0vc","62865e3456c142785cfad2a7","freq_resp","img/orange_2bandit_b.png","70","70","test","","","","1","",""
"null","152779","pSARL_v2","pSARL_v2zus9k0vc","62865e3456c142785cfad2a7","fixation","img/fixation.png","null","","test","","","","","",""
"390","153173","pSARL_v2","pSARL_v2zus9k0vc","62865e3456c142785cfad2a7","freq","img/orange_2bandit_b2.png","70","70","test","1","9","9","1","",""
"null","153597","pSARL_v2","pSARL_v2zus9k0vc","62865e3456c142785cfad2a7","freq_resp","img/orange_2bandit_b.png","70","70","test","","","","1","",""
"null","153764","pSARL_v2","pSARL_v2zus9k0vc","62865e3456c142785cfad2a7","fixation","img/fixation.png","null","","test","","","","","",""
"417","154187","pSARL_v2","pSARL_v2zus9k0vc","62865e3456c142785cfad2a7","freq","img/orange_2bandit_b2.png","70","70","test","1","10","10","1","",""
"null","154586","pSARL_v2","pSARL_v2zus9k0vc","62865e3456c142785cfad2a7","freq_resp","img/orange_2bandit_b.png","70","70","test","","","","1","",""
"null","154747","pSARL_v2","pSARL_v2zus9k0vc","62865e3456c142785cfad2a7","fixation","img/fixation.png","null","","test","","","","","",""
"412","155165","pSARL_v2","pSARL_v2zus9k0vc","62865e3456c142785cfad2a7","freq","img/orange_2bandit_b2.png","70","70","test","1","11","11","1","",""
"null","155611","pSARL_v2","pSARL_v2zus9k0vc","62865e3456c142785cfad2a7","freq_resp","img/orange_2bandit_b.png","70","70","test","","","","1","",""
"null","155779","pSARL_v2","pSARL_v2zus9k0vc","62865e3456c142785cfad2a7","fixation","img/fixation.png","null","","test","","","","","",""
"404","156191","pSARL_v2","pSARL_v2zus9k0vc","62865e3456c142785cfad2a7","freq","img/orange_2bandit_b2.png","70","70","test","1","12","12","1","",""
"null","156602","pSARL_v2","pSARL_v2zus9k0vc","62865e3456c142785cfad2a7","freq_resp","img/orange_2bandit_b.png","70","70","test","","","","1","",""
"null","156767","pSARL_v2","pSARL_v2zus9k0vc","62865e3456c142785cfad2a7","fixation","img/fixation.png","null","","test","","","","","",""
"402","157174","pSARL_v2","pSARL_v2zus9k0vc","62865e3456c142785cfad2a7","freq","img/orange_2bandit_b2.png","70","70","test","1","13","13","1","",""
"null","157589","pSARL_v2","pSARL_v2zus9k0vc","62865e3456c142785cfad2a7","freq_resp","img/orange_2bandit_b.png","70","70","test","","","","1","",""
"null","157758","pSARL_v2","pSARL_v2zus9k0vc","62865e3456c142785cfad2a7","fixation","img/fixation.png","null","","test","","","","","",""
"410","158174","pSARL_v2","pSARL_v2zus9k0vc","62865e3456c142785cfad2a7","infreq","img/green_2bandit_b2.png","68","68","test","1","14","14","1","",""
"null","158572","pSARL_v2","pSARL_v2zus9k0vc","62865e3456c142785cfad2a7","infreq_resp","img/green_2bandit_b.png","68","68","test","","","","1","",""
"null","158743","pSARL_v2","pSARL_v2zus9k0vc","62865e3456c142785cfad2a7","fixation","img/fixation.png","null","","test","","","","","",""
"441","159190","pSARL_v2","pSARL_v2zus9k0vc","62865e3456c142785cfad2a7","freq","img/orange_2bandit_b2.png","70","70","test","1","15","15","1","",""
"null","159568","pSARL_v2","pSARL_v2zus9k0vc","62865e3456c142785cfad2a7","freq_resp","img/orange_2bandit_b.png","70","70","test","","","","1","",""
"null","159730","pSARL_v2","pSARL_v2zus9k0vc","62865e3456c142785cfad2a7","fixation","img/fixation.png","null","","test","","","","","",""
"397","160135","pSARL_v2","pSARL_v2zus9k0vc","62865e3456c142785cfad2a7","freq","img/orange_2bandit_b2.png","70","70","test","1","16","16","1","",""
"null","160558","pSARL_v2","pSARL_v2zus9k0vc","62865e3456c142785cfad2a7","freq_resp","img/orange_2bandit_b.png","70","70","test","","","","1","",""
"null","160722","pSARL_v2","pSARL_v2zus9k0vc","62865e3456c142785cfad2a7","fixation","img/fixation.png","null","","test","","","","","",""
"405","161134","pSARL_v2","pSARL_v2zus9k0vc","62865e3456c142785cfad2a7","freq","img/orange_2bandit_b2.png","70","70","test","1","17","17","1","",""
"null","161537","pSARL_v2","pSARL_v2zus9k0vc","62865e3456c142785cfad2a7","freq_resp","img/orange_2bandit_b.png","70","70","test","","","","1","",""
"null","161709","pSARL_v2","pSARL_v2zus9k0vc","62865e3456c142785cfad2a7","fixation","img/fixation.png","null","","test","","","","","",""
"442","162157","pSARL_v2","pSARL_v2zus9k0vc","62865e3456c142785cfad2a7","infreq","img/green_2bandit_b2.png","68","68","test","1","18","18","1","",""
"null","162530","pSARL_v2","pSARL_v2zus9k0vc","62865e3456c142785cfad2a7","infreq_resp","img/green_2bandit_b.png","68","68","test","","","","1","",""
"null","162703","pSARL_v2","pSARL_v2zus9k0vc","62865e3456c142785cfad2a7","fixation","img/fixation.png","null","","test","","","","","",""
"472","163181","pSARL_v2","pSARL_v2zus9k0vc","62865e3456c142785cfad2a7","freq","img/orange_2bandit_b2.png","70","70","test","1","19","19","1","",""
"null","163517","pSARL_v2","pSARL_v2zus9k0vc","62865e3456c142785cfad2a7","freq_resp","img/orange_2bandit_b.png","70","70","test","","","","1","",""
"null","163677","pSARL_v2","pSARL_v2zus9k0vc","62865e3456c142785cfad2a7","fixation","img/fixation.png","null","","test","","","","","",""
"379","164061","pSARL_v2","pSARL_v2zus9k0vc","62865e3456c142785cfad2a7","freq","img/orange_2bandit_b2.png","70","70","test","1","20","20","1","",""
"null","164505","pSARL_v2","pSARL_v2zus9k0vc","62865e3456c142785cfad2a7","freq_resp","img/orange_2bandit_b.png","70","70","test","","","","1","",""
"null","164671","pSARL_v2","pSARL_v2zus9k0vc","62865e3456c142785cfad2a7","fixation","img/fixation.png","null","","test","","","","","",""
"369","165046","pSARL_v2","pSARL_v2zus9k0vc","62865e3456c142785cfad2a7","freq","img/orange_2bandit_b2.png","70","70","test","1","21","21","1","",""
"null","165492","pSARL_v2","pSARL_v2zus9k0vc","62865e3456c142785cfad2a7","freq_resp","img/orange_2bandit_b.png","70","70","test","","","","1","",""
"null","165657","pSARL_v2","pSARL_v2zus9k0vc","62865e3456c142785cfad2a7","fixation","img/fixation.png","null","","test","","","","","",""
"423","166086","pSARL_v2","pSARL_v2zus9k0vc","62865e3456c142785cfad2a7","freq","img/orange_2bandit_b2.png","70","70","test","1","22","22","1","",""
"null","166482","pSARL_v2","pSARL_v2zus9k0vc","62865e3456c142785cfad2a7","freq_resp","img/orange_2bandit_b.png","70","70","test","","","","1","",""
"null","166654","pSARL_v2","pSARL_v2zus9k0vc","62865e3456c142785cfad2a7","fixation","img/fixation.png","null","","test","","","","","",""
"400","167064","pSARL_v2","pSARL_v2zus9k0vc","62865e3456c142785cfad2a7","freq","img/orange_2bandit_b2.png","70","70","test","1","23","23","1","",""
"null","167476","pSARL_v2","pSARL_v2zus9k0vc","62865e3456c142785cfad2a7","freq_resp","img/orange_2bandit_b.png","70","70","test","","","","1","",""
"null","167639","pSARL_v2","pSARL_v2zus9k0vc","62865e3456c142785cfad2a7","fixation","img/fixation.png","null","","test","","","","","",""
"400","168045","pSARL_v2","pSARL_v2zus9k0vc","62865e3456c142785cfad2a7","freq","img/orange_2bandit_b2.png","70","70","test","1","24","24","1","",""
"null","168498","pSARL_v2","pSARL_v2zus9k0vc","62865e3456c142785cfad2a7","freq_resp","img/orange_2bandit_b.png","70","70","test","","","","1","",""
"null","168660","pSARL_v2","pSARL_v2zus9k0vc","62865e3456c142785cfad2a7","fixation","img/fixation.png","null","","test","","","","","",""
"612","169278","pSARL_v2","pSARL_v2zus9k0vc","62865e3456c142785cfad2a7","reward","img/slot.png","74","","test","","","","","",""
"null","170042","pSARL_v2","pSARL_v2zus9k0vc","62865e3456c142785cfad2a7","points","<div class=""verylowPoints""> -6 </div>","null","na","test","","","","1","-6","0"
"773","170822","pSARL_v2","pSARL_v2zus9k0vc","62865e3456c142785cfad2a7","freq","img/orange_2bandit_b2.png","70","70","test","1","25","25","2","",""
"null","170865","pSARL_v2","pSARL_v2zus9k0vc","62865e3456c142785cfad2a7","freq_resp","img/orange_2bandit_b.png","70","70","test","","","","2","",""
"null","171028","pSARL_v2","pSARL_v2zus9k0vc","62865e3456c142785cfad2a7","fixation","img/fixation.png","null","","test","","","","","",""
"523","171559","pSARL_v2","pSARL_v2zus9k0vc","62865e3456c142785cfad2a7","freq","img/orange_2bandit_b2.png","70","70","test","1","26","26","2","",""
"null","171852","pSARL_v2","pSARL_v2zus9k0vc","62865e3456c142785cfad2a7","freq_resp","img/orange_2bandit_b.png","70","70","test","","","","2","",""
"null","172018","pSARL_v2","pSARL_v2zus9k0vc","62865e3456c142785cfad2a7","fixation","img/fixation.png","null","","test","","","","","",""
"455","172477","pSARL_v2","pSARL_v2zus9k0vc","62865e3456c142785cfad2a7","freq","img/orange_2bandit_b2.png","70","70","test","1","27","27","2","",""
"null","172838","pSARL_v2","pSARL_v2zus9k0vc","62865e3456c142785cfad2a7","freq_resp","img/orange_2bandit_b.png","70","70","test","","","","2","",""
"null","173000","pSARL_v2","pSARL_v2zus9k0vc","62865e3456c142785cfad2a7","fixation","img/fixation.png","null","","test","","","","","",""
"424","173430","pSARL_v2","pSARL_v2zus9k0vc","62865e3456c142785cfad2a7","freq","img/orange_2bandit_b2.png","70","70","test","1","28","28","2","",""
"null","173819","pSARL_v2","pSARL_v2zus9k0vc","62865e3456c142785cfad2a7","freq_resp","img/orange_2bandit_b.png","70","70","test","","","","2","",""
"null","173987","pSARL_v2","pSARL_v2zus9k0vc","62865e3456c142785cfad2a7","fixation","img/fixation.png","null","","test","","","","","",""
"420","174414","pSARL_v2","pSARL_v2zus9k0vc","62865e3456c142785cfad2a7","infreq","img/green_2bandit_b2.png","68","68","test","1","29","29","2","",""
"null","174853","pSARL_v2","pSARL_v2zus9k0vc","62865e3456c142785cfad2a7","infreq_resp","img/green_2bandit_b.png","68","68","test","","","","2","",""
"null","175016","pSARL_v2","pSARL_v2zus9k0vc","62865e3456c142785cfad2a7","fixation","img/fixation.png","null","","test","","","","","",""
"457","175478","pSARL_v2","pSARL_v2zus9k0vc","62865e3456c142785cfad2a7","freq","img/orange_2bandit_b2.png","70","70","test","1","30","30","2","",""
"null","175838","pSARL_v2","pSARL_v2zus9k0vc","62865e3456c142785cfad2a7","freq_resp","img/orange_2bandit_b.png","70","70","test","","","","2","",""
"null","176006","pSARL_v2","pSARL_v2zus9k0vc","62865e3456c142785cfad2a7","fixation","img/fixation.png","null","","test","","","","","",""
"449","176461","pSARL_v2","pSARL_v2zus9k0vc","62865e3456c142785cfad2a7","infreq","img/green_2bandit_b2.png","68","68","test","1","31","31","2","",""
"null","176832","pSARL_v2","pSARL_v2zus9k0vc","62865e3456c142785cfad2a7","infreq_resp","img/green_2bandit_b.png","68","68","test","","","","2","",""
"null","177000","pSARL_v2","pSARL_v2zus9k0vc","62865e3456c142785cfad2a7","fixation","img/fixation.png","null","","test","","","","","",""
"447","177454","pSARL_v2","pSARL_v2zus9k0vc","62865e3456c142785cfad2a7","freq","img/orange_2bandit_b2.png","70","70","test","1","32","32","2","",""
"null","177811","pSARL_v2","pSARL_v2zus9k0vc","62865e3456c142785cfad2a7","freq_resp","img/orange_2bandit_b.png","70","70","test","","","","2","",""
"null","177972","pSARL_v2","pSARL_v2zus9k0vc","62865e3456c142785cfad2a7","fixation","img/fixation.png","null","","test","","","","","",""
"363","178342","pSARL_v2","pSARL_v2zus9k0vc","62865e3456c142785cfad2a7","freq","img/orange_2bandit_b2.png","70","70","test","1","33","33","2","",""
"null","178798","pSARL_v2","pSARL_v2zus9k0vc","62865e3456c142785cfad2a7","freq_resp","img/orange_2bandit_b.png","70","70","test","","","","2","",""
"null","178964","pSARL_v2","pSARL_v2zus9k0vc","62865e3456c142785cfad2a7","fixation","img/fixation.png","null","","test","","","","","",""
"371","179341","pSARL_v2","pSARL_v2zus9k0vc","62865e3456c142785cfad2a7","freq","img/orange_2bandit_b2.png","70","70","test","1","34","34","2","",""
"null","179776","pSARL_v2","pSARL_v2zus9k0vc","62865e3456c142785cfad2a7","freq_resp","img/orange_2bandit_b.png","70","70","test","","","","2","",""
"null","179938","pSARL_v2","pSARL_v2zus9k0vc","62865e3456c142785cfad2a7","fixation","img/fixation.png","null","","test","","","","","",""
"342","180285","pSARL_v2","pSARL_v2zus9k0vc","62865e3456c142785cfad2a7","freq","img/orange_2bandit_b2.png","70","70","test","1","35","35","2","",""
"null","180763","pSARL_v2","pSARL_v2zus9k0vc","62865e3456c142785cfad2a7","freq_resp","img/orange_2bandit_b.png","70","70","test","","","","2","",""
"null","180932","pSARL_v2","pSARL_v2zus9k0vc","62865e3456c142785cfad2a7","fixation","img/fixation.png","null","","test","","","","","",""
"356","181294","pSARL_v2","pSARL_v2zus9k0vc","62865e3456c142785cfad2a7","freq","img/orange_2bandit_b2.png","70","70","test","1","36","36","2","",""
"null","181753","pSARL_v2","pSARL_v2zus9k0vc","62865e3456c142785cfad2a7","freq_resp","img/orange_2bandit_b.png","70","70","test","","","","2","",""
"null","181918","pSARL_v2","pSARL_v2zus9k0vc","62865e3456c142785cfad2a7","fixation","img/fixation.png","null","","test","","","","","",""
"321","182246","pSARL_v2","pSARL_v2zus9k0vc","62865e3456c142785cfad2a7","freq","img/orange_2bandit_b2.png","70","70","test","1","37","37","2","",""
"null","182738","pSARL_v2","pSARL_v2zus9k0vc","62865e3456c142785cfad2a7","freq_resp","img/orange_2bandit_b.png","70","70","test","","","","2","",""
"null","182904","pSARL_v2","pSARL_v2zus9k0vc","62865e3456c142785cfad2a7","fixation","img/fixation.png","null","","test","","","","","",""
"327","183237","pSARL_v2","pSARL_v2zus9k0vc","62865e3456c142785cfad2a7","freq","img/orange_2bandit_b2.png","70","70","test","1","38","38","2","",""
"null","183723","pSARL_v2","pSARL_v2zus9k0vc","62865e3456c142785cfad2a7","freq_resp","img/orange_2bandit_b.png","70","70","test","","","","2","",""
"null","183883","pSARL_v2","pSARL_v2zus9k0vc","62865e3456c142785cfad2a7","fixation","img/fixation.png","null","","test","","","","","",""
"381","184272","pSARL_v2","pSARL_v2zus9k0vc","62865e3456c142785cfad2a7","freq","img/orange_2bandit_b2.png","70","70","test","1","39","39","2","",""
"null","184706","pSARL_v2","pSARL_v2zus9k0vc","62865e3456c142785cfad2a7","freq_resp","img/orange_2bandit_b.png","70","70","test","","","","2","",""
"null","184860","pSARL_v2","pSARL_v2zus9k0vc","62865e3456c142785cfad2a7","fixation","img/fixation.png","null","","test","","","","","",""
"371","185238","pSARL_v2","pSARL_v2zus9k0vc","62865e3456c142785cfad2a7","freq","img/orange_2bandit_b2.png","70","70","test","1","40","40","2","",""
"null","185682","pSARL_v2","pSARL_v2zus9k0vc","62865e3456c142785cfad2a7","freq_resp","img/orange_2bandit_b.png","70","70","test","","","","2","",""
"null","185852","pSARL_v2","pSARL_v2zus9k0vc","62865e3456c142785cfad2a7","fixation","img/fixation.png","null","","test","","","","","",""
"340","186195","pSARL_v2","pSARL_v2zus9k0vc","62865e3456c142785cfad2a7","freq","img/orange_2bandit_b2.png","70","70","test","1","41","41","2","",""
"null","186663","pSARL_v2","pSARL_v2zus9k0vc","62865e3456c142785cfad2a7","freq_resp","img/orange_2bandit_b.png","70","70","test","","","","2","",""
"null","186820","pSARL_v2","pSARL_v2zus9k0vc","62865e3456c142785cfad2a7","fixation","img/fixation.png","null","","test","","","","","",""
"340","187166","pSARL_v2","pSARL_v2zus9k0vc","62865e3456c142785cfad2a7","freq","img/orange_2bandit_b2.png","70","70","test","1","42","42","2","",""
"null","187635","pSARL_v2","pSARL_v2zus9k0vc","62865e3456c142785cfad2a7","freq_resp","img/orange_2bandit_b.png","70","70","test","","","","2","",""
"null","187800","pSARL_v2","pSARL_v2zus9k0vc","62865e3456c142785cfad2a7","fixation","img/fixation.png","null","","test","","","","","",""
"391","188199","pSARL_v2","pSARL_v2zus9k0vc","62865e3456c142785cfad2a7","freq","img/orange_2bandit_b2.png","70","70","test","1","43","43","2","",""
"null","188627","pSARL_v2","pSARL_v2zus9k0vc","62865e3456c142785cfad2a7","freq_resp","img/orange_2bandit_b.png","70","70","test","","","","2","",""
"null","188787","pSARL_v2","pSARL_v2zus9k0vc","62865e3456c142785cfad2a7","fixation","img/fixation.png","null","","test","","","","","",""
"357","189150","pSARL_v2","pSARL_v2zus9k0vc","62865e3456c142785cfad2a7","freq","img/orange_2bandit_b2.png","70","70","test","1","44","44","2","",""
"null","189603","pSARL_v2","pSARL_v2zus9k0vc","62865e3456c142785cfad2a7","freq_resp","img/orange_2bandit_b.png","70","70","test","","","","2","",""
"null","189768","pSARL_v2","pSARL_v2zus9k0vc","62865e3456c142785cfad2a7","fixation","img/fixation.png","null","","test","","","","","",""
"368","190142","pSARL_v2","pSARL_v2zus9k0vc","62865e3456c142785cfad2a7","freq","img/orange_2bandit_b2.png","70","70","test","1","45","45","2","",""
"null","190592","pSARL_v2","pSARL_v2zus9k0vc","62865e3456c142785cfad2a7","freq_resp","img/orange_2bandit_b.png","70","70","test","","","","2","",""
"null","190751","pSARL_v2","pSARL_v2zus9k0vc","62865e3456c142785cfad2a7","fixation","img/fixation.png","null","","test","","","","","",""
"400","191158","pSARL_v2","pSARL_v2zus9k0vc","62865e3456c142785cfad2a7","freq","img/orange_2bandit_b2.png","70","70","test","1","46","46","2","",""
"null","191572","pSARL_v2","pSARL_v2zus9k0vc","62865e3456c142785cfad2a7","freq_resp","img/orange_2bandit_b.png","70","70","test","","","","2","",""
"null","191733","pSARL_v2","pSARL_v2zus9k0vc","62865e3456c142785cfad2a7","fixation","img/fixation.png","null","","test","","","","","",""
"355","192093","pSARL_v2","pSARL_v2zus9k0vc","62865e3456c142785cfad2a7","freq","img/orange_2bandit_b2.png","70","70","test","1","47","47","2","",""
"null","192557","pSARL_v2","pSARL_v2zus9k0vc","62865e3456c142785cfad2a7","freq_resp","img/orange_2bandit_b.png","70","70","test","","","","2","",""
"null","192724","pSARL_v2","pSARL_v2zus9k0vc","62865e3456c142785cfad2a7","fixation","img/fixation.png","null","","test","","","","","",""
"315","193046","pSARL_v2","pSARL_v2zus9k0vc","62865e3456c142785cfad2a7","freq","img/orange_2bandit_b2.png","70","70","test","1","48","48","2","",""
"null","193543","pSARL_v2","pSARL_v2zus9k0vc","62865e3456c142785cfad2a7","freq_resp","img/orange_2bandit_b.png","70","70","test","","","","2","",""
"null","193710","pSARL_v2","pSARL_v2zus9k0vc","62865e3456c142785cfad2a7","fixation","img/fixation.png","null","","test","","","","","",""
"553","194269","pSARL_v2","pSARL_v2zus9k0vc","62865e3456c142785cfad2a7","reward","img/slot.png","74","","test","","","","","",""
"null","195035","pSARL_v2","pSARL_v2zus9k0vc","62865e3456c142785cfad2a7","points","<div class=""verylowPoints""> -11 </div>","null","na","test","","","","2","-11","1"
"676","195718","pSARL_v2","pSARL_v2zus9k0vc","62865e3456c142785cfad2a7","freq","img/orange_2bandit_b2.png","70","70","test","1","49","49","3","",""
"null","195854","pSARL_v2","pSARL_v2zus9k0vc","62865e3456c142785cfad2a7","freq_resp","img/orange_2bandit_b.png","70","70","test","","","","3","",""
"null","196018","pSARL_v2","pSARL_v2zus9k0vc","62865e3456c142785cfad2a7","fixation","img/fixation.png","null","","test","","","","","",""
"540","196562","pSARL_v2","pSARL_v2zus9k0vc","62865e3456c142785cfad2a7","infreq","img/green_2bandit_b2.png","68","68","test","1","50","50","3","",""
"null","196842","pSARL_v2","pSARL_v2zus9k0vc","62865e3456c142785cfad2a7","infreq_resp","img/green_2bandit_b.png","68","68","test","","","","3","",""
"null","197001","pSARL_v2","pSARL_v2zus9k0vc","62865e3456c142785cfad2a7","fixation","img/fixation.png","null","","test","","","","","",""
"447","197454","pSARL_v2","pSARL_v2zus9k0vc","62865e3456c142785cfad2a7","freq","img/orange_2bandit_b2.png","70","70","test","1","51","51","3","",""
"null","197818","pSARL_v2","pSARL_v2zus9k0vc","62865e3456c142785cfad2a7","freq_resp","img/orange_2bandit_b.png","70","70","test","","","","3","",""
"null","197975","pSARL_v2","pSARL_v2zus9k0vc","62865e3456c142785cfad2a7","fixation","img/fixation.png","null","","test","","","","","",""
"352","198334","pSARL_v2","pSARL_v2zus9k0vc","62865e3456c142785cfad2a7","freq","img/orange_2bandit_b2.png","70","70","test","1","52","52","3","",""
"null","198792","pSARL_v2","pSARL_v2zus9k0vc","62865e3456c142785cfad2a7","freq_resp","img/orange_2bandit_b.png","70","70","test","","","","3","",""
"null","198963","pSARL_v2","pSARL_v2zus9k0vc","62865e3456c142785cfad2a7","fixation","img/fixation.png","null","","test","","","","","",""
"316","199286","pSARL_v2","pSARL_v2zus9k0vc","62865e3456c142785cfad2a7","freq","img/orange_2bandit_b2.png","70","70","test","1","53","53","3","",""
"null","199777","pSARL_v2","pSARL_v2zus9k0vc","62865e3456c142785cfad2a7","freq_resp","img/orange_2bandit_b.png","70","70","test","","","","3","",""
"null","199939","pSARL_v2","pSARL_v2zus9k0vc","62865e3456c142785cfad2a7","fixation","img/fixation.png","null","","test","","","","","",""
"507","200454","pSARL_v2","pSARL_v2zus9k0vc","62865e3456c142785cfad2a7","infreq","img/green_2bandit_b2.png","68","68","test","1","54","54","3","",""
"null","200757","pSARL_v2","pSARL_v2zus9k0vc","62865e3456c142785cfad2a7","infreq_resp","img/green_2bandit_b.png","68","68","test","","","","3","",""
"null","200923","pSARL_v2","pSARL_v2zus9k0vc","62865e3456c142785cfad2a7","fixation","img/fixation.png","null","","test","","","","","",""
"437","201366","pSARL_v2","pSARL_v2zus9k0vc","62865e3456c142785cfad2a7","freq","img/orange_2bandit_b2.png","70","70","test","1","55","55","3","",""
"null","201748","pSARL_v2","pSARL_v2zus9k0vc","62865e3456c142785cfad2a7","freq_resp","img/orange_2bandit_b.png","70","70","test","","","","3","",""
"null","201917","pSARL_v2","pSARL_v2zus9k0vc","62865e3456c142785cfad2a7","fixation","img/fixation.png","null","","test","","","","","",""
"386","202310","pSARL_v2","pSARL_v2zus9k0vc","62865e3456c142785cfad2a7","freq","img/orange_2bandit_b2.png","70","70","test","1","56","56","3","",""
"null","202742","pSARL_v2","pSARL_v2zus9k0vc","62865e3456c142785cfad2a7","freq_resp","img/orange_2bandit_b.png","70","70","test","","","","3","",""
"null","202904","pSARL_v2","pSARL_v2zus9k0vc","62865e3456c142785cfad2a7","fixation","img/fixation.png","null","","test","","","","","",""
"382","203293","pSARL_v2","pSARL_v2zus9k0vc","62865e3456c142785cfad2a7","freq","img/orange_2bandit_b2.png","70","70","test","1","57","57","3","",""
"null","203732","pSARL_v2","pSARL_v2zus9k0vc","62865e3456c142785cfad2a7","freq_resp","img/orange_2bandit_b.png","70","70","test","","","","3","",""
"null","203902","pSARL_v2","pSARL_v2zus9k0vc","62865e3456c142785cfad2a7","fixation","img/fixation.png","null","","test","","","","","",""
"312","204220","pSARL_v2","pSARL_v2zus9k0vc","62865e3456c142785cfad2a7","freq","img/orange_2bandit_b2.png","70","70","test","1","58","58","3","",""
"null","204722","pSARL_v2","pSARL_v2zus9k0vc","62865e3456c142785cfad2a7","freq_resp","img/orange_2bandit_b.png","70","70","test","","","","3","",""
"null","204890","pSARL_v2","pSARL_v2zus9k0vc","62865e3456c142785cfad2a7","fixation","img/fixation.png","null","","test","","","","","",""
"342","205238","pSARL_v2","pSARL_v2zus9k0vc","62865e3456c142785cfad2a7","freq","img/orange_2bandit_b2.png","70","70","test","1","59","59","3","",""
"null","205762","pSARL_v2","pSARL_v2zus9k0vc","62865e3456c142785cfad2a7","freq_resp","img/orange_2bandit_b.png","70","70","test","","","","3","",""
"null","205933","pSARL_v2","pSARL_v2zus9k0vc","62865e3456c142785cfad2a7","fixation","img/fixation.png","null","","test","","","","","",""
"337","206279","pSARL_v2","pSARL_v2zus9k0vc","62865e3456c142785cfad2a7","freq","img/orange_2bandit_b2.png","70","70","test","1","60","60","3","",""
"null","206752","pSARL_v2","pSARL_v2zus9k0vc","62865e3456c142785cfad2a7","freq_resp","img/orange_2bandit_b.png","70","70","test","","","","3","",""
"null","206912","pSARL_v2","pSARL_v2zus9k0vc","62865e3456c142785cfad2a7","fixation","img/fixation.png","null","","test","","","","","",""
"320","207238","pSARL_v2","pSARL_v2zus9k0vc","62865e3456c142785cfad2a7","freq","img/orange_2bandit_b2.png","70","70","test","1","61","61","3","",""
"null","207728","pSARL_v2","pSARL_v2zus9k0vc","62865e3456c142785cfad2a7","freq_resp","img/orange_2bandit_b.png","70","70","test","","","","3","",""
"null","207892","pSARL_v2","pSARL_v2zus9k0vc","62865e3456c142785cfad2a7","fixation","img/fixation.png","null","","test","","","","","",""
"307","208206","pSARL_v2","pSARL_v2zus9k0vc","62865e3456c142785cfad2a7","freq","img/orange_2bandit_b2.png","70","70","test","1","62","62","3","",""
"null","208716","pSARL_v2","pSARL_v2zus9k0vc","62865e3456c142785cfad2a7","freq_resp","img/orange_2bandit_b.png","70","70","test","","","","3","",""
"null","208878","pSARL_v2","pSARL_v2zus9k0vc","62865e3456c142785cfad2a7","fixation","img/fixation.png","null","","test","","","","","",""
"322","209206","pSARL_v2","pSARL_v2zus9k0vc","62865e3456c142785cfad2a7","freq","img/orange_2bandit_b2.png","70","70","test","1","63","63","3","",""
"null","209703","pSARL_v2","pSARL_v2zus9k0vc","62865e3456c142785cfad2a7","freq_resp","img/orange_2bandit_b.png","70","70","test","","","","3","",""
"null","209864","pSARL_v2","pSARL_v2zus9k0vc","62865e3456c142785cfad2a7","fixation","img/fixation.png","null","","test","","","","","",""
"327","210199","pSARL_v2","pSARL_v2zus9k0vc","62865e3456c142785cfad2a7","freq","img/orange_2bandit_b2.png","70","70","test","1","64","64","3","",""
"null","210687","pSARL_v2","pSARL_v2zus9k0vc","62865e3456c142785cfad2a7","freq_resp","img/orange_2bandit_b.png","70","70","test","","","","3","",""
"null","210854","pSARL_v2","pSARL_v2zus9k0vc","62865e3456c142785cfad2a7","fixation","img/fixation.png","null","","test","","","","","",""
"353","211213","pSARL_v2","pSARL_v2zus9k0vc","62865e3456c142785cfad2a7","freq","img/orange_2bandit_b2.png","70","70","test","1","65","65","3","",""
"null","211672","pSARL_v2","pSARL_v2zus9k0vc","62865e3456c142785cfad2a7","freq_resp","img/orange_2bandit_b.png","70","70","test","","","","3","",""
"null","211837","pSARL_v2","pSARL_v2zus9k0vc","62865e3456c142785cfad2a7","fixation","img/fixation.png","null","","test","","","","","",""
"359","212203","pSARL_v2","pSARL_v2zus9k0vc","62865e3456c142785cfad2a7","freq","img/orange_2bandit_b2.png","70","70","test","1","66","66","3","",""
"null","212704","pSARL_v2","pSARL_v2zus9k0vc","62865e3456c142785cfad2a7","freq_resp","img/orange_2bandit_b.png","70","70","test","","","","3","",""
"null","212869","pSARL_v2","pSARL_v2zus9k0vc","62865e3456c142785cfad2a7","fixation","img/fixation.png","null","","test","","","","","",""
"355","213232","pSARL_v2","pSARL_v2zus9k0vc","62865e3456c142785cfad2a7","freq","img/orange_2bandit_b2.png","70","70","test","1","67","67","3","",""
"null","213684","pSARL_v2","pSARL_v2zus9k0vc","62865e3456c142785cfad2a7","freq_resp","img/orange_2bandit_b.png","70","70","test","","","","3","",""
"null","213850","pSARL_v2","pSARL_v2zus9k0vc","62865e3456c142785cfad2a7","fixation","img/fixation.png","null","","test","","","","","",""
"581","214440","pSARL_v2","pSARL_v2zus9k0vc","62865e3456c142785cfad2a7","reward","img/slot.png","74","","test","","","","","",""
"null","215202","pSARL_v2","pSARL_v2zus9k0vc","62865e3456c142785cfad2a7","points","<div class=""verylowPoints""> -7 </div>","null","na","test","","","","3","-7","2"
"661","215869","pSARL_v2","pSARL_v2zus9k0vc","62865e3456c142785cfad2a7","freq","img/orange_2bandit_b2.png","70","70","test","1","68","68","4","",""
"null","216027","pSARL_v2","pSARL_v2zus9k0vc","62865e3456c142785cfad2a7","freq_resp","img/orange_2bandit_b.png","70","70","test","","","","4","",""
"null","216199","pSARL_v2","pSARL_v2zus9k0vc","62865e3456c142785cfad2a7","fixation","img/fixation.png","null","","test","","","","","",""
"433","216638","pSARL_v2","pSARL_v2zus9k0vc","62865e3456c142785cfad2a7","freq","img/orange_2bandit_b2.png","70","70","test","1","69","69","4","",""
"null","217018","pSARL_v2","pSARL_v2zus9k0vc","62865e3456c142785cfad2a7","freq_resp","img/orange_2bandit_b.png","70","70","test","","","","4","",""
"null","217185","pSARL_v2","pSARL_v2zus9k0vc","62865e3456c142785cfad2a7","fixation","img/fixation.png","null","","test","","","","","",""
"310","217501","pSARL_v2","pSARL_v2zus9k0vc","62865e3456c142785cfad2a7","freq","img/orange_2bandit_b2.png","70","70","test","1","70","70","4","",""
"null","218003","pSARL_v2","pSARL_v2zus9k0vc","62865e3456c142785cfad2a7","freq_resp","img/orange_2bandit_b.png","70","70","test","","","","4","",""
"null","218169","pSARL_v2","pSARL_v2zus9k0vc","62865e3456c142785cfad2a7","fixation","img/fixation.png","null","","test","","","","","",""
"221","218397","pSARL_v2","pSARL_v2zus9k0vc","62865e3456c142785cfad2a7","freq","img/orange_2bandit_b2.png","70","70","test","1","71","71","4","",""
"null","218996","pSARL_v2","pSARL_v2zus9k0vc","62865e3456c142785cfad2a7","freq_resp","img/orange_2bandit_b.png","70","70","test","","","","4","",""
"null","219164","pSARL_v2","pSARL_v2zus9k0vc","62865e3456c142785cfad2a7","fixation","img/fixation.png","null","","test","","","","","",""
"147","219316","pSARL_v2","pSARL_v2zus9k0vc","62865e3456c142785cfad2a7","freq","img/orange_2bandit_b2.png","70","70","test","1","72","72","4","",""
"null","219985","pSARL_v2","pSARL_v2zus9k0vc","62865e3456c142785cfad2a7","freq_resp","img/orange_2bandit_b.png","70","70","test","","","","4","",""
"null","220153","pSARL_v2","pSARL_v2zus9k0vc","62865e3456c142785cfad2a7","fixation","img/fixation.png","null","","test","","","","","",""
"295","220453","pSARL_v2","pSARL_v2zus9k0vc","62865e3456c142785cfad2a7","freq","img/orange_2bandit_b2.png","70","70","test","1","73","73","4","",""
"null","220977","pSARL_v2","pSARL_v2zus9k0vc","62865e3456c142785cfad2a7","freq_resp","img/orange_2bandit_b.png","70","70","test","","","","4","",""
"null","221138","pSARL_v2","pSARL_v2zus9k0vc","62865e3456c142785cfad2a7","fixation","img/fixation.png","null","","test","","","","","",""
"326","221469","pSARL_v2","pSARL_v2zus9k0vc","62865e3456c142785cfad2a7","freq","img/orange_2bandit_b2.png","70","70","test","1","74","74","4","",""
"null","221998","pSARL_v2","pSARL_v2zus9k0vc","62865e3456c142785cfad2a7","freq_resp","img/orange_2bandit_b.png","70","70","test","","","","4","",""
"null","222166","pSARL_v2","pSARL_v2zus9k0vc","62865e3456c142785cfad2a7","fixation","img/fixation.png","null","","test","","","","","",""
"522","222694","pSARL_v2","pSARL_v2zus9k0vc","62865e3456c142785cfad2a7","infreq","img/green_2bandit_b2.png","68","68","test","1","75","75","4","",""
"null","222992","pSARL_v2","pSARL_v2zus9k0vc","62865e3456c142785cfad2a7","infreq_resp","img/green_2bandit_b.png","68","68","test","","","","4","",""
"null","223158","pSARL_v2","pSARL_v2zus9k0vc","62865e3456c142785cfad2a7","fixation","img/fixation.png","null","","test","","","","","",""
"394","223558","pSARL_v2","pSARL_v2zus9k0vc","62865e3456c142785cfad2a7","freq","img/orange_2bandit_b2.png","70","70","test","1","76","76","4","",""
"null","224009","pSARL_v2","pSARL_v2zus9k0vc","62865e3456c142785cfad2a7","freq_resp","img/orange_2bandit_b.png","70","70","test","","","","4","",""
"null","224172","pSARL_v2","pSARL_v2zus9k0vc","62865e3456c142785cfad2a7","fixation","img/fixation.png","null","","test","","","","","",""
"332","224511","pSARL_v2","pSARL_v2zus9k0vc","62865e3456c142785cfad2a7","freq","img/orange_2bandit_b2.png","70","70","test","1","77","77","4","",""
"null","224988","pSARL_v2","pSARL_v2zus9k0vc","62865e3456c142785cfad2a7","freq_resp","img/orange_2bandit_b.png","70","70","test","","","","4","",""
"null","225146","pSARL_v2","pSARL_v2zus9k0vc","62865e3456c142785cfad2a7","fixation","img/fixation.png","null","","test","","","","","",""
"309","225461","pSARL_v2","pSARL_v2zus9k0vc","62865e3456c142785cfad2a7","infreq","img/green_2bandit_b2.png","70","68","test","0","78","78","4","",""
"null","225965","pSARL_v2","pSARL_v2zus9k0vc","62865e3456c142785cfad2a7","infreq_resp","img/green_2bandit_b.png","70","68","test","","","","4","",""
"null","226132","pSARL_v2","pSARL_v2zus9k0vc","62865e3456c142785cfad2a7","fixation","img/fixation.png","null","","test","","","","","",""
"523","226659","pSARL_v2","pSARL_v2zus9k0vc","62865e3456c142785cfad2a7","freq","img/orange_2bandit_b2.png","70","70","test","1","79","79","4","",""
"null","226947","pSARL_v2","pSARL_v2zus9k0vc","62865e3456c142785cfad2a7","freq_resp","img/orange_2bandit_b.png","70","70","test","","","","4","",""
"null","227114","pSARL_v2","pSARL_v2zus9k0vc","62865e3456c142785cfad2a7","fixation","img/fixation.png","null","","test","","","","","",""
"397","227518","pSARL_v2","pSARL_v2zus9k0vc","62865e3456c142785cfad2a7","freq","img/orange_2bandit_b2.png","70","70","test","1","80","80","4","",""
"null","227932","pSARL_v2","pSARL_v2zus9k0vc","62865e3456c142785cfad2a7","freq_resp","img/orange_2bandit_b.png","70","70","test","","","","4","",""
"null","228102","pSARL_v2","pSARL_v2zus9k0vc","62865e3456c142785cfad2a7","fixation","img/fixation.png","null","","test","","","","","",""
"338","228446","pSARL_v2","pSARL_v2zus9k0vc","62865e3456c142785cfad2a7","freq","img/orange_2bandit_b2.png","70","70","test","1","81","81","4","",""
"null","228927","pSARL_v2","pSARL_v2zus9k0vc","62865e3456c142785cfad2a7","freq_resp","img/orange_2bandit_b.png","70","70","test","","","","4","",""
"null","229089","pSARL_v2","pSARL_v2zus9k0vc","62865e3456c142785cfad2a7","fixation","img/fixation.png","null","","test","","","","","",""
"357","229456","pSARL_v2","pSARL_v2zus9k0vc","62865e3456c142785cfad2a7","freq","img/orange_2bandit_b2.png","70","70","test","1","82","82","4","",""
"null","229916","pSARL_v2","pSARL_v2zus9k0vc","62865e3456c142785cfad2a7","freq_resp","img/orange_2bandit_b.png","70","70","test","","","","4","",""
"null","230089","pSARL_v2","pSARL_v2zus9k0vc","62865e3456c142785cfad2a7","fixation","img/fixation.png","null","","test","","","","","",""
"342","230438","pSARL_v2","pSARL_v2zus9k0vc","62865e3456c142785cfad2a7","freq","img/orange_2bandit_b2.png","70","70","test","1","83","83","4","",""
"null","230903","pSARL_v2","pSARL_v2zus9k0vc","62865e3456c142785cfad2a7","freq_resp","img/orange_2bandit_b.png","70","70","test","","","","4","",""
"null","231063","pSARL_v2","pSARL_v2zus9k0vc","62865e3456c142785cfad2a7","fixation","img/fixation.png","null","","test","","","","","",""
"336","231405","pSARL_v2","pSARL_v2zus9k0vc","62865e3456c142785cfad2a7","freq","img/orange_2bandit_b2.png","70","70","test","1","84","84","4","",""
"null","231882","pSARL_v2","pSARL_v2zus9k0vc","62865e3456c142785cfad2a7","freq_resp","img/orange_2bandit_b.png","70","70","test","","","","4","",""
"null","232048","pSARL_v2","pSARL_v2zus9k0vc","62865e3456c142785cfad2a7","fixation","img/fixation.png","null","","test","","","","","",""
"321","232375","pSARL_v2","pSARL_v2zus9k0vc","62865e3456c142785cfad2a7","freq","img/orange_2bandit_b2.png","70","70","test","1","85","85","4","",""
"null","232862","pSARL_v2","pSARL_v2zus9k0vc","62865e3456c142785cfad2a7","freq_resp","img/orange_2bandit_b.png","70","70","test","","","","4","",""
"null","233028","pSARL_v2","pSARL_v2zus9k0vc","62865e3456c142785cfad2a7","fixation","img/fixation.png","null","","test","","","","","",""
"355","233390","pSARL_v2","pSARL_v2zus9k0vc","62865e3456c142785cfad2a7","freq","img/orange_2bandit_b2.png","70","70","test","1","86","86","4","",""
"null","233848","pSARL_v2","pSARL_v2zus9k0vc","62865e3456c142785cfad2a7","freq_resp","img/orange_2bandit_b.png","70","70","test","","","","4","",""
"null","234013","pSARL_v2","pSARL_v2zus9k0vc","62865e3456c142785cfad2a7","fixation","img/fixation.png","null","","test","","","","","",""
"346","234367","pSARL_v2","pSARL_v2zus9k0vc","62865e3456c142785cfad2a7","freq","img/orange_2bandit_b2.png","70","70","test","1","87","87","4","",""
"null","234872","pSARL_v2","pSARL_v2zus9k0vc","62865e3456c142785cfad2a7","freq_resp","img/orange_2bandit_b.png","70","70","test","","","","4","",""
"null","235036","pSARL_v2","pSARL_v2zus9k0vc","62865e3456c142785cfad2a7","fixation","img/fixation.png","null","","test","","","","","",""
"316","235357","pSARL_v2","pSARL_v2zus9k0vc","62865e3456c142785cfad2a7","freq","img/orange_2bandit_b2.png","70","70","test","1","88","88","4","",""
"null","235853","pSARL_v2","pSARL_v2zus9k0vc","62865e3456c142785cfad2a7","freq_resp","img/orange_2bandit_b.png","70","70","test","","","","4","",""
"null","236020","pSARL_v2","pSARL_v2zus9k0vc","62865e3456c142785cfad2a7","fixation","img/fixation.png","null","","test","","","","","",""
"330","236355","pSARL_v2","pSARL_v2zus9k0vc","62865e3456c142785cfad2a7","freq","img/orange_2bandit_b2.png","70","70","test","1","89","89","4","",""
"null","236838","pSARL_v2","pSARL_v2zus9k0vc","62865e3456c142785cfad2a7","freq_resp","img/orange_2bandit_b.png","70","70","test","","","","4","",""
"null","236998","pSARL_v2","pSARL_v2zus9k0vc","62865e3456c142785cfad2a7","fixation","img/fixation.png","null","","test","","","","","",""
"297","237301","pSARL_v2","pSARL_v2zus9k0vc","62865e3456c142785cfad2a7","freq","img/orange_2bandit_b2.png","70","70","test","1","90","90","4","",""
"null","237824","pSARL_v2","pSARL_v2zus9k0vc","62865e3456c142785cfad2a7","freq_resp","img/orange_2bandit_b.png","70","70","test","","","","4","",""
"null","237985","pSARL_v2","pSARL_v2zus9k0vc","62865e3456c142785cfad2a7","fixation","img/fixation.png","null","","test","","","","","",""
"551","238542","pSARL_v2","pSARL_v2zus9k0vc","62865e3456c142785cfad2a7","reward","img/slot.png","74","","test","","","","","",""
"null","239311","pSARL_v2","pSARL_v2zus9k0vc","62865e3456c142785cfad2a7","points","<div class=""verylowPoints""> -3 </div>","null","na","test","","","","4","-3","3"
"544","239861","pSARL_v2","pSARL_v2zus9k0vc","62865e3456c142785cfad2a7","freq","img/orange_2bandit_b2.png","70","70","test","1","91","91","5","",""
"null","240138","pSARL_v2","pSARL_v2zus9k0vc","62865e3456c142785cfad2a7","freq_resp","img/orange_2bandit_b.png","70","70","test","","","","5","",""
"null","240302","pSARL_v2","pSARL_v2zus9k0vc","62865e3456c142785cfad2a7","fixation","img/fixation.png","null","","test","","","","","",""
"385","240694","pSARL_v2","pSARL_v2zus9k0vc","62865e3456c142785cfad2a7","freq","img/orange_2bandit_b2.png","70","70","test","1","92","92","5","",""
"null","241120","pSARL_v2","pSARL_v2zus9k0vc","62865e3456c142785cfad2a7","freq_resp","img/orange_2bandit_b.png","70","70","test","","","","5","",""
"null","241290","pSARL_v2","pSARL_v2zus9k0vc","62865e3456c142785cfad2a7","fixation","img/fixation.png","null","","test","","","","","",""
"349","241645","pSARL_v2","pSARL_v2zus9k0vc","62865e3456c142785cfad2a7","freq","img/orange_2bandit_b2.png","70","70","test","1","93","93","5","",""
"null","242112","pSARL_v2","pSARL_v2zus9k0vc","62865e3456c142785cfad2a7","freq_resp","img/orange_2bandit_b.png","70","70","test","","","","5","",""
"null","242275","pSARL_v2","pSARL_v2zus9k0vc","62865e3456c142785cfad2a7","fixation","img/fixation.png","null","","test","","","","","",""
"331","242612","pSARL_v2","pSARL_v2zus9k0vc","62865e3456c142785cfad2a7","freq","img/orange_2bandit_b2.png","70","70","test","1","94","94","5","",""
"null","243102","pSARL_v2","pSARL_v2zus9k0vc","62865e3456c142785cfad2a7","freq_resp","img/orange_2bandit_b.png","70","70","test","","","","5","",""
"null","243268","pSARL_v2","pSARL_v2zus9k0vc","62865e3456c142785cfad2a7","fixation","img/fixation.png","null","","test","","","","","",""
"363","243638","pSARL_v2","pSARL_v2zus9k0vc","62865e3456c142785cfad2a7","freq","img/orange_2bandit_b2.png","70","70","test","1","95","95","5","",""
"null","244092","pSARL_v2","pSARL_v2zus9k0vc","62865e3456c142785cfad2a7","freq_resp","img/orange_2bandit_b.png","70","70","test","","","","5","",""
"null","244259","pSARL_v2","pSARL_v2zus9k0vc","62865e3456c142785cfad2a7","fixation","img/fixation.png","null","","test","","","","","",""
"325","244590","pSARL_v2","pSARL_v2zus9k0vc","62865e3456c142785cfad2a7","freq","img/orange_2bandit_b2.png","70","70","test","1","96","96","5","",""
"null","245072","pSARL_v2","pSARL_v2zus9k0vc","62865e3456c142785cfad2a7","freq_resp","img/orange_2bandit_b.png","70","70","test","","","","5","",""
"null","245231","pSARL_v2","pSARL_v2zus9k0vc","62865e3456c142785cfad2a7","fixation","img/fixation.png","null","","test","","","","","",""
"352","245588","pSARL_v2","pSARL_v2zus9k0vc","62865e3456c142785cfad2a7","freq","img/orange_2bandit_b2.png","70","70","test","1","97","97","5","",""
"null","246052","pSARL_v2","pSARL_v2zus9k0vc","62865e3456c142785cfad2a7","freq_resp","img/orange_2bandit_b.png","70","70","test","","","","5","",""
"null","246222","pSARL_v2","pSARL_v2zus9k0vc","62865e3456c142785cfad2a7","fixation","img/fixation.png","null","","test","","","","","",""
"451","246678","pSARL_v2","pSARL_v2zus9k0vc","62865e3456c142785cfad2a7","infreq","img/green_2bandit_b2.png","68","68","test","1","98","98","5","",""
"null","247035","pSARL_v2","pSARL_v2zus9k0vc","62865e3456c142785cfad2a7","infreq_resp","img/green_2bandit_b.png","68","68","test","","","","5","",""
"null","247203","pSARL_v2","pSARL_v2zus9k0vc","62865e3456c142785cfad2a7","fixation","img/fixation.png","null","","test","","","","","",""
"412","247621","pSARL_v2","pSARL_v2zus9k0vc","62865e3456c142785cfad2a7","freq","img/orange_2bandit_b2.png","70","70","test","1","99","99","5","",""
"null","248068","pSARL_v2","pSARL_v2zus9k0vc","62865e3456c142785cfad2a7","freq_resp","img/orange_2bandit_b.png","70","70","test","","","","5","",""
"null","248235","pSARL_v2","pSARL_v2zus9k0vc","62865e3456c142785cfad2a7","fixation","img/fixation.png","null","","test","","","","","",""
"293","248536","pSARL_v2","pSARL_v2zus9k0vc","62865e3456c142785cfad2a7","freq","img/orange_2bandit_b2.png","70","70","test","1","100","100","5","",""
"null","249054","pSARL_v2","pSARL_v2zus9k0vc","62865e3456c142785cfad2a7","freq_resp","img/orange_2bandit_b.png","70","70","test","","","","5","",""
"null","249222","pSARL_v2","pSARL_v2zus9k0vc","62865e3456c142785cfad2a7","fixation","img/fixation.png","null","","test","","","","","",""
"170","249400","pSARL_v2","pSARL_v2zus9k0vc","62865e3456c142785cfad2a7","freq","img/orange_2bandit_b2.png","70","70","test","1","101","101","5","",""
"null","250088","pSARL_v2","pSARL_v2zus9k0vc","62865e3456c142785cfad2a7","freq_resp","img/orange_2bandit_b.png","70","70","test","","","","5","",""
"null","250253","pSARL_v2","pSARL_v2zus9k0vc","62865e3456c142785cfad2a7","fixation","img/fixation.png","null","","test","","","","","",""
"130","250389","pSARL_v2","pSARL_v2zus9k0vc","62865e3456c142785cfad2a7","freq","img/orange_2bandit_b2.png","70","70","test","1","102","102","5","",""
"null","251070","pSARL_v2","pSARL_v2zus9k0vc","62865e3456c142785cfad2a7","freq_resp","img/orange_2bandit_b.png","70","70","test","","","","5","",""
"null","251239","pSARL_v2","pSARL_v2zus9k0vc","62865e3456c142785cfad2a7","fixation","img/fixation.png","null","","test","","","","","",""
"312","251556","pSARL_v2","pSARL_v2zus9k0vc","62865e3456c142785cfad2a7","freq","img/orange_2bandit_b2.png","70","70","test","1","103","103","5","",""
"null","252106","pSARL_v2","pSARL_v2zus9k0vc","62865e3456c142785cfad2a7","freq_resp","img/orange_2bandit_b.png","70","70","test","","","","5","",""
"null","252263","pSARL_v2","pSARL_v2zus9k0vc","62865e3456c142785cfad2a7","fixation","img/fixation.png","null","","test","","","","","",""
"321","252591","pSARL_v2","pSARL_v2zus9k0vc","62865e3456c142785cfad2a7","freq","img/orange_2bandit_b2.png","70","70","test","1","104","104","5","",""
"null","253082","pSARL_v2","pSARL_v2zus9k0vc","62865e3456c142785cfad2a7","freq_resp","img/orange_2bandit_b.png","70","70","test","","","","5","",""
"null","253242","pSARL_v2","pSARL_v2zus9k0vc","62865e3456c142785cfad2a7","fixation","img/fixation.png","null","","test","","","","","",""
"309","253558","pSARL_v2","pSARL_v2zus9k0vc","62865e3456c142785cfad2a7","freq","img/orange_2bandit_b2.png","70","70","test","1","105","105","5","",""
"null","254066","pSARL_v2","pSARL_v2zus9k0vc","62865e3456c142785cfad2a7","freq_resp","img/orange_2bandit_b.png","70","70","test","","","","5","",""
"null","254239","pSARL_v2","pSARL_v2zus9k0vc","62865e3456c142785cfad2a7","fixation","img/fixation.png","null","","test","","","","","",""
"392","254638","pSARL_v2","pSARL_v2zus9k0vc","62865e3456c142785cfad2a7","freq","img/orange_2bandit_b2.png","70","70","test","1","106","106","5","",""
"null","255058","pSARL_v2","pSARL_v2zus9k0vc","62865e3456c142785cfad2a7","freq_resp","img/orange_2bandit_b.png","70","70","test","","","","5","",""
"null","255224","pSARL_v2","pSARL_v2zus9k0vc","62865e3456c142785cfad2a7","fixation","img/fixation.png","null","","test","","","","","",""
"351","255581","pSARL_v2","pSARL_v2zus9k0vc","62865e3456c142785cfad2a7","freq","img/orange_2bandit_b2.png","70","70","test","1","107","107","5","",""
"null","256080","pSARL_v2","pSARL_v2zus9k0vc","62865e3456c142785cfad2a7","freq_resp","img/orange_2bandit_b.png","70","70","test","","","","5","",""
"null","256258","pSARL_v2","pSARL_v2zus9k0vc","62865e3456c142785cfad2a7","fixation","img/fixation.png","null","","test","","","","","",""
"364","256626","pSARL_v2","pSARL_v2zus9k0vc","62865e3456c142785cfad2a7","freq","img/orange_2bandit_b2.png","70","70","test","1","108","108","5","",""
"null","257078","pSARL_v2","pSARL_v2zus9k0vc","62865e3456c142785cfad2a7","freq_resp","img/orange_2bandit_b.png","70","70","test","","","","5","",""
"null","257245","pSARL_v2","pSARL_v2zus9k0vc","62865e3456c142785cfad2a7","fixation","img/fixation.png","null","","test","","","","","",""
"388","257639","pSARL_v2","pSARL_v2zus9k0vc","62865e3456c142785cfad2a7","freq","img/orange_2bandit_b2.png","70","70","test","1","109","109","5","",""
"null","258062","pSARL_v2","pSARL_v2zus9k0vc","62865e3456c142785cfad2a7","freq_resp","img/orange_2bandit_b.png","70","70","test","","","","5","",""
"null","258224","pSARL_v2","pSARL_v2zus9k0vc","62865e3456c142785cfad2a7","fixation","img/fixation.png","null","","test","","","","","",""
"471","258702","pSARL_v2","pSARL_v2zus9k0vc","62865e3456c142785cfad2a7","infreq","img/green_2bandit_b2.png","68","68","test","1","110","110","5","",""
"null","259042","pSARL_v2","pSARL_v2zus9k0vc","62865e3456c142785cfad2a7","infreq_resp","img/green_2bandit_b.png","68","68","test","","","","5","",""
"null","259207","pSARL_v2","pSARL_v2zus9k0vc","62865e3456c142785cfad2a7","fixation","img/fixation.png","null","","test","","","","","",""
"449","259661","pSARL_v2","pSARL_v2zus9k0vc","62865e3456c142785cfad2a7","freq","img/orange_2bandit_b2.png","70","70","test","1","111","111","5","",""
"null","260029","pSARL_v2","pSARL_v2zus9k0vc","62865e3456c142785cfad2a7","freq_resp","img/orange_2bandit_b.png","70","70","test","","","","5","",""
"null","260198","pSARL_v2","pSARL_v2zus9k0vc","62865e3456c142785cfad2a7","fixation","img/fixation.png","null","","test","","","","","",""
"266","260468","pSARL_v2","pSARL_v2zus9k0vc","62865e3456c142785cfad2a7","freq","img/orange_2bandit_b2.png","70","70","test","1","112","112","5","",""
"null","261012","pSARL_v2","pSARL_v2zus9k0vc","62865e3456c142785cfad2a7","freq_resp","img/orange_2bandit_b.png","70","70","test","","","","5","",""
"null","261182","pSARL_v2","pSARL_v2zus9k0vc","62865e3456c142785cfad2a7","fixation","img/fixation.png","null","","test","","","","","",""
"538","261726","pSARL_v2","pSARL_v2zus9k0vc","62865e3456c142785cfad2a7","reward","img/slot.png","74","","test","","","","","",""
"null","262498","pSARL_v2","pSARL_v2zus9k0vc","62865e3456c142785cfad2a7","points","<div class=""veryhighPoints""> +1 </div>","null","na","test","","","","5","1","4"
"653","263159","pSARL_v2","pSARL_v2zus9k0vc","62865e3456c142785cfad2a7","freq","img/orange_2bandit_b2.png","70","70","test","1","113","113","6","",""
"null","263313","pSARL_v2","pSARL_v2zus9k0vc","62865e3456c142785cfad2a7","freq_resp","img/orange_2bandit_b.png","70","70","test","","","","6","",""
"null","263478","pSARL_v2","pSARL_v2zus9k0vc","62865e3456c142785cfad2a7","fixation","img/fixation.png","null","","test","","","","","",""
"674","264158","pSARL_v2","pSARL_v2zus9k0vc","62865e3456c142785cfad2a7","freq","img/orange_2bandit_b2.png","70","70","test","1","114","114","6","",""
"null","264291","pSARL_v2","pSARL_v2zus9k0vc","62865e3456c142785cfad2a7","freq_resp","img/orange_2bandit_b.png","70","70","test","","","","6","",""
"null","264453","pSARL_v2","pSARL_v2zus9k0vc","62865e3456c142785cfad2a7","fixation","img/fixation.png","null","","test","","","","","",""
"618","265078","pSARL_v2","pSARL_v2zus9k0vc","62865e3456c142785cfad2a7","freq","img/orange_2bandit_b2.png","70","70","test","1","115","115","6","",""
"null","265277","pSARL_v2","pSARL_v2zus9k0vc","62865e3456c142785cfad2a7","freq_resp","img/orange_2bandit_b.png","70","70","test","","","","6","",""
"null","265442","pSARL_v2","pSARL_v2zus9k0vc","62865e3456c142785cfad2a7","fixation","img/fixation.png","null","","test","","","","","",""
"429","265878","pSARL_v2","pSARL_v2zus9k0vc","62865e3456c142785cfad2a7","freq","img/orange_2bandit_b2.png","70","70","test","1","116","116","6","",""
"null","266252","pSARL_v2","pSARL_v2zus9k0vc","62865e3456c142785cfad2a7","freq_resp","img/orange_2bandit_b.png","70","70","test","","","","6","",""
"null","266415","pSARL_v2","pSARL_v2zus9k0vc","62865e3456c142785cfad2a7","fixation","img/fixation.png","null","","test","","","","","",""
"143","266564","pSARL_v2","pSARL_v2zus9k0vc","62865e3456c142785cfad2a7","freq","img/orange_2bandit_b2.png","70","70","test","1","117","117","6","",""
"null","267264","pSARL_v2","pSARL_v2zus9k0vc","62865e3456c142785cfad2a7","freq_resp","img/orange_2bandit_b.png","70","70","test","","","","6","",""
"null","267434","pSARL_v2","pSARL_v2zus9k0vc","62865e3456c142785cfad2a7","fixation","img/fixation.png","null","","test","","","","","",""
"341","267784","pSARL_v2","pSARL_v2zus9k0vc","62865e3456c142785cfad2a7","freq","img/orange_2bandit_b2.png","70","70","test","1","118","118","6","",""
"null","268262","pSARL_v2","pSARL_v2zus9k0vc","62865e3456c142785cfad2a7","freq_resp","img/orange_2bandit_b.png","70","70","test","","","","6","",""
"null","268427","pSARL_v2","pSARL_v2zus9k0vc","62865e3456c142785cfad2a7","fixation","img/fixation.png","null","","test","","","","","",""
"429","268861","pSARL_v2","pSARL_v2zus9k0vc","62865e3456c142785cfad2a7","freq","img/orange_2bandit_b2.png","70","70","test","1","119","119","6","",""
"null","269252","pSARL_v2","pSARL_v2zus9k0vc","62865e3456c142785cfad2a7","freq_resp","img/orange_2bandit_b.png","70","70","test","","","","6","",""
"null","269422","pSARL_v2","pSARL_v2zus9k0vc","62865e3456c142785cfad2a7","fixation","img/fixation.png","null","","test","","","","","",""
"417","269846","pSARL_v2","pSARL_v2zus9k0vc","62865e3456c142785cfad2a7","freq","img/orange_2bandit_b2.png","70","70","test","1","120","120","6","",""
"null","270245","pSARL_v2","pSARL_v2zus9k0vc","62865e3456c142785cfad2a7","freq_resp","img/orange_2bandit_b.png","70","70","test","","","","6","",""
"null","270402","pSARL_v2","pSARL_v2zus9k0vc","62865e3456c142785cfad2a7","fixation","img/fixation.png","null","","test","","","","","",""
"388","270797","pSARL_v2","pSARL_v2zus9k0vc","62865e3456c142785cfad2a7","freq","img/orange_2bandit_b2.png","70","70","test","1","121","121","6","",""
"null","271228","pSARL_v2","pSARL_v2zus9k0vc","62865e3456c142785cfad2a7","freq_resp","img/orange_2bandit_b.png","70","70","test","","","","6","",""
"null","271394","pSARL_v2","pSARL_v2zus9k0vc","62865e3456c142785cfad2a7","fixation","img/fixation.png","null","","test","","","","","",""
"437","271839","pSARL_v2","pSARL_v2zus9k0vc","62865e3456c142785cfad2a7","freq","img/orange_2bandit_b2.png","70","70","test","1","122","122","6","",""
"null","272222","pSARL_v2","pSARL_v2zus9k0vc","62865e3456c142785cfad2a7","freq_resp","img/orange_2bandit_b.png","70","70","test","","","","6","",""
"null","272391","pSARL_v2","pSARL_v2zus9k0vc","62865e3456c142785cfad2a7","fixation","img/fixation.png","null","","test","","","","","",""
"368","272765","pSARL_v2","pSARL_v2zus9k0vc","62865e3456c142785cfad2a7","freq","img/orange_2bandit_b2.png","70","70","test","1","123","123","6","",""
"null","273205","pSARL_v2","pSARL_v2zus9k0vc","62865e3456c142785cfad2a7","freq_resp","img/orange_2bandit_b.png","70","70","test","","","","6","",""
"null","273369","pSARL_v2","pSARL_v2zus9k0vc","62865e3456c142785cfad2a7","fixation","img/fixation.png","null","","test","","","","","",""
"390","273766","pSARL_v2","pSARL_v2zus9k0vc","62865e3456c142785cfad2a7","freq","img/orange_2bandit_b2.png","70","70","test","1","124","124","6","",""
"null","274188","pSARL_v2","pSARL_v2zus9k0vc","62865e3456c142785cfad2a7","freq_resp","img/orange_2bandit_b.png","70","70","test","","","","6","",""
"null","274350","pSARL_v2","pSARL_v2zus9k0vc","62865e3456c142785cfad2a7","fixation","img/fixation.png","null","","test","","","","","",""
"401","274755","pSARL_v2","pSARL_v2zus9k0vc","62865e3456c142785cfad2a7","freq","img/orange_2bandit_b2.png","70","70","test","1","125","125","6","",""
"null","275162","pSARL_v2","pSARL_v2zus9k0vc","62865e3456c142785cfad2a7","freq_resp","img/orange_2bandit_b.png","70","70","test","","","","6","",""
"null","275320","pSARL_v2","pSARL_v2zus9k0vc","62865e3456c142785cfad2a7","fixation","img/fixation.png","null","","test","","","","","",""
"496","275821","pSARL_v2","pSARL_v2zus9k0vc","62865e3456c142785cfad2a7","infreq","img/green_2bandit_b2.png","68","68","test","1","126","126","6","",""
"null","276139","pSARL_v2","pSARL_v2zus9k0vc","62865e3456c142785cfad2a7","infreq_resp","img/green_2bandit_b.png","68","68","test","","","","6","",""
"null","276309","pSARL_v2","pSARL_v2zus9k0vc","62865e3456c142785cfad2a7","fixation","img/fixation.png","null","","test","","","","","",""
"514","276826","pSARL_v2","pSARL_v2zus9k0vc","62865e3456c142785cfad2a7","freq","img/orange_2bandit_b2.png","70","70","test","1","127","127","6","",""
"null","277121","pSARL_v2","pSARL_v2zus9k0vc","62865e3456c142785cfad2a7","freq_resp","img/orange_2bandit_b.png","70","70","test","","","","6","",""
"null","277290","pSARL_v2","pSARL_v2zus9k0vc","62865e3456c142785cfad2a7","fixation","img/fixation.png","null","","test","","","","","",""
"565","277861","pSARL_v2","pSARL_v2zus9k0vc","62865e3456c142785cfad2a7","infreq","img/green_2bandit_b2.png","68","68","test","1","128","128","6","",""
"null","278114","pSARL_v2","pSARL_v2zus9k0vc","62865e3456c142785cfad2a7","infreq_resp","img/green_2bandit_b.png","68","68","test","","","","6","",""
"null","278282","pSARL_v2","pSARL_v2zus9k0vc","62865e3456c142785cfad2a7","fixation","img/fixation.png","null","","test","","","","","",""
"461","278749","pSARL_v2","pSARL_v2zus9k0vc","62865e3456c142785cfad2a7","freq","img/orange_2bandit_b2.png","70","70","test","1","129","129","6","",""
"null","279102","pSARL_v2","pSARL_v2zus9k0vc","62865e3456c142785cfad2a7","freq_resp","img/orange_2bandit_b.png","70","70","test","","","","6","",""
"null","279267","pSARL_v2","pSARL_v2zus9k0vc","62865e3456c142785cfad2a7","fixation","img/fixation.png","null","","test","","","","","",""
"508","279781","pSARL_v2","pSARL_v2zus9k0vc","62865e3456c142785cfad2a7","infreq","img/green_2bandit_b2.png","68","68","test","1","130","130","6","",""
"null","280087","pSARL_v2","pSARL_v2zus9k0vc","62865e3456c142785cfad2a7","infreq_resp","img/green_2bandit_b.png","68","68","test","","","","6","",""
"null","280245","pSARL_v2","pSARL_v2zus9k0vc","62865e3456c142785cfad2a7","fixation","img/fixation.png","null","","test","","","","","",""
"483","280734","pSARL_v2","pSARL_v2zus9k0vc","62865e3456c142785cfad2a7","freq","img/orange_2bandit_b2.png","70","70","test","1","131","131","6","",""
"null","281065","pSARL_v2","pSARL_v2zus9k0vc","62865e3456c142785cfad2a7","freq_resp","img/orange_2bandit_b.png","70","70","test","","","","6","",""
"null","281234","pSARL_v2","pSARL_v2zus9k0vc","62865e3456c142785cfad2a7","fixation","img/fixation.png","null","","test","","","","","",""
"398","281638","pSARL_v2","pSARL_v2zus9k0vc","62865e3456c142785cfad2a7","freq","img/orange_2bandit_b2.png","70","70","test","1","132","132","6","",""
"null","282046","pSARL_v2","pSARL_v2zus9k0vc","62865e3456c142785cfad2a7","freq_resp","img/orange_2bandit_b.png","70","70","test","","","","6","",""
"null","282207","pSARL_v2","pSARL_v2zus9k0vc","62865e3456c142785cfad2a7","fixation","img/fixation.png","null","","test","","","","","",""
"312","282525","pSARL_v2","pSARL_v2zus9k0vc","62865e3456c142785cfad2a7","freq","img/orange_2bandit_b2.png","70","70","test","1","133","133","6","",""
"null","283031","pSARL_v2","pSARL_v2zus9k0vc","62865e3456c142785cfad2a7","freq_resp","img/orange_2bandit_b.png","70","70","test","","","","6","",""
"null","283204","pSARL_v2","pSARL_v2zus9k0vc","62865e3456c142785cfad2a7","fixation","img/fixation.png","null","","test","","","","","",""
"267","283477","pSARL_v2","pSARL_v2zus9k0vc","62865e3456c142785cfad2a7","freq","img/orange_2bandit_b2.png","70","70","test","1","134","134","6","",""
"null","284021","pSARL_v2","pSARL_v2zus9k0vc","62865e3456c142785cfad2a7","freq_resp","img/orange_2bandit_b.png","70","70","test","","","","6","",""
"null","284184","pSARL_v2","pSARL_v2zus9k0vc","62865e3456c142785cfad2a7","fixation","img/fixation.png","null","","test","","","","","",""
"159","284350","pSARL_v2","pSARL_v2zus9k0vc","62865e3456c142785cfad2a7","freq","img/orange_2bandit_b2.png","70","70","test","1","135","135","6","",""
"null","285046","pSARL_v2","pSARL_v2zus9k0vc","62865e3456c142785cfad2a7","freq_resp","img/orange_2bandit_b.png","70","70","test","","","","6","",""
"null","285208","pSARL_v2","pSARL_v2zus9k0vc","62865e3456c142785cfad2a7","fixation","img/fixation.png","null","","test","","","","","",""
"143","285357","pSARL_v2","pSARL_v2zus9k0vc","62865e3456c142785cfad2a7","freq","img/orange_2bandit_b2.png","70","70","test","1","136","136","6","",""
"null","286027","pSARL_v2","pSARL_v2zus9k0vc","62865e3456c142785cfad2a7","freq_resp","img/orange_2bandit_b.png","70","70","test","","","","6","",""
"null","286192","pSARL_v2","pSARL_v2zus9k0vc","62865e3456c142785cfad2a7","fixation","img/fixation.png","null","","test","","","","","",""
"191","286389","pSARL_v2","pSARL_v2zus9k0vc","62865e3456c142785cfad2a7","freq","img/orange_2bandit_b2.png","70","70","test","1","137","137","6","",""
"null","287069","pSARL_v2","pSARL_v2zus9k0vc","62865e3456c142785cfad2a7","freq_resp","img/orange_2bandit_b.png","70","70","test","","","","6","",""
"null","287231","pSARL_v2","pSARL_v2zus9k0vc","62865e3456c142785cfad2a7","fixation","img/fixation.png","null","","test","","","","","",""
"135","287371","pSARL_v2","pSARL_v2zus9k0vc","62865e3456c142785cfad2a7","freq","img/orange_2bandit_b2.png","70","70","test","1","138","138","6","",""
"null","288056","pSARL_v2","pSARL_v2zus9k0vc","62865e3456c142785cfad2a7","freq_resp","img/orange_2bandit_b.png","70","70","test","","","","6","",""
"null","288226","pSARL_v2","pSARL_v2zus9k0vc","62865e3456c142785cfad2a7","fixation","img/fixation.png","null","","test","","","","","",""
"541","288774","pSARL_v2","pSARL_v2zus9k0vc","62865e3456c142785cfad2a7","reward","img/slot.png","74","","test","","","","","",""
"null","289542","pSARL_v2","pSARL_v2zus9k0vc","62865e3456c142785cfad2a7","points","<div class=""verylowPoints""> -7 </div>","null","na","test","","","","6","-7","5"
"497","290046","pSARL_v2","pSARL_v2zus9k0vc","62865e3456c142785cfad2a7","freq","img/orange_2bandit_b2.png","70","70","test","1","139","139","7","",""
"null","290368","pSARL_v2","pSARL_v2zus9k0vc","62865e3456c142785cfad2a7","freq_resp","img/orange_2bandit_b.png","70","70","test","","","","7","",""
"null","290532","pSARL_v2","pSARL_v2zus9k0vc","62865e3456c142785cfad2a7","fixation","img/fixation.png","null","","test","","","","","",""
"362","290899","pSARL_v2","pSARL_v2zus9k0vc","62865e3456c142785cfad2a7","freq","img/orange_2bandit_b2.png","70","70","test","1","140","140","7","",""
"null","291357","pSARL_v2","pSARL_v2zus9k0vc","62865e3456c142785cfad2a7","freq_resp","img/orange_2bandit_b.png","70","70","test","","","","7","",""
"null","291515","pSARL_v2","pSARL_v2zus9k0vc","62865e3456c142785cfad2a7","fixation","img/fixation.png","null","","test","","","","","",""
"292","291813","pSARL_v2","pSARL_v2zus9k0vc","62865e3456c142785cfad2a7","freq","img/orange_2bandit_b2.png","70","70","test","1","141","141","7","",""
"null","292340","pSARL_v2","pSARL_v2zus9k0vc","62865e3456c142785cfad2a7","freq_resp","img/orange_2bandit_b.png","70","70","test","","","","7","",""
"null","292502","pSARL_v2","pSARL_v2zus9k0vc","62865e3456c142785cfad2a7","fixation","img/fixation.png","null","","test","","","","","",""
"161","292672","pSARL_v2","pSARL_v2zus9k0vc","62865e3456c142785cfad2a7","freq","img/orange_2bandit_b2.png","70","70","test","1","142","142","7","",""
"null","293328","pSARL_v2","pSARL_v2zus9k0vc","62865e3456c142785cfad2a7","freq_resp","img/orange_2bandit_b.png","70","70","test","","","","7","",""
"null","293495","pSARL_v2","pSARL_v2zus9k0vc","62865e3456c142785cfad2a7","fixation","img/fixation.png","null","","test","","","","","",""
"152","293656","pSARL_v2","pSARL_v2zus9k0vc","62865e3456c142785cfad2a7","freq","img/orange_2bandit_b2.png","70","70","test","1","143","143","7","",""
"null","294322","pSARL_v2","pSARL_v2zus9k0vc","62865e3456c142785cfad2a7","freq_resp","img/orange_2bandit_b.png","70","70","test","","","","7","",""
"null","294493","pSARL_v2","pSARL_v2zus9k0vc","62865e3456c142785cfad2a7","fixation","img/fixation.png","null","","test","","","","","",""
"258","294758","pSARL_v2","pSARL_v2zus9k0vc","62865e3456c142785cfad2a7","freq","img/orange_2bandit_b2.png","70","70","test","1","144","144","7","",""
"null","295312","pSARL_v2","pSARL_v2zus9k0vc","62865e3456c142785cfad2a7","freq_resp","img/orange_2bandit_b.png","70","70","test","","","","7","",""
"null","295473","pSARL_v2","pSARL_v2zus9k0vc","62865e3456c142785cfad2a7","fixation","img/fixation.png","null","","test","","","","","",""
"262","295742","pSARL_v2","pSARL_v2zus9k0vc","62865e3456c142785cfad2a7","freq","img/orange_2bandit_b2.png","70","70","test","1","145","145","7","",""
"null","296335","pSARL_v2","pSARL_v2zus9k0vc","62865e3456c142785cfad2a7","freq_resp","img/orange_2bandit_b.png","70","70","test","","","","7","",""
"null","296494","pSARL_v2","pSARL_v2zus9k0vc","62865e3456c142785cfad2a7","fixation","img/fixation.png","null","","test","","","","","",""
"289","296789","pSARL_v2","pSARL_v2zus9k0vc","62865e3456c142785cfad2a7","freq","img/orange_2bandit_b2.png","70","70","test","1","146","146","7","",""
"null","297318","pSARL_v2","pSARL_v2zus9k0vc","62865e3456c142785cfad2a7","freq_resp","img/orange_2bandit_b.png","70","70","test","","","","7","",""
"null","297478","pSARL_v2","pSARL_v2zus9k0vc","62865e3456c142785cfad2a7","fixation","img/fixation.png","null","","test","","","","","",""
"289","297773","pSARL_v2","pSARL_v2zus9k0vc","62865e3456c142785cfad2a7","freq","img/orange_2bandit_b2.png","70","70","test","1","147","147","7","",""
"null","298362","pSARL_v2","pSARL_v2zus9k0vc","62865e3456c142785cfad2a7","freq_resp","img/orange_2bandit_b.png","70","70","test","","","","7","",""
"null","298523","pSARL_v2","pSARL_v2zus9k0vc","62865e3456c142785cfad2a7","fixation","img/fixation.png","null","","test","","","","","",""
"293","298820","pSARL_v2","pSARL_v2zus9k0vc","62865e3456c142785cfad2a7","freq","img/orange_2bandit_b2.png","70","70","test","1","148","148","7","",""
"null","299338","pSARL_v2","pSARL_v2zus9k0vc","62865e3456c142785cfad2a7","freq_resp","img/orange_2bandit_b.png","70","70","test","","","","7","",""
"null","299502","pSARL_v2","pSARL_v2zus9k0vc","62865e3456c142785cfad2a7","fixation","img/fixation.png","null","","test","","","","","",""
"289","299798","pSARL_v2","pSARL_v2zus9k0vc","62865e3456c142785cfad2a7","freq","img/orange_2bandit_b2.png","70","70","test","1","149","149","7","",""
"null","300327","pSARL_v2","pSARL_v2zus9k0vc","62865e3456c142785cfad2a7","freq_resp","img/orange_2bandit_b.png","70","70","test","","","","7","",""
"null","300498","pSARL_v2","pSARL_v2zus9k0vc","62865e3456c142785cfad2a7","fixation","img/fixation.png","null","","test","","","","","",""
"325","300830","pSARL_v2","pSARL_v2zus9k0vc","62865e3456c142785cfad2a7","freq","img/orange_2bandit_b2.png","70","70","test","1","150","150","7","",""
"null","301368","pSARL_v2","pSARL_v2zus9k0vc","62865e3456c142785cfad2a7","freq_resp","img/orange_2bandit_b.png","70","70","test","","","","7","",""
"null","301526","pSARL_v2","pSARL_v2zus9k0vc","62865e3456c142785cfad2a7","fixation","img/fixation.png","null","","test","","","","","",""
"241","301774","pSARL_v2","pSARL_v2zus9k0vc","62865e3456c142785cfad2a7","freq","img/orange_2bandit_b2.png","70","70","test","1","151","151","7","",""
"null","302352","pSARL_v2","pSARL_v2zus9k0vc","62865e3456c142785cfad2a7","freq_resp","img/orange_2bandit_b.png","70","70","test","","","","7","",""
"null","302522","pSARL_v2","pSARL_v2zus9k0vc","62865e3456c142785cfad2a7","fixation","img/fixation.png","null","","test","","","","","",""
"326","302854","pSARL_v2","pSARL_v2zus9k0vc","62865e3456c142785cfad2a7","freq","img/orange_2bandit_b2.png","70","70","test","1","152","152","7","",""
"null","303345","pSARL_v2","pSARL_v2zus9k0vc","62865e3456c142785cfad2a7","freq_resp","img/orange_2bandit_b.png","70","70","test","","","","7","",""
"null","303508","pSARL_v2","pSARL_v2zus9k0vc","62865e3456c142785cfad2a7","fixation","img/fixation.png","null","","test","","","","","",""
"227","303742","pSARL_v2","pSARL_v2zus9k0vc","62865e3456c142785cfad2a7","freq","img/orange_2bandit_b2.png","70","70","test","1","153","153","7","",""
"null","304332","pSARL_v2","pSARL_v2zus9k0vc","62865e3456c142785cfad2a7","freq_resp","img/orange_2bandit_b.png","70","70","test","","","","7","",""
"null","304500","pSARL_v2","pSARL_v2zus9k0vc","62865e3456c142785cfad2a7","fixation","img/fixation.png","null","","test","","","","","",""
"124","304627","pSARL_v2","pSARL_v2zus9k0vc","62865e3456c142785cfad2a7","freq","img/orange_2bandit_b2.png","70","70","test","1","154","154","7","",""
"null","305312","pSARL_v2","pSARL_v2zus9k0vc","62865e3456c142785cfad2a7","freq_resp","img/orange_2bandit_b.png","70","70","test","","","","7","",""
"null","305477","pSARL_v2","pSARL_v2zus9k0vc","62865e3456c142785cfad2a7","fixation","img/fixation.png","null","","test","","","","","",""
"178","305662","pSARL_v2","pSARL_v2zus9k0vc","62865e3456c142785cfad2a7","freq","img/orange_2bandit_b2.png","70","70","test","1","155","155","7","",""
"null","306292","pSARL_v2","pSARL_v2zus9k0vc","62865e3456c142785cfad2a7","freq_resp","img/orange_2bandit_b.png","70","70","test","","","","7","",""
"null","306462","pSARL_v2","pSARL_v2zus9k0vc","62865e3456c142785cfad2a7","fixation","img/fixation.png","null","","test","","","","","",""
"146","306614","pSARL_v2","pSARL_v2zus9k0vc","62865e3456c142785cfad2a7","freq","img/orange_2bandit_b2.png","70","70","test","1","156","156","7","",""
"null","307282","pSARL_v2","pSARL_v2zus9k0vc","62865e3456c142785cfad2a7","freq_resp","img/orange_2bandit_b.png","70","70","test","","","","7","",""
"null","307436","pSARL_v2","pSARL_v2zus9k0vc","62865e3456c142785cfad2a7","fixation","img/fixation.png","null","","test","","","","","",""
"316","307758","pSARL_v2","pSARL_v2zus9k0vc","62865e3456c142785cfad2a7","freq","img/orange_2bandit_b2.png","70","70","test","1","157","157","7","",""
"null","308265","pSARL_v2","pSARL_v2zus9k0vc","62865e3456c142785cfad2a7","freq_resp","img/orange_2bandit_b.png","70","70","test","","","","7","",""
"null","308427","pSARL_v2","pSARL_v2zus9k0vc","62865e3456c142785cfad2a7","fixation","img/fixation.png","null","","test","","","","","",""
"301","308733","pSARL_v2","pSARL_v2zus9k0vc","62865e3456c142785cfad2a7","freq","img/orange_2bandit_b2.png","70","70","test","1","158","158","7","",""
"null","309249","pSARL_v2","pSARL_v2zus9k0vc","62865e3456c142785cfad2a7","freq_resp","img/orange_2bandit_b.png","70","70","test","","","","7","",""
"null","309418","pSARL_v2","pSARL_v2zus9k0vc","62865e3456c142785cfad2a7","fixation","img/fixation.png","null","","test","","","","","",""
"253","309678","pSARL_v2","pSARL_v2zus9k0vc","62865e3456c142785cfad2a7","freq","img/orange_2bandit_b2.png","70","70","test","1","159","159","7","",""
"null","310242","pSARL_v2","pSARL_v2zus9k0vc","62865e3456c142785cfad2a7","freq_resp","img/orange_2bandit_b.png","70","70","test","","","","7","",""
"null","310405","pSARL_v2","pSARL_v2zus9k0vc","62865e3456c142785cfad2a7","fixation","img/fixation.png","null","","test","","","","","",""
"330","310742","pSARL_v2","pSARL_v2zus9k0vc","62865e3456c142785cfad2a7","freq","img/orange_2bandit_b2.png","70","70","test","1","160","160","7","",""
"null","311231","pSARL_v2","pSARL_v2zus9k0vc","62865e3456c142785cfad2a7","freq_resp","img/orange_2bandit_b.png","70","70","test","","","","7","",""
"null","311397","pSARL_v2","pSARL_v2zus9k0vc","62865e3456c142785cfad2a7","fixation","img/fixation.png","null","","test","","","","","",""
"306","311706","pSARL_v2","pSARL_v2zus9k0vc","62865e3456c142785cfad2a7","infreq","img/green_2bandit_b2.png","70","68","test","0","161","161","7","",""
"null","312217","pSARL_v2","pSARL_v2zus9k0vc","62865e3456c142785cfad2a7","infreq_resp","img/green_2bandit_b.png","70","68","test","","","","7","",""
"null","312387","pSARL_v2","pSARL_v2zus9k0vc","62865e3456c142785cfad2a7","fixation","img/fixation.png","null","","test","","","","","",""
"476","312870","pSARL_v2","pSARL_v2zus9k0vc","62865e3456c142785cfad2a7","infreq","img/green_2bandit_b2.png","68","68","test","1","162","162","7","",""
"null","313211","pSARL_v2","pSARL_v2zus9k0vc","62865e3456c142785cfad2a7","infreq_resp","img/green_2bandit_b.png","68","68","test","","","","7","",""
"null","313379","pSARL_v2","pSARL_v2zus9k0vc","62865e3456c142785cfad2a7","fixation","img/fixation.png","null","","test","","","","","",""
"460","313845","pSARL_v2","pSARL_v2zus9k0vc","62865e3456c142785cfad2a7","freq","img/orange_2bandit_b2.png","70","70","test","1","163","163","7","",""
"null","314197","pSARL_v2","pSARL_v2zus9k0vc","62865e3456c142785cfad2a7","freq_resp","img/orange_2bandit_b.png","70","70","test","","","","7","",""
"null","314358","pSARL_v2","pSARL_v2zus9k0vc","62865e3456c142785cfad2a7","fixation","img/fixation.png","null","","test","","","","","",""
"529","314894","pSARL_v2","pSARL_v2zus9k0vc","62865e3456c142785cfad2a7","reward","img/slot.png","74","","test","","","","","",""
"null","315652","pSARL_v2","pSARL_v2zus9k0vc","62865e3456c142785cfad2a7","points","<div class=""verylowPoints""> -6 </div>","null","na","test","","","","7","-6","6"
"771","316430","pSARL_v2","pSARL_v2zus9k0vc","62865e3456c142785cfad2a7","freq","img/orange_2bandit_b2.png","70","70","test","1","164","164","8","",""
"null","316472","pSARL_v2","pSARL_v2zus9k0vc","62865e3456c142785cfad2a7","freq_resp","img/orange_2bandit_b.png","70","70","test","","","","8","",""
"null","316638","pSARL_v2","pSARL_v2zus9k0vc","62865e3456c142785cfad2a7","fixation","img/fixation.png","null","","test","","","","","",""
"431","317076","pSARL_v2","pSARL_v2zus9k0vc","62865e3456c142785cfad2a7","freq","img/orange_2bandit_b2.png","70","70","test","1","165","165","8","",""
"null","317457","pSARL_v2","pSARL_v2zus9k0vc","62865e3456c142785cfad2a7","freq_resp","img/orange_2bandit_b.png","70","70","test","","","","8","",""
"null","317630","pSARL_v2","pSARL_v2zus9k0vc","62865e3456c142785cfad2a7","fixation","img/fixation.png","null","","test","","","","","",""
"321","317957","pSARL_v2","pSARL_v2zus9k0vc","62865e3456c142785cfad2a7","freq","img/orange_2bandit_b2.png","70","70","test","1","166","166","8","",""
"null","318448","pSARL_v2","pSARL_v2zus9k0vc","62865e3456c142785cfad2a7","freq_resp","img/orange_2bandit_b.png","70","70","test","","","","8","",""
"null","318614","pSARL_v2","pSARL_v2zus9k0vc","62865e3456c142785cfad2a7","fixation","img/fixation.png","null","","test","","","","","",""
"336","318957","pSARL_v2","pSARL_v2zus9k0vc","62865e3456c142785cfad2a7","freq","img/orange_2bandit_b2.png","70","70","test","1","167","167","8","",""
"null","319442","pSARL_v2","pSARL_v2zus9k0vc","62865e3456c142785cfad2a7","freq_resp","img/orange_2bandit_b.png","70","70","test","","","","8","",""
"null","319606","pSARL_v2","pSARL_v2zus9k0vc","62865e3456c142785cfad2a7","fixation","img/fixation.png","null","","test","","","","","",""
"345","319958","pSARL_v2","pSARL_v2zus9k0vc","62865e3456c142785cfad2a7","freq","img/orange_2bandit_b2.png","70","70","test","1","168","168","8","",""
"null","320431","pSARL_v2","pSARL_v2zus9k0vc","62865e3456c142785cfad2a7","freq_resp","img/orange_2bandit_b.png","70","70","test","","","","8","",""
"null","320599","pSARL_v2","pSARL_v2zus9k0vc","62865e3456c142785cfad2a7","fixation","img/fixation.png","null","","test","","","","","",""
"312","320918","pSARL_v2","pSARL_v2zus9k0vc","62865e3456c142785cfad2a7","freq","img/orange_2bandit_b2.png","70","70","test","1","169","169","8","",""
"null","321462","pSARL_v2","pSARL_v2zus9k0vc","62865e3456c142785cfad2a7","freq_resp","img/orange_2bandit_b.png","70","70","test","","","","8","",""
"null","321628","pSARL_v2","pSARL_v2zus9k0vc","62865e3456c142785cfad2a7","fixation","img/fixation.png","null","","test","","","","","",""
"347","321979","pSARL_v2","pSARL_v2zus9k0vc","62865e3456c142785cfad2a7","freq","img/orange_2bandit_b2.png","70","70","test","1","170","170","8","",""
"null","322454","pSARL_v2","pSARL_v2zus9k0vc","62865e3456c142785cfad2a7","freq_resp","img/orange_2bandit_b.png","70","70","test","","","","8","",""
"null","322622","pSARL_v2","pSARL_v2zus9k0vc","62865e3456c142785cfad2a7","fixation","img/fixation.png","null","","test","","","","","",""
"345","322974","pSARL_v2","pSARL_v2zus9k0vc","62865e3456c142785cfad2a7","freq","img/orange_2bandit_b2.png","70","70","test","1","171","171","8","",""
"null","323477","pSARL_v2","pSARL_v2zus9k0vc","62865e3456c142785cfad2a7","freq_resp","img/orange_2bandit_b.png","70","70","test","","","","8","",""
"null","323642","pSARL_v2","pSARL_v2zus9k0vc","62865e3456c142785cfad2a7","fixation","img/fixation.png","null","","test","","","","","",""
"341","323990","pSARL_v2","pSARL_v2zus9k0vc","62865e3456c142785cfad2a7","freq","img/orange_2bandit_b2.png","70","70","test","1","172","172","8","",""
"null","324462","pSARL_v2","pSARL_v2zus9k0vc","62865e3456c142785cfad2a7","freq_resp","img/orange_2bandit_b.png","70","70","test","","","","8","",""
"null","324622","pSARL_v2","pSARL_v2zus9k0vc","62865e3456c142785cfad2a7","fixation","img/fixation.png","null","","test","","","","","",""
"441","325069","pSARL_v2","pSARL_v2zus9k0vc","62865e3456c142785cfad2a7","infreq","img/green_2bandit_b2.png","68","68","test","1","173","173","8","",""
"null","325438","pSARL_v2","pSARL_v2zus9k0vc","62865e3456c142785cfad2a7","infreq_resp","img/green_2bandit_b.png","68","68","test","","","","8","",""
"null","325604","pSARL_v2","pSARL_v2zus9k0vc","62865e3456c142785cfad2a7","fixation","img/fixation.png","null","","test","","","","","",""
"418","326029","pSARL_v2","pSARL_v2zus9k0vc","62865e3456c142785cfad2a7","freq","img/orange_2bandit_b2.png","70","70","test","1","174","174","8","",""
"null","326423","pSARL_v2","pSARL_v2zus9k0vc","62865e3456c142785cfad2a7","freq_resp","img/orange_2bandit_b.png","70","70","test","","","","8","",""
"null","326578","pSARL_v2","pSARL_v2zus9k0vc","62865e3456c142785cfad2a7","fixation","img/fixation.png","null","","test","","","","","",""
"453","327040","pSARL_v2","pSARL_v2zus9k0vc","62865e3456c142785cfad2a7","infreq","img/green_2bandit_b2.png","68","68","test","1","175","175","8","",""
"null","327402","pSARL_v2","pSARL_v2zus9k0vc","62865e3456c142785cfad2a7","infreq_resp","img/green_2bandit_b.png","68","68","test","","","","8","",""
"null","327563","pSARL_v2","pSARL_v2zus9k0vc","62865e3456c142785cfad2a7","fixation","img/fixation.png","null","","test","","","","","",""
"349","327919","pSARL_v2","pSARL_v2zus9k0vc","62865e3456c142785cfad2a7","freq","img/orange_2bandit_b2.png","70","70","test","1","176","176","8","",""
"null","328378","pSARL_v2","pSARL_v2zus9k0vc","62865e3456c142785cfad2a7","freq_resp","img/orange_2bandit_b.png","70","70","test","","","","8","",""
"null","328543","pSARL_v2","pSARL_v2zus9k0vc","62865e3456c142785cfad2a7","fixation","img/fixation.png","null","","test","","","","","",""
"345","328893","pSARL_v2","pSARL_v2zus9k0vc","62865e3456c142785cfad2a7","freq","img/orange_2bandit_b2.png","70","70","test","1","177","177","8","",""
"null","329356","pSARL_v2","pSARL_v2zus9k0vc","62865e3456c142785cfad2a7","freq_resp","img/orange_2bandit_b.png","70","70","test","","","","8","",""
"null","329522","pSARL_v2","pSARL_v2zus9k0vc","62865e3456c142785cfad2a7","fixation","img/fixation.png","null","","test","","","","","",""
"325","329854","pSARL_v2","pSARL_v2zus9k0vc","62865e3456c142785cfad2a7","freq","img/orange_2bandit_b2.png","70","70","test","1","178","178","8","",""
"null","330337","pSARL_v2","pSARL_v2zus9k0vc","62865e3456c142785cfad2a7","freq_resp","img/orange_2bandit_b.png","70","70","test","","","","8","",""
"null","330501","pSARL_v2","pSARL_v2zus9k0vc","62865e3456c142785cfad2a7","fixation","img/fixation.png","null","","test","","","","","",""
"312","330823","pSARL_v2","pSARL_v2zus9k0vc","62865e3456c142785cfad2a7","freq","img/orange_2bandit_b2.png","70","70","test","1","179","179","8","",""
"null","331322","pSARL_v2","pSARL_v2zus9k0vc","62865e3456c142785cfad2a7","freq_resp","img/orange_2bandit_b.png","70","70","test","","","","8","",""
"null","331494","pSARL_v2","pSARL_v2zus9k0vc","62865e3456c142785cfad2a7","fixation","img/fixation.png","null","","test","","","","","",""
"313","331813","pSARL_v2","pSARL_v2zus9k0vc","62865e3456c142785cfad2a7","freq","img/orange_2bandit_b2.png","70","70","test","1","180","180","8","",""
"null","332310","pSARL_v2","pSARL_v2zus9k0vc","62865e3456c142785cfad2a7","freq_resp","img/orange_2bandit_b.png","70","70","test","","","","8","",""
"null","332477","pSARL_v2","pSARL_v2zus9k0vc","62865e3456c142785cfad2a7","fixation","img/fixation.png","null","","test","","","","","",""
"323","332806","pSARL_v2","pSARL_v2zus9k0vc","62865e3456c142785cfad2a7","freq","img/orange_2bandit_b2.png","70","70","test","1","181","181","8","",""
"null","333292","pSARL_v2","pSARL_v2zus9k0vc","62865e3456c142785cfad2a7","freq_resp","img/orange_2bandit_b.png","70","70","test","","","","8","",""
"null","333452","pSARL_v2","pSARL_v2zus9k0vc","62865e3456c142785cfad2a7","fixation","img/fixation.png","null","","test","","","","","",""
"243","333701","pSARL_v2","pSARL_v2zus9k0vc","62865e3456c142785cfad2a7","freq","img/orange_2bandit_b2.png","70","70","test","1","182","182","8","",""
"null","334315","pSARL_v2","pSARL_v2zus9k0vc","62865e3456c142785cfad2a7","freq_resp","img/orange_2bandit_b.png","70","70","test","","","","8","",""
"null","334473","pSARL_v2","pSARL_v2zus9k0vc","62865e3456c142785cfad2a7","fixation","img/fixation.png","null","","test","","","","","",""
"199","334680","pSARL_v2","pSARL_v2zus9k0vc","62865e3456c142785cfad2a7","freq","img/orange_2bandit_b2.png","70","70","test","1","183","183","8","",""
"null","335297","pSARL_v2","pSARL_v2zus9k0vc","62865e3456c142785cfad2a7","freq_resp","img/orange_2bandit_b.png","70","70","test","","","","8","",""
"null","335457","pSARL_v2","pSARL_v2zus9k0vc","62865e3456c142785cfad2a7","fixation","img/fixation.png","null","","test","","","","","",""
"374","335838","pSARL_v2","pSARL_v2zus9k0vc","62865e3456c142785cfad2a7","freq","img/orange_2bandit_b2.png","70","70","test","1","184","184","8","",""
"null","336282","pSARL_v2","pSARL_v2zus9k0vc","62865e3456c142785cfad2a7","freq_resp","img/orange_2bandit_b.png","70","70","test","","","","8","",""
"null","336451","pSARL_v2","pSARL_v2zus9k0vc","62865e3456c142785cfad2a7","fixation","img/fixation.png","null","","test","","","","","",""
"419","336879","pSARL_v2","pSARL_v2zus9k0vc","62865e3456c142785cfad2a7","infreq","img/green_2bandit_b2.png","68","68","test","1","185","185","8","",""
"null","337275","pSARL_v2","pSARL_v2zus9k0vc","62865e3456c142785cfad2a7","infreq_resp","img/green_2bandit_b.png","68","68","test","","","","8","",""
"null","337440","pSARL_v2","pSARL_v2zus9k0vc","62865e3456c142785cfad2a7","fixation","img/fixation.png","null","","test","","","","","",""
"487","337934","pSARL_v2","pSARL_v2zus9k0vc","62865e3456c142785cfad2a7","freq","img/orange_2bandit_b2.png","70","70","test","1","186","186","8","",""
"null","338267","pSARL_v2","pSARL_v2zus9k0vc","62865e3456c142785cfad2a7","freq_resp","img/orange_2bandit_b.png","70","70","test","","","","8","",""
"null","338437","pSARL_v2","pSARL_v2zus9k0vc","62865e3456c142785cfad2a7","fixation","img/fixation.png","null","","test","","","","","",""
"386","338829","pSARL_v2","pSARL_v2zus9k0vc","62865e3456c142785cfad2a7","freq","img/orange_2bandit_b2.png","70","70","test","1","187","187","8","",""
"null","339252","pSARL_v2","pSARL_v2zus9k0vc","62865e3456c142785cfad2a7","freq_resp","img/orange_2bandit_b.png","70","70","test","","","","8","",""
"null","339417","pSARL_v2","pSARL_v2zus9k0vc","62865e3456c142785cfad2a7","fixation","img/fixation.png","null","","test","","","","","",""
"350","339774","pSARL_v2","pSARL_v2zus9k0vc","62865e3456c142785cfad2a7","freq","img/orange_2bandit_b2.png","70","70","test","1","188","188","8","",""
"null","340242","pSARL_v2","pSARL_v2zus9k0vc","62865e3456c142785cfad2a7","freq_resp","img/orange_2bandit_b.png","70","70","test","","","","8","",""
"null","340406","pSARL_v2","pSARL_v2zus9k0vc","62865e3456c142785cfad2a7","fixation","img/fixation.png","null","","test","","","","","",""
"514","340926","pSARL_v2","pSARL_v2zus9k0vc","62865e3456c142785cfad2a7","reward","img/slot.png","74","","test","","","","","",""
"null","341692","pSARL_v2","pSARL_v2zus9k0vc","62865e3456c142785cfad2a7","points","<div class=""verylowPoints""> -4 </div>","null","na","test","","","","8","-4","7"
"611","342311","pSARL_v2","pSARL_v2zus9k0vc","62865e3456c142785cfad2a7","freq","img/orange_2bandit_b2.png","70","70","test","1","189","189","9","",""
"null","342519","pSARL_v2","pSARL_v2zus9k0vc","62865e3456c142785cfad2a7","freq_resp","img/orange_2bandit_b.png","70","70","test","","","","9","",""
"null","342687","pSARL_v2","pSARL_v2zus9k0vc","62865e3456c142785cfad2a7","fixation","img/fixation.png","null","","test","","","","","",""
"504","343198","pSARL_v2","pSARL_v2zus9k0vc","62865e3456c142785cfad2a7","freq","img/orange_2bandit_b2.png","70","70","test","1","190","190","9","",""
"null","343507","pSARL_v2","pSARL_v2zus9k0vc","62865e3456c142785cfad2a7","freq_resp","img/orange_2bandit_b.png","70","70","test","","","","9","",""
"null","343670","pSARL_v2","pSARL_v2zus9k0vc","62865e3456c142785cfad2a7","fixation","img/fixation.png","null","","test","","","","","",""
"353","344030","pSARL_v2","pSARL_v2zus9k0vc","62865e3456c142785cfad2a7","freq","img/orange_2bandit_b2.png","70","70","test","1","191","191","9","",""
"null","344487","pSARL_v2","pSARL_v2zus9k0vc","62865e3456c142785cfad2a7","freq_resp","img/orange_2bandit_b.png","70","70","test","","","","9","",""
"null","344651","pSARL_v2","pSARL_v2zus9k0vc","62865e3456c142785cfad2a7","fixation","img/fixation.png","null","","test","","","","","",""
"380","345038","pSARL_v2","pSARL_v2zus9k0vc","62865e3456c142785cfad2a7","freq","img/orange_2bandit_b2.png","70","70","test","1","192","192","9","",""
"null","345471","pSARL_v2","pSARL_v2zus9k0vc","62865e3456c142785cfad2a7","freq_resp","img/orange_2bandit_b.png","70","70","test","","","","9","",""
"null","345634","pSARL_v2","pSARL_v2zus9k0vc","62865e3456c142785cfad2a7","fixation","img/fixation.png","null","","test","","","","","",""
"341","345981","pSARL_v2","pSARL_v2zus9k0vc","62865e3456c142785cfad2a7","freq","img/orange_2bandit_b2.png","70","70","test","1","193","193","9","",""
"null","346447","pSARL_v2","pSARL_v2zus9k0vc","62865e3456c142785cfad2a7","freq_resp","img/orange_2bandit_b.png","70","70","test","","","","9","",""
"null","346607","pSARL_v2","pSARL_v2zus9k0vc","62865e3456c142785cfad2a7","fixation","img/fixation.png","null","","test","","","","","",""
"359","346971","pSARL_v2","pSARL_v2zus9k0vc","62865e3456c142785cfad2a7","freq","img/orange_2bandit_b2.png","70","70","test","1","194","194","9","",""
"null","347422","pSARL_v2","pSARL_v2zus9k0vc","62865e3456c142785cfad2a7","freq_resp","img/orange_2bandit_b.png","70","70","test","","","","9","",""
"null","347583","pSARL_v2","pSARL_v2zus9k0vc","62865e3456c142785cfad2a7","fixation","img/fixation.png","null","","test","","","","","",""
"448","348038","pSARL_v2","pSARL_v2zus9k0vc","62865e3456c142785cfad2a7","infreq","img/green_2bandit_b2.png","68","68","test","1","195","195","9","",""
"null","348402","pSARL_v2","pSARL_v2zus9k0vc","62865e3456c142785cfad2a7","infreq_resp","img/green_2bandit_b.png","68","68","test","","","","9","",""
"null","348574","pSARL_v2","pSARL_v2zus9k0vc","62865e3456c142785cfad2a7","fixation","img/fixation.png","null","","test","","","","","",""
"480","349062","pSARL_v2","pSARL_v2zus9k0vc","62865e3456c142785cfad2a7","freq","img/orange_2bandit_b2.png","70","70","test","1","196","196","9","",""
"null","349393","pSARL_v2","pSARL_v2zus9k0vc","62865e3456c142785cfad2a7","freq_resp","img/orange_2bandit_b.png","70","70","test","","","","9","",""
"null","349552","pSARL_v2","pSARL_v2zus9k0vc","62865e3456c142785cfad2a7","fixation","img/fixation.png","null","","test","","","","","",""
"415","349973","pSARL_v2","pSARL_v2zus9k0vc","62865e3456c142785cfad2a7","freq","img/orange_2bandit_b2.png","70","70","test","1","197","197","9","",""
"null","350374","pSARL_v2","pSARL_v2zus9k0vc","62865e3456c142785cfad2a7","freq_resp","img/orange_2bandit_b.png","70","70","test","","","","9","",""
"null","350532","pSARL_v2","pSARL_v2zus9k0vc","62865e3456c142785cfad2a7","fixation","img/fixation.png","null","","test","","","","","",""
"355","350893","pSARL_v2","pSARL_v2zus9k0vc","62865e3456c142785cfad2a7","freq","img/orange_2bandit_b2.png","70","70","test","1","198","198","9","",""
"null","351351","pSARL_v2","pSARL_v2zus9k0vc","62865e3456c142785cfad2a7","freq_resp","img/orange_2bandit_b.png","70","70","test","","","","9","",""
"null","351525","pSARL_v2","pSARL_v2zus9k0vc","62865e3456c142785cfad2a7","fixation","img/fixation.png","null","","test","","","","","",""
"362","351894","pSARL_v2","pSARL_v2zus9k0vc","62865e3456c142785cfad2a7","freq","img/orange_2bandit_b2.png","70","70","test","1","199","199","9","",""
"null","352348","pSARL_v2","pSARL_v2zus9k0vc","62865e3456c142785cfad2a7","freq_resp","img/orange_2bandit_b.png","70","70","test","","","","9","",""
"null","352512","pSARL_v2","pSARL_v2zus9k0vc","62865e3456c142785cfad2a7","fixation","img/fixation.png","null","","test","","","","","",""
"391","352909","pSARL_v2","pSARL_v2zus9k0vc","62865e3456c142785cfad2a7","freq","img/orange_2bandit_b2.png","70","70","test","1","200","200","9","",""
"null","353338","pSARL_v2","pSARL_v2zus9k0vc","62865e3456c142785cfad2a7","freq_resp","img/orange_2bandit_b.png","70","70","test","","","","9","",""
"null","353497","pSARL_v2","pSARL_v2zus9k0vc","62865e3456c142785cfad2a7","fixation","img/fixation.png","null","","test","","","","","",""
"334","353838","pSARL_v2","pSARL_v2zus9k0vc","62865e3456c142785cfad2a7","freq","img/orange_2bandit_b2.png","70","70","test","1","201","201","9","",""
"null","354322","pSARL_v2","pSARL_v2zus9k0vc","62865e3456c142785cfad2a7","freq_resp","img/orange_2bandit_b.png","70","70","test","","","","9","",""
"null","354494","pSARL_v2","pSARL_v2zus9k0vc","62865e3456c142785cfad2a7","fixation","img/fixation.png","null","","test","","","","","",""
"377","354878","pSARL_v2","pSARL_v2zus9k0vc","62865e3456c142785cfad2a7","freq","img/orange_2bandit_b2.png","70","70","test","1","202","202","9","",""
"null","355312","pSARL_v2","pSARL_v2zus9k0vc","62865e3456c142785cfad2a7","freq_resp","img/orange_2bandit_b.png","70","70","test","","","","9","",""
"null","355482","pSARL_v2","pSARL_v2zus9k0vc","62865e3456c142785cfad2a7","fixation","img/fixation.png","null","","test","","","","","",""
"420","355909","pSARL_v2","pSARL_v2zus9k0vc","62865e3456c142785cfad2a7","infreq","img/green_2bandit_b2.png","68","68","test","1","203","203","9","",""
"null","356336","pSARL_v2","pSARL_v2zus9k0vc","62865e3456c142785cfad2a7","infreq_resp","img/green_2bandit_b.png","68","68","test","","","","9","",""
"null","356502","pSARL_v2","pSARL_v2zus9k0vc","62865e3456c142785cfad2a7","fixation","img/fixation.png","null","","test","","","","","",""
"505","357016","pSARL_v2","pSARL_v2zus9k0vc","62865e3456c142785cfad2a7","freq","img/orange_2bandit_b2.png","70","70","test","1","204","204","9","",""
"null","357329","pSARL_v2","pSARL_v2zus9k0vc","62865e3456c142785cfad2a7","freq_resp","img/orange_2bandit_b.png","70","70","test","","","","9","",""
"null","357498","pSARL_v2","pSARL_v2zus9k0vc","62865e3456c142785cfad2a7","fixation","img/fixation.png","null","","test","","","","","",""
"454","357958","pSARL_v2","pSARL_v2zus9k0vc","62865e3456c142785cfad2a7","freq","img/orange_2bandit_b2.png","70","70","test","1","205","205","9","",""
"null","358322","pSARL_v2","pSARL_v2zus9k0vc","62865e3456c142785cfad2a7","freq_resp","img/orange_2bandit_b.png","70","70","test","","","","9","",""
"null","358491","pSARL_v2","pSARL_v2zus9k0vc","62865e3456c142785cfad2a7","fixation","img/fixation.png","null","","test","","","","","",""
"380","358878","pSARL_v2","pSARL_v2zus9k0vc","62865e3456c142785cfad2a7","freq","img/orange_2bandit_b2.png","70","70","test","1","206","206","9","",""
"null","359306","pSARL_v2","pSARL_v2zus9k0vc","62865e3456c142785cfad2a7","freq_resp","img/orange_2bandit_b.png","70","70","test","","","","9","",""
"null","359467","pSARL_v2","pSARL_v2zus9k0vc","62865e3456c142785cfad2a7","fixation","img/fixation.png","null","","test","","","","","",""
"341","359814","pSARL_v2","pSARL_v2zus9k0vc","62865e3456c142785cfad2a7","freq","img/orange_2bandit_b2.png","70","70","test","1","207","207","9","",""
"null","360312","pSARL_v2","pSARL_v2zus9k0vc","62865e3456c142785cfad2a7","freq_resp","img/orange_2bandit_b.png","70","70","test","","","","9","",""
"null","360472","pSARL_v2","pSARL_v2zus9k0vc","62865e3456c142785cfad2a7","fixation","img/fixation.png","null","","test","","","","","",""
"351","360829","pSARL_v2","pSARL_v2zus9k0vc","62865e3456c142785cfad2a7","freq","img/orange_2bandit_b2.png","70","70","test","1","208","208","9","",""
"null","361292","pSARL_v2","pSARL_v2zus9k0vc","62865e3456c142785cfad2a7","freq_resp","img/orange_2bandit_b.png","70","70","test","","","","9","",""
"null","361460","pSARL_v2","pSARL_v2zus9k0vc","62865e3456c142785cfad2a7","fixation","img/fixation.png","null","","test","","","","","",""
"283","361748","pSARL_v2","pSARL_v2zus9k0vc","62865e3456c142785cfad2a7","freq","img/orange_2bandit_b2.png","70","70","test","1","209","209","9","",""
"null","362282","pSARL_v2","pSARL_v2zus9k0vc","62865e3456c142785cfad2a7","freq_resp","img/orange_2bandit_b.png","70","70","test","","","","9","",""
"null","362452","pSARL_v2","pSARL_v2zus9k0vc","62865e3456c142785cfad2a7","fixation","img/fixation.png","null","","test","","","","","",""
"316","362772","pSARL_v2","pSARL_v2zus9k0vc","62865e3456c142785cfad2a7","freq","img/orange_2bandit_b2.png","70","70","test","1","210","210","9","",""
"null","363266","pSARL_v2","pSARL_v2zus9k0vc","62865e3456c142785cfad2a7","freq_resp","img/orange_2bandit_b.png","70","70","test","","","","9","",""
"null","363429","pSARL_v2","pSARL_v2zus9k0vc","62865e3456c142785cfad2a7","fixation","img/fixation.png","null","","test","","","","","",""
"426","363862","pSARL_v2","pSARL_v2zus9k0vc","62865e3456c142785cfad2a7","freq","img/orange_2bandit_b2.png","70","70","test","1","211","211","9","",""
"null","364244","pSARL_v2","pSARL_v2zus9k0vc","62865e3456c142785cfad2a7","freq_resp","img/orange_2bandit_b.png","70","70","test","","","","9","",""
"null","364412","pSARL_v2","pSARL_v2zus9k0vc","62865e3456c142785cfad2a7","fixation","img/fixation.png","null","","test","","","","","",""
"427","364844","pSARL_v2","pSARL_v2zus9k0vc","62865e3456c142785cfad2a7","freq","img/orange_2bandit_b2.png","70","70","test","1","212","212","9","",""
"null","365237","pSARL_v2","pSARL_v2zus9k0vc","62865e3456c142785cfad2a7","freq_resp","img/orange_2bandit_b.png","70","70","test","","","","9","",""
