"rt","time_elapsed","expId","subject","prolificID","trialType","stimulus","key_press","corrresp","phase","corr","trialNum","attentionRunNum","blockNum","points","rlNum"
"15285.799999952316","15289","pSARL_v2","pSARL_v2p9c47up6","56efdf27bb24eb000b8244da","","","","","","","","","","",""
"","18469","pSARL_v2","pSARL_v2p9c47up6","56efdf27bb24eb000b8244da","fullscreen","","","","","","","","","",""
"39984.69999998808","58458","pSARL_v2","pSARL_v2p9c47up6","56efdf27bb24eb000b8244da","","","","","","","","","","",""
"769.8000000119209","59233","pSARL_v2","pSARL_v2p9c47up6","56efdf27bb24eb000b8244da","freqPrac","img/orange_2bandit_b2.png","70","70","prac","1","","","","",""
"769.8000000119209","59268","pSARL_v2","pSARL_v2p9c47up6","56efdf27bb24eb000b8244da","freqPrac_resp","img/orange_2bandit_b.png","70","70","prac","","","","","",""
"null","59426","pSARL_v2","pSARL_v2p9c47up6","56efdf27bb24eb000b8244da","fixation","img/fixation.png","null","","prac","","","","","",""
"642","60072","pSARL_v2","pSARL_v2p9c47up6","56efdf27bb24eb000b8244da","infreqPrac","img/green_2bandit_b2.png","68","68","prac","1","","","","",""
"642","60235","pSARL_v2","pSARL_v2p9c47up6","56efdf27bb24eb000b8244da","infreqPrac_resp","img/green_2bandit_b.png","68","68","prac","","","","","",""
"null","60395","pSARL_v2","pSARL_v2p9c47up6","56efdf27bb24eb000b8244da","fixation","img/fixation.png","null","","prac","","","","","",""
"602.3999999761581","61001","pSARL_v2","pSARL_v2p9c47up6","56efdf27bb24eb000b8244da","freqPrac","img/orange_2bandit_b2.png","70","70","prac","1","","","","",""
"602.3999999761581","61203","pSARL_v2","pSARL_v2p9c47up6","56efdf27bb24eb000b8244da","freqPrac_resp","img/orange_2bandit_b.png","70","70","prac","","","","","",""
"null","61365","pSARL_v2","pSARL_v2p9c47up6","56efdf27bb24eb000b8244da","fixation","img/fixation.png","null","","prac","","","","","",""
"null","62178","pSARL_v2","pSARL_v2p9c47up6","56efdf27bb24eb000b8244da","infreqPrac","img/green_2bandit_b2.png","null","68","prac","0","","","","",""
"null","63197","pSARL_v2","pSARL_v2p9c47up6","56efdf27bb24eb000b8244da","feedback","img/tooSlow.png","null","na","prac","","","","","",""
"null","63356","pSARL_v2","pSARL_v2p9c47up6","56efdf27bb24eb000b8244da","fixation","img/fixation.png","null","","prac","","","","","",""
"497","63858","pSARL_v2","pSARL_v2p9c47up6","56efdf27bb24eb000b8244da","infreqPrac","img/green_2bandit_b2.png","68","68","prac","1","","","","",""
"497","64171","pSARL_v2","pSARL_v2p9c47up6","56efdf27bb24eb000b8244da","infreqPrac_resp","img/green_2bandit_b.png","68","68","prac","","","","","",""
"null","64331","pSARL_v2","pSARL_v2p9c47up6","56efdf27bb24eb000b8244da","fixation","img/fixation.png","null","","prac","","","","","",""
"418.60000002384186","64753","pSARL_v2","pSARL_v2p9c47up6","56efdf27bb24eb000b8244da","infreqPrac","img/green_2bandit_b2.png","68","68","prac","1","","","","",""
"418.60000002384186","65137","pSARL_v2","pSARL_v2p9c47up6","56efdf27bb24eb000b8244da","infreqPrac_resp","img/green_2bandit_b.png","68","68","prac","","","","","",""
"null","65297","pSARL_v2","pSARL_v2p9c47up6","56efdf27bb24eb000b8244da","fixation","img/fixation.png","null","","prac","","","","","",""
"493.5999999642372","65797","pSARL_v2","pSARL_v2p9c47up6","56efdf27bb24eb000b8244da","freqPrac","img/orange_2bandit_b2.png","70","70","prac","1","","","","",""
"493.5999999642372","66113","pSARL_v2","pSARL_v2p9c47up6","56efdf27bb24eb000b8244da","freqPrac_resp","img/orange_2bandit_b.png","70","70","prac","","","","","",""
"null","66270","pSARL_v2","pSARL_v2p9c47up6","56efdf27bb24eb000b8244da","fixation","img/fixation.png","null","","prac","","","","","",""
"471.4000000357628","66746","pSARL_v2","pSARL_v2p9c47up6","56efdf27bb24eb000b8244da","infreqPrac","img/green_2bandit_b2.png","68","68","prac","1","","","","",""
"471.4000000357628","67080","pSARL_v2","pSARL_v2p9c47up6","56efdf27bb24eb000b8244da","infreqPrac_resp","img/green_2bandit_b.png","68","68","prac","","","","","",""
"null","67237","pSARL_v2","pSARL_v2p9c47up6","56efdf27bb24eb000b8244da","fixation","img/fixation.png","null","","prac","","","","","",""
"552.3000000119209","67794","pSARL_v2","pSARL_v2p9c47up6","56efdf27bb24eb000b8244da","freqPrac","img/orange_2bandit_b2.png","70","70","prac","1","","","","",""
"552.3000000119209","68054","pSARL_v2","pSARL_v2p9c47up6","56efdf27bb24eb000b8244da","freqPrac_resp","img/orange_2bandit_b.png","70","70","prac","","","","","",""
"null","68213","pSARL_v2","pSARL_v2p9c47up6","56efdf27bb24eb000b8244da","fixation","img/fixation.png","null","","prac","","","","","",""
"392.7000000476837","68612","pSARL_v2","pSARL_v2p9c47up6","56efdf27bb24eb000b8244da","freqPrac","img/orange_2bandit_b2.png","70","70","prac","1","","","","",""
"392.7000000476837","69032","pSARL_v2","pSARL_v2p9c47up6","56efdf27bb24eb000b8244da","freqPrac_resp","img/orange_2bandit_b.png","70","70","prac","","","","","",""
"null","69191","pSARL_v2","pSARL_v2p9c47up6","56efdf27bb24eb000b8244da","fixation","img/fixation.png","null","","prac","","","","","",""
"24126.400000035763","93321","pSARL_v2","pSARL_v2p9c47up6","56efdf27bb24eb000b8244da","","","","","prac","","","","","",""
"506.30000001192093","93832","pSARL_v2","pSARL_v2p9c47up6","56efdf27bb24eb000b8244da","rewardPractice","img/slot.png","74","","prac","","","","","",""
"null","94596","pSARL_v2","pSARL_v2p9c47up6","56efdf27bb24eb000b8244da","feedback","<div class=""veryhighPoints""> +15 </div>","null","na","prac","","","","","",""
"null","94756","pSARL_v2","pSARL_v2p9c47up6","56efdf27bb24eb000b8244da","fixation","img/fixation.png","null","","prac","","","","","",""
"11928.300000011921","106688","pSARL_v2","pSARL_v2p9c47up6","56efdf27bb24eb000b8244da","","","","","prac","","","","","",""
"611.8000000119209","107305","pSARL_v2","pSARL_v2p9c47up6","56efdf27bb24eb000b8244da","freq","img/orange_2bandit_b2.png","70","70","test","1","1","1","1","",""
"null","107501","pSARL_v2","pSARL_v2p9c47up6","56efdf27bb24eb000b8244da","freq_resp","img/orange_2bandit_b.png","70","70","test","","","","1","",""
"null","107662","pSARL_v2","pSARL_v2p9c47up6","56efdf27bb24eb000b8244da","fixation","img/fixation.png","null","","test","","","","","",""
"437.80000001192093","108104","pSARL_v2","pSARL_v2p9c47up6","56efdf27bb24eb000b8244da","freq","img/orange_2bandit_b2.png","70","70","test","1","2","2","1","",""
"null","108483","pSARL_v2","pSARL_v2p9c47up6","56efdf27bb24eb000b8244da","freq_resp","img/orange_2bandit_b.png","70","70","test","","","","1","",""
"null","108644","pSARL_v2","pSARL_v2p9c47up6","56efdf27bb24eb000b8244da","fixation","img/fixation.png","null","","test","","","","","",""
"409.10000002384186","109060","pSARL_v2","pSARL_v2p9c47up6","56efdf27bb24eb000b8244da","infreq","img/green_2bandit_b2.png","68","68","test","1","3","3","1","",""
"null","109463","pSARL_v2","pSARL_v2p9c47up6","56efdf27bb24eb000b8244da","infreq_resp","img/green_2bandit_b.png","68","68","test","","","","1","",""
"null","109618","pSARL_v2","pSARL_v2p9c47up6","56efdf27bb24eb000b8244da","fixation","img/fixation.png","null","","test","","","","","",""
"402.80000001192093","110027","pSARL_v2","pSARL_v2p9c47up6","56efdf27bb24eb000b8244da","freq","img/orange_2bandit_b2.png","70","70","test","1","4","4","1","",""
"null","110445","pSARL_v2","pSARL_v2p9c47up6","56efdf27bb24eb000b8244da","freq_resp","img/orange_2bandit_b.png","70","70","test","","","","1","",""
"null","110602","pSARL_v2","pSARL_v2p9c47up6","56efdf27bb24eb000b8244da","fixation","img/fixation.png","null","","test","","","","","",""
"339.10000002384186","110945","pSARL_v2","pSARL_v2p9c47up6","56efdf27bb24eb000b8244da","freq","img/orange_2bandit_b2.png","70","70","test","1","5","5","1","",""
"null","111411","pSARL_v2","pSARL_v2p9c47up6","56efdf27bb24eb000b8244da","freq_resp","img/orange_2bandit_b.png","70","70","test","","","","1","",""
"null","111568","pSARL_v2","pSARL_v2p9c47up6","56efdf27bb24eb000b8244da","fixation","img/fixation.png","null","","test","","","","","",""
"348.7999999523163","111920","pSARL_v2","pSARL_v2p9c47up6","56efdf27bb24eb000b8244da","freq","img/orange_2bandit_b2.png","70","70","test","1","6","6","1","",""
"null","112378","pSARL_v2","pSARL_v2p9c47up6","56efdf27bb24eb000b8244da","freq_resp","img/orange_2bandit_b.png","70","70","test","","","","1","",""
"null","112535","pSARL_v2","pSARL_v2p9c47up6","56efdf27bb24eb000b8244da","fixation","img/fixation.png","null","","test","","","","","",""
"333.89999997615814","112873","pSARL_v2","pSARL_v2p9c47up6","56efdf27bb24eb000b8244da","freq","img/orange_2bandit_b2.png","70","70","test","1","7","7","1","",""
"null","113346","pSARL_v2","pSARL_v2p9c47up6","56efdf27bb24eb000b8244da","freq_resp","img/orange_2bandit_b.png","70","70","test","","","","1","",""
"null","113502","pSARL_v2","pSARL_v2p9c47up6","56efdf27bb24eb000b8244da","fixation","img/fixation.png","null","","test","","","","","",""
"335","113842","pSARL_v2","pSARL_v2p9c47up6","56efdf27bb24eb000b8244da","freq","img/orange_2bandit_b2.png","70","70","test","1","8","8","1","",""
"null","114323","pSARL_v2","pSARL_v2p9c47up6","56efdf27bb24eb000b8244da","freq_resp","img/orange_2bandit_b.png","70","70","test","","","","1","",""
"null","114479","pSARL_v2","pSARL_v2p9c47up6","56efdf27bb24eb000b8244da","fixation","img/fixation.png","null","","test","","","","","",""
"310","114794","pSARL_v2","pSARL_v2p9c47up6","56efdf27bb24eb000b8244da","freq","img/orange_2bandit_b2.png","70","70","test","1","9","9","1","",""
"null","115303","pSARL_v2","pSARL_v2p9c47up6","56efdf27bb24eb000b8244da","freq_resp","img/orange_2bandit_b.png","70","70","test","","","","1","",""
"null","115463","pSARL_v2","pSARL_v2p9c47up6","56efdf27bb24eb000b8244da","fixation","img/fixation.png","null","","test","","","","","",""
"326.69999998807907","115796","pSARL_v2","pSARL_v2p9c47up6","56efdf27bb24eb000b8244da","freq","img/orange_2bandit_b2.png","70","70","test","1","10","10","1","",""
"null","116287","pSARL_v2","pSARL_v2p9c47up6","56efdf27bb24eb000b8244da","freq_resp","img/orange_2bandit_b.png","70","70","test","","","","1","",""
"null","116446","pSARL_v2","pSARL_v2p9c47up6","56efdf27bb24eb000b8244da","fixation","img/fixation.png","null","","test","","","","","",""
"294.5999999642372","116745","pSARL_v2","pSARL_v2p9c47up6","56efdf27bb24eb000b8244da","freq","img/orange_2bandit_b2.png","70","70","test","1","11","11","1","",""
"null","117257","pSARL_v2","pSARL_v2p9c47up6","56efdf27bb24eb000b8244da","freq_resp","img/orange_2bandit_b.png","70","70","test","","","","1","",""
"null","117412","pSARL_v2","pSARL_v2p9c47up6","56efdf27bb24eb000b8244da","fixation","img/fixation.png","null","","test","","","","","",""
"320.60000002384186","117736","pSARL_v2","pSARL_v2p9c47up6","56efdf27bb24eb000b8244da","freq","img/orange_2bandit_b2.png","70","70","test","1","12","12","1","",""
"null","118234","pSARL_v2","pSARL_v2p9c47up6","56efdf27bb24eb000b8244da","freq_resp","img/orange_2bandit_b.png","70","70","test","","","","1","",""
"null","118395","pSARL_v2","pSARL_v2p9c47up6","56efdf27bb24eb000b8244da","fixation","img/fixation.png","null","","test","","","","","",""
"329.30000001192093","118729","pSARL_v2","pSARL_v2p9c47up6","56efdf27bb24eb000b8244da","infreq","img/green_2bandit_b2.png","70","68","test","0","13","13","1","",""
"null","119208","pSARL_v2","pSARL_v2p9c47up6","56efdf27bb24eb000b8244da","infreq_resp","img/green_2bandit_b.png","70","68","test","","","","1","",""
"null","119364","pSARL_v2","pSARL_v2p9c47up6","56efdf27bb24eb000b8244da","fixation","img/fixation.png","null","","test","","","","","",""
"432.89999997615814","119800","pSARL_v2","pSARL_v2p9c47up6","56efdf27bb24eb000b8244da","freq","img/orange_2bandit_b2.png","70","70","test","1","14","14","1","",""
"null","120184","pSARL_v2","pSARL_v2p9c47up6","56efdf27bb24eb000b8244da","freq_resp","img/orange_2bandit_b.png","70","70","test","","","","1","",""
"null","120345","pSARL_v2","pSARL_v2p9c47up6","56efdf27bb24eb000b8244da","fixation","img/fixation.png","null","","test","","","","","",""
"379.9000000357628","120729","pSARL_v2","pSARL_v2p9c47up6","56efdf27bb24eb000b8244da","freq","img/orange_2bandit_b2.png","70","70","test","1","15","15","1","",""
"null","121154","pSARL_v2","pSARL_v2p9c47up6","56efdf27bb24eb000b8244da","freq_resp","img/orange_2bandit_b.png","70","70","test","","","","1","",""
"null","121312","pSARL_v2","pSARL_v2p9c47up6","56efdf27bb24eb000b8244da","fixation","img/fixation.png","null","","test","","","","","",""
"404.80000001192093","121720","pSARL_v2","pSARL_v2p9c47up6","56efdf27bb24eb000b8244da","freq","img/orange_2bandit_b2.png","70","70","test","1","16","16","1","",""
"null","122132","pSARL_v2","pSARL_v2p9c47up6","56efdf27bb24eb000b8244da","freq_resp","img/orange_2bandit_b.png","70","70","test","","","","1","",""
"null","122292","pSARL_v2","pSARL_v2p9c47up6","56efdf27bb24eb000b8244da","fixation","img/fixation.png","null","","test","","","","","",""
"416.4000000357628","122712","pSARL_v2","pSARL_v2p9c47up6","56efdf27bb24eb000b8244da","freq","img/orange_2bandit_b2.png","70","70","test","1","17","17","1","",""
"null","123113","pSARL_v2","pSARL_v2p9c47up6","56efdf27bb24eb000b8244da","freq_resp","img/orange_2bandit_b.png","70","70","test","","","","1","",""
"null","123272","pSARL_v2","pSARL_v2p9c47up6","56efdf27bb24eb000b8244da","fixation","img/fixation.png","null","","test","","","","","",""
"755.8999999761581","124032","pSARL_v2","pSARL_v2p9c47up6","56efdf27bb24eb000b8244da","freq","img/orange_2bandit_b2.png","70","70","test","1","18","18","1","",""
"null","124086","pSARL_v2","pSARL_v2p9c47up6","56efdf27bb24eb000b8244da","freq_resp","img/orange_2bandit_b.png","70","70","test","","","","1","",""
"null","124246","pSARL_v2","pSARL_v2p9c47up6","56efdf27bb24eb000b8244da","fixation","img/fixation.png","null","","test","","","","","",""
"550.6999999880791","124800","pSARL_v2","pSARL_v2p9c47up6","56efdf27bb24eb000b8244da","freq","img/orange_2bandit_b2.png","70","70","test","1","19","19","1","",""
"null","125054","pSARL_v2","pSARL_v2p9c47up6","56efdf27bb24eb000b8244da","freq_resp","img/orange_2bandit_b.png","70","70","test","","","","1","",""
"null","125212","pSARL_v2","pSARL_v2p9c47up6","56efdf27bb24eb000b8244da","fixation","img/fixation.png","null","","test","","","","","",""
"665.0999999642372","125880","pSARL_v2","pSARL_v2p9c47up6","56efdf27bb24eb000b8244da","reward","img/slot.png","74","","test","","","","","",""
"null","126647","pSARL_v2","pSARL_v2p9c47up6","56efdf27bb24eb000b8244da","points","<div class=""verylowPoints""> -6 </div>","null","na","test","","","","1","-6","0"
"773.1999999880791","127428","pSARL_v2","pSARL_v2p9c47up6","56efdf27bb24eb000b8244da","freq","img/orange_2bandit_b2.png","70","70","test","1","20","20","2","",""
"null","127460","pSARL_v2","pSARL_v2p9c47up6","56efdf27bb24eb000b8244da","freq_resp","img/orange_2bandit_b.png","70","70","test","","","","2","",""
"null","127623","pSARL_v2","pSARL_v2p9c47up6","56efdf27bb24eb000b8244da","fixation","img/fixation.png","null","","test","","","","","",""
"404.89999997615814","128032","pSARL_v2","pSARL_v2p9c47up6","56efdf27bb24eb000b8244da","freq","img/orange_2bandit_b2.png","70","70","test","1","21","21","2","",""
"null","128444","pSARL_v2","pSARL_v2p9c47up6","56efdf27bb24eb000b8244da","freq_resp","img/orange_2bandit_b.png","70","70","test","","","","2","",""
"null","128601","pSARL_v2","pSARL_v2p9c47up6","56efdf27bb24eb000b8244da","fixation","img/fixation.png","null","","test","","","","","",""
"355.5","128961","pSARL_v2","pSARL_v2p9c47up6","56efdf27bb24eb000b8244da","freq","img/orange_2bandit_b2.png","70","70","test","1","22","22","2","",""
"null","129421","pSARL_v2","pSARL_v2p9c47up6","56efdf27bb24eb000b8244da","freq_resp","img/orange_2bandit_b.png","70","70","test","","","","2","",""
"null","129579","pSARL_v2","pSARL_v2p9c47up6","56efdf27bb24eb000b8244da","fixation","img/fixation.png","null","","test","","","","","",""
"345.89999997615814","129929","pSARL_v2","pSARL_v2p9c47up6","56efdf27bb24eb000b8244da","freq","img/orange_2bandit_b2.png","70","70","test","1","23","23","2","",""
"null","130395","pSARL_v2","pSARL_v2p9c47up6","56efdf27bb24eb000b8244da","freq_resp","img/orange_2bandit_b.png","70","70","test","","","","2","",""
"null","130565","pSARL_v2","pSARL_v2p9c47up6","56efdf27bb24eb000b8244da","fixation","img/fixation.png","null","","test","","","","","",""
"360","130929","pSARL_v2","pSARL_v2p9c47up6","56efdf27bb24eb000b8244da","freq","img/orange_2bandit_b2.png","70","70","test","1","24","24","2","",""
"null","131386","pSARL_v2","pSARL_v2p9c47up6","56efdf27bb24eb000b8244da","freq_resp","img/orange_2bandit_b.png","70","70","test","","","","2","",""
"null","131557","pSARL_v2","pSARL_v2p9c47up6","56efdf27bb24eb000b8244da","fixation","img/fixation.png","null","","test","","","","","",""
"383.69999998807907","131946","pSARL_v2","pSARL_v2p9c47up6","56efdf27bb24eb000b8244da","freq","img/orange_2bandit_b2.png","70","70","test","1","25","25","2","",""
"null","132370","pSARL_v2","pSARL_v2p9c47up6","56efdf27bb24eb000b8244da","freq_resp","img/orange_2bandit_b.png","70","70","test","","","","2","",""
"null","132531","pSARL_v2","pSARL_v2p9c47up6","56efdf27bb24eb000b8244da","fixation","img/fixation.png","null","","test","","","","","",""
"362.30000001192093","132897","pSARL_v2","pSARL_v2p9c47up6","56efdf27bb24eb000b8244da","freq","img/orange_2bandit_b2.png","70","70","test","1","26","26","2","",""
"null","133342","pSARL_v2","pSARL_v2p9c47up6","56efdf27bb24eb000b8244da","freq_resp","img/orange_2bandit_b.png","70","70","test","","","","2","",""
"null","133511","pSARL_v2","pSARL_v2p9c47up6","56efdf27bb24eb000b8244da","fixation","img/fixation.png","null","","test","","","","","",""
"373.10000002384186","133889","pSARL_v2","pSARL_v2p9c47up6","56efdf27bb24eb000b8244da","freq","img/orange_2bandit_b2.png","70","70","test","1","27","27","2","",""
"null","134329","pSARL_v2","pSARL_v2p9c47up6","56efdf27bb24eb000b8244da","freq_resp","img/orange_2bandit_b.png","70","70","test","","","","2","",""
"null","134486","pSARL_v2","pSARL_v2p9c47up6","56efdf27bb24eb000b8244da","fixation","img/fixation.png","null","","test","","","","","",""
"358.5","134849","pSARL_v2","pSARL_v2p9c47up6","56efdf27bb24eb000b8244da","freq","img/orange_2bandit_b2.png","70","70","test","1","28","28","2","",""
"null","135295","pSARL_v2","pSARL_v2p9c47up6","56efdf27bb24eb000b8244da","freq_resp","img/orange_2bandit_b.png","70","70","test","","","","2","",""
"null","135450","pSARL_v2","pSARL_v2p9c47up6","56efdf27bb24eb000b8244da","fixation","img/fixation.png","null","","test","","","","","",""
"450.30000001192093","135905","pSARL_v2","pSARL_v2p9c47up6","56efdf27bb24eb000b8244da","freq","img/orange_2bandit_b2.png","70","70","test","1","29","29","2","",""
"null","136274","pSARL_v2","pSARL_v2p9c47up6","56efdf27bb24eb000b8244da","freq_resp","img/orange_2bandit_b.png","70","70","test","","","","2","",""
"null","136431","pSARL_v2","pSARL_v2p9c47up6","56efdf27bb24eb000b8244da","fixation","img/fixation.png","null","","test","","","","","",""
"333.2999999523163","136768","pSARL_v2","pSARL_v2p9c47up6","56efdf27bb24eb000b8244da","freq","img/orange_2bandit_b2.png","70","70","test","1","30","30","2","",""
"null","137252","pSARL_v2","pSARL_v2p9c47up6","56efdf27bb24eb000b8244da","freq_resp","img/orange_2bandit_b.png","70","70","test","","","","2","",""
"null","137411","pSARL_v2","pSARL_v2p9c47up6","56efdf27bb24eb000b8244da","fixation","img/fixation.png","null","","test","","","","","",""
"378.19999998807907","137794","pSARL_v2","pSARL_v2p9c47up6","56efdf27bb24eb000b8244da","freq","img/orange_2bandit_b2.png","70","70","test","1","31","31","2","",""
"null","138226","pSARL_v2","pSARL_v2p9c47up6","56efdf27bb24eb000b8244da","freq_resp","img/orange_2bandit_b.png","70","70","test","","","","2","",""
"null","138384","pSARL_v2","pSARL_v2p9c47up6","56efdf27bb24eb000b8244da","fixation","img/fixation.png","null","","test","","","","","",""
"405.2000000476837","138796","pSARL_v2","pSARL_v2p9c47up6","56efdf27bb24eb000b8244da","freq","img/orange_2bandit_b2.png","70","70","test","1","32","32","2","",""
"null","139210","pSARL_v2","pSARL_v2p9c47up6","56efdf27bb24eb000b8244da","freq_resp","img/orange_2bandit_b.png","70","70","test","","","","2","",""
"null","139368","pSARL_v2","pSARL_v2p9c47up6","56efdf27bb24eb000b8244da","fixation","img/fixation.png","null","","test","","","","","",""
"484.69999998807907","139860","pSARL_v2","pSARL_v2p9c47up6","56efdf27bb24eb000b8244da","infreq","img/green_2bandit_b2.png","68","68","test","1","33","33","2","",""
"null","140192","pSARL_v2","pSARL_v2p9c47up6","56efdf27bb24eb000b8244da","infreq_resp","img/green_2bandit_b.png","68","68","test","","","","2","",""
"null","140348","pSARL_v2","pSARL_v2p9c47up6","56efdf27bb24eb000b8244da","fixation","img/fixation.png","null","","test","","","","","",""
"400.5","140752","pSARL_v2","pSARL_v2p9c47up6","56efdf27bb24eb000b8244da","freq","img/orange_2bandit_b2.png","70","70","test","1","34","34","2","",""
"null","141174","pSARL_v2","pSARL_v2p9c47up6","56efdf27bb24eb000b8244da","freq_resp","img/orange_2bandit_b.png","70","70","test","","","","2","",""
"null","141329","pSARL_v2","pSARL_v2p9c47up6","56efdf27bb24eb000b8244da","fixation","img/fixation.png","null","","test","","","","","",""
"420","141752","pSARL_v2","pSARL_v2p9c47up6","56efdf27bb24eb000b8244da","freq","img/orange_2bandit_b2.png","70","70","test","1","35","35","2","",""
"null","142144","pSARL_v2","pSARL_v2p9c47up6","56efdf27bb24eb000b8244da","freq_resp","img/orange_2bandit_b.png","70","70","test","","","","2","",""
"null","142313","pSARL_v2","pSARL_v2p9c47up6","56efdf27bb24eb000b8244da","fixation","img/fixation.png","null","","test","","","","","",""
"547.5","142864","pSARL_v2","pSARL_v2p9c47up6","56efdf27bb24eb000b8244da","freq","img/orange_2bandit_b2.png","70","70","test","1","36","36","2","",""
"null","143121","pSARL_v2","pSARL_v2p9c47up6","56efdf27bb24eb000b8244da","freq_resp","img/orange_2bandit_b.png","70","70","test","","","","2","",""
"null","143279","pSARL_v2","pSARL_v2p9c47up6","56efdf27bb24eb000b8244da","fixation","img/fixation.png","null","","test","","","","","",""
"349.19999998807907","143632","pSARL_v2","pSARL_v2p9c47up6","56efdf27bb24eb000b8244da","freq","img/orange_2bandit_b2.png","70","70","test","1","37","37","2","",""
"null","144099","pSARL_v2","pSARL_v2p9c47up6","56efdf27bb24eb000b8244da","freq_resp","img/orange_2bandit_b.png","70","70","test","","","","2","",""
"null","144259","pSARL_v2","pSARL_v2p9c47up6","56efdf27bb24eb000b8244da","fixation","img/fixation.png","null","","test","","","","","",""
"442","144705","pSARL_v2","pSARL_v2p9c47up6","56efdf27bb24eb000b8244da","infreq","img/green_2bandit_b2.png","70","68","test","0","38","38","2","",""
"null","145082","pSARL_v2","pSARL_v2p9c47up6","56efdf27bb24eb000b8244da","infreq_resp","img/green_2bandit_b.png","70","68","test","","","","2","",""
"null","145244","pSARL_v2","pSARL_v2p9c47up6","56efdf27bb24eb000b8244da","fixation","img/fixation.png","null","","test","","","","","",""
"496.69999998807907","145745","pSARL_v2","pSARL_v2p9c47up6","56efdf27bb24eb000b8244da","freq","img/orange_2bandit_b2.png","70","70","test","1","39","39","2","",""
"null","146061","pSARL_v2","pSARL_v2p9c47up6","56efdf27bb24eb000b8244da","freq_resp","img/orange_2bandit_b.png","70","70","test","","","","2","",""
"null","146221","pSARL_v2","pSARL_v2p9c47up6","56efdf27bb24eb000b8244da","fixation","img/fixation.png","null","","test","","","","","",""
"384.60000002384186","146610","pSARL_v2","pSARL_v2p9c47up6","56efdf27bb24eb000b8244da","freq","img/orange_2bandit_b2.png","70","70","test","1","40","40","2","",""
"null","147044","pSARL_v2","pSARL_v2p9c47up6","56efdf27bb24eb000b8244da","freq_resp","img/orange_2bandit_b.png","70","70","test","","","","2","",""
"null","147201","pSARL_v2","pSARL_v2p9c47up6","56efdf27bb24eb000b8244da","fixation","img/fixation.png","null","","test","","","","","",""
"380.89999997615814","147586","pSARL_v2","pSARL_v2p9c47up6","56efdf27bb24eb000b8244da","freq","img/orange_2bandit_b2.png","70","70","test","1","41","41","2","",""
"null","148016","pSARL_v2","pSARL_v2p9c47up6","56efdf27bb24eb000b8244da","freq_resp","img/orange_2bandit_b.png","70","70","test","","","","2","",""
"null","148179","pSARL_v2","pSARL_v2p9c47up6","56efdf27bb24eb000b8244da","fixation","img/fixation.png","null","","test","","","","","",""
"337.9000000357628","148521","pSARL_v2","pSARL_v2p9c47up6","56efdf27bb24eb000b8244da","freq","img/orange_2bandit_b2.png","70","70","test","1","42","42","2","",""
"null","148996","pSARL_v2","pSARL_v2p9c47up6","56efdf27bb24eb000b8244da","freq_resp","img/orange_2bandit_b.png","70","70","test","","","","2","",""
"null","149153","pSARL_v2","pSARL_v2p9c47up6","56efdf27bb24eb000b8244da","fixation","img/fixation.png","null","","test","","","","","",""
"315.10000002384186","149474","pSARL_v2","pSARL_v2p9c47up6","56efdf27bb24eb000b8244da","freq","img/orange_2bandit_b2.png","70","70","test","1","43","43","2","",""
"null","149963","pSARL_v2","pSARL_v2p9c47up6","56efdf27bb24eb000b8244da","freq_resp","img/orange_2bandit_b.png","70","70","test","","","","2","",""
"null","150122","pSARL_v2","pSARL_v2p9c47up6","56efdf27bb24eb000b8244da","fixation","img/fixation.png","null","","test","","","","","",""
"338.30000001192093","150464","pSARL_v2","pSARL_v2p9c47up6","56efdf27bb24eb000b8244da","freq","img/orange_2bandit_b2.png","70","70","test","1","44","44","2","",""
"null","150944","pSARL_v2","pSARL_v2p9c47up6","56efdf27bb24eb000b8244da","freq_resp","img/orange_2bandit_b.png","70","70","test","","","","2","",""
"null","151101","pSARL_v2","pSARL_v2p9c47up6","56efdf27bb24eb000b8244da","fixation","img/fixation.png","null","","test","","","","","",""
"320.5","151426","pSARL_v2","pSARL_v2p9c47up6","56efdf27bb24eb000b8244da","freq","img/orange_2bandit_b2.png","70","70","test","1","45","45","2","",""
"null","151912","pSARL_v2","pSARL_v2p9c47up6","56efdf27bb24eb000b8244da","freq_resp","img/orange_2bandit_b.png","70","70","test","","","","2","",""
"null","152070","pSARL_v2","pSARL_v2p9c47up6","56efdf27bb24eb000b8244da","fixation","img/fixation.png","null","","test","","","","","",""
"830.8000000119209","152906","pSARL_v2","pSARL_v2p9c47up6","56efdf27bb24eb000b8244da","reward","img/slot.png","74","","test","","","","","",""
"null","153672","pSARL_v2","pSARL_v2p9c47up6","56efdf27bb24eb000b8244da","points","<div class=""verylowPoints""> -11 </div>","null","na","test","","","","2","-11","1"
"676.3000000119209","154352","pSARL_v2","pSARL_v2p9c47up6","56efdf27bb24eb000b8244da","freq","img/orange_2bandit_b2.png","70","70","test","1","46","46","3","",""
"null","154493","pSARL_v2","pSARL_v2p9c47up6","56efdf27bb24eb000b8244da","freq_resp","img/orange_2bandit_b.png","70","70","test","","","","3","",""
"null","154648","pSARL_v2","pSARL_v2p9c47up6","56efdf27bb24eb000b8244da","fixation","img/fixation.png","null","","test","","","","","",""
"428.7000000476837","155080","pSARL_v2","pSARL_v2p9c47up6","56efdf27bb24eb000b8244da","freq","img/orange_2bandit_b2.png","70","70","test","1","47","47","3","",""
"null","155462","pSARL_v2","pSARL_v2p9c47up6","56efdf27bb24eb000b8244da","freq_resp","img/orange_2bandit_b.png","70","70","test","","","","3","",""
"null","155620","pSARL_v2","pSARL_v2p9c47up6","56efdf27bb24eb000b8244da","fixation","img/fixation.png","null","","test","","","","","",""
"504.5","156129","pSARL_v2","pSARL_v2p9c47up6","56efdf27bb24eb000b8244da","freq","img/orange_2bandit_b2.png","70","70","test","1","48","48","3","",""
"null","156441","pSARL_v2","pSARL_v2p9c47up6","56efdf27bb24eb000b8244da","freq_resp","img/orange_2bandit_b.png","70","70","test","","","","3","",""
"null","156595","pSARL_v2","pSARL_v2p9c47up6","56efdf27bb24eb000b8244da","fixation","img/fixation.png","null","","test","","","","","",""
"385.5","156984","pSARL_v2","pSARL_v2p9c47up6","56efdf27bb24eb000b8244da","freq","img/orange_2bandit_b2.png","70","70","test","1","49","49","3","",""
"null","157404","pSARL_v2","pSARL_v2p9c47up6","56efdf27bb24eb000b8244da","freq_resp","img/orange_2bandit_b.png","70","70","test","","","","3","",""
"null","157562","pSARL_v2","pSARL_v2p9c47up6","56efdf27bb24eb000b8244da","fixation","img/fixation.png","null","","test","","","","","",""
"314","157880","pSARL_v2","pSARL_v2p9c47up6","56efdf27bb24eb000b8244da","freq","img/orange_2bandit_b2.png","70","70","test","1","50","50","3","",""
"null","158383","pSARL_v2","pSARL_v2p9c47up6","56efdf27bb24eb000b8244da","freq_resp","img/orange_2bandit_b.png","70","70","test","","","","3","",""
"null","158541","pSARL_v2","pSARL_v2p9c47up6","56efdf27bb24eb000b8244da","fixation","img/fixation.png","null","","test","","","","","",""
"447.5","158993","pSARL_v2","pSARL_v2p9c47up6","56efdf27bb24eb000b8244da","infreq","img/green_2bandit_b2.png","68","68","test","1","51","51","3","",""
"null","159360","pSARL_v2","pSARL_v2p9c47up6","56efdf27bb24eb000b8244da","infreq_resp","img/green_2bandit_b.png","68","68","test","","","","3","",""
"null","159530","pSARL_v2","pSARL_v2p9c47up6","56efdf27bb24eb000b8244da","fixation","img/fixation.png","null","","test","","","","","",""
"411","159945","pSARL_v2","pSARL_v2p9c47up6","56efdf27bb24eb000b8244da","freq","img/orange_2bandit_b2.png","70","70","test","1","52","52","3","",""
"null","160351","pSARL_v2","pSARL_v2p9c47up6","56efdf27bb24eb000b8244da","freq_resp","img/orange_2bandit_b.png","70","70","test","","","","3","",""
"null","160511","pSARL_v2","pSARL_v2p9c47up6","56efdf27bb24eb000b8244da","fixation","img/fixation.png","null","","test","","","","","",""
"349.39999997615814","160864","pSARL_v2","pSARL_v2p9c47up6","56efdf27bb24eb000b8244da","freq","img/orange_2bandit_b2.png","70","70","test","1","53","53","3","",""
"null","161331","pSARL_v2","pSARL_v2p9c47up6","56efdf27bb24eb000b8244da","freq_resp","img/orange_2bandit_b.png","70","70","test","","","","3","",""
"null","161490","pSARL_v2","pSARL_v2p9c47up6","56efdf27bb24eb000b8244da","fixation","img/fixation.png","null","","test","","","","","",""
"331","161827","pSARL_v2","pSARL_v2p9c47up6","56efdf27bb24eb000b8244da","freq","img/orange_2bandit_b2.png","70","70","test","1","54","54","3","",""
"null","162308","pSARL_v2","pSARL_v2p9c47up6","56efdf27bb24eb000b8244da","freq_resp","img/orange_2bandit_b.png","70","70","test","","","","3","",""
"null","162466","pSARL_v2","pSARL_v2p9c47up6","56efdf27bb24eb000b8244da","fixation","img/fixation.png","null","","test","","","","","",""
"298.30000001192093","162768","pSARL_v2","pSARL_v2p9c47up6","56efdf27bb24eb000b8244da","freq","img/orange_2bandit_b2.png","70","70","test","1","55","55","3","",""
"null","163281","pSARL_v2","pSARL_v2p9c47up6","56efdf27bb24eb000b8244da","freq_resp","img/orange_2bandit_b.png","70","70","test","","","","3","",""
"null","163442","pSARL_v2","pSARL_v2p9c47up6","56efdf27bb24eb000b8244da","fixation","img/fixation.png","null","","test","","","","","",""
"354","163800","pSARL_v2","pSARL_v2p9c47up6","56efdf27bb24eb000b8244da","freq","img/orange_2bandit_b2.png","70","70","test","1","56","56","3","",""
"null","164264","pSARL_v2","pSARL_v2p9c47up6","56efdf27bb24eb000b8244da","freq_resp","img/orange_2bandit_b.png","70","70","test","","","","3","",""
"null","164424","pSARL_v2","pSARL_v2p9c47up6","56efdf27bb24eb000b8244da","fixation","img/fixation.png","null","","test","","","","","",""
"428.9000000357628","164858","pSARL_v2","pSARL_v2p9c47up6","56efdf27bb24eb000b8244da","freq","img/orange_2bandit_b2.png","70","70","test","1","57","57","3","",""
"null","165244","pSARL_v2","pSARL_v2p9c47up6","56efdf27bb24eb000b8244da","freq_resp","img/orange_2bandit_b.png","70","70","test","","","","3","",""
"null","165414","pSARL_v2","pSARL_v2p9c47up6","56efdf27bb24eb000b8244da","fixation","img/fixation.png","null","","test","","","","","",""
"366.5","165784","pSARL_v2","pSARL_v2p9c47up6","56efdf27bb24eb000b8244da","freq","img/orange_2bandit_b2.png","70","70","test","1","58","58","3","",""
"null","166226","pSARL_v2","pSARL_v2p9c47up6","56efdf27bb24eb000b8244da","freq_resp","img/orange_2bandit_b.png","70","70","test","","","","3","",""
"null","166383","pSARL_v2","pSARL_v2p9c47up6","56efdf27bb24eb000b8244da","fixation","img/fixation.png","null","","test","","","","","",""
"501.19999998807907","166890","pSARL_v2","pSARL_v2p9c47up6","56efdf27bb24eb000b8244da","freq","img/orange_2bandit_b2.png","70","70","test","1","59","59","3","",""
"null","167194","pSARL_v2","pSARL_v2p9c47up6","56efdf27bb24eb000b8244da","freq_resp","img/orange_2bandit_b.png","70","70","test","","","","3","",""
"null","167350","pSARL_v2","pSARL_v2p9c47up6","56efdf27bb24eb000b8244da","fixation","img/fixation.png","null","","test","","","","","",""
"549.9000000357628","167905","pSARL_v2","pSARL_v2p9c47up6","56efdf27bb24eb000b8244da","freq","img/orange_2bandit_b2.png","70","70","test","1","60","60","3","",""
"null","168162","pSARL_v2","pSARL_v2p9c47up6","56efdf27bb24eb000b8244da","freq_resp","img/orange_2bandit_b.png","70","70","test","","","","3","",""
"null","168319","pSARL_v2","pSARL_v2p9c47up6","56efdf27bb24eb000b8244da","fixation","img/fixation.png","null","","test","","","","","",""
"502.10000002384186","168828","pSARL_v2","pSARL_v2p9c47up6","56efdf27bb24eb000b8244da","infreq","img/green_2bandit_b2.png","68","68","test","1","61","61","3","",""
"null","169129","pSARL_v2","pSARL_v2p9c47up6","56efdf27bb24eb000b8244da","infreq_resp","img/green_2bandit_b.png","68","68","test","","","","3","",""
"null","169291","pSARL_v2","pSARL_v2p9c47up6","56efdf27bb24eb000b8244da","fixation","img/fixation.png","null","","test","","","","","",""
"520.6999999880791","169816","pSARL_v2","pSARL_v2p9c47up6","56efdf27bb24eb000b8244da","freq","img/orange_2bandit_b2.png","70","70","test","1","62","62","3","",""
"null","170110","pSARL_v2","pSARL_v2p9c47up6","56efdf27bb24eb000b8244da","freq_resp","img/orange_2bandit_b.png","70","70","test","","","","3","",""
"null","170268","pSARL_v2","pSARL_v2p9c47up6","56efdf27bb24eb000b8244da","fixation","img/fixation.png","null","","test","","","","","",""
"408.39999997615814","170680","pSARL_v2","pSARL_v2p9c47up6","56efdf27bb24eb000b8244da","freq","img/orange_2bandit_b2.png","70","70","test","1","63","63","3","",""
"null","171092","pSARL_v2","pSARL_v2p9c47up6","56efdf27bb24eb000b8244da","freq_resp","img/orange_2bandit_b.png","70","70","test","","","","3","",""
"null","171247","pSARL_v2","pSARL_v2p9c47up6","56efdf27bb24eb000b8244da","fixation","img/fixation.png","null","","test","","","","","",""
"375.19999998807907","171629","pSARL_v2","pSARL_v2p9c47up6","56efdf27bb24eb000b8244da","freq","img/orange_2bandit_b2.png","70","70","test","1","64","64","3","",""
"null","172062","pSARL_v2","pSARL_v2p9c47up6","56efdf27bb24eb000b8244da","freq_resp","img/orange_2bandit_b.png","70","70","test","","","","3","",""
"null","172222","pSARL_v2","pSARL_v2p9c47up6","56efdf27bb24eb000b8244da","fixation","img/fixation.png","null","","test","","","","","",""
"343.19999998807907","172569","pSARL_v2","pSARL_v2p9c47up6","56efdf27bb24eb000b8244da","freq","img/orange_2bandit_b2.png","70","70","test","1","65","65","3","",""
"null","173042","pSARL_v2","pSARL_v2p9c47up6","56efdf27bb24eb000b8244da","freq_resp","img/orange_2bandit_b.png","70","70","test","","","","3","",""
"null","173196","pSARL_v2","pSARL_v2p9c47up6","56efdf27bb24eb000b8244da","fixation","img/fixation.png","null","","test","","","","","",""
"424.19999998807907","173627","pSARL_v2","pSARL_v2p9c47up6","56efdf27bb24eb000b8244da","freq","img/orange_2bandit_b2.png","70","70","test","1","66","66","3","",""
"null","174010","pSARL_v2","pSARL_v2p9c47up6","56efdf27bb24eb000b8244da","freq_resp","img/orange_2bandit_b.png","70","70","test","","","","3","",""
"null","174169","pSARL_v2","pSARL_v2p9c47up6","56efdf27bb24eb000b8244da","fixation","img/fixation.png","null","","test","","","","","",""
"611.1999999880791","174785","pSARL_v2","pSARL_v2p9c47up6","56efdf27bb24eb000b8244da","reward","img/slot.png","74","","test","","","","","",""
"null","175545","pSARL_v2","pSARL_v2p9c47up6","56efdf27bb24eb000b8244da","points","<div class=""verylowPoints""> -7 </div>","null","na","test","","","","3","-7","2"
"500.0999999642372","176049","pSARL_v2","pSARL_v2p9c47up6","56efdf27bb24eb000b8244da","freq","img/orange_2bandit_b2.png","70","70","test","1","67","67","4","",""
"null","176366","pSARL_v2","pSARL_v2p9c47up6","56efdf27bb24eb000b8244da","freq_resp","img/orange_2bandit_b.png","70","70","test","","","","4","",""
"null","176525","pSARL_v2","pSARL_v2p9c47up6","56efdf27bb24eb000b8244da","fixation","img/fixation.png","null","","test","","","","","",""
"463.4000000357628","176994","pSARL_v2","pSARL_v2p9c47up6","56efdf27bb24eb000b8244da","freq","img/orange_2bandit_b2.png","70","70","test","1","68","68","4","",""
"null","177345","pSARL_v2","pSARL_v2p9c47up6","56efdf27bb24eb000b8244da","freq_resp","img/orange_2bandit_b.png","70","70","test","","","","4","",""
"null","177506","pSARL_v2","pSARL_v2p9c47up6","56efdf27bb24eb000b8244da","fixation","img/fixation.png","null","","test","","","","","",""
"579.3999999761581","178091","pSARL_v2","pSARL_v2p9c47up6","56efdf27bb24eb000b8244da","freq","img/orange_2bandit_b2.png","70","70","test","1","69","69","4","",""
"null","178320","pSARL_v2","pSARL_v2p9c47up6","56efdf27bb24eb000b8244da","freq_resp","img/orange_2bandit_b.png","70","70","test","","","","4","",""
"null","178479","pSARL_v2","pSARL_v2p9c47up6","56efdf27bb24eb000b8244da","fixation","img/fixation.png","null","","test","","","","","",""
"518.0999999642372","179001","pSARL_v2","pSARL_v2p9c47up6","56efdf27bb24eb000b8244da","freq","img/orange_2bandit_b2.png","70","70","test","1","70","70","4","",""
"null","179287","pSARL_v2","pSARL_v2p9c47up6","56efdf27bb24eb000b8244da","freq_resp","img/orange_2bandit_b.png","70","70","test","","","","4","",""
"null","179446","pSARL_v2","pSARL_v2p9c47up6","56efdf27bb24eb000b8244da","fixation","img/fixation.png","null","","test","","","","","",""
"727.1999999880791","180178","pSARL_v2","pSARL_v2p9c47up6","56efdf27bb24eb000b8244da","freq","img/orange_2bandit_b2.png","70","70","test","1","71","71","4","",""
"null","180257","pSARL_v2","pSARL_v2p9c47up6","56efdf27bb24eb000b8244da","freq_resp","img/orange_2bandit_b.png","70","70","test","","","","4","",""
"null","180412","pSARL_v2","pSARL_v2p9c47up6","56efdf27bb24eb000b8244da","fixation","img/fixation.png","null","","test","","","","","",""
"null","181230","pSARL_v2","pSARL_v2p9c47up6","56efdf27bb24eb000b8244da","freq","img/orange_2bandit_b2.png","null","70","test","0","72","72","4","",""
"null","181391","pSARL_v2","pSARL_v2p9c47up6","56efdf27bb24eb000b8244da","fixation","img/fixation.png","null","","test","","","","","",""
"773.0999999642372","182168","pSARL_v2","pSARL_v2p9c47up6","56efdf27bb24eb000b8244da","freq","img/orange_2bandit_b2.png","70","70","test","1","73","73","4","",""
"null","182200","pSARL_v2","pSARL_v2p9c47up6","56efdf27bb24eb000b8244da","freq_resp","img/orange_2bandit_b.png","70","70","test","","","","4","",""
"null","182362","pSARL_v2","pSARL_v2p9c47up6","56efdf27bb24eb000b8244da","fixation","img/fixation.png","null","","test","","","","","",""
"null","183177","pSARL_v2","pSARL_v2p9c47up6","56efdf27bb24eb000b8244da","freq","img/orange_2bandit_b2.png","null","70","test","0","74","74","4","",""
"null","183333","pSARL_v2","pSARL_v2p9c47up6","56efdf27bb24eb000b8244da","fixation","img/fixation.png","null","","test","","","","","",""
"23.899999976158142","183361","pSARL_v2","pSARL_v2p9c47up6","56efdf27bb24eb000b8244da","freq","img/orange_2bandit_b2.png","70","70","test","1","75","75","4","",""
"null","184148","pSARL_v2","pSARL_v2p9c47up6","56efdf27bb24eb000b8244da","freq_resp","img/orange_2bandit_b.png","70","70","test","","","","4","",""
"null","184305","pSARL_v2","pSARL_v2p9c47up6","56efdf27bb24eb000b8244da","fixation","img/fixation.png","null","","test","","","","","",""
"723.5","185033","pSARL_v2","pSARL_v2p9c47up6","56efdf27bb24eb000b8244da","infreq","img/green_2bandit_b2.png","68","68","test","1","76","76","4","",""
"null","185124","pSARL_v2","pSARL_v2p9c47up6","56efdf27bb24eb000b8244da","infreq_resp","img/green_2bandit_b.png","68","68","test","","","","4","",""
"null","185280","pSARL_v2","pSARL_v2p9c47up6","56efdf27bb24eb000b8244da","fixation","img/fixation.png","null","","test","","","","","",""
"533.3999999761581","185817","pSARL_v2","pSARL_v2p9c47up6","56efdf27bb24eb000b8244da","freq","img/orange_2bandit_b2.png","70","70","test","1","77","77","4","",""
"null","186097","pSARL_v2","pSARL_v2p9c47up6","56efdf27bb24eb000b8244da","freq_resp","img/orange_2bandit_b.png","70","70","test","","","","4","",""
"null","186258","pSARL_v2","pSARL_v2p9c47up6","56efdf27bb24eb000b8244da","fixation","img/fixation.png","null","","test","","","","","",""
"754.6000000238419","187017","pSARL_v2","pSARL_v2p9c47up6","56efdf27bb24eb000b8244da","infreq","img/green_2bandit_b2.png","68","68","test","1","78","78","4","",""
"null","187076","pSARL_v2","pSARL_v2p9c47up6","56efdf27bb24eb000b8244da","infreq_resp","img/green_2bandit_b.png","68","68","test","","","","4","",""
"null","187246","pSARL_v2","pSARL_v2p9c47up6","56efdf27bb24eb000b8244da","fixation","img/fixation.png","null","","test","","","","","",""
"463.80000001192093","187713","pSARL_v2","pSARL_v2p9c47up6","56efdf27bb24eb000b8244da","freq","img/orange_2bandit_b2.png","70","70","test","1","79","79","4","",""
"null","188064","pSARL_v2","pSARL_v2p9c47up6","56efdf27bb24eb000b8244da","freq_resp","img/orange_2bandit_b.png","70","70","test","","","","4","",""
"null","188224","pSARL_v2","pSARL_v2p9c47up6","56efdf27bb24eb000b8244da","fixation","img/fixation.png","null","","test","","","","","",""
"524.3000000119209","188754","pSARL_v2","pSARL_v2p9c47up6","56efdf27bb24eb000b8244da","freq","img/orange_2bandit_b2.png","70","70","test","1","80","80","4","",""
"null","189049","pSARL_v2","pSARL_v2p9c47up6","56efdf27bb24eb000b8244da","freq_resp","img/orange_2bandit_b.png","70","70","test","","","","4","",""
"null","189210","pSARL_v2","pSARL_v2p9c47up6","56efdf27bb24eb000b8244da","fixation","img/fixation.png","null","","test","","","","","",""
"490.39999997615814","189707","pSARL_v2","pSARL_v2p9c47up6","56efdf27bb24eb000b8244da","freq","img/orange_2bandit_b2.png","70","70","test","1","81","81","4","",""
"null","190024","pSARL_v2","pSARL_v2p9c47up6","56efdf27bb24eb000b8244da","freq_resp","img/orange_2bandit_b.png","70","70","test","","","","4","",""
"null","190181","pSARL_v2","pSARL_v2p9c47up6","56efdf27bb24eb000b8244da","fixation","img/fixation.png","null","","test","","","","","",""
"488.5","190676","pSARL_v2","pSARL_v2p9c47up6","56efdf27bb24eb000b8244da","freq","img/orange_2bandit_b2.png","70","70","test","1","82","82","4","",""
"null","191009","pSARL_v2","pSARL_v2p9c47up6","56efdf27bb24eb000b8244da","freq_resp","img/orange_2bandit_b.png","70","70","test","","","","4","",""
"null","191164","pSARL_v2","pSARL_v2p9c47up6","56efdf27bb24eb000b8244da","fixation","img/fixation.png","null","","test","","","","","",""
"466.39999997615814","191634","pSARL_v2","pSARL_v2p9c47up6","56efdf27bb24eb000b8244da","freq","img/orange_2bandit_b2.png","70","70","test","1","83","83","4","",""
"null","191983","pSARL_v2","pSARL_v2p9c47up6","56efdf27bb24eb000b8244da","freq_resp","img/orange_2bandit_b.png","70","70","test","","","","4","",""
"null","192142","pSARL_v2","pSARL_v2p9c47up6","56efdf27bb24eb000b8244da","fixation","img/fixation.png","null","","test","","","","","",""
"607.6000000238419","192755","pSARL_v2","pSARL_v2p9c47up6","56efdf27bb24eb000b8244da","freq","img/orange_2bandit_b2.png","70","70","test","1","84","84","4","",""
"null","192962","pSARL_v2","pSARL_v2p9c47up6","56efdf27bb24eb000b8244da","freq_resp","img/orange_2bandit_b.png","70","70","test","","","","4","",""
"null","193124","pSARL_v2","pSARL_v2p9c47up6","56efdf27bb24eb000b8244da","fixation","img/fixation.png","null","","test","","","","","",""
"649.5","193778","pSARL_v2","pSARL_v2p9c47up6","56efdf27bb24eb000b8244da","freq","img/orange_2bandit_b2.png","70","70","test","1","85","85","4","",""
"null","193935","pSARL_v2","pSARL_v2p9c47up6","56efdf27bb24eb000b8244da","freq_resp","img/orange_2bandit_b.png","70","70","test","","","","4","",""
"null","194093","pSARL_v2","pSARL_v2p9c47up6","56efdf27bb24eb000b8244da","fixation","img/fixation.png","null","","test","","","","","",""
"569.3000000119209","194668","pSARL_v2","pSARL_v2p9c47up6","56efdf27bb24eb000b8244da","freq","img/orange_2bandit_b2.png","70","70","test","1","86","86","4","",""
"null","194916","pSARL_v2","pSARL_v2p9c47up6","56efdf27bb24eb000b8244da","freq_resp","img/orange_2bandit_b.png","70","70","test","","","","4","",""
"null","195075","pSARL_v2","pSARL_v2p9c47up6","56efdf27bb24eb000b8244da","fixation","img/fixation.png","null","","test","","","","","",""
"561.2000000476837","195642","pSARL_v2","pSARL_v2p9c47up6","56efdf27bb24eb000b8244da","infreq","img/green_2bandit_b2.png","68","68","test","1","87","87","4","",""
"null","195894","pSARL_v2","pSARL_v2p9c47up6","56efdf27bb24eb000b8244da","infreq_resp","img/green_2bandit_b.png","68","68","test","","","","4","",""
"null","196055","pSARL_v2","pSARL_v2p9c47up6","56efdf27bb24eb000b8244da","fixation","img/fixation.png","null","","test","","","","","",""
"461.10000002384186","196521","pSARL_v2","pSARL_v2p9c47up6","56efdf27bb24eb000b8244da","freq","img/orange_2bandit_b2.png","70","70","test","1","88","88","4","",""
"null","196865","pSARL_v2","pSARL_v2p9c47up6","56efdf27bb24eb000b8244da","freq_resp","img/orange_2bandit_b.png","70","70","test","","","","4","",""
"null","197025","pSARL_v2","pSARL_v2p9c47up6","56efdf27bb24eb000b8244da","fixation","img/fixation.png","null","","test","","","","","",""
"395.60000002384186","197427","pSARL_v2","pSARL_v2p9c47up6","56efdf27bb24eb000b8244da","freq","img/orange_2bandit_b2.png","70","70","test","1","89","89","4","",""
"null","197842","pSARL_v2","pSARL_v2p9c47up6","56efdf27bb24eb000b8244da","freq_resp","img/orange_2bandit_b.png","70","70","test","","","","4","",""
"null","197998","pSARL_v2","pSARL_v2p9c47up6","56efdf27bb24eb000b8244da","fixation","img/fixation.png","null","","test","","","","","",""
"598.8000000119209","198601","pSARL_v2","pSARL_v2p9c47up6","56efdf27bb24eb000b8244da","reward","img/slot.png","74","","test","","","","","",""
"null","199361","pSARL_v2","pSARL_v2p9c47up6","56efdf27bb24eb000b8244da","points","<div class=""verylowPoints""> -3 </div>","null","na","test","","","","4","-3","3"
"731.1999999880791","200097","pSARL_v2","pSARL_v2p9c47up6","56efdf27bb24eb000b8244da","freq","img/orange_2bandit_b2.png","70","70","test","1","90","90","5","",""
"null","200182","pSARL_v2","pSARL_v2p9c47up6","56efdf27bb24eb000b8244da","freq_resp","img/orange_2bandit_b.png","70","70","test","","","","5","",""
"null","200343","pSARL_v2","pSARL_v2p9c47up6","56efdf27bb24eb000b8244da","fixation","img/fixation.png","null","","test","","","","","",""
"414.30000001192093","200761","pSARL_v2","pSARL_v2p9c47up6","56efdf27bb24eb000b8244da","freq","img/orange_2bandit_b2.png","70","70","test","1","91","91","5","",""
"null","201162","pSARL_v2","pSARL_v2p9c47up6","56efdf27bb24eb000b8244da","freq_resp","img/orange_2bandit_b.png","70","70","test","","","","5","",""
"null","201317","pSARL_v2","pSARL_v2p9c47up6","56efdf27bb24eb000b8244da","fixation","img/fixation.png","null","","test","","","","","",""
"376","201696","pSARL_v2","pSARL_v2p9c47up6","56efdf27bb24eb000b8244da","freq","img/orange_2bandit_b2.png","70","70","test","1","92","92","5","",""
"null","202132","pSARL_v2","pSARL_v2p9c47up6","56efdf27bb24eb000b8244da","freq_resp","img/orange_2bandit_b.png","70","70","test","","","","5","",""
"null","202292","pSARL_v2","pSARL_v2p9c47up6","56efdf27bb24eb000b8244da","fixation","img/fixation.png","null","","test","","","","","",""
"377","202675","pSARL_v2","pSARL_v2p9c47up6","56efdf27bb24eb000b8244da","freq","img/orange_2bandit_b2.png","70","70","test","1","93","93","5","",""
"null","203113","pSARL_v2","pSARL_v2p9c47up6","56efdf27bb24eb000b8244da","freq_resp","img/orange_2bandit_b.png","70","70","test","","","","5","",""
"null","203275","pSARL_v2","pSARL_v2p9c47up6","56efdf27bb24eb000b8244da","fixation","img/fixation.png","null","","test","","","","","",""
"320.89999997615814","203601","pSARL_v2","pSARL_v2p9c47up6","56efdf27bb24eb000b8244da","freq","img/orange_2bandit_b2.png","70","70","test","1","94","94","5","",""
"null","204084","pSARL_v2","pSARL_v2p9c47up6","56efdf27bb24eb000b8244da","freq_resp","img/orange_2bandit_b.png","70","70","test","","","","5","",""
"null","204244","pSARL_v2","pSARL_v2p9c47up6","56efdf27bb24eb000b8244da","fixation","img/fixation.png","null","","test","","","","","",""
"337","204585","pSARL_v2","pSARL_v2p9c47up6","56efdf27bb24eb000b8244da","freq","img/orange_2bandit_b2.png","70","70","test","1","95","95","5","",""
"null","205066","pSARL_v2","pSARL_v2p9c47up6","56efdf27bb24eb000b8244da","freq_resp","img/orange_2bandit_b.png","70","70","test","","","","5","",""
"null","205227","pSARL_v2","pSARL_v2p9c47up6","56efdf27bb24eb000b8244da","fixation","img/fixation.png","null","","test","","","","","",""
"394.0999999642372","205627","pSARL_v2","pSARL_v2p9c47up6","56efdf27bb24eb000b8244da","freq","img/orange_2bandit_b2.png","70","70","test","1","96","96","5","",""
"null","206046","pSARL_v2","pSARL_v2p9c47up6","56efdf27bb24eb000b8244da","freq_resp","img/orange_2bandit_b.png","70","70","test","","","","5","",""
"null","206202","pSARL_v2","pSARL_v2p9c47up6","56efdf27bb24eb000b8244da","fixation","img/fixation.png","null","","test","","","","","",""
"355","206561","pSARL_v2","pSARL_v2p9c47up6","56efdf27bb24eb000b8244da","freq","img/orange_2bandit_b2.png","70","70","test","1","97","97","5","",""
"null","207023","pSARL_v2","pSARL_v2p9c47up6","56efdf27bb24eb000b8244da","freq_resp","img/orange_2bandit_b.png","70","70","test","","","","5","",""
"null","207180","pSARL_v2","pSARL_v2p9c47up6","56efdf27bb24eb000b8244da","fixation","img/fixation.png","null","","test","","","","","",""
"312.60000002384186","207496","pSARL_v2","pSARL_v2p9c47up6","56efdf27bb24eb000b8244da","freq","img/orange_2bandit_b2.png","70","70","test","1","98","98","5","",""
"null","208001","pSARL_v2","pSARL_v2p9c47up6","56efdf27bb24eb000b8244da","freq_resp","img/orange_2bandit_b.png","70","70","test","","","","5","",""
"null","208158","pSARL_v2","pSARL_v2p9c47up6","56efdf27bb24eb000b8244da","fixation","img/fixation.png","null","","test","","","","","",""
"302.9000000357628","208466","pSARL_v2","pSARL_v2p9c47up6","56efdf27bb24eb000b8244da","freq","img/orange_2bandit_b2.png","70","70","test","1","99","99","5","",""
"null","208969","pSARL_v2","pSARL_v2p9c47up6","56efdf27bb24eb000b8244da","freq_resp","img/orange_2bandit_b.png","70","70","test","","","","5","",""
"null","209128","pSARL_v2","pSARL_v2p9c47up6","56efdf27bb24eb000b8244da","fixation","img/fixation.png","null","","test","","","","","",""
"325.5","209459","pSARL_v2","pSARL_v2p9c47up6","56efdf27bb24eb000b8244da","freq","img/orange_2bandit_b2.png","70","70","test","1","100","100","5","",""
"null","209943","pSARL_v2","pSARL_v2p9c47up6","56efdf27bb24eb000b8244da","freq_resp","img/orange_2bandit_b.png","70","70","test","","","","5","",""
"null","210104","pSARL_v2","pSARL_v2p9c47up6","56efdf27bb24eb000b8244da","fixation","img/fixation.png","null","","test","","","","","",""
"276.80000001192093","210385","pSARL_v2","pSARL_v2p9c47up6","56efdf27bb24eb000b8244da","freq","img/orange_2bandit_b2.png","70","70","test","1","101","101","5","",""
"null","210925","pSARL_v2","pSARL_v2p9c47up6","56efdf27bb24eb000b8244da","freq_resp","img/orange_2bandit_b.png","70","70","test","","","","5","",""
"null","211081","pSARL_v2","pSARL_v2p9c47up6","56efdf27bb24eb000b8244da","fixation","img/fixation.png","null","","test","","","","","",""
"499.60000002384186","211584","pSARL_v2","pSARL_v2p9c47up6","56efdf27bb24eb000b8244da","infreq","img/green_2bandit_b2.png","68","68","test","1","102","102","5","",""
"null","211894","pSARL_v2","pSARL_v2p9c47up6","56efdf27bb24eb000b8244da","infreq_resp","img/green_2bandit_b.png","68","68","test","","","","5","",""
"null","212050","pSARL_v2","pSARL_v2p9c47up6","56efdf27bb24eb000b8244da","fixation","img/fixation.png","null","","test","","","","","",""
"403","212459","pSARL_v2","pSARL_v2p9c47up6","56efdf27bb24eb000b8244da","freq","img/orange_2bandit_b2.png","70","70","test","1","103","103","5","",""
"null","212871","pSARL_v2","pSARL_v2p9c47up6","56efdf27bb24eb000b8244da","freq_resp","img/orange_2bandit_b.png","70","70","test","","","","5","",""
"null","213028","pSARL_v2","pSARL_v2p9c47up6","56efdf27bb24eb000b8244da","fixation","img/fixation.png","null","","test","","","","","",""
"352.30000001192093","213385","pSARL_v2","pSARL_v2p9c47up6","56efdf27bb24eb000b8244da","freq","img/orange_2bandit_b2.png","70","70","test","1","104","104","5","",""
"null","213845","pSARL_v2","pSARL_v2p9c47up6","56efdf27bb24eb000b8244da","freq_resp","img/orange_2bandit_b.png","70","70","test","","","","5","",""
"null","214014","pSARL_v2","pSARL_v2p9c47up6","56efdf27bb24eb000b8244da","fixation","img/fixation.png","null","","test","","","","","",""
"358.9000000357628","214378","pSARL_v2","pSARL_v2p9c47up6","56efdf27bb24eb000b8244da","freq","img/orange_2bandit_b2.png","70","70","test","1","105","105","5","",""
"null","214833","pSARL_v2","pSARL_v2p9c47up6","56efdf27bb24eb000b8244da","freq_resp","img/orange_2bandit_b.png","70","70","test","","","","5","",""
"null","214990","pSARL_v2","pSARL_v2p9c47up6","56efdf27bb24eb000b8244da","fixation","img/fixation.png","null","","test","","","","","",""
"390.30000001192093","215385","pSARL_v2","pSARL_v2p9c47up6","56efdf27bb24eb000b8244da","freq","img/orange_2bandit_b2.png","70","70","test","1","106","106","5","",""
"null","215813","pSARL_v2","pSARL_v2p9c47up6","56efdf27bb24eb000b8244da","freq_resp","img/orange_2bandit_b.png","70","70","test","","","","5","",""
"null","215972","pSARL_v2","pSARL_v2p9c47up6","56efdf27bb24eb000b8244da","fixation","img/fixation.png","null","","test","","","","","",""
"328.9000000357628","216306","pSARL_v2","pSARL_v2p9c47up6","56efdf27bb24eb000b8244da","freq","img/orange_2bandit_b2.png","70","70","test","1","107","107","5","",""
"null","216795","pSARL_v2","pSARL_v2p9c47up6","56efdf27bb24eb000b8244da","freq_resp","img/orange_2bandit_b.png","70","70","test","","","","5","",""
"null","216953","pSARL_v2","pSARL_v2p9c47up6","56efdf27bb24eb000b8244da","fixation","img/fixation.png","null","","test","","","","","",""
"394.69999998807907","217352","pSARL_v2","pSARL_v2p9c47up6","56efdf27bb24eb000b8244da","freq","img/orange_2bandit_b2.png","70","70","test","1","108","108","5","",""
"null","217763","pSARL_v2","pSARL_v2p9c47up6","56efdf27bb24eb000b8244da","freq_resp","img/orange_2bandit_b.png","70","70","test","","","","5","",""
"null","217922","pSARL_v2","pSARL_v2p9c47up6","56efdf27bb24eb000b8244da","fixation","img/fixation.png","null","","test","","","","","",""
"362.0999999642372","218291","pSARL_v2","pSARL_v2p9c47up6","56efdf27bb24eb000b8244da","freq","img/orange_2bandit_b2.png","70","70","test","1","109","109","5","",""
"null","218732","pSARL_v2","pSARL_v2p9c47up6","56efdf27bb24eb000b8244da","freq_resp","img/orange_2bandit_b.png","70","70","test","","","","5","",""
"null","218892","pSARL_v2","pSARL_v2p9c47up6","56efdf27bb24eb000b8244da","fixation","img/fixation.png","null","","test","","","","","",""
"377","219274","pSARL_v2","pSARL_v2p9c47up6","56efdf27bb24eb000b8244da","freq","img/orange_2bandit_b2.png","70","70","test","1","110","110","5","",""
"null","219710","pSARL_v2","pSARL_v2p9c47up6","56efdf27bb24eb000b8244da","freq_resp","img/orange_2bandit_b.png","70","70","test","","","","5","",""
"null","219868","pSARL_v2","pSARL_v2p9c47up6","56efdf27bb24eb000b8244da","fixation","img/fixation.png","null","","test","","","","","",""
"345.80000001192093","220218","pSARL_v2","pSARL_v2p9c47up6","56efdf27bb24eb000b8244da","freq","img/orange_2bandit_b2.png","70","70","test","1","111","111","5","",""
"null","220691","pSARL_v2","pSARL_v2p9c47up6","56efdf27bb24eb000b8244da","freq_resp","img/orange_2bandit_b.png","70","70","test","","","","5","",""
"null","220847","pSARL_v2","pSARL_v2p9c47up6","56efdf27bb24eb000b8244da","fixation","img/fixation.png","null","","test","","","","","",""
"341.7000000476837","221194","pSARL_v2","pSARL_v2p9c47up6","56efdf27bb24eb000b8244da","freq","img/orange_2bandit_b2.png","70","70","test","1","112","112","5","",""
"null","221666","pSARL_v2","pSARL_v2p9c47up6","56efdf27bb24eb000b8244da","freq_resp","img/orange_2bandit_b.png","70","70","test","","","","5","",""
"null","221835","pSARL_v2","pSARL_v2p9c47up6","56efdf27bb24eb000b8244da","fixation","img/fixation.png","null","","test","","","","","",""
"466.19999998807907","222307","pSARL_v2","pSARL_v2p9c47up6","56efdf27bb24eb000b8244da","infreq","img/green_2bandit_b2.png","68","68","test","1","113","113","5","",""
"null","222663","pSARL_v2","pSARL_v2p9c47up6","56efdf27bb24eb000b8244da","infreq_resp","img/green_2bandit_b.png","68","68","test","","","","5","",""
"null","222818","pSARL_v2","pSARL_v2p9c47up6","56efdf27bb24eb000b8244da","fixation","img/fixation.png","null","","test","","","","","",""
"427.0999999642372","223248","pSARL_v2","pSARL_v2p9c47up6","56efdf27bb24eb000b8244da","freq","img/orange_2bandit_b2.png","70","70","test","1","114","114","5","",""
"null","223639","pSARL_v2","pSARL_v2p9c47up6","56efdf27bb24eb000b8244da","freq_resp","img/orange_2bandit_b.png","70","70","test","","","","5","",""
"null","223798","pSARL_v2","pSARL_v2p9c47up6","56efdf27bb24eb000b8244da","fixation","img/fixation.png","null","","test","","","","","",""
"598.5","224401","pSARL_v2","pSARL_v2p9c47up6","56efdf27bb24eb000b8244da","reward","img/slot.png","74","","test","","","","","",""
"null","225158","pSARL_v2","pSARL_v2p9c47up6","56efdf27bb24eb000b8244da","points","<div class=""veryhighPoints""> +1 </div>","null","na","test","","","","5","1","4"
"630.3000000119209","225794","pSARL_v2","pSARL_v2p9c47up6","56efdf27bb24eb000b8244da","freq","img/orange_2bandit_b2.png","70","70","test","1","115","115","6","",""
"null","225970","pSARL_v2","pSARL_v2p9c47up6","56efdf27bb24eb000b8244da","freq_resp","img/orange_2bandit_b.png","70","70","test","","","","6","",""
"null","226128","pSARL_v2","pSARL_v2p9c47up6","56efdf27bb24eb000b8244da","fixation","img/fixation.png","null","","test","","","","","",""
"501","226632","pSARL_v2","pSARL_v2p9c47up6","56efdf27bb24eb000b8244da","infreq","img/green_2bandit_b2.png","68","68","test","1","116","116","6","",""
"null","226945","pSARL_v2","pSARL_v2p9c47up6","56efdf27bb24eb000b8244da","infreq_resp","img/green_2bandit_b.png","68","68","test","","","","6","",""
"null","227106","pSARL_v2","pSARL_v2p9c47up6","56efdf27bb24eb000b8244da","fixation","img/fixation.png","null","","test","","","","","",""
"595.0999999642372","227707","pSARL_v2","pSARL_v2p9c47up6","56efdf27bb24eb000b8244da","freq","img/orange_2bandit_b2.png","70","70","test","1","117","117","6","",""
"null","227923","pSARL_v2","pSARL_v2p9c47up6","56efdf27bb24eb000b8244da","freq_resp","img/orange_2bandit_b.png","70","70","test","","","","6","",""
"null","228080","pSARL_v2","pSARL_v2p9c47up6","56efdf27bb24eb000b8244da","fixation","img/fixation.png","null","","test","","","","","",""
"557.1000000238419","228643","pSARL_v2","pSARL_v2p9c47up6","56efdf27bb24eb000b8244da","freq","img/orange_2bandit_b2.png","70","70","test","1","118","118","6","",""
"null","228903","pSARL_v2","pSARL_v2p9c47up6","56efdf27bb24eb000b8244da","freq_resp","img/orange_2bandit_b.png","70","70","test","","","","6","",""
"null","229063","pSARL_v2","pSARL_v2p9c47up6","56efdf27bb24eb000b8244da","fixation","img/fixation.png","null","","test","","","","","",""
"486","229554","pSARL_v2","pSARL_v2p9c47up6","56efdf27bb24eb000b8244da","freq","img/orange_2bandit_b2.png","70","70","test","1","119","119","6","",""
"null","229881","pSARL_v2","pSARL_v2p9c47up6","56efdf27bb24eb000b8244da","freq_resp","img/orange_2bandit_b.png","70","70","test","","","","6","",""
"null","230040","pSARL_v2","pSARL_v2p9c47up6","56efdf27bb24eb000b8244da","fixation","img/fixation.png","null","","test","","","","","",""
"340.39999997615814","230386","pSARL_v2","pSARL_v2p9c47up6","56efdf27bb24eb000b8244da","freq","img/orange_2bandit_b2.png","70","70","test","1","120","120","6","",""
"null","230861","pSARL_v2","pSARL_v2p9c47up6","56efdf27bb24eb000b8244da","freq_resp","img/orange_2bandit_b.png","70","70","test","","","","6","",""
"null","231025","pSARL_v2","pSARL_v2p9c47up6","56efdf27bb24eb000b8244da","fixation","img/fixation.png","null","","test","","","","","",""
"411.39999997615814","231442","pSARL_v2","pSARL_v2p9c47up6","56efdf27bb24eb000b8244da","freq","img/orange_2bandit_b2.png","70","70","test","1","121","121","6","",""
"null","231840","pSARL_v2","pSARL_v2p9c47up6","56efdf27bb24eb000b8244da","freq_resp","img/orange_2bandit_b.png","70","70","test","","","","6","",""
"null","231997","pSARL_v2","pSARL_v2p9c47up6","56efdf27bb24eb000b8244da","fixation","img/fixation.png","null","","test","","","","","",""
"456","232458","pSARL_v2","pSARL_v2p9c47up6","56efdf27bb24eb000b8244da","freq","img/orange_2bandit_b2.png","70","70","test","1","122","122","6","",""
"null","232823","pSARL_v2","pSARL_v2p9c47up6","56efdf27bb24eb000b8244da","freq_resp","img/orange_2bandit_b.png","70","70","test","","","","6","",""
"null","232979","pSARL_v2","pSARL_v2p9c47up6","56efdf27bb24eb000b8244da","fixation","img/fixation.png","null","","test","","","","","",""
"385.7999999523163","233369","pSARL_v2","pSARL_v2p9c47up6","56efdf27bb24eb000b8244da","freq","img/orange_2bandit_b2.png","70","70","test","1","123","123","6","",""
"null","233797","pSARL_v2","pSARL_v2p9c47up6","56efdf27bb24eb000b8244da","freq_resp","img/orange_2bandit_b.png","70","70","test","","","","6","",""
"null","233950","pSARL_v2","pSARL_v2p9c47up6","56efdf27bb24eb000b8244da","fixation","img/fixation.png","null","","test","","","","","",""
"382.60000002384186","234338","pSARL_v2","pSARL_v2p9c47up6","56efdf27bb24eb000b8244da","freq","img/orange_2bandit_b2.png","70","70","test","1","124","124","6","",""
"null","234774","pSARL_v2","pSARL_v2p9c47up6","56efdf27bb24eb000b8244da","freq_resp","img/orange_2bandit_b.png","70","70","test","","","","6","",""
"null","234932","pSARL_v2","pSARL_v2p9c47up6","56efdf27bb24eb000b8244da","fixation","img/fixation.png","null","","test","","","","","",""
"496.10000002384186","235431","pSARL_v2","pSARL_v2p9c47up6","56efdf27bb24eb000b8244da","infreq","img/green_2bandit_b2.png","70","68","test","0","125","125","6","",""
"null","235755","pSARL_v2","pSARL_v2p9c47up6","56efdf27bb24eb000b8244da","infreq_resp","img/green_2bandit_b.png","70","68","test","","","","6","",""
"null","235913","pSARL_v2","pSARL_v2p9c47up6","56efdf27bb24eb000b8244da","fixation","img/fixation.png","null","","test","","","","","",""
"475","236393","pSARL_v2","pSARL_v2p9c47up6","56efdf27bb24eb000b8244da","freq","img/orange_2bandit_b2.png","70","70","test","1","126","126","6","",""
"null","236737","pSARL_v2","pSARL_v2p9c47up6","56efdf27bb24eb000b8244da","freq_resp","img/orange_2bandit_b.png","70","70","test","","","","6","",""
"null","236893","pSARL_v2","pSARL_v2p9c47up6","56efdf27bb24eb000b8244da","fixation","img/fixation.png","null","","test","","","","","",""
"503.19999998807907","237400","pSARL_v2","pSARL_v2p9c47up6","56efdf27bb24eb000b8244da","infreq","img/green_2bandit_b2.png","68","68","test","1","127","127","6","",""
"null","237710","pSARL_v2","pSARL_v2p9c47up6","56efdf27bb24eb000b8244da","infreq_resp","img/green_2bandit_b.png","68","68","test","","","","6","",""
"null","237871","pSARL_v2","pSARL_v2p9c47up6","56efdf27bb24eb000b8244da","fixation","img/fixation.png","null","","test","","","","","",""
"413.30000001192093","238290","pSARL_v2","pSARL_v2p9c47up6","56efdf27bb24eb000b8244da","freq","img/orange_2bandit_b2.png","70","70","test","1","128","128","6","",""
"null","238691","pSARL_v2","pSARL_v2p9c47up6","56efdf27bb24eb000b8244da","freq_resp","img/orange_2bandit_b.png","70","70","test","","","","6","",""
"null","238848","pSARL_v2","pSARL_v2p9c47up6","56efdf27bb24eb000b8244da","fixation","img/fixation.png","null","","test","","","","","",""
"364.10000002384186","239216","pSARL_v2","pSARL_v2p9c47up6","56efdf27bb24eb000b8244da","freq","img/orange_2bandit_b2.png","70","70","test","1","129","129","6","",""
"null","239673","pSARL_v2","pSARL_v2p9c47up6","56efdf27bb24eb000b8244da","freq_resp","img/orange_2bandit_b.png","70","70","test","","","","6","",""
"null","239839","pSARL_v2","pSARL_v2p9c47up6","56efdf27bb24eb000b8244da","fixation","img/fixation.png","null","","test","","","","","",""
"333.10000002384186","240176","pSARL_v2","pSARL_v2p9c47up6","56efdf27bb24eb000b8244da","freq","img/orange_2bandit_b2.png","70","70","test","1","130","130","6","",""
"null","240660","pSARL_v2","pSARL_v2p9c47up6","56efdf27bb24eb000b8244da","freq_resp","img/orange_2bandit_b.png","70","70","test","","","","6","",""
"null","240816","pSARL_v2","pSARL_v2p9c47up6","56efdf27bb24eb000b8244da","fixation","img/fixation.png","null","","test","","","","","",""
"268.30000001192093","241089","pSARL_v2","pSARL_v2p9c47up6","56efdf27bb24eb000b8244da","freq","img/orange_2bandit_b2.png","70","70","test","1","131","131","6","",""
"null","241634","pSARL_v2","pSARL_v2p9c47up6","56efdf27bb24eb000b8244da","freq_resp","img/orange_2bandit_b.png","70","70","test","","","","6","",""
"null","241790","pSARL_v2","pSARL_v2p9c47up6","56efdf27bb24eb000b8244da","fixation","img/fixation.png","null","","test","","","","","",""
"350.5","242144","pSARL_v2","pSARL_v2p9c47up6","56efdf27bb24eb000b8244da","freq","img/orange_2bandit_b2.png","70","70","test","1","132","132","6","",""
"null","242600","pSARL_v2","pSARL_v2p9c47up6","56efdf27bb24eb000b8244da","freq_resp","img/orange_2bandit_b.png","70","70","test","","","","6","",""
"null","242759","pSARL_v2","pSARL_v2p9c47up6","56efdf27bb24eb000b8244da","fixation","img/fixation.png","null","","test","","","","","",""
"333.39999997615814","243096","pSARL_v2","pSARL_v2p9c47up6","56efdf27bb24eb000b8244da","freq","img/orange_2bandit_b2.png","70","70","test","1","133","133","6","",""
"null","243578","pSARL_v2","pSARL_v2p9c47up6","56efdf27bb24eb000b8244da","freq_resp","img/orange_2bandit_b.png","70","70","test","","","","6","",""
"null","243737","pSARL_v2","pSARL_v2p9c47up6","56efdf27bb24eb000b8244da","fixation","img/fixation.png","null","","test","","","","","",""
"378.89999997615814","244121","pSARL_v2","pSARL_v2p9c47up6","56efdf27bb24eb000b8244da","freq","img/orange_2bandit_b2.png","70","70","test","1","134","134","6","",""
"null","244559","pSARL_v2","pSARL_v2p9c47up6","56efdf27bb24eb000b8244da","freq_resp","img/orange_2bandit_b.png","70","70","test","","","","6","",""
"null","244716","pSARL_v2","pSARL_v2p9c47up6","56efdf27bb24eb000b8244da","fixation","img/fixation.png","null","","test","","","","","",""
"368.5999999642372","245089","pSARL_v2","pSARL_v2p9c47up6","56efdf27bb24eb000b8244da","freq","img/orange_2bandit_b2.png","70","70","test","1","135","135","6","",""
"null","245540","pSARL_v2","pSARL_v2p9c47up6","56efdf27bb24eb000b8244da","freq_resp","img/orange_2bandit_b.png","70","70","test","","","","6","",""
"null","245697","pSARL_v2","pSARL_v2p9c47up6","56efdf27bb24eb000b8244da","fixation","img/fixation.png","null","","test","","","","","",""
"346.7000000476837","246048","pSARL_v2","pSARL_v2p9c47up6","56efdf27bb24eb000b8244da","freq","img/orange_2bandit_b2.png","70","70","test","1","136","136","6","",""
"null","246518","pSARL_v2","pSARL_v2p9c47up6","56efdf27bb24eb000b8244da","freq_resp","img/orange_2bandit_b.png","70","70","test","","","","6","",""
"null","246688","pSARL_v2","pSARL_v2p9c47up6","56efdf27bb24eb000b8244da","fixation","img/fixation.png","null","","test","","","","","",""
"403.30000001192093","247096","pSARL_v2","pSARL_v2p9c47up6","56efdf27bb24eb000b8244da","freq","img/orange_2bandit_b2.png","70","70","test","1","137","137","6","",""
"null","247498","pSARL_v2","pSARL_v2p9c47up6","56efdf27bb24eb000b8244da","freq_resp","img/orange_2bandit_b.png","70","70","test","","","","6","",""
"null","247660","pSARL_v2","pSARL_v2p9c47up6","56efdf27bb24eb000b8244da","fixation","img/fixation.png","null","","test","","","","","",""
"359.30000001192093","248025","pSARL_v2","pSARL_v2p9c47up6","56efdf27bb24eb000b8244da","freq","img/orange_2bandit_b2.png","70","70","test","1","138","138","6","",""
"null","248474","pSARL_v2","pSARL_v2p9c47up6","56efdf27bb24eb000b8244da","freq_resp","img/orange_2bandit_b.png","70","70","test","","","","6","",""
"null","248631","pSARL_v2","pSARL_v2p9c47up6","56efdf27bb24eb000b8244da","fixation","img/fixation.png","null","","test","","","","","",""
"564.5","249199","pSARL_v2","pSARL_v2p9c47up6","56efdf27bb24eb000b8244da","reward","img/slot.png","74","","test","","","","","",""
"null","249959","pSARL_v2","pSARL_v2p9c47up6","56efdf27bb24eb000b8244da","points","<div class=""verylowPoints""> -7 </div>","null","na","test","","","","6","-7","5"
"581.3000000119209","250544","pSARL_v2","pSARL_v2p9c47up6","56efdf27bb24eb000b8244da","freq","img/orange_2bandit_b2.png","70","70","test","1","139","139","7","",""
"null","250767","pSARL_v2","pSARL_v2p9c47up6","56efdf27bb24eb000b8244da","freq_resp","img/orange_2bandit_b.png","70","70","test","","","","7","",""
"null","250926","pSARL_v2","pSARL_v2p9c47up6","56efdf27bb24eb000b8244da","fixation","img/fixation.png","null","","test","","","","","",""
"462.4000000357628","251393","pSARL_v2","pSARL_v2p9c47up6","56efdf27bb24eb000b8244da","freq","img/orange_2bandit_b2.png","70","70","test","1","140","140","7","",""
"null","251742","pSARL_v2","pSARL_v2p9c47up6","56efdf27bb24eb000b8244da","freq_resp","img/orange_2bandit_b.png","70","70","test","","","","7","",""
"null","251909","pSARL_v2","pSARL_v2p9c47up6","56efdf27bb24eb000b8244da","fixation","img/fixation.png","null","","test","","","","","",""
"568.9000000357628","252481","pSARL_v2","pSARL_v2p9c47up6","56efdf27bb24eb000b8244da","infreq","img/green_2bandit_b2.png","68","68","test","1","141","141","7","",""
"null","252727","pSARL_v2","pSARL_v2p9c47up6","56efdf27bb24eb000b8244da","infreq_resp","img/green_2bandit_b.png","68","68","test","","","","7","",""
"null","252886","pSARL_v2","pSARL_v2p9c47up6","56efdf27bb24eb000b8244da","fixation","img/fixation.png","null","","test","","","","","",""
"477.80000001192093","253369","pSARL_v2","pSARL_v2p9c47up6","56efdf27bb24eb000b8244da","freq","img/orange_2bandit_b2.png","70","70","test","1","142","142","7","",""
"null","253708","pSARL_v2","pSARL_v2p9c47up6","56efdf27bb24eb000b8244da","freq_resp","img/orange_2bandit_b.png","70","70","test","","","","7","",""
"null","253864","pSARL_v2","pSARL_v2p9c47up6","56efdf27bb24eb000b8244da","fixation","img/fixation.png","null","","test","","","","","",""
"484","254355","pSARL_v2","pSARL_v2p9c47up6","56efdf27bb24eb000b8244da","freq","img/orange_2bandit_b2.png","70","70","test","1","143","143","7","",""
"null","254688","pSARL_v2","pSARL_v2p9c47up6","56efdf27bb24eb000b8244da","freq_resp","img/orange_2bandit_b.png","70","70","test","","","","7","",""
"null","254843","pSARL_v2","pSARL_v2p9c47up6","56efdf27bb24eb000b8244da","fixation","img/fixation.png","null","","test","","","","","",""
"369.10000002384186","255216","pSARL_v2","pSARL_v2p9c47up6","56efdf27bb24eb000b8244da","freq","img/orange_2bandit_b2.png","70","70","test","1","144","144","7","",""
"null","255668","pSARL_v2","pSARL_v2p9c47up6","56efdf27bb24eb000b8244da","freq_resp","img/orange_2bandit_b.png","70","70","test","","","","7","",""
"null","255835","pSARL_v2","pSARL_v2p9c47up6","56efdf27bb24eb000b8244da","fixation","img/fixation.png","null","","test","","","","","",""
"344.5999999642372","256185","pSARL_v2","pSARL_v2p9c47up6","56efdf27bb24eb000b8244da","freq","img/orange_2bandit_b2.png","70","70","test","1","145","145","7","",""
"null","256659","pSARL_v2","pSARL_v2p9c47up6","56efdf27bb24eb000b8244da","freq_resp","img/orange_2bandit_b.png","70","70","test","","","","7","",""
"null","256815","pSARL_v2","pSARL_v2p9c47up6","56efdf27bb24eb000b8244da","fixation","img/fixation.png","null","","test","","","","","",""
"412.5999999642372","257232","pSARL_v2","pSARL_v2p9c47up6","56efdf27bb24eb000b8244da","freq","img/orange_2bandit_b2.png","70","70","test","1","146","146","7","",""
"null","257636","pSARL_v2","pSARL_v2p9c47up6","56efdf27bb24eb000b8244da","freq_resp","img/orange_2bandit_b.png","70","70","test","","","","7","",""
"null","257807","pSARL_v2","pSARL_v2p9c47up6","56efdf27bb24eb000b8244da","fixation","img/fixation.png","null","","test","","","","","",""
"372.80000001192093","258184","pSARL_v2","pSARL_v2p9c47up6","56efdf27bb24eb000b8244da","freq","img/orange_2bandit_b2.png","70","70","test","1","147","147","7","",""
"null","258620","pSARL_v2","pSARL_v2p9c47up6","56efdf27bb24eb000b8244da","freq_resp","img/orange_2bandit_b.png","70","70","test","","","","7","",""
"null","258778","pSARL_v2","pSARL_v2p9c47up6","56efdf27bb24eb000b8244da","fixation","img/fixation.png","null","","test","","","","","",""
"354.2000000476837","259137","pSARL_v2","pSARL_v2p9c47up6","56efdf27bb24eb000b8244da","freq","img/orange_2bandit_b2.png","70","70","test","1","148","148","7","",""
"null","259594","pSARL_v2","pSARL_v2p9c47up6","56efdf27bb24eb000b8244da","freq_resp","img/orange_2bandit_b.png","70","70","test","","","","7","",""
"null","259761","pSARL_v2","pSARL_v2p9c47up6","56efdf27bb24eb000b8244da","fixation","img/fixation.png","null","","test","","","","","",""
"379.80000001192093","260145","pSARL_v2","pSARL_v2p9c47up6","56efdf27bb24eb000b8244da","freq","img/orange_2bandit_b2.png","70","70","test","1","149","149","7","",""
"null","260587","pSARL_v2","pSARL_v2p9c47up6","56efdf27bb24eb000b8244da","freq_resp","img/orange_2bandit_b.png","70","70","test","","","","7","",""
"null","260744","pSARL_v2","pSARL_v2p9c47up6","56efdf27bb24eb000b8244da","fixation","img/fixation.png","null","","test","","","","","",""
"436.9000000357628","261186","pSARL_v2","pSARL_v2p9c47up6","56efdf27bb24eb000b8244da","infreq","img/green_2bandit_b2.png","68","68","test","1","150","150","7","",""
"null","261567","pSARL_v2","pSARL_v2p9c47up6","56efdf27bb24eb000b8244da","infreq_resp","img/green_2bandit_b.png","68","68","test","","","","7","",""
"null","261736","pSARL_v2","pSARL_v2p9c47up6","56efdf27bb24eb000b8244da","fixation","img/fixation.png","null","","test","","","","","",""
"491.5999999642372","262232","pSARL_v2","pSARL_v2p9c47up6","56efdf27bb24eb000b8244da","freq","img/orange_2bandit_b2.png","70","70","test","1","151","151","7","",""
"null","262559","pSARL_v2","pSARL_v2p9c47up6","56efdf27bb24eb000b8244da","freq_resp","img/orange_2bandit_b.png","70","70","test","","","","7","",""
"null","262714","pSARL_v2","pSARL_v2p9c47up6","56efdf27bb24eb000b8244da","fixation","img/fixation.png","null","","test","","","","","",""
"418.7000000476837","263138","pSARL_v2","pSARL_v2p9c47up6","56efdf27bb24eb000b8244da","freq","img/orange_2bandit_b2.png","70","70","test","1","152","152","7","",""
"null","263540","pSARL_v2","pSARL_v2p9c47up6","56efdf27bb24eb000b8244da","freq_resp","img/orange_2bandit_b.png","70","70","test","","","","7","",""
"null","263709","pSARL_v2","pSARL_v2p9c47up6","56efdf27bb24eb000b8244da","fixation","img/fixation.png","null","","test","","","","","",""
"374.89999997615814","264089","pSARL_v2","pSARL_v2p9c47up6","56efdf27bb24eb000b8244da","freq","img/orange_2bandit_b2.png","70","70","test","1","153","153","7","",""
"null","264525","pSARL_v2","pSARL_v2p9c47up6","56efdf27bb24eb000b8244da","freq_resp","img/orange_2bandit_b.png","70","70","test","","","","7","",""
"null","264680","pSARL_v2","pSARL_v2p9c47up6","56efdf27bb24eb000b8244da","fixation","img/fixation.png","null","","test","","","","","",""
"364.19999998807907","265047","pSARL_v2","pSARL_v2p9c47up6","56efdf27bb24eb000b8244da","freq","img/orange_2bandit_b2.png","70","70","test","1","154","154","7","",""
"null","265490","pSARL_v2","pSARL_v2p9c47up6","56efdf27bb24eb000b8244da","freq_resp","img/orange_2bandit_b.png","70","70","test","","","","7","",""
"null","265646","pSARL_v2","pSARL_v2p9c47up6","56efdf27bb24eb000b8244da","fixation","img/fixation.png","null","","test","","","","","",""
"477.80000001192093","266128","pSARL_v2","pSARL_v2p9c47up6","56efdf27bb24eb000b8244da","freq","img/orange_2bandit_b2.png","70","70","test","1","155","155","7","",""
"null","266462","pSARL_v2","pSARL_v2p9c47up6","56efdf27bb24eb000b8244da","freq_resp","img/orange_2bandit_b.png","70","70","test","","","","7","",""
"null","266620","pSARL_v2","pSARL_v2p9c47up6","56efdf27bb24eb000b8244da","fixation","img/fixation.png","null","","test","","","","","",""
"416.0999999642372","267041","pSARL_v2","pSARL_v2p9c47up6","56efdf27bb24eb000b8244da","freq","img/orange_2bandit_b2.png","70","70","test","1","156","156","7","",""
"null","267440","pSARL_v2","pSARL_v2p9c47up6","56efdf27bb24eb000b8244da","freq_resp","img/orange_2bandit_b.png","70","70","test","","","","7","",""
"null","267609","pSARL_v2","pSARL_v2p9c47up6","56efdf27bb24eb000b8244da","fixation","img/fixation.png","null","","test","","","","","",""
"451.30000001192093","268064","pSARL_v2","pSARL_v2p9c47up6","56efdf27bb24eb000b8244da","freq","img/orange_2bandit_b2.png","70","70","test","1","157","157","7","",""
"null","268427","pSARL_v2","pSARL_v2p9c47up6","56efdf27bb24eb000b8244da","freq_resp","img/orange_2bandit_b.png","70","70","test","","","","7","",""
"null","268585","pSARL_v2","pSARL_v2p9c47up6","56efdf27bb24eb000b8244da","fixation","img/fixation.png","null","","test","","","","","",""
"363.4000000357628","268954","pSARL_v2","pSARL_v2p9c47up6","56efdf27bb24eb000b8244da","freq","img/orange_2bandit_b2.png","70","70","test","1","158","158","7","",""
"null","269409","pSARL_v2","pSARL_v2p9c47up6","56efdf27bb24eb000b8244da","freq_resp","img/orange_2bandit_b.png","70","70","test","","","","7","",""
"null","269567","pSARL_v2","pSARL_v2p9c47up6","56efdf27bb24eb000b8244da","fixation","img/fixation.png","null","","test","","","","","",""
"396.69999998807907","269969","pSARL_v2","pSARL_v2p9c47up6","56efdf27bb24eb000b8244da","freq","img/orange_2bandit_b2.png","70","70","test","1","159","159","7","",""
"null","270388","pSARL_v2","pSARL_v2p9c47up6","56efdf27bb24eb000b8244da","freq_resp","img/orange_2bandit_b.png","70","70","test","","","","7","",""
"null","270545","pSARL_v2","pSARL_v2p9c47up6","56efdf27bb24eb000b8244da","fixation","img/fixation.png","null","","test","","","","","",""
"379.39999997615814","270928","pSARL_v2","pSARL_v2p9c47up6","56efdf27bb24eb000b8244da","freq","img/orange_2bandit_b2.png","70","70","test","1","160","160","7","",""
"null","271363","pSARL_v2","pSARL_v2p9c47up6","56efdf27bb24eb000b8244da","freq_resp","img/orange_2bandit_b.png","70","70","test","","","","7","",""
"null","271534","pSARL_v2","pSARL_v2p9c47up6","56efdf27bb24eb000b8244da","fixation","img/fixation.png","null","","test","","","","","",""
"397.69999998807907","271938","pSARL_v2","pSARL_v2p9c47up6","56efdf27bb24eb000b8244da","freq","img/orange_2bandit_b2.png","70","70","test","1","161","161","7","",""
"null","272359","pSARL_v2","pSARL_v2p9c47up6","56efdf27bb24eb000b8244da","freq_resp","img/orange_2bandit_b.png","70","70","test","","","","7","",""
"null","272517","pSARL_v2","pSARL_v2p9c47up6","56efdf27bb24eb000b8244da","fixation","img/fixation.png","null","","test","","","","","",""
"438.4000000357628","272960","pSARL_v2","pSARL_v2p9c47up6","56efdf27bb24eb000b8244da","freq","img/orange_2bandit_b2.png","70","70","test","1","162","162","7","",""
"null","273339","pSARL_v2","pSARL_v2p9c47up6","56efdf27bb24eb000b8244da","freq_resp","img/orange_2bandit_b.png","70","70","test","","","","7","",""
"null","273495","pSARL_v2","pSARL_v2p9c47up6","56efdf27bb24eb000b8244da","fixation","img/fixation.png","null","","test","","","","","",""
"412.7999999523163","273912","pSARL_v2","pSARL_v2p9c47up6","56efdf27bb24eb000b8244da","freq","img/orange_2bandit_b2.png","70","70","test","1","163","163","7","",""
"null","274305","pSARL_v2","pSARL_v2p9c47up6","56efdf27bb24eb000b8244da","freq_resp","img/orange_2bandit_b.png","70","70","test","","","","7","",""
"null","274472","pSARL_v2","pSARL_v2p9c47up6","56efdf27bb24eb000b8244da","fixation","img/fixation.png","null","","test","","","","","",""
"939.9000000357628","275421","pSARL_v2","pSARL_v2p9c47up6","56efdf27bb24eb000b8244da","reward","img/slot.png","74","","test","","","","","",""
"null","276190","pSARL_v2","pSARL_v2p9c47up6","56efdf27bb24eb000b8244da","points","<div class=""verylowPoints""> -6 </div>","null","na","test","","","","7","-6","6"
"null","276996","pSARL_v2","pSARL_v2p9c47up6","56efdf27bb24eb000b8244da","freq","img/orange_2bandit_b2.png","null","70","test","0","164","164","8","",""
"null","277151","pSARL_v2","pSARL_v2p9c47up6","56efdf27bb24eb000b8244da","fixation","img/fixation.png","null","","test","","","","","",""
"596.8999999761581","277754","pSARL_v2","pSARL_v2p9c47up6","56efdf27bb24eb000b8244da","freq","img/orange_2bandit_b2.png","70","70","test","1","165","165","8","",""
"null","277968","pSARL_v2","pSARL_v2p9c47up6","56efdf27bb24eb000b8244da","freq_resp","img/orange_2bandit_b.png","70","70","test","","","","8","",""
"null","278138","pSARL_v2","pSARL_v2p9c47up6","56efdf27bb24eb000b8244da","fixation","img/fixation.png","null","","test","","","","","",""
"369.9000000357628","278511","pSARL_v2","pSARL_v2p9c47up6","56efdf27bb24eb000b8244da","freq","img/orange_2bandit_b2.png","70","70","test","1","166","166","8","",""
"null","278959","pSARL_v2","pSARL_v2p9c47up6","56efdf27bb24eb000b8244da","freq_resp","img/orange_2bandit_b.png","70","70","test","","","","8","",""
"null","279118","pSARL_v2","pSARL_v2p9c47up6","56efdf27bb24eb000b8244da","fixation","img/fixation.png","null","","test","","","","","",""
"342","279464","pSARL_v2","pSARL_v2p9c47up6","56efdf27bb24eb000b8244da","freq","img/orange_2bandit_b2.png","70","70","test","1","167","167","8","",""
"null","279931","pSARL_v2","pSARL_v2p9c47up6","56efdf27bb24eb000b8244da","freq_resp","img/orange_2bandit_b.png","70","70","test","","","","8","",""
"null","280089","pSARL_v2","pSARL_v2p9c47up6","56efdf27bb24eb000b8244da","fixation","img/fixation.png","null","","test","","","","","",""
"355.19999998807907","280447","pSARL_v2","pSARL_v2p9c47up6","56efdf27bb24eb000b8244da","freq","img/orange_2bandit_b2.png","70","70","test","1","168","168","8","",""
"null","280910","pSARL_v2","pSARL_v2p9c47up6","56efdf27bb24eb000b8244da","freq_resp","img/orange_2bandit_b.png","70","70","test","","","","8","",""
"null","281067","pSARL_v2","pSARL_v2p9c47up6","56efdf27bb24eb000b8244da","fixation","img/fixation.png","null","","test","","","","","",""
"336.7999999523163","281408","pSARL_v2","pSARL_v2p9c47up6","56efdf27bb24eb000b8244da","freq","img/orange_2bandit_b2.png","70","70","test","1","169","169","8","",""
"null","281886","pSARL_v2","pSARL_v2p9c47up6","56efdf27bb24eb000b8244da","freq_resp","img/orange_2bandit_b.png","70","70","test","","","","8","",""
"null","282043","pSARL_v2","pSARL_v2p9c47up6","56efdf27bb24eb000b8244da","fixation","img/fixation.png","null","","test","","","","","",""
"337.10000002384186","282385","pSARL_v2","pSARL_v2p9c47up6","56efdf27bb24eb000b8244da","freq","img/orange_2bandit_b2.png","70","70","test","1","170","170","8","",""
"null","282854","pSARL_v2","pSARL_v2p9c47up6","56efdf27bb24eb000b8244da","freq_resp","img/orange_2bandit_b.png","70","70","test","","","","8","",""
"null","283012","pSARL_v2","pSARL_v2p9c47up6","56efdf27bb24eb000b8244da","fixation","img/fixation.png","null","","test","","","","","",""
"296.30000001192093","283312","pSARL_v2","pSARL_v2p9c47up6","56efdf27bb24eb000b8244da","freq","img/orange_2bandit_b2.png","70","70","test","1","171","171","8","",""
"null","283822","pSARL_v2","pSARL_v2p9c47up6","56efdf27bb24eb000b8244da","freq_resp","img/orange_2bandit_b.png","70","70","test","","","","8","",""
"null","283977","pSARL_v2","pSARL_v2p9c47up6","56efdf27bb24eb000b8244da","fixation","img/fixation.png","null","","test","","","","","",""
"227.0999999642372","284207","pSARL_v2","pSARL_v2p9c47up6","56efdf27bb24eb000b8244da","freq","img/orange_2bandit_b2.png","70","70","test","1","172","172","8","",""
"null","284797","pSARL_v2","pSARL_v2p9c47up6","56efdf27bb24eb000b8244da","freq_resp","img/orange_2bandit_b.png","70","70","test","","","","8","",""
"null","284957","pSARL_v2","pSARL_v2p9c47up6","56efdf27bb24eb000b8244da","fixation","img/fixation.png","null","","test","","","","","",""
"239.70000004768372","285202","pSARL_v2","pSARL_v2p9c47up6","56efdf27bb24eb000b8244da","freq","img/orange_2bandit_b2.png","70","70","test","1","173","173","8","",""
"null","285778","pSARL_v2","pSARL_v2p9c47up6","56efdf27bb24eb000b8244da","freq_resp","img/orange_2bandit_b.png","70","70","test","","","","8","",""
"null","285936","pSARL_v2","pSARL_v2p9c47up6","56efdf27bb24eb000b8244da","fixation","img/fixation.png","null","","test","","","","","",""
"484.10000002384186","286423","pSARL_v2","pSARL_v2p9c47up6","56efdf27bb24eb000b8244da","infreq","img/green_2bandit_b2.png","68","68","test","1","174","174","8","",""
"null","286745","pSARL_v2","pSARL_v2p9c47up6","56efdf27bb24eb000b8244da","infreq_resp","img/green_2bandit_b.png","68","68","test","","","","8","",""
"null","286904","pSARL_v2","pSARL_v2p9c47up6","56efdf27bb24eb000b8244da","fixation","img/fixation.png","null","","test","","","","","",""
"421.2999999523163","287329","pSARL_v2","pSARL_v2p9c47up6","56efdf27bb24eb000b8244da","freq","img/orange_2bandit_b2.png","70","70","test","1","175","175","8","",""
"null","287725","pSARL_v2","pSARL_v2p9c47up6","56efdf27bb24eb000b8244da","freq_resp","img/orange_2bandit_b.png","70","70","test","","","","8","",""
"null","287883","pSARL_v2","pSARL_v2p9c47up6","56efdf27bb24eb000b8244da","fixation","img/fixation.png","null","","test","","","","","",""
"353.0999999642372","288239","pSARL_v2","pSARL_v2p9c47up6","56efdf27bb24eb000b8244da","freq","img/orange_2bandit_b2.png","70","70","test","1","176","176","8","",""
"null","288703","pSARL_v2","pSARL_v2p9c47up6","56efdf27bb24eb000b8244da","freq_resp","img/orange_2bandit_b.png","70","70","test","","","","8","",""
"null","288871","pSARL_v2","pSARL_v2p9c47up6","56efdf27bb24eb000b8244da","fixation","img/fixation.png","null","","test","","","","","",""
"389.0999999642372","289264","pSARL_v2","pSARL_v2p9c47up6","56efdf27bb24eb000b8244da","freq","img/orange_2bandit_b2.png","70","70","test","1","177","177","8","",""
"null","289692","pSARL_v2","pSARL_v2p9c47up6","56efdf27bb24eb000b8244da","freq_resp","img/orange_2bandit_b.png","70","70","test","","","","8","",""
"null","289849","pSARL_v2","pSARL_v2p9c47up6","56efdf27bb24eb000b8244da","fixation","img/fixation.png","null","","test","","","","","",""
"314.39999997615814","290169","pSARL_v2","pSARL_v2p9c47up6","56efdf27bb24eb000b8244da","freq","img/orange_2bandit_b2.png","70","70","test","1","178","178","8","",""
"null","290670","pSARL_v2","pSARL_v2p9c47up6","56efdf27bb24eb000b8244da","freq_resp","img/orange_2bandit_b.png","70","70","test","","","","8","",""
"null","290839","pSARL_v2","pSARL_v2p9c47up6","56efdf27bb24eb000b8244da","fixation","img/fixation.png","null","","test","","","","","",""
"349","291192","pSARL_v2","pSARL_v2p9c47up6","56efdf27bb24eb000b8244da","freq","img/orange_2bandit_b2.png","70","70","test","1","179","179","8","",""
"null","291658","pSARL_v2","pSARL_v2p9c47up6","56efdf27bb24eb000b8244da","freq_resp","img/orange_2bandit_b.png","70","70","test","","","","8","",""
"null","291814","pSARL_v2","pSARL_v2p9c47up6","56efdf27bb24eb000b8244da","fixation","img/fixation.png","null","","test","","","","","",""
"317.89999997615814","292137","pSARL_v2","pSARL_v2p9c47up6","56efdf27bb24eb000b8244da","freq","img/orange_2bandit_b2.png","70","70","test","1","180","180","8","",""
"null","292638","pSARL_v2","pSARL_v2p9c47up6","56efdf27bb24eb000b8244da","freq_resp","img/orange_2bandit_b.png","70","70","test","","","","8","",""
"null","292797","pSARL_v2","pSARL_v2p9c47up6","56efdf27bb24eb000b8244da","fixation","img/fixation.png","null","","test","","","","","",""
"414.80000001192093","293217","pSARL_v2","pSARL_v2p9c47up6","56efdf27bb24eb000b8244da","freq","img/orange_2bandit_b2.png","70","70","test","1","181","181","8","",""
"null","293620","pSARL_v2","pSARL_v2p9c47up6","56efdf27bb24eb000b8244da","freq_resp","img/orange_2bandit_b.png","70","70","test","","","","8","",""
"null","293777","pSARL_v2","pSARL_v2p9c47up6","56efdf27bb24eb000b8244da","fixation","img/fixation.png","null","","test","","","","","",""
"379.0999999642372","294160","pSARL_v2","pSARL_v2p9c47up6","56efdf27bb24eb000b8244da","freq","img/orange_2bandit_b2.png","70","70","test","1","182","182","8","",""
"null","294586","pSARL_v2","pSARL_v2p9c47up6","56efdf27bb24eb000b8244da","freq_resp","img/orange_2bandit_b.png","70","70","test","","","","8","",""
"null","294742","pSARL_v2","pSARL_v2p9c47up6","56efdf27bb24eb000b8244da","fixation","img/fixation.png","null","","test","","","","","",""
"325.5","295072","pSARL_v2","pSARL_v2p9c47up6","56efdf27bb24eb000b8244da","freq","img/orange_2bandit_b2.png","70","70","test","1","183","183","8","",""
"null","295564","pSARL_v2","pSARL_v2p9c47up6","56efdf27bb24eb000b8244da","freq_resp","img/orange_2bandit_b.png","70","70","test","","","","8","",""
"null","295721","pSARL_v2","pSARL_v2p9c47up6","56efdf27bb24eb000b8244da","fixation","img/fixation.png","null","","test","","","","","",""
"331.5","296056","pSARL_v2","pSARL_v2p9c47up6","56efdf27bb24eb000b8244da","freq","img/orange_2bandit_b2.png","70","70","test","1","184","184","8","",""
"null","296537","pSARL_v2","pSARL_v2p9c47up6","56efdf27bb24eb000b8244da","freq_resp","img/orange_2bandit_b.png","70","70","test","","","","8","",""
"null","296695","pSARL_v2","pSARL_v2p9c47up6","56efdf27bb24eb000b8244da","fixation","img/fixation.png","null","","test","","","","","",""
"285.30000001192093","296985","pSARL_v2","pSARL_v2p9c47up6","56efdf27bb24eb000b8244da","freq","img/orange_2bandit_b2.png","70","70","test","1","185","185","8","",""
"null","297504","pSARL_v2","pSARL_v2p9c47up6","56efdf27bb24eb000b8244da","freq_resp","img/orange_2bandit_b.png","70","70","test","","","","8","",""
"null","297661","pSARL_v2","pSARL_v2p9c47up6","56efdf27bb24eb000b8244da","fixation","img/fixation.png","null","","test","","","","","",""
"287.10000002384186","297953","pSARL_v2","pSARL_v2p9c47up6","56efdf27bb24eb000b8244da","infreq","img/green_2bandit_b2.png","70","68","test","0","186","186","8","",""
"null","298478","pSARL_v2","pSARL_v2p9c47up6","56efdf27bb24eb000b8244da","infreq_resp","img/green_2bandit_b.png","70","68","test","","","","8","",""
"null","298638","pSARL_v2","pSARL_v2p9c47up6","56efdf27bb24eb000b8244da","fixation","img/fixation.png","null","","test","","","","","",""
"398.5","299041","pSARL_v2","pSARL_v2p9c47up6","56efdf27bb24eb000b8244da","freq","img/orange_2bandit_b2.png","70","70","test","1","187","187","8","",""
"null","299462","pSARL_v2","pSARL_v2p9c47up6","56efdf27bb24eb000b8244da","freq_resp","img/orange_2bandit_b.png","70","70","test","","","","8","",""
"null","299621","pSARL_v2","pSARL_v2p9c47up6","56efdf27bb24eb000b8244da","fixation","img/fixation.png","null","","test","","","","","",""
"366.5","299991","pSARL_v2","pSARL_v2p9c47up6","56efdf27bb24eb000b8244da","freq","img/orange_2bandit_b2.png","70","70","test","1","188","188","8","",""
"null","300439","pSARL_v2","pSARL_v2p9c47up6","56efdf27bb24eb000b8244da","freq_resp","img/orange_2bandit_b.png","70","70","test","","","","8","",""
"null","300598","pSARL_v2","pSARL_v2p9c47up6","56efdf27bb24eb000b8244da","fixation","img/fixation.png","null","","test","","","","","",""
"405.5","301008","pSARL_v2","pSARL_v2p9c47up6","56efdf27bb24eb000b8244da","freq","img/orange_2bandit_b2.png","70","70","test","1","189","189","8","",""
"null","301421","pSARL_v2","pSARL_v2p9c47up6","56efdf27bb24eb000b8244da","freq_resp","img/orange_2bandit_b.png","70","70","test","","","","8","",""
"null","301578","pSARL_v2","pSARL_v2p9c47up6","56efdf27bb24eb000b8244da","fixation","img/fixation.png","null","","test","","","","","",""
"897.6000000238419","302479","pSARL_v2","pSARL_v2p9c47up6","56efdf27bb24eb000b8244da","reward","img/slot.png","74","","test","","","","","",""
"null","303238","pSARL_v2","pSARL_v2p9c47up6","56efdf27bb24eb000b8244da","points","<div class=""verylowPoints""> -4 </div>","null","na","test","","","","8","-4","7"
"694.6999999880791","303937","pSARL_v2","pSARL_v2p9c47up6","56efdf27bb24eb000b8244da","freq","img/orange_2bandit_b2.png","70","70","test","1","190","190","9","",""
"null","304055","pSARL_v2","pSARL_v2p9c47up6","56efdf27bb24eb000b8244da","freq_resp","img/orange_2bandit_b.png","70","70","test","","","","9","",""
"null","304214","pSARL_v2","pSARL_v2p9c47up6","56efdf27bb24eb000b8244da","fixation","img/fixation.png","null","","test","","","","","",""
"422","304640","pSARL_v2","pSARL_v2p9c47up6","56efdf27bb24eb000b8244da","freq","img/orange_2bandit_b2.png","70","70","test","1","191","191","9","",""
"null","305037","pSARL_v2","pSARL_v2p9c47up6","56efdf27bb24eb000b8244da","freq_resp","img/orange_2bandit_b.png","70","70","test","","","","9","",""
"null","305194","pSARL_v2","pSARL_v2p9c47up6","56efdf27bb24eb000b8244da","fixation","img/fixation.png","null","","test","","","","","",""
"354.5999999642372","305555","pSARL_v2","pSARL_v2p9c47up6","56efdf27bb24eb000b8244da","freq","img/orange_2bandit_b2.png","70","70","test","1","192","192","9","",""
"null","306012","pSARL_v2","pSARL_v2p9c47up6","56efdf27bb24eb000b8244da","freq_resp","img/orange_2bandit_b.png","70","70","test","","","","9","",""
"null","306171","pSARL_v2","pSARL_v2p9c47up6","56efdf27bb24eb000b8244da","fixation","img/fixation.png","null","","test","","","","","",""
"345.60000002384186","306521","pSARL_v2","pSARL_v2p9c47up6","56efdf27bb24eb000b8244da","freq","img/orange_2bandit_b2.png","70","70","test","1","193","193","9","",""
"null","306982","pSARL_v2","pSARL_v2p9c47up6","56efdf27bb24eb000b8244da","freq_resp","img/orange_2bandit_b.png","70","70","test","","","","9","",""
"null","307138","pSARL_v2","pSARL_v2p9c47up6","56efdf27bb24eb000b8244da","fixation","img/fixation.png","null","","test","","","","","",""
"346.10000002384186","307489","pSARL_v2","pSARL_v2p9c47up6","56efdf27bb24eb000b8244da","freq","img/orange_2bandit_b2.png","70","70","test","1","194","194","9","",""
"null","307951","pSARL_v2","pSARL_v2p9c47up6","56efdf27bb24eb000b8244da","freq_resp","img/orange_2bandit_b.png","70","70","test","","","","9","",""
"null","308107","pSARL_v2","pSARL_v2p9c47up6","56efdf27bb24eb000b8244da","fixation","img/fixation.png","null","","test","","","","","",""
"313","308423","pSARL_v2","pSARL_v2p9c47up6","56efdf27bb24eb000b8244da","freq","img/orange_2bandit_b2.png","70","70","test","1","195","195","9","",""
"null","308922","pSARL_v2","pSARL_v2p9c47up6","56efdf27bb24eb000b8244da","freq_resp","img/orange_2bandit_b.png","70","70","test","","","","9","",""
"null","309082","pSARL_v2","pSARL_v2p9c47up6","56efdf27bb24eb000b8244da","fixation","img/fixation.png","null","","test","","","","","",""
"282.5","309369","pSARL_v2","pSARL_v2p9c47up6","56efdf27bb24eb000b8244da","freq","img/orange_2bandit_b2.png","70","70","test","1","196","196","9","",""
"null","309903","pSARL_v2","pSARL_v2p9c47up6","56efdf27bb24eb000b8244da","freq_resp","img/orange_2bandit_b.png","70","70","test","","","","9","",""
"null","310060","pSARL_v2","pSARL_v2p9c47up6","56efdf27bb24eb000b8244da","fixation","img/fixation.png","null","","test","","","","","",""
"312.80000001192093","310376","pSARL_v2","pSARL_v2p9c47up6","56efdf27bb24eb000b8244da","freq","img/orange_2bandit_b2.png","70","70","test","1","197","197","9","",""
"null","310884","pSARL_v2","pSARL_v2p9c47up6","56efdf27bb24eb000b8244da","freq_resp","img/orange_2bandit_b.png","70","70","test","","","","9","",""
"null","311040","pSARL_v2","pSARL_v2p9c47up6","56efdf27bb24eb000b8244da","fixation","img/fixation.png","null","","test","","","","","",""
"308.4000000357628","311354","pSARL_v2","pSARL_v2p9c47up6","56efdf27bb24eb000b8244da","freq","img/orange_2bandit_b2.png","70","70","test","1","198","198","9","",""
"null","311857","pSARL_v2","pSARL_v2p9c47up6","56efdf27bb24eb000b8244da","freq_resp","img/orange_2bandit_b.png","70","70","test","","","","9","",""
"null","312017","pSARL_v2","pSARL_v2p9c47up6","56efdf27bb24eb000b8244da","fixation","img/fixation.png","null","","test","","","","","",""
"339","312360","pSARL_v2","pSARL_v2p9c47up6","56efdf27bb24eb000b8244da","freq","img/orange_2bandit_b2.png","70","70","test","1","199","199","9","",""
"null","312838","pSARL_v2","pSARL_v2p9c47up6","56efdf27bb24eb000b8244da","freq_resp","img/orange_2bandit_b.png","70","70","test","","","","9","",""
"null","312994","pSARL_v2","pSARL_v2p9c47up6","56efdf27bb24eb000b8244da","fixation","img/fixation.png","null","","test","","","","","",""
"385.89999997615814","313385","pSARL_v2","pSARL_v2p9c47up6","56efdf27bb24eb000b8244da","freq","img/orange_2bandit_b2.png","70","70","test","1","200","200","9","",""
"null","313811","pSARL_v2","pSARL_v2p9c47up6","56efdf27bb24eb000b8244da","freq_resp","img/orange_2bandit_b.png","70","70","test","","","","9","",""
"null","313970","pSARL_v2","pSARL_v2p9c47up6","56efdf27bb24eb000b8244da","fixation","img/fixation.png","null","","test","","","","","",""
"467.0999999642372","314441","pSARL_v2","pSARL_v2p9c47up6","56efdf27bb24eb000b8244da","infreq","img/green_2bandit_b2.png","68","68","test","1","201","201","9","",""
"null","314777","pSARL_v2","pSARL_v2p9c47up6","56efdf27bb24eb000b8244da","infreq_resp","img/green_2bandit_b.png","68","68","test","","","","9","",""
"null","314936","pSARL_v2","pSARL_v2p9c47up6","56efdf27bb24eb000b8244da","fixation","img/fixation.png","null","","test","","","","","",""
"556.1999999880791","315496","pSARL_v2","pSARL_v2p9c47up6","56efdf27bb24eb000b8244da","freq","img/orange_2bandit_b2.png","70","70","test","1","202","202","9","",""
"null","315753","pSARL_v2","pSARL_v2p9c47up6","56efdf27bb24eb000b8244da","freq_resp","img/orange_2bandit_b.png","70","70","test","","","","9","",""
"null","315912","pSARL_v2","pSARL_v2p9c47up6","56efdf27bb24eb000b8244da","fixation","img/fixation.png","null","","test","","","","","",""
"468.10000002384186","316386","pSARL_v2","pSARL_v2p9c47up6","56efdf27bb24eb000b8244da","freq","img/orange_2bandit_b2.png","70","70","test","1","203","203","9","",""
"null","316734","pSARL_v2","pSARL_v2p9c47up6","56efdf27bb24eb000b8244da","freq_resp","img/orange_2bandit_b.png","70","70","test","","","","9","",""
"null","316891","pSARL_v2","pSARL_v2p9c47up6","56efdf27bb24eb000b8244da","fixation","img/fixation.png","null","","test","","","","","",""
"353.19999998807907","317248","pSARL_v2","pSARL_v2p9c47up6","56efdf27bb24eb000b8244da","freq","img/orange_2bandit_b2.png","70","70","test","1","204","204","9","",""
"null","317703","pSARL_v2","pSARL_v2p9c47up6","56efdf27bb24eb000b8244da","freq_resp","img/orange_2bandit_b.png","70","70","test","","","","9","",""
"null","317862","pSARL_v2","pSARL_v2p9c47up6","56efdf27bb24eb000b8244da","fixation","img/fixation.png","null","","test","","","","","",""
"566.1000000238419","318431","pSARL_v2","pSARL_v2p9c47up6","56efdf27bb24eb000b8244da","infreq","img/green_2bandit_b2.png","68","68","test","1","205","205","9","",""
"null","318670","pSARL_v2","pSARL_v2p9c47up6","56efdf27bb24eb000b8244da","infreq_resp","img/green_2bandit_b.png","68","68","test","","","","9","",""
"null","318828","pSARL_v2","pSARL_v2p9c47up6","56efdf27bb24eb000b8244da","fixation","img/fixation.png","null","","test","","","","","",""
"535.8999999761581","319369","pSARL_v2","pSARL_v2p9c47up6","56efdf27bb24eb000b8244da","freq","img/orange_2bandit_b2.png","70","70","test","1","206","206","9","",""
"null","319645","pSARL_v2","pSARL_v2p9c47up6","56efdf27bb24eb000b8244da","freq_resp","img/orange_2bandit_b.png","70","70","test","","","","9","",""
"null","319804","pSARL_v2","pSARL_v2p9c47up6","56efdf27bb24eb000b8244da","fixation","img/fixation.png","null","","test","","","","","",""
"576.6000000238419","320386","pSARL_v2","pSARL_v2p9c47up6","56efdf27bb24eb000b8244da","freq","img/orange_2bandit_b2.png","70","70","test","1","207","207","9","",""
