"rt","time_elapsed","expId","subject","prolificID","trialType","stimulus","key_press","corrresp","phase","corr","trialNum","attentionRunNum","blockNum","points","rlNum"
"2843.5","2852","pSARL_v2","pSARL_v2cydmsre7","5cb5f1e080ba1c0001790399","","","","","","","","","","",""
"","7352","pSARL_v2","pSARL_v2cydmsre7","5cb5f1e080ba1c0001790399","fullscreen","","","","","","","","","",""
"85299.09999990463","92656","pSARL_v2","pSARL_v2cydmsre7","5cb5f1e080ba1c0001790399","","","","","","","","","","",""
"null","93476","pSARL_v2","pSARL_v2cydmsre7","5cb5f1e080ba1c0001790399","freqPrac","img/orange_2bandit_a2.png","null","70","prac","0","","","","",""
"null","94499","pSARL_v2","pSARL_v2cydmsre7","5cb5f1e080ba1c0001790399","feedback","img/tooSlow.png","null","na","prac","","","","","",""
"null","94657","pSARL_v2","pSARL_v2cydmsre7","5cb5f1e080ba1c0001790399","fixation","img/fixation.png","null","","prac","","","","","",""
"null","95471","pSARL_v2","pSARL_v2cydmsre7","5cb5f1e080ba1c0001790399","infreqPrac","img/green_2bandit_a2.png","null","68","prac","0","","","","",""
"null","96483","pSARL_v2","pSARL_v2cydmsre7","5cb5f1e080ba1c0001790399","feedback","img/tooSlow.png","null","na","prac","","","","","",""
"null","96656","pSARL_v2","pSARL_v2cydmsre7","5cb5f1e080ba1c0001790399","fixation","img/fixation.png","null","","prac","","","","","",""
"681.3999998569489","97345","pSARL_v2","pSARL_v2cydmsre7","5cb5f1e080ba1c0001790399","freqPrac","img/orange_2bandit_a2.png","70","70","prac","1","","","","",""
"681.3999998569489","97476","pSARL_v2","pSARL_v2cydmsre7","5cb5f1e080ba1c0001790399","freqPrac_resp","img/orange_2bandit_a.png","70","70","prac","","","","","",""
"null","97639","pSARL_v2","pSARL_v2cydmsre7","5cb5f1e080ba1c0001790399","fixation","img/fixation.png","null","","prac","","","","","",""
"null","98454","pSARL_v2","pSARL_v2cydmsre7","5cb5f1e080ba1c0001790399","infreqPrac","img/green_2bandit_a2.png","null","68","prac","0","","","","",""
"null","99472","pSARL_v2","pSARL_v2cydmsre7","5cb5f1e080ba1c0001790399","feedback","img/tooSlow.png","null","na","prac","","","","","",""
"null","99640","pSARL_v2","pSARL_v2cydmsre7","5cb5f1e080ba1c0001790399","fixation","img/fixation.png","null","","prac","","","","","",""
"null","100464","pSARL_v2","pSARL_v2cydmsre7","5cb5f1e080ba1c0001790399","infreqPrac","img/green_2bandit_a2.png","null","68","prac","0","","","","",""
"null","101487","pSARL_v2","pSARL_v2cydmsre7","5cb5f1e080ba1c0001790399","feedback","img/tooSlow.png","null","na","prac","","","","","",""
"null","101657","pSARL_v2","pSARL_v2cydmsre7","5cb5f1e080ba1c0001790399","fixation","img/fixation.png","null","","prac","","","","","",""
"569.2999999523163","102232","pSARL_v2","pSARL_v2cydmsre7","5cb5f1e080ba1c0001790399","infreqPrac","img/green_2bandit_a2.png","70","68","prac","0","","","","",""
"569.2999999523163","102470","pSARL_v2","pSARL_v2cydmsre7","5cb5f1e080ba1c0001790399","infreqPrac_resp","img/green_2bandit_a.png","70","68","prac","","","","","",""
"null","103488","pSARL_v2","pSARL_v2cydmsre7","5cb5f1e080ba1c0001790399","feedback","img/wrongKey.png","null","na","prac","","","","","",""
"null","103656","pSARL_v2","pSARL_v2cydmsre7","5cb5f1e080ba1c0001790399","fixation","img/fixation.png","null","","prac","","","","","",""
"null","104479","pSARL_v2","pSARL_v2cydmsre7","5cb5f1e080ba1c0001790399","freqPrac","img/orange_2bandit_a2.png","null","70","prac","0","","","","",""
"null","105491","pSARL_v2","pSARL_v2cydmsre7","5cb5f1e080ba1c0001790399","feedback","img/tooSlow.png","null","na","prac","","","","","",""
"null","105657","pSARL_v2","pSARL_v2cydmsre7","5cb5f1e080ba1c0001790399","fixation","img/fixation.png","null","","prac","","","","","",""
"null","106474","pSARL_v2","pSARL_v2cydmsre7","5cb5f1e080ba1c0001790399","infreqPrac","img/green_2bandit_a2.png","null","68","prac","0","","","","",""
"null","107488","pSARL_v2","pSARL_v2cydmsre7","5cb5f1e080ba1c0001790399","feedback","img/tooSlow.png","null","na","prac","","","","","",""
"null","107659","pSARL_v2","pSARL_v2cydmsre7","5cb5f1e080ba1c0001790399","fixation","img/fixation.png","null","","prac","","","","","",""
"606","108272","pSARL_v2","pSARL_v2cydmsre7","5cb5f1e080ba1c0001790399","freqPrac","img/orange_2bandit_a2.png","70","70","prac","1","","","","",""
"606","108489","pSARL_v2","pSARL_v2cydmsre7","5cb5f1e080ba1c0001790399","freqPrac_resp","img/orange_2bandit_a.png","70","70","prac","","","","","",""
"null","108647","pSARL_v2","pSARL_v2cydmsre7","5cb5f1e080ba1c0001790399","fixation","img/fixation.png","null","","prac","","","","","",""
"554.1000001430511","109207","pSARL_v2","pSARL_v2cydmsre7","5cb5f1e080ba1c0001790399","freqPrac","img/orange_2bandit_a2.png","70","70","prac","1","","","","",""
"554.1000001430511","109472","pSARL_v2","pSARL_v2cydmsre7","5cb5f1e080ba1c0001790399","freqPrac_resp","img/orange_2bandit_a.png","70","70","prac","","","","","",""
"null","109644","pSARL_v2","pSARL_v2cydmsre7","5cb5f1e080ba1c0001790399","fixation","img/fixation.png","null","","prac","","","","","",""
"7283.5","116933","pSARL_v2","pSARL_v2cydmsre7","5cb5f1e080ba1c0001790399","","","","","prac","","","","","",""
"1596.7999999523163","118536","pSARL_v2","pSARL_v2cydmsre7","5cb5f1e080ba1c0001790399","rewardPractice","img/slot.png","74","","prac","","","","","",""
"null","119296","pSARL_v2","pSARL_v2cydmsre7","5cb5f1e080ba1c0001790399","feedback","<div class=""veryhighPoints""> +15 </div>","null","na","prac","","","","","",""
"null","119462","pSARL_v2","pSARL_v2cydmsre7","5cb5f1e080ba1c0001790399","fixation","img/fixation.png","null","","prac","","","","","",""
"4899.799999952316","124367","pSARL_v2","pSARL_v2cydmsre7","5cb5f1e080ba1c0001790399","","","","","prac","","","","","",""
"794.3000001907349","125167","pSARL_v2","pSARL_v2cydmsre7","5cb5f1e080ba1c0001790399","freq","img/orange_2bandit_a2.png","70","70","test","1","1","1","1","",""
"null","125178","pSARL_v2","pSARL_v2cydmsre7","5cb5f1e080ba1c0001790399","freq_resp","img/orange_2bandit_a.png","70","70","test","","","","1","",""
"null","125345","pSARL_v2","pSARL_v2cydmsre7","5cb5f1e080ba1c0001790399","fixation","img/fixation.png","null","","test","","","","","",""
"440.09999990463257","125793","pSARL_v2","pSARL_v2cydmsre7","5cb5f1e080ba1c0001790399","freq","img/orange_2bandit_a2.png","70","70","test","1","2","2","1","",""
"null","126169","pSARL_v2","pSARL_v2cydmsre7","5cb5f1e080ba1c0001790399","freq_resp","img/orange_2bandit_a.png","70","70","test","","","","1","",""
"null","126330","pSARL_v2","pSARL_v2cydmsre7","5cb5f1e080ba1c0001790399","fixation","img/fixation.png","null","","test","","","","","",""
"391.19999980926514","126728","pSARL_v2","pSARL_v2cydmsre7","5cb5f1e080ba1c0001790399","infreq","img/green_2bandit_a2.png","68","68","test","1","3","3","1","",""
"null","127152","pSARL_v2","pSARL_v2cydmsre7","5cb5f1e080ba1c0001790399","infreq_resp","img/green_2bandit_a.png","68","68","test","","","","1","",""
"null","127314","pSARL_v2","pSARL_v2cydmsre7","5cb5f1e080ba1c0001790399","fixation","img/fixation.png","null","","test","","","","","",""
"351.40000009536743","127673","pSARL_v2","pSARL_v2cydmsre7","5cb5f1e080ba1c0001790399","freq","img/orange_2bandit_a2.png","70","70","test","1","4","4","1","",""
"null","128133","pSARL_v2","pSARL_v2cydmsre7","5cb5f1e080ba1c0001790399","freq_resp","img/orange_2bandit_a.png","70","70","test","","","","1","",""
"null","128300","pSARL_v2","pSARL_v2cydmsre7","5cb5f1e080ba1c0001790399","fixation","img/fixation.png","null","","test","","","","","",""
"341.39999985694885","128649","pSARL_v2","pSARL_v2cydmsre7","5cb5f1e080ba1c0001790399","freq","img/orange_2bandit_a2.png","70","70","test","1","5","5","1","",""
"null","129116","pSARL_v2","pSARL_v2cydmsre7","5cb5f1e080ba1c0001790399","freq_resp","img/orange_2bandit_a.png","70","70","test","","","","1","",""
"null","129283","pSARL_v2","pSARL_v2cydmsre7","5cb5f1e080ba1c0001790399","fixation","img/fixation.png","null","","test","","","","","",""
"238.40000009536743","129528","pSARL_v2","pSARL_v2cydmsre7","5cb5f1e080ba1c0001790399","freq","img/orange_2bandit_a2.png","70","70","test","1","6","6","1","",""
"null","130110","pSARL_v2","pSARL_v2cydmsre7","5cb5f1e080ba1c0001790399","freq_resp","img/orange_2bandit_a.png","70","70","test","","","","1","",""
"null","130277","pSARL_v2","pSARL_v2cydmsre7","5cb5f1e080ba1c0001790399","fixation","img/fixation.png","null","","test","","","","","",""
"274.7000000476837","130558","pSARL_v2","pSARL_v2cydmsre7","5cb5f1e080ba1c0001790399","freq","img/orange_2bandit_a2.png","70","70","test","1","7","7","1","",""
"null","131103","pSARL_v2","pSARL_v2cydmsre7","5cb5f1e080ba1c0001790399","freq_resp","img/orange_2bandit_a.png","70","70","test","","","","1","",""
"null","131265","pSARL_v2","pSARL_v2cydmsre7","5cb5f1e080ba1c0001790399","fixation","img/fixation.png","null","","test","","","","","",""
"288.2999999523163","131560","pSARL_v2","pSARL_v2cydmsre7","5cb5f1e080ba1c0001790399","freq","img/orange_2bandit_a2.png","70","70","test","1","8","8","1","",""
"null","132084","pSARL_v2","pSARL_v2cydmsre7","5cb5f1e080ba1c0001790399","freq_resp","img/orange_2bandit_a.png","70","70","test","","","","1","",""
"null","132248","pSARL_v2","pSARL_v2cydmsre7","5cb5f1e080ba1c0001790399","fixation","img/fixation.png","null","","test","","","","","",""
"256.2000000476837","132512","pSARL_v2","pSARL_v2cydmsre7","5cb5f1e080ba1c0001790399","freq","img/orange_2bandit_a2.png","70","70","test","1","9","9","1","",""
"null","133078","pSARL_v2","pSARL_v2cydmsre7","5cb5f1e080ba1c0001790399","freq_resp","img/orange_2bandit_a.png","70","70","test","","","","1","",""
"null","133249","pSARL_v2","pSARL_v2cydmsre7","5cb5f1e080ba1c0001790399","fixation","img/fixation.png","null","","test","","","","","",""
"223.90000009536743","133480","pSARL_v2","pSARL_v2cydmsre7","5cb5f1e080ba1c0001790399","freq","img/orange_2bandit_a2.png","70","70","test","1","10","10","1","",""
"null","134065","pSARL_v2","pSARL_v2cydmsre7","5cb5f1e080ba1c0001790399","freq_resp","img/orange_2bandit_a.png","70","70","test","","","","1","",""
"null","134232","pSARL_v2","pSARL_v2cydmsre7","5cb5f1e080ba1c0001790399","fixation","img/fixation.png","null","","test","","","","","",""
"273.09999990463257","134512","pSARL_v2","pSARL_v2cydmsre7","5cb5f1e080ba1c0001790399","freq","img/orange_2bandit_a2.png","70","70","test","1","11","11","1","",""
"null","135048","pSARL_v2","pSARL_v2cydmsre7","5cb5f1e080ba1c0001790399","freq_resp","img/orange_2bandit_a.png","70","70","test","","","","1","",""
"null","135216","pSARL_v2","pSARL_v2cydmsre7","5cb5f1e080ba1c0001790399","fixation","img/fixation.png","null","","test","","","","","",""
"337.2000000476837","135561","pSARL_v2","pSARL_v2cydmsre7","5cb5f1e080ba1c0001790399","freq","img/orange_2bandit_a2.png","70","70","test","1","12","12","1","",""
"null","136032","pSARL_v2","pSARL_v2cydmsre7","5cb5f1e080ba1c0001790399","freq_resp","img/orange_2bandit_a.png","70","70","test","","","","1","",""
"null","136200","pSARL_v2","pSARL_v2cydmsre7","5cb5f1e080ba1c0001790399","fixation","img/fixation.png","null","","test","","","","","",""
"313.2999999523163","136520","pSARL_v2","pSARL_v2cydmsre7","5cb5f1e080ba1c0001790399","infreq","img/green_2bandit_a2.png","70","68","test","0","13","13","1","",""
"null","137018","pSARL_v2","pSARL_v2cydmsre7","5cb5f1e080ba1c0001790399","infreq_resp","img/green_2bandit_a.png","70","68","test","","","","1","",""
"null","137184","pSARL_v2","pSARL_v2cydmsre7","5cb5f1e080ba1c0001790399","fixation","img/fixation.png","null","","test","","","","","",""
"416.7999999523163","137608","pSARL_v2","pSARL_v2cydmsre7","5cb5f1e080ba1c0001790399","freq","img/orange_2bandit_a2.png","70","70","test","1","14","14","1","",""
"null","138003","pSARL_v2","pSARL_v2cydmsre7","5cb5f1e080ba1c0001790399","freq_resp","img/orange_2bandit_a.png","70","70","test","","","","1","",""
"null","138169","pSARL_v2","pSARL_v2cydmsre7","5cb5f1e080ba1c0001790399","fixation","img/fixation.png","null","","test","","","","","",""
"255.40000009536743","138431","pSARL_v2","pSARL_v2cydmsre7","5cb5f1e080ba1c0001790399","freq","img/orange_2bandit_a2.png","70","70","test","1","15","15","1","",""
"null","138988","pSARL_v2","pSARL_v2cydmsre7","5cb5f1e080ba1c0001790399","freq_resp","img/orange_2bandit_a.png","70","70","test","","","","1","",""
"null","139152","pSARL_v2","pSARL_v2cydmsre7","5cb5f1e080ba1c0001790399","fixation","img/fixation.png","null","","test","","","","","",""
"216.5","139375","pSARL_v2","pSARL_v2cydmsre7","5cb5f1e080ba1c0001790399","freq","img/orange_2bandit_a2.png","70","70","test","1","16","16","1","",""
"null","139977","pSARL_v2","pSARL_v2cydmsre7","5cb5f1e080ba1c0001790399","freq_resp","img/orange_2bandit_a.png","70","70","test","","","","1","",""
"null","140136","pSARL_v2","pSARL_v2cydmsre7","5cb5f1e080ba1c0001790399","fixation","img/fixation.png","null","","test","","","","","",""
"216.79999995231628","140360","pSARL_v2","pSARL_v2cydmsre7","5cb5f1e080ba1c0001790399","freq","img/orange_2bandit_a2.png","70","70","test","1","17","17","1","",""
"null","140959","pSARL_v2","pSARL_v2cydmsre7","5cb5f1e080ba1c0001790399","freq_resp","img/orange_2bandit_a.png","70","70","test","","","","1","",""
"null","141117","pSARL_v2","pSARL_v2cydmsre7","5cb5f1e080ba1c0001790399","fixation","img/fixation.png","null","","test","","","","","",""
"220.59999990463257","141345","pSARL_v2","pSARL_v2cydmsre7","5cb5f1e080ba1c0001790399","freq","img/orange_2bandit_a2.png","70","70","test","1","18","18","1","",""
"null","141942","pSARL_v2","pSARL_v2cydmsre7","5cb5f1e080ba1c0001790399","freq_resp","img/orange_2bandit_a.png","70","70","test","","","","1","",""
"null","142102","pSARL_v2","pSARL_v2cydmsre7","5cb5f1e080ba1c0001790399","fixation","img/fixation.png","null","","test","","","","","",""
"259.10000014305115","142367","pSARL_v2","pSARL_v2cydmsre7","5cb5f1e080ba1c0001790399","freq","img/orange_2bandit_a2.png","70","70","test","1","19","19","1","",""
"null","142919","pSARL_v2","pSARL_v2cydmsre7","5cb5f1e080ba1c0001790399","freq_resp","img/orange_2bandit_a.png","70","70","test","","","","1","",""
"null","143085","pSARL_v2","pSARL_v2cydmsre7","5cb5f1e080ba1c0001790399","fixation","img/fixation.png","null","","test","","","","","",""
"1107.9000000953674","144200","pSARL_v2","pSARL_v2cydmsre7","5cb5f1e080ba1c0001790399","reward","img/slot.png","74","","test","","","","","",""
"null","144967","pSARL_v2","pSARL_v2cydmsre7","5cb5f1e080ba1c0001790399","points","<div class=""verylowPoints""> -6 </div>","null","na","test","","","","1","-6","0"
"433.19999980926514","145406","pSARL_v2","pSARL_v2cydmsre7","5cb5f1e080ba1c0001790399","freq","img/orange_2bandit_a2.png","70","70","test","1","20","20","2","",""
"null","145787","pSARL_v2","pSARL_v2cydmsre7","5cb5f1e080ba1c0001790399","freq_resp","img/orange_2bandit_a.png","70","70","test","","","","2","",""
"null","145950","pSARL_v2","pSARL_v2cydmsre7","5cb5f1e080ba1c0001790399","fixation","img/fixation.png","null","","test","","","","","",""
"241.89999985694885","146199","pSARL_v2","pSARL_v2cydmsre7","5cb5f1e080ba1c0001790399","freq","img/orange_2bandit_a2.png","70","70","test","1","21","21","2","",""
"null","146775","pSARL_v2","pSARL_v2cydmsre7","5cb5f1e080ba1c0001790399","freq_resp","img/orange_2bandit_a.png","70","70","test","","","","2","",""
"null","146934","pSARL_v2","pSARL_v2cydmsre7","5cb5f1e080ba1c0001790399","fixation","img/fixation.png","null","","test","","","","","",""
"242.5","147183","pSARL_v2","pSARL_v2cydmsre7","5cb5f1e080ba1c0001790399","freq","img/orange_2bandit_a2.png","70","70","test","1","22","22","2","",""
"null","147758","pSARL_v2","pSARL_v2cydmsre7","5cb5f1e080ba1c0001790399","freq_resp","img/orange_2bandit_a.png","70","70","test","","","","2","",""
"null","147917","pSARL_v2","pSARL_v2cydmsre7","5cb5f1e080ba1c0001790399","fixation","img/fixation.png","null","","test","","","","","",""
"258.90000009536743","148183","pSARL_v2","pSARL_v2cydmsre7","5cb5f1e080ba1c0001790399","freq","img/orange_2bandit_a2.png","70","70","test","1","23","23","2","",""
"null","148744","pSARL_v2","pSARL_v2cydmsre7","5cb5f1e080ba1c0001790399","freq_resp","img/orange_2bandit_a.png","70","70","test","","","","2","",""
"null","148901","pSARL_v2","pSARL_v2cydmsre7","5cb5f1e080ba1c0001790399","fixation","img/fixation.png","null","","test","","","","","",""
"283.5","149191","pSARL_v2","pSARL_v2cydmsre7","5cb5f1e080ba1c0001790399","freq","img/orange_2bandit_a2.png","70","70","test","1","24","24","2","",""
"null","149726","pSARL_v2","pSARL_v2cydmsre7","5cb5f1e080ba1c0001790399","freq_resp","img/orange_2bandit_a.png","70","70","test","","","","2","",""
"null","149885","pSARL_v2","pSARL_v2cydmsre7","5cb5f1e080ba1c0001790399","fixation","img/fixation.png","null","","test","","","","","",""
"299.2999999523163","150192","pSARL_v2","pSARL_v2cydmsre7","5cb5f1e080ba1c0001790399","freq","img/orange_2bandit_a2.png","70","70","test","1","25","25","2","",""
"null","150711","pSARL_v2","pSARL_v2cydmsre7","5cb5f1e080ba1c0001790399","freq_resp","img/orange_2bandit_a.png","70","70","test","","","","2","",""
"null","150867","pSARL_v2","pSARL_v2cydmsre7","5cb5f1e080ba1c0001790399","fixation","img/fixation.png","null","","test","","","","","",""
"293.30000019073486","151167","pSARL_v2","pSARL_v2cydmsre7","5cb5f1e080ba1c0001790399","freq","img/orange_2bandit_a2.png","70","70","test","1","26","26","2","",""
"null","151695","pSARL_v2","pSARL_v2cydmsre7","5cb5f1e080ba1c0001790399","freq_resp","img/orange_2bandit_a.png","70","70","test","","","","2","",""
"null","151868","pSARL_v2","pSARL_v2cydmsre7","5cb5f1e080ba1c0001790399","fixation","img/fixation.png","null","","test","","","","","",""
"268.7999999523163","152142","pSARL_v2","pSARL_v2cydmsre7","5cb5f1e080ba1c0001790399","freq","img/orange_2bandit_a2.png","70","70","test","1","27","27","2","",""
"null","152693","pSARL_v2","pSARL_v2cydmsre7","5cb5f1e080ba1c0001790399","freq_resp","img/orange_2bandit_a.png","70","70","test","","","","2","",""
"null","152852","pSARL_v2","pSARL_v2cydmsre7","5cb5f1e080ba1c0001790399","fixation","img/fixation.png","null","","test","","","","","",""
"284","153143","pSARL_v2","pSARL_v2cydmsre7","5cb5f1e080ba1c0001790399","freq","img/orange_2bandit_a2.png","70","70","test","1","28","28","2","",""
"null","153678","pSARL_v2","pSARL_v2cydmsre7","5cb5f1e080ba1c0001790399","freq_resp","img/orange_2bandit_a.png","70","70","test","","","","2","",""
"null","153835","pSARL_v2","pSARL_v2cydmsre7","5cb5f1e080ba1c0001790399","fixation","img/fixation.png","null","","test","","","","","",""
"308.80000019073486","154150","pSARL_v2","pSARL_v2cydmsre7","5cb5f1e080ba1c0001790399","freq","img/orange_2bandit_a2.png","70","70","test","1","29","29","2","",""
"null","154649","pSARL_v2","pSARL_v2cydmsre7","5cb5f1e080ba1c0001790399","freq_resp","img/orange_2bandit_a.png","70","70","test","","","","2","",""
"null","154821","pSARL_v2","pSARL_v2cydmsre7","5cb5f1e080ba1c0001790399","fixation","img/fixation.png","null","","test","","","","","",""
"308.10000014305115","155135","pSARL_v2","pSARL_v2cydmsre7","5cb5f1e080ba1c0001790399","freq","img/orange_2bandit_a2.png","70","70","test","1","30","30","2","",""
"null","155638","pSARL_v2","pSARL_v2cydmsre7","5cb5f1e080ba1c0001790399","freq_resp","img/orange_2bandit_a.png","70","70","test","","","","2","",""
"null","155807","pSARL_v2","pSARL_v2cydmsre7","5cb5f1e080ba1c0001790399","fixation","img/fixation.png","null","","test","","","","","",""
"274.09999990463257","156087","pSARL_v2","pSARL_v2cydmsre7","5cb5f1e080ba1c0001790399","freq","img/orange_2bandit_a2.png","70","70","test","1","31","31","2","",""
"null","156622","pSARL_v2","pSARL_v2cydmsre7","5cb5f1e080ba1c0001790399","freq_resp","img/orange_2bandit_a.png","70","70","test","","","","2","",""
"null","156788","pSARL_v2","pSARL_v2cydmsre7","5cb5f1e080ba1c0001790399","fixation","img/fixation.png","null","","test","","","","","",""
"300.7000000476837","157096","pSARL_v2","pSARL_v2cydmsre7","5cb5f1e080ba1c0001790399","freq","img/orange_2bandit_a2.png","70","70","test","1","32","32","2","",""
"null","157609","pSARL_v2","pSARL_v2cydmsre7","5cb5f1e080ba1c0001790399","freq_resp","img/orange_2bandit_a.png","70","70","test","","","","2","",""
"null","157773","pSARL_v2","pSARL_v2cydmsre7","5cb5f1e080ba1c0001790399","fixation","img/fixation.png","null","","test","","","","","",""
"268","158048","pSARL_v2","pSARL_v2cydmsre7","5cb5f1e080ba1c0001790399","infreq","img/green_2bandit_a2.png","70","68","test","0","33","33","2","",""
"null","158603","pSARL_v2","pSARL_v2cydmsre7","5cb5f1e080ba1c0001790399","infreq_resp","img/green_2bandit_a.png","70","68","test","","","","2","",""
"null","158772","pSARL_v2","pSARL_v2cydmsre7","5cb5f1e080ba1c0001790399","fixation","img/fixation.png","null","","test","","","","","",""
"221","159000","pSARL_v2","pSARL_v2cydmsre7","5cb5f1e080ba1c0001790399","freq","img/orange_2bandit_a2.png","70","70","test","1","34","34","2","",""
"null","159588","pSARL_v2","pSARL_v2cydmsre7","5cb5f1e080ba1c0001790399","freq_resp","img/orange_2bandit_a.png","70","70","test","","","","2","",""
"null","159757","pSARL_v2","pSARL_v2cydmsre7","5cb5f1e080ba1c0001790399","fixation","img/fixation.png","null","","test","","","","","",""
"228.09999990463257","159991","pSARL_v2","pSARL_v2cydmsre7","5cb5f1e080ba1c0001790399","freq","img/orange_2bandit_a2.png","70","70","test","1","35","35","2","",""
"null","160583","pSARL_v2","pSARL_v2cydmsre7","5cb5f1e080ba1c0001790399","freq_resp","img/orange_2bandit_a.png","70","70","test","","","","2","",""
"null","160756","pSARL_v2","pSARL_v2cydmsre7","5cb5f1e080ba1c0001790399","fixation","img/fixation.png","null","","test","","","","","",""
"245","161007","pSARL_v2","pSARL_v2cydmsre7","5cb5f1e080ba1c0001790399","freq","img/orange_2bandit_a2.png","70","70","test","1","36","36","2","",""
"null","161584","pSARL_v2","pSARL_v2cydmsre7","5cb5f1e080ba1c0001790399","freq_resp","img/orange_2bandit_a.png","70","70","test","","","","2","",""
"null","161741","pSARL_v2","pSARL_v2cydmsre7","5cb5f1e080ba1c0001790399","fixation","img/fixation.png","null","","test","","","","","",""
"276.09999990463257","162025","pSARL_v2","pSARL_v2cydmsre7","5cb5f1e080ba1c0001790399","freq","img/orange_2bandit_a2.png","70","70","test","1","37","37","2","",""
"null","162560","pSARL_v2","pSARL_v2cydmsre7","5cb5f1e080ba1c0001790399","freq_resp","img/orange_2bandit_a.png","70","70","test","","","","2","",""
"null","162724","pSARL_v2","pSARL_v2cydmsre7","5cb5f1e080ba1c0001790399","fixation","img/fixation.png","null","","test","","","","","",""
"252.5","162984","pSARL_v2","pSARL_v2cydmsre7","5cb5f1e080ba1c0001790399","infreq","img/green_2bandit_a2.png","70","68","test","0","38","38","2","",""
"null","163546","pSARL_v2","pSARL_v2cydmsre7","5cb5f1e080ba1c0001790399","infreq_resp","img/green_2bandit_a.png","70","68","test","","","","2","",""
"null","163709","pSARL_v2","pSARL_v2cydmsre7","5cb5f1e080ba1c0001790399","fixation","img/fixation.png","null","","test","","","","","",""
"188.39999985694885","163905","pSARL_v2","pSARL_v2cydmsre7","5cb5f1e080ba1c0001790399","freq","img/orange_2bandit_a2.png","70","70","test","1","39","39","2","",""
"null","164531","pSARL_v2","pSARL_v2cydmsre7","5cb5f1e080ba1c0001790399","freq_resp","img/orange_2bandit_a.png","70","70","test","","","","2","",""
"null","164692","pSARL_v2","pSARL_v2cydmsre7","5cb5f1e080ba1c0001790399","fixation","img/fixation.png","null","","test","","","","","",""
"189.5","164888","pSARL_v2","pSARL_v2cydmsre7","5cb5f1e080ba1c0001790399","freq","img/orange_2bandit_a2.png","70","70","test","1","40","40","2","",""
"null","165519","pSARL_v2","pSARL_v2cydmsre7","5cb5f1e080ba1c0001790399","freq_resp","img/orange_2bandit_a.png","70","70","test","","","","2","",""
"null","165689","pSARL_v2","pSARL_v2cydmsre7","5cb5f1e080ba1c0001790399","fixation","img/fixation.png","null","","test","","","","","",""
"247.29999995231628","165943","pSARL_v2","pSARL_v2cydmsre7","5cb5f1e080ba1c0001790399","freq","img/orange_2bandit_a2.png","70","70","test","1","41","41","2","",""
"null","166504","pSARL_v2","pSARL_v2cydmsre7","5cb5f1e080ba1c0001790399","freq_resp","img/orange_2bandit_a.png","70","70","test","","","","2","",""
"null","166662","pSARL_v2","pSARL_v2cydmsre7","5cb5f1e080ba1c0001790399","fixation","img/fixation.png","null","","test","","","","","",""
"290.7999999523163","166961","pSARL_v2","pSARL_v2cydmsre7","5cb5f1e080ba1c0001790399","freq","img/orange_2bandit_a2.png","70","70","test","1","42","42","2","",""
"null","167489","pSARL_v2","pSARL_v2cydmsre7","5cb5f1e080ba1c0001790399","freq_resp","img/orange_2bandit_a.png","70","70","test","","","","2","",""
"null","167658","pSARL_v2","pSARL_v2cydmsre7","5cb5f1e080ba1c0001790399","fixation","img/fixation.png","null","","test","","","","","",""
"271.7000000476837","167937","pSARL_v2","pSARL_v2cydmsre7","5cb5f1e080ba1c0001790399","freq","img/orange_2bandit_a2.png","70","70","test","1","43","43","2","",""
"null","168476","pSARL_v2","pSARL_v2cydmsre7","5cb5f1e080ba1c0001790399","freq_resp","img/orange_2bandit_a.png","70","70","test","","","","2","",""
"null","168644","pSARL_v2","pSARL_v2cydmsre7","5cb5f1e080ba1c0001790399","fixation","img/fixation.png","null","","test","","","","","",""
"333","168983","pSARL_v2","pSARL_v2cydmsre7","5cb5f1e080ba1c0001790399","freq","img/orange_2bandit_a2.png","70","70","test","1","44","44","2","",""
"null","169464","pSARL_v2","pSARL_v2cydmsre7","5cb5f1e080ba1c0001790399","freq_resp","img/orange_2bandit_a.png","70","70","test","","","","2","",""
"null","169625","pSARL_v2","pSARL_v2cydmsre7","5cb5f1e080ba1c0001790399","fixation","img/fixation.png","null","","test","","","","","",""
"303.59999990463257","169934","pSARL_v2","pSARL_v2cydmsre7","5cb5f1e080ba1c0001790399","freq","img/orange_2bandit_a2.png","70","70","test","1","45","45","2","",""
"null","170442","pSARL_v2","pSARL_v2cydmsre7","5cb5f1e080ba1c0001790399","freq_resp","img/orange_2bandit_a.png","70","70","test","","","","2","",""
"null","170607","pSARL_v2","pSARL_v2cydmsre7","5cb5f1e080ba1c0001790399","fixation","img/fixation.png","null","","test","","","","","",""
"1002.4000000953674","171616","pSARL_v2","pSARL_v2cydmsre7","5cb5f1e080ba1c0001790399","reward","img/slot.png","74","","test","","","","","",""
"null","172387","pSARL_v2","pSARL_v2cydmsre7","5cb5f1e080ba1c0001790399","points","<div class=""verylowPoints""> -11 </div>","null","na","test","","","","2","-11","1"
"278.40000009536743","172672","pSARL_v2","pSARL_v2cydmsre7","5cb5f1e080ba1c0001790399","freq","img/orange_2bandit_a2.png","70","70","test","1","46","46","3","",""
"null","173204","pSARL_v2","pSARL_v2cydmsre7","5cb5f1e080ba1c0001790399","freq_resp","img/orange_2bandit_a.png","70","70","test","","","","3","",""
"null","173373","pSARL_v2","pSARL_v2cydmsre7","5cb5f1e080ba1c0001790399","fixation","img/fixation.png","null","","test","","","","","",""
"243.69999980926514","173624","pSARL_v2","pSARL_v2cydmsre7","5cb5f1e080ba1c0001790399","freq","img/orange_2bandit_a2.png","70","70","test","1","47","47","3","",""
"null","174190","pSARL_v2","pSARL_v2cydmsre7","5cb5f1e080ba1c0001790399","freq_resp","img/orange_2bandit_a.png","70","70","test","","","","3","",""
"null","174361","pSARL_v2","pSARL_v2cydmsre7","5cb5f1e080ba1c0001790399","fixation","img/fixation.png","null","","test","","","","","",""
"271.7000000476837","174640","pSARL_v2","pSARL_v2cydmsre7","5cb5f1e080ba1c0001790399","freq","img/orange_2bandit_a2.png","70","70","test","1","48","48","3","",""
"null","175188","pSARL_v2","pSARL_v2cydmsre7","5cb5f1e080ba1c0001790399","freq_resp","img/orange_2bandit_a.png","70","70","test","","","","3","",""
"null","175358","pSARL_v2","pSARL_v2cydmsre7","5cb5f1e080ba1c0001790399","fixation","img/fixation.png","null","","test","","","","","",""
"258.7999999523163","175625","pSARL_v2","pSARL_v2cydmsre7","5cb5f1e080ba1c0001790399","freq","img/orange_2bandit_a2.png","70","70","test","1","49","49","3","",""
"null","176174","pSARL_v2","pSARL_v2cydmsre7","5cb5f1e080ba1c0001790399","freq_resp","img/orange_2bandit_a.png","70","70","test","","","","3","",""
"null","176342","pSARL_v2","pSARL_v2cydmsre7","5cb5f1e080ba1c0001790399","fixation","img/fixation.png","null","","test","","","","","",""
"276","176624","pSARL_v2","pSARL_v2cydmsre7","5cb5f1e080ba1c0001790399","freq","img/orange_2bandit_a2.png","70","70","test","1","50","50","3","",""
"null","177158","pSARL_v2","pSARL_v2cydmsre7","5cb5f1e080ba1c0001790399","freq_resp","img/orange_2bandit_a.png","70","70","test","","","","3","",""
"null","177327","pSARL_v2","pSARL_v2cydmsre7","5cb5f1e080ba1c0001790399","fixation","img/fixation.png","null","","test","","","","","",""
"433.60000014305115","177768","pSARL_v2","pSARL_v2cydmsre7","5cb5f1e080ba1c0001790399","infreq","img/green_2bandit_a2.png","68","68","test","1","51","51","3","",""
"null","178148","pSARL_v2","pSARL_v2cydmsre7","5cb5f1e080ba1c0001790399","infreq_resp","img/green_2bandit_a.png","68","68","test","","","","3","",""
"null","178311","pSARL_v2","pSARL_v2cydmsre7","5cb5f1e080ba1c0001790399","fixation","img/fixation.png","null","","test","","","","","",""
"314.59999990463257","178633","pSARL_v2","pSARL_v2cydmsre7","5cb5f1e080ba1c0001790399","freq","img/orange_2bandit_a2.png","70","70","test","1","52","52","3","",""
"null","179130","pSARL_v2","pSARL_v2cydmsre7","5cb5f1e080ba1c0001790399","freq_resp","img/orange_2bandit_a.png","70","70","test","","","","3","",""
"null","179294","pSARL_v2","pSARL_v2cydmsre7","5cb5f1e080ba1c0001790399","fixation","img/fixation.png","null","","test","","","","","",""
"322.5","179624","pSARL_v2","pSARL_v2cydmsre7","5cb5f1e080ba1c0001790399","freq","img/orange_2bandit_a2.png","70","70","test","1","53","53","3","",""
"null","180111","pSARL_v2","pSARL_v2cydmsre7","5cb5f1e080ba1c0001790399","freq_resp","img/orange_2bandit_a.png","70","70","test","","","","3","",""
"null","180278","pSARL_v2","pSARL_v2cydmsre7","5cb5f1e080ba1c0001790399","fixation","img/fixation.png","null","","test","","","","","",""
"306.90000009536743","180593","pSARL_v2","pSARL_v2cydmsre7","5cb5f1e080ba1c0001790399","freq","img/orange_2bandit_a2.png","70","70","test","1","54","54","3","",""
"null","181098","pSARL_v2","pSARL_v2cydmsre7","5cb5f1e080ba1c0001790399","freq_resp","img/orange_2bandit_a.png","70","70","test","","","","3","",""
"null","181260","pSARL_v2","pSARL_v2cydmsre7","5cb5f1e080ba1c0001790399","fixation","img/fixation.png","null","","test","","","","","",""
"412.59999990463257","181680","pSARL_v2","pSARL_v2cydmsre7","5cb5f1e080ba1c0001790399","freq","img/orange_2bandit_a2.png","70","70","test","1","55","55","3","",""
"null","182084","pSARL_v2","pSARL_v2cydmsre7","5cb5f1e080ba1c0001790399","freq_resp","img/orange_2bandit_a.png","70","70","test","","","","3","",""
"null","182245","pSARL_v2","pSARL_v2cydmsre7","5cb5f1e080ba1c0001790399","fixation","img/fixation.png","null","","test","","","","","",""
"348.40000009536743","182601","pSARL_v2","pSARL_v2cydmsre7","5cb5f1e080ba1c0001790399","freq","img/orange_2bandit_a2.png","70","70","test","1","56","56","3","",""
"null","183075","pSARL_v2","pSARL_v2cydmsre7","5cb5f1e080ba1c0001790399","freq_resp","img/orange_2bandit_a.png","70","70","test","","","","3","",""
"null","183246","pSARL_v2","pSARL_v2cydmsre7","5cb5f1e080ba1c0001790399","fixation","img/fixation.png","null","","test","","","","","",""
"331.39999985694885","183585","pSARL_v2","pSARL_v2cydmsre7","5cb5f1e080ba1c0001790399","freq","img/orange_2bandit_a2.png","70","70","test","1","57","57","3","",""
"null","184076","pSARL_v2","pSARL_v2cydmsre7","5cb5f1e080ba1c0001790399","freq_resp","img/orange_2bandit_a.png","70","70","test","","","","3","",""
"null","184245","pSARL_v2","pSARL_v2cydmsre7","5cb5f1e080ba1c0001790399","fixation","img/fixation.png","null","","test","","","","","",""
"386.90000009536743","184638","pSARL_v2","pSARL_v2cydmsre7","5cb5f1e080ba1c0001790399","freq","img/orange_2bandit_a2.png","70","70","test","1","58","58","3","",""
"null","185061","pSARL_v2","pSARL_v2cydmsre7","5cb5f1e080ba1c0001790399","freq_resp","img/orange_2bandit_a.png","70","70","test","","","","3","",""
"null","185227","pSARL_v2","pSARL_v2cydmsre7","5cb5f1e080ba1c0001790399","fixation","img/fixation.png","null","","test","","","","","",""
"334.7000000476837","185570","pSARL_v2","pSARL_v2cydmsre7","5cb5f1e080ba1c0001790399","freq","img/orange_2bandit_a2.png","70","70","test","1","59","59","3","",""
"null","186045","pSARL_v2","pSARL_v2cydmsre7","5cb5f1e080ba1c0001790399","freq_resp","img/orange_2bandit_a.png","70","70","test","","","","3","",""
"null","186216","pSARL_v2","pSARL_v2cydmsre7","5cb5f1e080ba1c0001790399","fixation","img/fixation.png","null","","test","","","","","",""
"337.40000009536743","186561","pSARL_v2","pSARL_v2cydmsre7","5cb5f1e080ba1c0001790399","freq","img/orange_2bandit_a2.png","70","70","test","1","60","60","3","",""
"null","187033","pSARL_v2","pSARL_v2cydmsre7","5cb5f1e080ba1c0001790399","freq_resp","img/orange_2bandit_a.png","70","70","test","","","","3","",""
"null","187196","pSARL_v2","pSARL_v2cydmsre7","5cb5f1e080ba1c0001790399","fixation","img/fixation.png","null","","test","","","","","",""
"390.2000000476837","187593","pSARL_v2","pSARL_v2cydmsre7","5cb5f1e080ba1c0001790399","infreq","img/green_2bandit_a2.png","68","68","test","1","61","61","3","",""
"null","188017","pSARL_v2","pSARL_v2cydmsre7","5cb5f1e080ba1c0001790399","infreq_resp","img/green_2bandit_a.png","68","68","test","","","","3","",""
"null","188181","pSARL_v2","pSARL_v2cydmsre7","5cb5f1e080ba1c0001790399","fixation","img/fixation.png","null","","test","","","","","",""
"204.80000019073486","188393","pSARL_v2","pSARL_v2cydmsre7","5cb5f1e080ba1c0001790399","freq","img/orange_2bandit_a2.png","70","70","test","1","62","62","3","",""
"null","189007","pSARL_v2","pSARL_v2cydmsre7","5cb5f1e080ba1c0001790399","freq_resp","img/orange_2bandit_a.png","70","70","test","","","","3","",""
"null","189168","pSARL_v2","pSARL_v2cydmsre7","5cb5f1e080ba1c0001790399","fixation","img/fixation.png","null","","test","","","","","",""
"137.70000004768372","189314","pSARL_v2","pSARL_v2cydmsre7","5cb5f1e080ba1c0001790399","freq","img/orange_2bandit_a2.png","70","70","test","1","63","63","3","",""
"null","189982","pSARL_v2","pSARL_v2cydmsre7","5cb5f1e080ba1c0001790399","freq_resp","img/orange_2bandit_a.png","70","70","test","","","","3","",""
"null","190150","pSARL_v2","pSARL_v2cydmsre7","5cb5f1e080ba1c0001790399","fixation","img/fixation.png","null","","test","","","","","",""
"67.40000009536743","190223","pSARL_v2","pSARL_v2cydmsre7","5cb5f1e080ba1c0001790399","freq","img/orange_2bandit_a2.png","70","70","test","1","64","64","3","",""
"null","190964","pSARL_v2","pSARL_v2cydmsre7","5cb5f1e080ba1c0001790399","freq_resp","img/orange_2bandit_a.png","70","70","test","","","","3","",""
"null","191131","pSARL_v2","pSARL_v2cydmsre7","5cb5f1e080ba1c0001790399","fixation","img/fixation.png","null","","test","","","","","",""
"118.89999985694885","191256","pSARL_v2","pSARL_v2cydmsre7","5cb5f1e080ba1c0001790399","freq","img/orange_2bandit_a2.png","70","70","test","1","65","65","3","",""
"null","191953","pSARL_v2","pSARL_v2cydmsre7","5cb5f1e080ba1c0001790399","freq_resp","img/orange_2bandit_a.png","70","70","test","","","","3","",""
"null","192115","pSARL_v2","pSARL_v2cydmsre7","5cb5f1e080ba1c0001790399","fixation","img/fixation.png","null","","test","","","","","",""
"173.89999985694885","192296","pSARL_v2","pSARL_v2cydmsre7","5cb5f1e080ba1c0001790399","freq","img/orange_2bandit_a2.png","70","70","test","1","66","66","3","",""
"null","192940","pSARL_v2","pSARL_v2cydmsre7","5cb5f1e080ba1c0001790399","freq_resp","img/orange_2bandit_a.png","70","70","test","","","","3","",""
"null","193098","pSARL_v2","pSARL_v2cydmsre7","5cb5f1e080ba1c0001790399","fixation","img/fixation.png","null","","test","","","","","",""
"1087.5999999046326","194194","pSARL_v2","pSARL_v2cydmsre7","5cb5f1e080ba1c0001790399","reward","img/slot.png","74","","test","","","","","",""
"null","194966","pSARL_v2","pSARL_v2cydmsre7","5cb5f1e080ba1c0001790399","points","<div class=""verylowPoints""> -7 </div>","null","na","test","","","","3","-7","2"
"299.5","195272","pSARL_v2","pSARL_v2cydmsre7","5cb5f1e080ba1c0001790399","freq","img/orange_2bandit_a2.png","70","70","test","1","67","67","4","",""
"null","195779","pSARL_v2","pSARL_v2cydmsre7","5cb5f1e080ba1c0001790399","freq_resp","img/orange_2bandit_a.png","70","70","test","","","","4","",""
"null","195950","pSARL_v2","pSARL_v2cydmsre7","5cb5f1e080ba1c0001790399","fixation","img/fixation.png","null","","test","","","","","",""
"220.09999990463257","196177","pSARL_v2","pSARL_v2cydmsre7","5cb5f1e080ba1c0001790399","freq","img/orange_2bandit_a2.png","70","70","test","1","68","68","4","",""
"null","196773","pSARL_v2","pSARL_v2cydmsre7","5cb5f1e080ba1c0001790399","freq_resp","img/orange_2bandit_a.png","70","70","test","","","","4","",""
"null","196934","pSARL_v2","pSARL_v2cydmsre7","5cb5f1e080ba1c0001790399","fixation","img/fixation.png","null","","test","","","","","",""
"259.2999999523163","197200","pSARL_v2","pSARL_v2cydmsre7","5cb5f1e080ba1c0001790399","freq","img/orange_2bandit_a2.png","70","70","test","1","69","69","4","",""
"null","197762","pSARL_v2","pSARL_v2cydmsre7","5cb5f1e080ba1c0001790399","freq_resp","img/orange_2bandit_a.png","70","70","test","","","","4","",""
"null","197931","pSARL_v2","pSARL_v2cydmsre7","5cb5f1e080ba1c0001790399","fixation","img/fixation.png","null","","test","","","","","",""
"246.20000004768372","198184","pSARL_v2","pSARL_v2cydmsre7","5cb5f1e080ba1c0001790399","freq","img/orange_2bandit_a2.png","70","70","test","1","70","70","4","",""
"null","198752","pSARL_v2","pSARL_v2cydmsre7","5cb5f1e080ba1c0001790399","freq_resp","img/orange_2bandit_a.png","70","70","test","","","","4","",""
"null","198916","pSARL_v2","pSARL_v2cydmsre7","5cb5f1e080ba1c0001790399","fixation","img/fixation.png","null","","test","","","","","",""
"269.2000000476837","199193","pSARL_v2","pSARL_v2cydmsre7","5cb5f1e080ba1c0001790399","freq","img/orange_2bandit_a2.png","70","70","test","1","71","71","4","",""
"null","199746","pSARL_v2","pSARL_v2cydmsre7","5cb5f1e080ba1c0001790399","freq_resp","img/orange_2bandit_a.png","70","70","test","","","","4","",""
"null","199905","pSARL_v2","pSARL_v2cydmsre7","5cb5f1e080ba1c0001790399","fixation","img/fixation.png","null","","test","","","","","",""
"329.60000014305115","200241","pSARL_v2","pSARL_v2cydmsre7","5cb5f1e080ba1c0001790399","freq","img/orange_2bandit_a2.png","70","70","test","1","72","72","4","",""
"null","200719","pSARL_v2","pSARL_v2cydmsre7","5cb5f1e080ba1c0001790399","freq_resp","img/orange_2bandit_a.png","70","70","test","","","","4","",""
"null","200880","pSARL_v2","pSARL_v2cydmsre7","5cb5f1e080ba1c0001790399","fixation","img/fixation.png","null","","test","","","","","",""
"353.2000000476837","201240","pSARL_v2","pSARL_v2cydmsre7","5cb5f1e080ba1c0001790399","freq","img/orange_2bandit_a2.png","70","70","test","1","73","73","4","",""
"null","201707","pSARL_v2","pSARL_v2cydmsre7","5cb5f1e080ba1c0001790399","freq_resp","img/orange_2bandit_a.png","70","70","test","","","","4","",""
"null","201869","pSARL_v2","pSARL_v2cydmsre7","5cb5f1e080ba1c0001790399","fixation","img/fixation.png","null","","test","","","","","",""
"316.5","202194","pSARL_v2","pSARL_v2cydmsre7","5cb5f1e080ba1c0001790399","freq","img/orange_2bandit_a2.png","70","70","test","1","74","74","4","",""
"null","202687","pSARL_v2","pSARL_v2cydmsre7","5cb5f1e080ba1c0001790399","freq_resp","img/orange_2bandit_a.png","70","70","test","","","","4","",""
"null","202850","pSARL_v2","pSARL_v2cydmsre7","5cb5f1e080ba1c0001790399","fixation","img/fixation.png","null","","test","","","","","",""
"327.09999990463257","203185","pSARL_v2","pSARL_v2cydmsre7","5cb5f1e080ba1c0001790399","freq","img/orange_2bandit_a2.png","70","70","test","1","75","75","4","",""
"null","203675","pSARL_v2","pSARL_v2cydmsre7","5cb5f1e080ba1c0001790399","freq_resp","img/orange_2bandit_a.png","70","70","test","","","","4","",""
"null","203835","pSARL_v2","pSARL_v2cydmsre7","5cb5f1e080ba1c0001790399","fixation","img/fixation.png","null","","test","","","","","",""
"485.5","204327","pSARL_v2","pSARL_v2cydmsre7","5cb5f1e080ba1c0001790399","infreq","img/green_2bandit_a2.png","68","68","test","1","76","76","4","",""
"null","204652","pSARL_v2","pSARL_v2cydmsre7","5cb5f1e080ba1c0001790399","infreq_resp","img/green_2bandit_a.png","68","68","test","","","","4","",""
"null","204821","pSARL_v2","pSARL_v2cydmsre7","5cb5f1e080ba1c0001790399","fixation","img/fixation.png","null","","test","","","","","",""
"276.60000014305115","205105","pSARL_v2","pSARL_v2cydmsre7","5cb5f1e080ba1c0001790399","freq","img/orange_2bandit_a2.png","70","70","test","1","77","77","4","",""
"null","205651","pSARL_v2","pSARL_v2cydmsre7","5cb5f1e080ba1c0001790399","freq_resp","img/orange_2bandit_a.png","70","70","test","","","","4","",""
"null","205819","pSARL_v2","pSARL_v2cydmsre7","5cb5f1e080ba1c0001790399","fixation","img/fixation.png","null","","test","","","","","",""
"239","206065","pSARL_v2","pSARL_v2cydmsre7","5cb5f1e080ba1c0001790399","infreq","img/green_2bandit_a2.png","70","68","test","0","78","78","4","",""
"null","206638","pSARL_v2","pSARL_v2cydmsre7","5cb5f1e080ba1c0001790399","infreq_resp","img/green_2bandit_a.png","70","68","test","","","","4","",""
"null","206803","pSARL_v2","pSARL_v2cydmsre7","5cb5f1e080ba1c0001790399","fixation","img/fixation.png","null","","test","","","","","",""
"205.59999990463257","207017","pSARL_v2","pSARL_v2cydmsre7","5cb5f1e080ba1c0001790399","freq","img/orange_2bandit_a2.png","70","70","test","1","79","79","4","",""
"null","207628","pSARL_v2","pSARL_v2cydmsre7","5cb5f1e080ba1c0001790399","freq_resp","img/orange_2bandit_a.png","70","70","test","","","","4","",""
"null","207786","pSARL_v2","pSARL_v2cydmsre7","5cb5f1e080ba1c0001790399","fixation","img/fixation.png","null","","test","","","","","",""
"256.09999990463257","208049","pSARL_v2","pSARL_v2cydmsre7","5cb5f1e080ba1c0001790399","freq","img/orange_2bandit_a2.png","70","70","test","1","80","80","4","",""
"null","208601","pSARL_v2","pSARL_v2cydmsre7","5cb5f1e080ba1c0001790399","freq_resp","img/orange_2bandit_a.png","70","70","test","","","","4","",""
"null","208772","pSARL_v2","pSARL_v2cydmsre7","5cb5f1e080ba1c0001790399","fixation","img/fixation.png","null","","test","","","","","",""
"221.30000019073486","209001","pSARL_v2","pSARL_v2cydmsre7","5cb5f1e080ba1c0001790399","freq","img/orange_2bandit_a2.png","70","70","test","1","81","81","4","",""
"null","209600","pSARL_v2","pSARL_v2cydmsre7","5cb5f1e080ba1c0001790399","freq_resp","img/orange_2bandit_a.png","70","70","test","","","","4","",""
"null","209770","pSARL_v2","pSARL_v2cydmsre7","5cb5f1e080ba1c0001790399","fixation","img/fixation.png","null","","test","","","","","",""
"199.70000004768372","209977","pSARL_v2","pSARL_v2cydmsre7","5cb5f1e080ba1c0001790399","freq","img/orange_2bandit_a2.png","70","70","test","1","82","82","4","",""
"null","210595","pSARL_v2","pSARL_v2cydmsre7","5cb5f1e080ba1c0001790399","freq_resp","img/orange_2bandit_a.png","70","70","test","","","","4","",""
"null","210753","pSARL_v2","pSARL_v2cydmsre7","5cb5f1e080ba1c0001790399","fixation","img/fixation.png","null","","test","","","","","",""
"216.70000004768372","210977","pSARL_v2","pSARL_v2cydmsre7","5cb5f1e080ba1c0001790399","freq","img/orange_2bandit_a2.png","70","70","test","1","83","83","4","",""
"null","211582","pSARL_v2","pSARL_v2cydmsre7","5cb5f1e080ba1c0001790399","freq_resp","img/orange_2bandit_a.png","70","70","test","","","","4","",""
"null","211752","pSARL_v2","pSARL_v2cydmsre7","5cb5f1e080ba1c0001790399","fixation","img/fixation.png","null","","test","","","","","",""
"185.10000014305115","211945","pSARL_v2","pSARL_v2cydmsre7","5cb5f1e080ba1c0001790399","freq","img/orange_2bandit_a2.png","70","70","test","1","84","84","4","",""
"null","212571","pSARL_v2","pSARL_v2cydmsre7","5cb5f1e080ba1c0001790399","freq_resp","img/orange_2bandit_a.png","70","70","test","","","","4","",""
"null","212737","pSARL_v2","pSARL_v2cydmsre7","5cb5f1e080ba1c0001790399","fixation","img/fixation.png","null","","test","","","","","",""
"136.40000009536743","212882","pSARL_v2","pSARL_v2cydmsre7","5cb5f1e080ba1c0001790399","freq","img/orange_2bandit_a2.png","70","70","test","1","85","85","4","",""
"null","213553","pSARL_v2","pSARL_v2cydmsre7","5cb5f1e080ba1c0001790399","freq_resp","img/orange_2bandit_a.png","70","70","test","","","","4","",""
"null","213722","pSARL_v2","pSARL_v2cydmsre7","5cb5f1e080ba1c0001790399","fixation","img/fixation.png","null","","test","","","","","",""
"264","213993","pSARL_v2","pSARL_v2cydmsre7","5cb5f1e080ba1c0001790399","freq","img/orange_2bandit_a2.png","70","70","test","1","86","86","4","",""
"null","214548","pSARL_v2","pSARL_v2cydmsre7","5cb5f1e080ba1c0001790399","freq_resp","img/orange_2bandit_a.png","70","70","test","","","","4","",""
"null","214721","pSARL_v2","pSARL_v2cydmsre7","5cb5f1e080ba1c0001790399","fixation","img/fixation.png","null","","test","","","","","",""
"224.70000004768372","214954","pSARL_v2","pSARL_v2cydmsre7","5cb5f1e080ba1c0001790399","infreq","img/green_2bandit_a2.png","70","68","test","0","87","87","4","",""
"null","215549","pSARL_v2","pSARL_v2cydmsre7","5cb5f1e080ba1c0001790399","infreq_resp","img/green_2bandit_a.png","70","68","test","","","","4","",""
"null","215721","pSARL_v2","pSARL_v2cydmsre7","5cb5f1e080ba1c0001790399","fixation","img/fixation.png","null","","test","","","","","",""
"344.5","216072","pSARL_v2","pSARL_v2cydmsre7","5cb5f1e080ba1c0001790399","freq","img/orange_2bandit_a2.png","70","70","test","1","88","88","4","",""
"null","216545","pSARL_v2","pSARL_v2cydmsre7","5cb5f1e080ba1c0001790399","freq_resp","img/orange_2bandit_a.png","70","70","test","","","","4","",""
"null","216709","pSARL_v2","pSARL_v2cydmsre7","5cb5f1e080ba1c0001790399","fixation","img/fixation.png","null","","test","","","","","",""
"260.2000000476837","216977","pSARL_v2","pSARL_v2cydmsre7","5cb5f1e080ba1c0001790399","freq","img/orange_2bandit_a2.png","70","70","test","1","89","89","4","",""
"null","217538","pSARL_v2","pSARL_v2cydmsre7","5cb5f1e080ba1c0001790399","freq_resp","img/orange_2bandit_a.png","70","70","test","","","","4","",""
"null","217707","pSARL_v2","pSARL_v2cydmsre7","5cb5f1e080ba1c0001790399","fixation","img/fixation.png","null","","test","","","","","",""
"1007.2000000476837","218720","pSARL_v2","pSARL_v2cydmsre7","5cb5f1e080ba1c0001790399","reward","img/slot.png","74","","test","","","","","",""
"null","219478","pSARL_v2","pSARL_v2cydmsre7","5cb5f1e080ba1c0001790399","points","<div class=""verylowPoints""> -3 </div>","null","na","test","","","","4","-3","3"
"284","219769","pSARL_v2","pSARL_v2cydmsre7","5cb5f1e080ba1c0001790399","freq","img/orange_2bandit_a2.png","70","70","test","1","90","90","5","",""
"null","220303","pSARL_v2","pSARL_v2cydmsre7","5cb5f1e080ba1c0001790399","freq_resp","img/orange_2bandit_a.png","70","70","test","","","","5","",""
"null","220476","pSARL_v2","pSARL_v2cydmsre7","5cb5f1e080ba1c0001790399","fixation","img/fixation.png","null","","test","","","","","",""
"133.39999985694885","220617","pSARL_v2","pSARL_v2cydmsre7","5cb5f1e080ba1c0001790399","freq","img/orange_2bandit_a2.png","70","70","test","1","91","91","5","",""
"null","221299","pSARL_v2","pSARL_v2cydmsre7","5cb5f1e080ba1c0001790399","freq_resp","img/orange_2bandit_a.png","70","70","test","","","","5","",""
"null","221458","pSARL_v2","pSARL_v2cydmsre7","5cb5f1e080ba1c0001790399","fixation","img/fixation.png","null","","test","","","","","",""
"199.89999985694885","221665","pSARL_v2","pSARL_v2cydmsre7","5cb5f1e080ba1c0001790399","freq","img/orange_2bandit_a2.png","70","70","test","1","92","92","5","",""
"null","222284","pSARL_v2","pSARL_v2cydmsre7","5cb5f1e080ba1c0001790399","freq_resp","img/orange_2bandit_a.png","70","70","test","","","","5","",""
"null","222455","pSARL_v2","pSARL_v2cydmsre7","5cb5f1e080ba1c0001790399","fixation","img/fixation.png","null","","test","","","","","",""
"217.70000004768372","222679","pSARL_v2","pSARL_v2cydmsre7","5cb5f1e080ba1c0001790399","freq","img/orange_2bandit_a2.png","70","70","test","1","93","93","5","",""
"null","223269","pSARL_v2","pSARL_v2cydmsre7","5cb5f1e080ba1c0001790399","freq_resp","img/orange_2bandit_a.png","70","70","test","","","","5","",""
"null","223442","pSARL_v2","pSARL_v2cydmsre7","5cb5f1e080ba1c0001790399","fixation","img/fixation.png","null","","test","","","","","",""
"255.29999995231628","223704","pSARL_v2","pSARL_v2cydmsre7","5cb5f1e080ba1c0001790399","freq","img/orange_2bandit_a2.png","70","70","test","1","94","94","5","",""
"null","224266","pSARL_v2","pSARL_v2cydmsre7","5cb5f1e080ba1c0001790399","freq_resp","img/orange_2bandit_a.png","70","70","test","","","","5","",""
"null","224424","pSARL_v2","pSARL_v2cydmsre7","5cb5f1e080ba1c0001790399","fixation","img/fixation.png","null","","test","","","","","",""
"257.5","224688","pSARL_v2","pSARL_v2cydmsre7","5cb5f1e080ba1c0001790399","freq","img/orange_2bandit_a2.png","70","70","test","1","95","95","5","",""
"null","225241","pSARL_v2","pSARL_v2cydmsre7","5cb5f1e080ba1c0001790399","freq_resp","img/orange_2bandit_a.png","70","70","test","","","","5","",""
"null","225406","pSARL_v2","pSARL_v2cydmsre7","5cb5f1e080ba1c0001790399","fixation","img/fixation.png","null","","test","","","","","",""
"258.90000009536743","225671","pSARL_v2","pSARL_v2cydmsre7","5cb5f1e080ba1c0001790399","freq","img/orange_2bandit_a2.png","70","70","test","1","96","96","5","",""
"null","226220","pSARL_v2","pSARL_v2cydmsre7","5cb5f1e080ba1c0001790399","freq_resp","img/orange_2bandit_a.png","70","70","test","","","","5","",""
"null","226391","pSARL_v2","pSARL_v2cydmsre7","5cb5f1e080ba1c0001790399","fixation","img/fixation.png","null","","test","","","","","",""
"257.5","226655","pSARL_v2","pSARL_v2cydmsre7","5cb5f1e080ba1c0001790399","freq","img/orange_2bandit_a2.png","70","70","test","1","97","97","5","",""
"null","227220","pSARL_v2","pSARL_v2cydmsre7","5cb5f1e080ba1c0001790399","freq_resp","img/orange_2bandit_a.png","70","70","test","","","","5","",""
"null","227390","pSARL_v2","pSARL_v2cydmsre7","5cb5f1e080ba1c0001790399","fixation","img/fixation.png","null","","test","","","","","",""
"265.90000009536743","227664","pSARL_v2","pSARL_v2cydmsre7","5cb5f1e080ba1c0001790399","freq","img/orange_2bandit_a2.png","70","70","test","1","98","98","5","",""
"null","228222","pSARL_v2","pSARL_v2cydmsre7","5cb5f1e080ba1c0001790399","freq_resp","img/orange_2bandit_a.png","70","70","test","","","","5","",""
"null","228393","pSARL_v2","pSARL_v2cydmsre7","5cb5f1e080ba1c0001790399","fixation","img/fixation.png","null","","test","","","","","",""
"248.79999995231628","228649","pSARL_v2","pSARL_v2cydmsre7","5cb5f1e080ba1c0001790399","freq","img/orange_2bandit_a2.png","70","70","test","1","99","99","5","",""
"null","229222","pSARL_v2","pSARL_v2cydmsre7","5cb5f1e080ba1c0001790399","freq_resp","img/orange_2bandit_a.png","70","70","test","","","","5","",""
"null","229392","pSARL_v2","pSARL_v2cydmsre7","5cb5f1e080ba1c0001790399","fixation","img/fixation.png","null","","test","","","","","",""
"337.7000000476837","229737","pSARL_v2","pSARL_v2cydmsre7","5cb5f1e080ba1c0001790399","freq","img/orange_2bandit_a2.png","70","70","test","1","100","100","5","",""
"null","230206","pSARL_v2","pSARL_v2cydmsre7","5cb5f1e080ba1c0001790399","freq_resp","img/orange_2bandit_a.png","70","70","test","","","","5","",""
"null","230375","pSARL_v2","pSARL_v2cydmsre7","5cb5f1e080ba1c0001790399","fixation","img/fixation.png","null","","test","","","","","",""
"347","230729","pSARL_v2","pSARL_v2cydmsre7","5cb5f1e080ba1c0001790399","freq","img/orange_2bandit_a2.png","70","70","test","1","101","101","5","",""
"null","231191","pSARL_v2","pSARL_v2cydmsre7","5cb5f1e080ba1c0001790399","freq_resp","img/orange_2bandit_a.png","70","70","test","","","","5","",""
"null","231360","pSARL_v2","pSARL_v2cydmsre7","5cb5f1e080ba1c0001790399","fixation","img/fixation.png","null","","test","","","","","",""
"394.5","231760","pSARL_v2","pSARL_v2cydmsre7","5cb5f1e080ba1c0001790399","infreq","img/green_2bandit_a2.png","68","68","test","1","102","102","5","",""
"null","232178","pSARL_v2","pSARL_v2cydmsre7","5cb5f1e080ba1c0001790399","infreq_resp","img/green_2bandit_a.png","68","68","test","","","","5","",""
"null","232342","pSARL_v2","pSARL_v2cydmsre7","5cb5f1e080ba1c0001790399","fixation","img/fixation.png","null","","test","","","","","",""
"220.20000004768372","232568","pSARL_v2","pSARL_v2cydmsre7","5cb5f1e080ba1c0001790399","freq","img/orange_2bandit_a2.png","70","70","test","1","103","103","5","",""
"null","233167","pSARL_v2","pSARL_v2cydmsre7","5cb5f1e080ba1c0001790399","freq_resp","img/orange_2bandit_a.png","70","70","test","","","","5","",""
"null","233325","pSARL_v2","pSARL_v2cydmsre7","5cb5f1e080ba1c0001790399","fixation","img/fixation.png","null","","test","","","","","",""
"308.09999990463257","233639","pSARL_v2","pSARL_v2cydmsre7","5cb5f1e080ba1c0001790399","freq","img/orange_2bandit_a2.png","70","70","test","1","104","104","5","",""
"null","234141","pSARL_v2","pSARL_v2cydmsre7","5cb5f1e080ba1c0001790399","freq_resp","img/orange_2bandit_a.png","70","70","test","","","","5","",""
"null","234309","pSARL_v2","pSARL_v2cydmsre7","5cb5f1e080ba1c0001790399","fixation","img/fixation.png","null","","test","","","","","",""
"275.89999985694885","234591","pSARL_v2","pSARL_v2cydmsre7","5cb5f1e080ba1c0001790399","freq","img/orange_2bandit_a2.png","70","70","test","1","105","105","5","",""
"null","235138","pSARL_v2","pSARL_v2cydmsre7","5cb5f1e080ba1c0001790399","freq_resp","img/orange_2bandit_a.png","70","70","test","","","","5","",""
"null","235308","pSARL_v2","pSARL_v2cydmsre7","5cb5f1e080ba1c0001790399","fixation","img/fixation.png","null","","test","","","","","",""
"285.2999999523163","235600","pSARL_v2","pSARL_v2cydmsre7","5cb5f1e080ba1c0001790399","freq","img/orange_2bandit_a2.png","70","70","test","1","106","106","5","",""
"null","236129","pSARL_v2","pSARL_v2cydmsre7","5cb5f1e080ba1c0001790399","freq_resp","img/orange_2bandit_a.png","70","70","test","","","","5","",""
"null","236293","pSARL_v2","pSARL_v2cydmsre7","5cb5f1e080ba1c0001790399","fixation","img/fixation.png","null","","test","","","","","",""
"285","236585","pSARL_v2","pSARL_v2cydmsre7","5cb5f1e080ba1c0001790399","freq","img/orange_2bandit_a2.png","70","70","test","1","107","107","5","",""
"null","237107","pSARL_v2","pSARL_v2cydmsre7","5cb5f1e080ba1c0001790399","freq_resp","img/orange_2bandit_a.png","70","70","test","","","","5","",""
"null","237277","pSARL_v2","pSARL_v2cydmsre7","5cb5f1e080ba1c0001790399","fixation","img/fixation.png","null","","test","","","","","",""
"323.90000009536743","237608","pSARL_v2","pSARL_v2cydmsre7","5cb5f1e080ba1c0001790399","freq","img/orange_2bandit_a2.png","70","70","test","1","108","108","5","",""
"null","238099","pSARL_v2","pSARL_v2cydmsre7","5cb5f1e080ba1c0001790399","freq_resp","img/orange_2bandit_a.png","70","70","test","","","","5","",""
"null","238262","pSARL_v2","pSARL_v2cydmsre7","5cb5f1e080ba1c0001790399","fixation","img/fixation.png","null","","test","","","","","",""
"323.60000014305115","238593","pSARL_v2","pSARL_v2cydmsre7","5cb5f1e080ba1c0001790399","freq","img/orange_2bandit_a2.png","70","70","test","1","109","109","5","",""
"null","239093","pSARL_v2","pSARL_v2cydmsre7","5cb5f1e080ba1c0001790399","freq_resp","img/orange_2bandit_a.png","70","70","test","","","","5","",""
"null","239264","pSARL_v2","pSARL_v2cydmsre7","5cb5f1e080ba1c0001790399","fixation","img/fixation.png","null","","test","","","","","",""
"297.7999999523163","239568","pSARL_v2","pSARL_v2cydmsre7","5cb5f1e080ba1c0001790399","freq","img/orange_2bandit_a2.png","70","70","test","1","110","110","5","",""
"null","240092","pSARL_v2","pSARL_v2cydmsre7","5cb5f1e080ba1c0001790399","freq_resp","img/orange_2bandit_a.png","70","70","test","","","","5","",""
"null","240261","pSARL_v2","pSARL_v2cydmsre7","5cb5f1e080ba1c0001790399","fixation","img/fixation.png","null","","test","","","","","",""
"356","240625","pSARL_v2","pSARL_v2cydmsre7","5cb5f1e080ba1c0001790399","freq","img/orange_2bandit_a2.png","70","70","test","1","111","111","5","",""
"null","241083","pSARL_v2","pSARL_v2cydmsre7","5cb5f1e080ba1c0001790399","freq_resp","img/orange_2bandit_a.png","70","70","test","","","","5","",""
"null","241245","pSARL_v2","pSARL_v2cydmsre7","5cb5f1e080ba1c0001790399","fixation","img/fixation.png","null","","test","","","","","",""
"364.39999985694885","241617","pSARL_v2","pSARL_v2cydmsre7","5cb5f1e080ba1c0001790399","freq","img/orange_2bandit_a2.png","70","70","test","1","112","112","5","",""
"null","242063","pSARL_v2","pSARL_v2cydmsre7","5cb5f1e080ba1c0001790399","freq_resp","img/orange_2bandit_a.png","70","70","test","","","","5","",""
"null","242230","pSARL_v2","pSARL_v2cydmsre7","5cb5f1e080ba1c0001790399","fixation","img/fixation.png","null","","test","","","","","",""
"443.59999990463257","242681","pSARL_v2","pSARL_v2cydmsre7","5cb5f1e080ba1c0001790399","infreq","img/green_2bandit_a2.png","68","68","test","1","113","113","5","",""
"null","243051","pSARL_v2","pSARL_v2cydmsre7","5cb5f1e080ba1c0001790399","infreq_resp","img/green_2bandit_a.png","68","68","test","","","","5","",""
"null","243210","pSARL_v2","pSARL_v2cydmsre7","5cb5f1e080ba1c0001790399","fixation","img/fixation.png","null","","test","","","","","",""
"304.10000014305115","243521","pSARL_v2","pSARL_v2cydmsre7","5cb5f1e080ba1c0001790399","freq","img/orange_2bandit_a2.png","70","70","test","1","114","114","5","",""
"null","244032","pSARL_v2","pSARL_v2cydmsre7","5cb5f1e080ba1c0001790399","freq_resp","img/orange_2bandit_a.png","70","70","test","","","","5","",""
"null","244195","pSARL_v2","pSARL_v2cydmsre7","5cb5f1e080ba1c0001790399","fixation","img/fixation.png","null","","test","","","","","",""
"1006.5","245205","pSARL_v2","pSARL_v2cydmsre7","5cb5f1e080ba1c0001790399","reward","img/slot.png","74","","test","","","","","",""
"null","245963","pSARL_v2","pSARL_v2cydmsre7","5cb5f1e080ba1c0001790399","points","<div class=""veryhighPoints""> +1 </div>","null","na","test","","","","5","1","4"
"312.2999999523163","246282","pSARL_v2","pSARL_v2cydmsre7","5cb5f1e080ba1c0001790399","freq","img/orange_2bandit_a2.png","70","70","test","1","115","115","6","",""
"null","246794","pSARL_v2","pSARL_v2cydmsre7","5cb5f1e080ba1c0001790399","freq_resp","img/orange_2bandit_a.png","70","70","test","","","","6","",""
"null","246963","pSARL_v2","pSARL_v2cydmsre7","5cb5f1e080ba1c0001790399","fixation","img/fixation.png","null","","test","","","","","",""
"252.79999995231628","247224","pSARL_v2","pSARL_v2cydmsre7","5cb5f1e080ba1c0001790399","infreq","img/green_2bandit_a2.png","70","68","test","0","116","116","6","",""
"null","247791","pSARL_v2","pSARL_v2cydmsre7","5cb5f1e080ba1c0001790399","infreq_resp","img/green_2bandit_a.png","70","68","test","","","","6","",""
"null","247962","pSARL_v2","pSARL_v2cydmsre7","5cb5f1e080ba1c0001790399","fixation","img/fixation.png","null","","test","","","","","",""
"198.39999985694885","248168","pSARL_v2","pSARL_v2cydmsre7","5cb5f1e080ba1c0001790399","freq","img/orange_2bandit_a2.png","70","70","test","1","117","117","6","",""
"null","248779","pSARL_v2","pSARL_v2cydmsre7","5cb5f1e080ba1c0001790399","freq_resp","img/orange_2bandit_a.png","70","70","test","","","","6","",""
"null","248947","pSARL_v2","pSARL_v2cydmsre7","5cb5f1e080ba1c0001790399","fixation","img/fixation.png","null","","test","","","","","",""
"173.20000004768372","249128","pSARL_v2","pSARL_v2cydmsre7","5cb5f1e080ba1c0001790399","freq","img/orange_2bandit_a2.png","70","70","test","1","118","118","6","",""
"null","249776","pSARL_v2","pSARL_v2cydmsre7","5cb5f1e080ba1c0001790399","freq_resp","img/orange_2bandit_a.png","70","70","test","","","","6","",""
"null","249946","pSARL_v2","pSARL_v2cydmsre7","5cb5f1e080ba1c0001790399","fixation","img/fixation.png","null","","test","","","","","",""
"142.90000009536743","250097","pSARL_v2","pSARL_v2cydmsre7","5cb5f1e080ba1c0001790399","freq","img/orange_2bandit_a2.png","70","70","test","1","119","119","6","",""
"null","250771","pSARL_v2","pSARL_v2cydmsre7","5cb5f1e080ba1c0001790399","freq_resp","img/orange_2bandit_a.png","70","70","test","","","","6","",""
"null","250931","pSARL_v2","pSARL_v2cydmsre7","5cb5f1e080ba1c0001790399","fixation","img/fixation.png","null","","test","","","","","",""
"null","251748","pSARL_v2","pSARL_v2cydmsre7","5cb5f1e080ba1c0001790399","freq","img/orange_2bandit_a2.png","null","70","test","0","120","120","6","",""
"null","251913","pSARL_v2","pSARL_v2cydmsre7","5cb5f1e080ba1c0001790399","fixation","img/fixation.png","null","","test","","","","","",""
"695.5999999046326","252615","pSARL_v2","pSARL_v2cydmsre7","5cb5f1e080ba1c0001790399","freq","img/orange_2bandit_a2.png","70","70","test","1","121","121","6","",""
"null","252734","pSARL_v2","pSARL_v2cydmsre7","5cb5f1e080ba1c0001790399","freq_resp","img/orange_2bandit_a.png","70","70","test","","","","6","",""
"null","252898","pSARL_v2","pSARL_v2cydmsre7","5cb5f1e080ba1c0001790399","fixation","img/fixation.png","null","","test","","","","","",""
"486.2999999523163","253390","pSARL_v2","pSARL_v2cydmsre7","5cb5f1e080ba1c0001790399","freq","img/orange_2bandit_a2.png","70","70","test","1","122","122","6","",""
"null","253720","pSARL_v2","pSARL_v2cydmsre7","5cb5f1e080ba1c0001790399","freq_resp","img/orange_2bandit_a.png","70","70","test","","","","6","",""
"null","253883","pSARL_v2","pSARL_v2cydmsre7","5cb5f1e080ba1c0001790399","fixation","img/fixation.png","null","","test","","","","","",""
"357.69999980926514","254248","pSARL_v2","pSARL_v2cydmsre7","5cb5f1e080ba1c0001790399","freq","img/orange_2bandit_a2.png","70","70","test","1","123","123","6","",""
"null","254700","pSARL_v2","pSARL_v2cydmsre7","5cb5f1e080ba1c0001790399","freq_resp","img/orange_2bandit_a.png","70","70","test","","","","6","",""
"null","254864","pSARL_v2","pSARL_v2cydmsre7","5cb5f1e080ba1c0001790399","fixation","img/fixation.png","null","","test","","","","","",""
"352.59999990463257","255224","pSARL_v2","pSARL_v2cydmsre7","5cb5f1e080ba1c0001790399","freq","img/orange_2bandit_a2.png","70","70","test","1","124","124","6","",""
"null","255683","pSARL_v2","pSARL_v2cydmsre7","5cb5f1e080ba1c0001790399","freq_resp","img/orange_2bandit_a.png","70","70","test","","","","6","",""
"null","255847","pSARL_v2","pSARL_v2cydmsre7","5cb5f1e080ba1c0001790399","fixation","img/fixation.png","null","","test","","","","","",""
"433.90000009536743","256287","pSARL_v2","pSARL_v2cydmsre7","5cb5f1e080ba1c0001790399","infreq","img/green_2bandit_a2.png","68","68","test","1","125","125","6","",""
"null","256673","pSARL_v2","pSARL_v2cydmsre7","5cb5f1e080ba1c0001790399","infreq_resp","img/green_2bandit_a.png","68","68","test","","","","6","",""
"null","256831","pSARL_v2","pSARL_v2cydmsre7","5cb5f1e080ba1c0001790399","fixation","img/fixation.png","null","","test","","","","","",""
"248.59999990463257","257086","pSARL_v2","pSARL_v2cydmsre7","5cb5f1e080ba1c0001790399","freq","img/orange_2bandit_a2.png","70","70","test","1","126","126","6","",""
"null","257645","pSARL_v2","pSARL_v2cydmsre7","5cb5f1e080ba1c0001790399","freq_resp","img/orange_2bandit_a.png","70","70","test","","","","6","",""
"null","257816","pSARL_v2","pSARL_v2cydmsre7","5cb5f1e080ba1c0001790399","fixation","img/fixation.png","null","","test","","","","","",""
"264.89999985694885","258088","pSARL_v2","pSARL_v2cydmsre7","5cb5f1e080ba1c0001790399","infreq","img/green_2bandit_a2.png","70","68","test","0","127","127","6","",""
"null","258646","pSARL_v2","pSARL_v2cydmsre7","5cb5f1e080ba1c0001790399","infreq_resp","img/green_2bandit_a.png","70","68","test","","","","6","",""
"null","258815","pSARL_v2","pSARL_v2cydmsre7","5cb5f1e080ba1c0001790399","fixation","img/fixation.png","null","","test","","","","","",""
"201.79999995231628","259024","pSARL_v2","pSARL_v2cydmsre7","5cb5f1e080ba1c0001790399","freq","img/orange_2bandit_a2.png","70","70","test","1","128","128","6","",""
"null","259640","pSARL_v2","pSARL_v2cydmsre7","5cb5f1e080ba1c0001790399","freq_resp","img/orange_2bandit_a.png","70","70","test","","","","6","",""
"null","259799","pSARL_v2","pSARL_v2cydmsre7","5cb5f1e080ba1c0001790399","fixation","img/fixation.png","null","","test","","","","","",""
"241.70000004768372","260048","pSARL_v2","pSARL_v2cydmsre7","5cb5f1e080ba1c0001790399","freq","img/orange_2bandit_a2.png","70","70","test","1","129","129","6","",""
"null","260615","pSARL_v2","pSARL_v2cydmsre7","5cb5f1e080ba1c0001790399","freq_resp","img/orange_2bandit_a.png","70","70","test","","","","6","",""
"null","260782","pSARL_v2","pSARL_v2cydmsre7","5cb5f1e080ba1c0001790399","fixation","img/fixation.png","null","","test","","","","","",""
"210.5","261000","pSARL_v2","pSARL_v2cydmsre7","5cb5f1e080ba1c0001790399","freq","img/orange_2bandit_a2.png","70","70","test","1","130","130","6","",""
"null","261602","pSARL_v2","pSARL_v2cydmsre7","5cb5f1e080ba1c0001790399","freq_resp","img/orange_2bandit_a.png","70","70","test","","","","6","",""
"null","261765","pSARL_v2","pSARL_v2cydmsre7","5cb5f1e080ba1c0001790399","fixation","img/fixation.png","null","","test","","","","","",""
"122.79999995231628","261895","pSARL_v2","pSARL_v2cydmsre7","5cb5f1e080ba1c0001790399","freq","img/orange_2bandit_a2.png","70","70","test","1","131","131","6","",""
"null","262586","pSARL_v2","pSARL_v2cydmsre7","5cb5f1e080ba1c0001790399","freq_resp","img/orange_2bandit_a.png","70","70","test","","","","6","",""
"null","262751","pSARL_v2","pSARL_v2cydmsre7","5cb5f1e080ba1c0001790399","fixation","img/fixation.png","null","","test","","","","","",""
"48.799999952316284","262806","pSARL_v2","pSARL_v2cydmsre7","5cb5f1e080ba1c0001790399","freq","img/orange_2bandit_a2.png","70","70","test","1","132","132","6","",""
"null","263568","pSARL_v2","pSARL_v2cydmsre7","5cb5f1e080ba1c0001790399","freq_resp","img/orange_2bandit_a.png","70","70","test","","","","6","",""
"null","263738","pSARL_v2","pSARL_v2cydmsre7","5cb5f1e080ba1c0001790399","fixation","img/fixation.png","null","","test","","","","","",""
"103","263849","pSARL_v2","pSARL_v2cydmsre7","5cb5f1e080ba1c0001790399","freq","img/orange_2bandit_a2.png","70","70","test","1","133","133","6","",""
"null","264555","pSARL_v2","pSARL_v2cydmsre7","5cb5f1e080ba1c0001790399","freq_resp","img/orange_2bandit_a.png","70","70","test","","","","6","",""
"null","264717","pSARL_v2","pSARL_v2cydmsre7","5cb5f1e080ba1c0001790399","fixation","img/fixation.png","null","","test","","","","","",""
"83.39999985694885","264808","pSARL_v2","pSARL_v2cydmsre7","5cb5f1e080ba1c0001790399","freq","img/orange_2bandit_a2.png","70","70","test","1","134","134","6","",""
"null","265533","pSARL_v2","pSARL_v2cydmsre7","5cb5f1e080ba1c0001790399","freq_resp","img/orange_2bandit_a.png","70","70","test","","","","6","",""
"null","265700","pSARL_v2","pSARL_v2cydmsre7","5cb5f1e080ba1c0001790399","fixation","img/fixation.png","null","","test","","","","","",""
"76.29999995231628","265784","pSARL_v2","pSARL_v2cydmsre7","5cb5f1e080ba1c0001790399","freq","img/orange_2bandit_a2.png","70","70","test","1","135","135","6","",""
"null","266530","pSARL_v2","pSARL_v2cydmsre7","5cb5f1e080ba1c0001790399","freq_resp","img/orange_2bandit_a.png","70","70","test","","","","6","",""
"null","266700","pSARL_v2","pSARL_v2cydmsre7","5cb5f1e080ba1c0001790399","fixation","img/fixation.png","null","","test","","","","","",""
"108.19999980926514","266816","pSARL_v2","pSARL_v2cydmsre7","5cb5f1e080ba1c0001790399","freq","img/orange_2bandit_a2.png","70","70","test","1","136","136","6","",""
"null","267529","pSARL_v2","pSARL_v2cydmsre7","5cb5f1e080ba1c0001790399","freq_resp","img/orange_2bandit_a.png","70","70","test","","","","6","",""
"null","267699","pSARL_v2","pSARL_v2cydmsre7","5cb5f1e080ba1c0001790399","fixation","img/fixation.png","null","","test","","","","","",""
"261.09999990463257","267968","pSARL_v2","pSARL_v2cydmsre7","5cb5f1e080ba1c0001790399","freq","img/orange_2bandit_a2.png","70","70","test","1","137","137","6","",""
"null","268516","pSARL_v2","pSARL_v2cydmsre7","5cb5f1e080ba1c0001790399","freq_resp","img/orange_2bandit_a.png","70","70","test","","","","6","",""
"null","268687","pSARL_v2","pSARL_v2cydmsre7","5cb5f1e080ba1c0001790399","fixation","img/fixation.png","null","","test","","","","","",""
"176.89999985694885","268871","pSARL_v2","pSARL_v2cydmsre7","5cb5f1e080ba1c0001790399","freq","img/orange_2bandit_a2.png","70","70","test","1","138","138","6","",""
"null","269513","pSARL_v2","pSARL_v2cydmsre7","5cb5f1e080ba1c0001790399","freq_resp","img/orange_2bandit_a.png","70","70","test","","","","6","",""
"null","269683","pSARL_v2","pSARL_v2cydmsre7","5cb5f1e080ba1c0001790399","fixation","img/fixation.png","null","","test","","","","","",""
"1109.6000001430511","270800","pSARL_v2","pSARL_v2cydmsre7","5cb5f1e080ba1c0001790399","reward","img/slot.png","74","","test","","","","","",""
"null","271558","pSARL_v2","pSARL_v2cydmsre7","5cb5f1e080ba1c0001790399","points","<div class=""verylowPoints""> -7 </div>","null","na","test","","","","6","-7","5"
"281.2000000476837","271847","pSARL_v2","pSARL_v2cydmsre7","5cb5f1e080ba1c0001790399","freq","img/orange_2bandit_a2.png","70","70","test","1","139","139","7","",""
"null","272385","pSARL_v2","pSARL_v2cydmsre7","5cb5f1e080ba1c0001790399","freq_resp","img/orange_2bandit_a.png","70","70","test","","","","7","",""
"null","272551","pSARL_v2","pSARL_v2cydmsre7","5cb5f1e080ba1c0001790399","fixation","img/fixation.png","null","","test","","","","","",""
"321.40000009536743","272880","pSARL_v2","pSARL_v2cydmsre7","5cb5f1e080ba1c0001790399","freq","img/orange_2bandit_a2.png","70","70","test","1","140","140","7","",""
"null","273377","pSARL_v2","pSARL_v2cydmsre7","5cb5f1e080ba1c0001790399","freq_resp","img/orange_2bandit_a.png","70","70","test","","","","7","",""
"null","273537","pSARL_v2","pSARL_v2cydmsre7","5cb5f1e080ba1c0001790399","fixation","img/fixation.png","null","","test","","","","","",""
"382.7000000476837","273927","pSARL_v2","pSARL_v2cydmsre7","5cb5f1e080ba1c0001790399","infreq","img/green_2bandit_a2.png","68","68","test","1","141","141","7","",""
"null","274362","pSARL_v2","pSARL_v2cydmsre7","5cb5f1e080ba1c0001790399","infreq_resp","img/green_2bandit_a.png","68","68","test","","","","7","",""
"null","274534","pSARL_v2","pSARL_v2cydmsre7","5cb5f1e080ba1c0001790399","fixation","img/fixation.png","null","","test","","","","","",""
"194","274736","pSARL_v2","pSARL_v2cydmsre7","5cb5f1e080ba1c0001790399","freq","img/orange_2bandit_a2.png","70","70","test","1","142","142","7","",""
"null","275362","pSARL_v2","pSARL_v2cydmsre7","5cb5f1e080ba1c0001790399","freq_resp","img/orange_2bandit_a.png","70","70","test","","","","7","",""
"null","275535","pSARL_v2","pSARL_v2cydmsre7","5cb5f1e080ba1c0001790399","fixation","img/fixation.png","null","","test","","","","","",""
"200.5","275742","pSARL_v2","pSARL_v2cydmsre7","5cb5f1e080ba1c0001790399","freq","img/orange_2bandit_a2.png","70","70","test","1","143","143","7","",""
"null","276355","pSARL_v2","pSARL_v2cydmsre7","5cb5f1e080ba1c0001790399","freq_resp","img/orange_2bandit_a.png","70","70","test","","","","7","",""
"null","276521","pSARL_v2","pSARL_v2cydmsre7","5cb5f1e080ba1c0001790399","fixation","img/fixation.png","null","","test","","","","","",""
"223.60000014305115","276752","pSARL_v2","pSARL_v2cydmsre7","5cb5f1e080ba1c0001790399","freq","img/orange_2bandit_a2.png","70","70","test","1","144","144","7","",""
"null","277349","pSARL_v2","pSARL_v2cydmsre7","5cb5f1e080ba1c0001790399","freq_resp","img/orange_2bandit_a.png","70","70","test","","","","7","",""
"null","277521","pSARL_v2","pSARL_v2cydmsre7","5cb5f1e080ba1c0001790399","fixation","img/fixation.png","null","","test","","","","","",""
"271.7000000476837","277800","pSARL_v2","pSARL_v2cydmsre7","5cb5f1e080ba1c0001790399","freq","img/orange_2bandit_a2.png","70","70","test","1","145","145","7","",""
"null","278349","pSARL_v2","pSARL_v2cydmsre7","5cb5f1e080ba1c0001790399","freq_resp","img/orange_2bandit_a.png","70","70","test","","","","7","",""
"null","278520","pSARL_v2","pSARL_v2cydmsre7","5cb5f1e080ba1c0001790399","fixation","img/fixation.png","null","","test","","","","","",""
"280","278808","pSARL_v2","pSARL_v2cydmsre7","5cb5f1e080ba1c0001790399","freq","img/orange_2bandit_a2.png","70","70","test","1","146","146","7","",""
"null","279346","pSARL_v2","pSARL_v2cydmsre7","5cb5f1e080ba1c0001790399","freq_resp","img/orange_2bandit_a.png","70","70","test","","","","7","",""
"null","279505","pSARL_v2","pSARL_v2cydmsre7","5cb5f1e080ba1c0001790399","fixation","img/fixation.png","null","","test","","","","","",""
"295.60000014305115","279808","pSARL_v2","pSARL_v2cydmsre7","5cb5f1e080ba1c0001790399","freq","img/orange_2bandit_a2.png","70","70","test","1","147","147","7","",""
"null","280334","pSARL_v2","pSARL_v2cydmsre7","5cb5f1e080ba1c0001790399","freq_resp","img/orange_2bandit_a.png","70","70","test","","","","7","",""
"null","280503","pSARL_v2","pSARL_v2cydmsre7","5cb5f1e080ba1c0001790399","fixation","img/fixation.png","null","","test","","","","","",""
"352.90000009536743","280864","pSARL_v2","pSARL_v2cydmsre7","5cb5f1e080ba1c0001790399","freq","img/orange_2bandit_a2.png","70","70","test","1","148","148","7","",""
"null","281321","pSARL_v2","pSARL_v2cydmsre7","5cb5f1e080ba1c0001790399","freq_resp","img/orange_2bandit_a.png","70","70","test","","","","7","",""
"null","281488","pSARL_v2","pSARL_v2cydmsre7","5cb5f1e080ba1c0001790399","fixation","img/fixation.png","null","","test","","","","","",""
"336.19999980926514","281832","pSARL_v2","pSARL_v2cydmsre7","5cb5f1e080ba1c0001790399","freq","img/orange_2bandit_a2.png","70","70","test","1","149","149","7","",""
"null","282318","pSARL_v2","pSARL_v2cydmsre7","5cb5f1e080ba1c0001790399","freq_resp","img/orange_2bandit_a.png","70","70","test","","","","7","",""
"null","282486","pSARL_v2","pSARL_v2cydmsre7","5cb5f1e080ba1c0001790399","fixation","img/fixation.png","null","","test","","","","","",""
"409.90000009536743","282904","pSARL_v2","pSARL_v2cydmsre7","5cb5f1e080ba1c0001790399","infreq","img/green_2bandit_a2.png","68","68","test","1","150","150","7","",""
"null","283308","pSARL_v2","pSARL_v2cydmsre7","5cb5f1e080ba1c0001790399","infreq_resp","img/green_2bandit_a.png","68","68","test","","","","7","",""
"null","283471","pSARL_v2","pSARL_v2cydmsre7","5cb5f1e080ba1c0001790399","fixation","img/fixation.png","null","","test","","","","","",""
"281.40000009536743","283760","pSARL_v2","pSARL_v2cydmsre7","5cb5f1e080ba1c0001790399","freq","img/orange_2bandit_a2.png","70","70","test","1","151","151","7","",""
"null","284287","pSARL_v2","pSARL_v2cydmsre7","5cb5f1e080ba1c0001790399","freq_resp","img/orange_2bandit_a.png","70","70","test","","","","7","",""
"null","284451","pSARL_v2","pSARL_v2cydmsre7","5cb5f1e080ba1c0001790399","fixation","img/fixation.png","null","","test","","","","","",""
"317.2999999523163","284775","pSARL_v2","pSARL_v2cydmsre7","5cb5f1e080ba1c0001790399","freq","img/orange_2bandit_a2.png","70","70","test","1","152","152","7","",""
"null","285270","pSARL_v2","pSARL_v2cydmsre7","5cb5f1e080ba1c0001790399","freq_resp","img/orange_2bandit_a.png","70","70","test","","","","7","",""
"null","285429","pSARL_v2","pSARL_v2cydmsre7","5cb5f1e080ba1c0001790399","fixation","img/fixation.png","null","","test","","","","","",""
"266.69999980926514","285703","pSARL_v2","pSARL_v2cydmsre7","5cb5f1e080ba1c0001790399","freq","img/orange_2bandit_a2.png","70","70","test","1","153","153","7","",""
"null","286252","pSARL_v2","pSARL_v2cydmsre7","5cb5f1e080ba1c0001790399","freq_resp","img/orange_2bandit_a.png","70","70","test","","","","7","",""
"null","286414","pSARL_v2","pSARL_v2cydmsre7","5cb5f1e080ba1c0001790399","fixation","img/fixation.png","null","","test","","","","","",""
"290.19999980926514","286711","pSARL_v2","pSARL_v2cydmsre7","5cb5f1e080ba1c0001790399","freq","img/orange_2bandit_a2.png","70","70","test","1","154","154","7","",""
"null","287232","pSARL_v2","pSARL_v2cydmsre7","5cb5f1e080ba1c0001790399","freq_resp","img/orange_2bandit_a.png","70","70","test","","","","7","",""
"null","287392","pSARL_v2","pSARL_v2cydmsre7","5cb5f1e080ba1c0001790399","fixation","img/fixation.png","null","","test","","","","","",""
"215.70000004768372","287615","pSARL_v2","pSARL_v2cydmsre7","5cb5f1e080ba1c0001790399","freq","img/orange_2bandit_a2.png","70","70","test","1","155","155","7","",""
"null","288209","pSARL_v2","pSARL_v2cydmsre7","5cb5f1e080ba1c0001790399","freq_resp","img/orange_2bandit_a.png","70","70","test","","","","7","",""
"null","288371","pSARL_v2","pSARL_v2cydmsre7","5cb5f1e080ba1c0001790399","fixation","img/fixation.png","null","","test","","","","","",""
"245.5","288623","pSARL_v2","pSARL_v2cydmsre7","5cb5f1e080ba1c0001790399","freq","img/orange_2bandit_a2.png","70","70","test","1","156","156","7","",""
"null","289188","pSARL_v2","pSARL_v2cydmsre7","5cb5f1e080ba1c0001790399","freq_resp","img/orange_2bandit_a.png","70","70","test","","","","7","",""
"null","289347","pSARL_v2","pSARL_v2cydmsre7","5cb5f1e080ba1c0001790399","fixation","img/fixation.png","null","","test","","","","","",""
"252.89999985694885","289607","pSARL_v2","pSARL_v2cydmsre7","5cb5f1e080ba1c0001790399","freq","img/orange_2bandit_a2.png","70","70","test","1","157","157","7","",""
"null","290165","pSARL_v2","pSARL_v2cydmsre7","5cb5f1e080ba1c0001790399","freq_resp","img/orange_2bandit_a.png","70","70","test","","","","7","",""
"null","290330","pSARL_v2","pSARL_v2cydmsre7","5cb5f1e080ba1c0001790399","fixation","img/fixation.png","null","","test","","","","","",""
"254.29999995231628","290591","pSARL_v2","pSARL_v2cydmsre7","5cb5f1e080ba1c0001790399","freq","img/orange_2bandit_a2.png","70","70","test","1","158","158","7","",""
"null","291149","pSARL_v2","pSARL_v2cydmsre7","5cb5f1e080ba1c0001790399","freq_resp","img/orange_2bandit_a.png","70","70","test","","","","7","",""
"null","291313","pSARL_v2","pSARL_v2cydmsre7","5cb5f1e080ba1c0001790399","fixation","img/fixation.png","null","","test","","","","","",""
"246.59999990463257","291568","pSARL_v2","pSARL_v2cydmsre7","5cb5f1e080ba1c0001790399","freq","img/orange_2bandit_a2.png","70","70","test","1","159","159","7","",""
"null","292134","pSARL_v2","pSARL_v2cydmsre7","5cb5f1e080ba1c0001790399","freq_resp","img/orange_2bandit_a.png","70","70","test","","","","7","",""
"null","292300","pSARL_v2","pSARL_v2cydmsre7","5cb5f1e080ba1c0001790399","fixation","img/fixation.png","null","","test","","","","","",""
"244.70000004768372","292552","pSARL_v2","pSARL_v2cydmsre7","5cb5f1e080ba1c0001790399","freq","img/orange_2bandit_a2.png","70","70","test","1","160","160","7","",""
"null","293120","pSARL_v2","pSARL_v2cydmsre7","5cb5f1e080ba1c0001790399","freq_resp","img/orange_2bandit_a.png","70","70","test","","","","7","",""
"null","293285","pSARL_v2","pSARL_v2cydmsre7","5cb5f1e080ba1c0001790399","fixation","img/fixation.png","null","","test","","","","","",""
"306.90000009536743","293599","pSARL_v2","pSARL_v2cydmsre7","5cb5f1e080ba1c0001790399","freq","img/orange_2bandit_a2.png","70","70","test","1","161","161","7","",""
"null","294099","pSARL_v2","pSARL_v2cydmsre7","5cb5f1e080ba1c0001790399","freq_resp","img/orange_2bandit_a.png","70","70","test","","","","7","",""
"null","294256","pSARL_v2","pSARL_v2cydmsre7","5cb5f1e080ba1c0001790399","fixation","img/fixation.png","null","","test","","","","","",""
"280.59999990463257","294542","pSARL_v2","pSARL_v2cydmsre7","5cb5f1e080ba1c0001790399","freq","img/orange_2bandit_a2.png","70","70","test","1","162","162","7","",""
"null","295077","pSARL_v2","pSARL_v2cydmsre7","5cb5f1e080ba1c0001790399","freq_resp","img/orange_2bandit_a.png","70","70","test","","","","7","",""
"null","295241","pSARL_v2","pSARL_v2cydmsre7","5cb5f1e080ba1c0001790399","fixation","img/fixation.png","null","","test","","","","","",""
"111.20000004768372","295358","pSARL_v2","pSARL_v2cydmsre7","5cb5f1e080ba1c0001790399","freq","img/orange_2bandit_a2.png","70","70","test","1","163","163","7","",""
"null","296071","pSARL_v2","pSARL_v2cydmsre7","5cb5f1e080ba1c0001790399","freq_resp","img/orange_2bandit_a.png","70","70","test","","","","7","",""
"null","296229","pSARL_v2","pSARL_v2cydmsre7","5cb5f1e080ba1c0001790399","fixation","img/fixation.png","null","","test","","","","","",""
"1075.3999998569489","297311","pSARL_v2","pSARL_v2cydmsre7","5cb5f1e080ba1c0001790399","reward","img/slot.png","74","","test","","","","","",""
"null","298069","pSARL_v2","pSARL_v2cydmsre7","5cb5f1e080ba1c0001790399","points","<div class=""verylowPoints""> -6 </div>","null","na","test","","","","7","-6","6"
"null","298883","pSARL_v2","pSARL_v2cydmsre7","5cb5f1e080ba1c0001790399","freq","img/orange_2bandit_a2.png","null","70","test","0","164","164","8","",""
"null","299043","pSARL_v2","pSARL_v2cydmsre7","5cb5f1e080ba1c0001790399","fixation","img/fixation.png","null","","test","","","","","",""
"405.2999999523163","299454","pSARL_v2","pSARL_v2cydmsre7","5cb5f1e080ba1c0001790399","freq","img/orange_2bandit_a2.png","70","70","test","1","165","165","8","",""
"null","299866","pSARL_v2","pSARL_v2cydmsre7","5cb5f1e080ba1c0001790399","freq_resp","img/orange_2bandit_a.png","70","70","test","","","","8","",""
"null","300036","pSARL_v2","pSARL_v2cydmsre7","5cb5f1e080ba1c0001790399","fixation","img/fixation.png","null","","test","","","","","",""
"724.2000000476837","300768","pSARL_v2","pSARL_v2cydmsre7","5cb5f1e080ba1c0001790399","freq","img/orange_2bandit_a2.png","70","70","test","1","166","166","8","",""
"null","300855","pSARL_v2","pSARL_v2cydmsre7","5cb5f1e080ba1c0001790399","freq_resp","img/orange_2bandit_a.png","70","70","test","","","","8","",""
"null","301016","pSARL_v2","pSARL_v2cydmsre7","5cb5f1e080ba1c0001790399","fixation","img/fixation.png","null","","test","","","","","",""
"455.5","301479","pSARL_v2","pSARL_v2cydmsre7","5cb5f1e080ba1c0001790399","freq","img/orange_2bandit_a2.png","70","70","test","1","167","167","8","",""
"null","301846","pSARL_v2","pSARL_v2cydmsre7","5cb5f1e080ba1c0001790399","freq_resp","img/orange_2bandit_a.png","70","70","test","","","","8","",""
"null","302011","pSARL_v2","pSARL_v2cydmsre7","5cb5f1e080ba1c0001790399","fixation","img/fixation.png","null","","test","","","","","",""
"4.5","302022","pSARL_v2","pSARL_v2cydmsre7","5cb5f1e080ba1c0001790399","freq","img/orange_2bandit_a2.png","70","70","test","1","168","168","8","",""
"null","302824","pSARL_v2","pSARL_v2cydmsre7","5cb5f1e080ba1c0001790399","freq_resp","img/orange_2bandit_a.png","70","70","test","","","","8","",""
"null","302994","pSARL_v2","pSARL_v2cydmsre7","5cb5f1e080ba1c0001790399","fixation","img/fixation.png","null","","test","","","","","",""
"413.2999999523163","303415","pSARL_v2","pSARL_v2cydmsre7","5cb5f1e080ba1c0001790399","freq","img/orange_2bandit_a2.png","70","70","test","1","169","169","8","",""
"null","303817","pSARL_v2","pSARL_v2cydmsre7","5cb5f1e080ba1c0001790399","freq_resp","img/orange_2bandit_a.png","70","70","test","","","","8","",""
"null","303977","pSARL_v2","pSARL_v2cydmsre7","5cb5f1e080ba1c0001790399","fixation","img/fixation.png","null","","test","","","","","",""
"294.5","304279","pSARL_v2","pSARL_v2cydmsre7","5cb5f1e080ba1c0001790399","freq","img/orange_2bandit_a2.png","70","70","test","1","170","170","8","",""
"null","304804","pSARL_v2","pSARL_v2cydmsre7","5cb5f1e080ba1c0001790399","freq_resp","img/orange_2bandit_a.png","70","70","test","","","","8","",""
"null","304975","pSARL_v2","pSARL_v2cydmsre7","5cb5f1e080ba1c0001790399","fixation","img/fixation.png","null","","test","","","","","",""
"345.2000000476837","305328","pSARL_v2","pSARL_v2cydmsre7","5cb5f1e080ba1c0001790399","freq","img/orange_2bandit_a2.png","70","70","test","1","171","171","8","",""
"null","305793","pSARL_v2","pSARL_v2cydmsre7","5cb5f1e080ba1c0001790399","freq_resp","img/orange_2bandit_a.png","70","70","test","","","","8","",""
"null","305960","pSARL_v2","pSARL_v2cydmsre7","5cb5f1e080ba1c0001790399","fixation","img/fixation.png","null","","test","","","","","",""
"321.09999990463257","306287","pSARL_v2","pSARL_v2cydmsre7","5cb5f1e080ba1c0001790399","freq","img/orange_2bandit_a2.png","70","70","test","1","172","172","8","",""
"null","306776","pSARL_v2","pSARL_v2cydmsre7","5cb5f1e080ba1c0001790399","freq_resp","img/orange_2bandit_a.png","70","70","test","","","","8","",""
"null","306944","pSARL_v2","pSARL_v2cydmsre7","5cb5f1e080ba1c0001790399","fixation","img/fixation.png","null","","test","","","","","",""
"313.30000019073486","307265","pSARL_v2","pSARL_v2cydmsre7","5cb5f1e080ba1c0001790399","freq","img/orange_2bandit_a2.png","70","70","test","1","173","173","8","",""
"null","307761","pSARL_v2","pSARL_v2cydmsre7","5cb5f1e080ba1c0001790399","freq_resp","img/orange_2bandit_a.png","70","70","test","","","","8","",""
"null","307928","pSARL_v2","pSARL_v2cydmsre7","5cb5f1e080ba1c0001790399","fixation","img/fixation.png","null","","test","","","","","",""
"376.10000014305115","308311","pSARL_v2","pSARL_v2cydmsre7","5cb5f1e080ba1c0001790399","infreq","img/green_2bandit_a2.png","68","68","test","1","174","174","8","",""
"null","308754","pSARL_v2","pSARL_v2cydmsre7","5cb5f1e080ba1c0001790399","infreq_resp","img/green_2bandit_a.png","68","68","test","","","","8","",""
"null","308913","pSARL_v2","pSARL_v2cydmsre7","5cb5f1e080ba1c0001790399","fixation","img/fixation.png","null","","test","","","","","",""
"231.40000009536743","309152","pSARL_v2","pSARL_v2cydmsre7","5cb5f1e080ba1c0001790399","freq","img/orange_2bandit_a2.png","70","70","test","1","175","175","8","",""
"null","309739","pSARL_v2","pSARL_v2cydmsre7","5cb5f1e080ba1c0001790399","freq_resp","img/orange_2bandit_a.png","70","70","test","","","","8","",""
"null","309898","pSARL_v2","pSARL_v2cydmsre7","5cb5f1e080ba1c0001790399","fixation","img/fixation.png","null","","test","","","","","",""
"350.90000009536743","310256","pSARL_v2","pSARL_v2cydmsre7","5cb5f1e080ba1c0001790399","freq","img/orange_2bandit_a2.png","70","70","test","1","176","176","8","",""
"null","310726","pSARL_v2","pSARL_v2cydmsre7","5cb5f1e080ba1c0001790399","freq_resp","img/orange_2bandit_a.png","70","70","test","","","","8","",""
"null","310899","pSARL_v2","pSARL_v2cydmsre7","5cb5f1e080ba1c0001790399","fixation","img/fixation.png","null","","test","","","","","",""
"285.40000009536743","311192","pSARL_v2","pSARL_v2cydmsre7","5cb5f1e080ba1c0001790399","freq","img/orange_2bandit_a2.png","70","70","test","1","177","177","8","",""
"null","311725","pSARL_v2","pSARL_v2cydmsre7","5cb5f1e080ba1c0001790399","freq_resp","img/orange_2bandit_a.png","70","70","test","","","","8","",""
"null","311895","pSARL_v2","pSARL_v2cydmsre7","5cb5f1e080ba1c0001790399","fixation","img/fixation.png","null","","test","","","","","",""
"298.2000000476837","312201","pSARL_v2","pSARL_v2cydmsre7","5cb5f1e080ba1c0001790399","freq","img/orange_2bandit_a2.png","70","70","test","1","178","178","8","",""
"null","312714","pSARL_v2","pSARL_v2cydmsre7","5cb5f1e080ba1c0001790399","freq_resp","img/orange_2bandit_a.png","70","70","test","","","","8","",""
"null","312879","pSARL_v2","pSARL_v2cydmsre7","5cb5f1e080ba1c0001790399","fixation","img/fixation.png","null","","test","","","","","",""
"282","313169","pSARL_v2","pSARL_v2cydmsre7","5cb5f1e080ba1c0001790399","freq","img/orange_2bandit_a2.png","70","70","test","1","179","179","8","",""
"null","313707","pSARL_v2","pSARL_v2cydmsre7","5cb5f1e080ba1c0001790399","freq_resp","img/orange_2bandit_a.png","70","70","test","","","","8","",""
"null","313880","pSARL_v2","pSARL_v2cydmsre7","5cb5f1e080ba1c0001790399","fixation","img/fixation.png","null","","test","","","","","",""
"297.5","314185","pSARL_v2","pSARL_v2cydmsre7","5cb5f1e080ba1c0001790399","freq","img/orange_2bandit_a2.png","70","70","test","1","180","180","8","",""
"null","314700","pSARL_v2","pSARL_v2cydmsre7","5cb5f1e080ba1c0001790399","freq_resp","img/orange_2bandit_a.png","70","70","test","","","","8","",""
"null","314863","pSARL_v2","pSARL_v2cydmsre7","5cb5f1e080ba1c0001790399","fixation","img/fixation.png","null","","test","","","","","",""
"345.7999999523163","315216","pSARL_v2","pSARL_v2cydmsre7","5cb5f1e080ba1c0001790399","freq","img/orange_2bandit_a2.png","70","70","test","1","181","181","8","",""
"null","315692","pSARL_v2","pSARL_v2cydmsre7","5cb5f1e080ba1c0001790399","freq_resp","img/orange_2bandit_a.png","70","70","test","","","","8","",""
"null","315862","pSARL_v2","pSARL_v2cydmsre7","5cb5f1e080ba1c0001790399","fixation","img/fixation.png","null","","test","","","","","",""
"338.40000009536743","316209","pSARL_v2","pSARL_v2cydmsre7","5cb5f1e080ba1c0001790399","freq","img/orange_2bandit_a2.png","70","70","test","1","182","182","8","",""
"null","316680","pSARL_v2","pSARL_v2cydmsre7","5cb5f1e080ba1c0001790399","freq_resp","img/orange_2bandit_a.png","70","70","test","","","","8","",""
"null","316848","pSARL_v2","pSARL_v2cydmsre7","5cb5f1e080ba1c0001790399","fixation","img/fixation.png","null","","test","","","","","",""
"361.10000014305115","317217","pSARL_v2","pSARL_v2cydmsre7","5cb5f1e080ba1c0001790399","freq","img/orange_2bandit_a2.png","70","70","test","1","183","183","8","",""
"null","317666","pSARL_v2","pSARL_v2cydmsre7","5cb5f1e080ba1c0001790399","freq_resp","img/orange_2bandit_a.png","70","70","test","","","","8","",""
"null","317831","pSARL_v2","pSARL_v2cydmsre7","5cb5f1e080ba1c0001790399","fixation","img/fixation.png","null","","test","","","","","",""
"361.59999990463257","318201","pSARL_v2","pSARL_v2cydmsre7","5cb5f1e080ba1c0001790399","freq","img/orange_2bandit_a2.png","70","70","test","1","184","184","8","",""
"null","318650","pSARL_v2","pSARL_v2cydmsre7","5cb5f1e080ba1c0001790399","freq_resp","img/orange_2bandit_a.png","70","70","test","","","","8","",""
"null","318818","pSARL_v2","pSARL_v2cydmsre7","5cb5f1e080ba1c0001790399","fixation","img/fixation.png","null","","test","","","","","",""
"366.30000019073486","319192","pSARL_v2","pSARL_v2cydmsre7","5cb5f1e080ba1c0001790399","freq","img/orange_2bandit_a2.png","70","70","test","1","185","185","8","",""
"null","319636","pSARL_v2","pSARL_v2cydmsre7","5cb5f1e080ba1c0001790399","freq_resp","img/orange_2bandit_a.png","70","70","test","","","","8","",""
"null","319799","pSARL_v2","pSARL_v2cydmsre7","5cb5f1e080ba1c0001790399","fixation","img/fixation.png","null","","test","","","","","",""
"481.69999980926514","320289","pSARL_v2","pSARL_v2cydmsre7","5cb5f1e080ba1c0001790399","infreq","img/green_2bandit_a2.png","68","68","test","1","186","186","8","",""
"null","320620","pSARL_v2","pSARL_v2cydmsre7","5cb5f1e080ba1c0001790399","infreq_resp","img/green_2bandit_a.png","68","68","test","","","","8","",""
"null","320782","pSARL_v2","pSARL_v2cydmsre7","5cb5f1e080ba1c0001790399","fixation","img/fixation.png","null","","test","","","","","",""
"274.60000014305115","321065","pSARL_v2","pSARL_v2cydmsre7","5cb5f1e080ba1c0001790399","freq","img/orange_2bandit_a2.png","70","70","test","1","187","187","8","",""
"null","321599","pSARL_v2","pSARL_v2cydmsre7","5cb5f1e080ba1c0001790399","freq_resp","img/orange_2bandit_a.png","70","70","test","","","","8","",""
"null","321767","pSARL_v2","pSARL_v2cydmsre7","5cb5f1e080ba1c0001790399","fixation","img/fixation.png","null","","test","","","","","",""
"241.79999995231628","322017","pSARL_v2","pSARL_v2cydmsre7","5cb5f1e080ba1c0001790399","freq","img/orange_2bandit_a2.png","70","70","test","1","188","188","8","",""
"null","322589","pSARL_v2","pSARL_v2cydmsre7","5cb5f1e080ba1c0001790399","freq_resp","img/orange_2bandit_a.png","70","70","test","","","","8","",""
"null","322750","pSARL_v2","pSARL_v2cydmsre7","5cb5f1e080ba1c0001790399","fixation","img/fixation.png","null","","test","","","","","",""
"235.29999995231628","322993","pSARL_v2","pSARL_v2cydmsre7","5cb5f1e080ba1c0001790399","freq","img/orange_2bandit_a2.png","70","70","test","1","189","189","8","",""
"null","323579","pSARL_v2","pSARL_v2cydmsre7","5cb5f1e080ba1c0001790399","freq_resp","img/orange_2bandit_a.png","70","70","test","","","","8","",""
"null","323749","pSARL_v2","pSARL_v2cydmsre7","5cb5f1e080ba1c0001790399","fixation","img/fixation.png","null","","test","","","","","",""
"13740.200000047684","337496","pSARL_v2","pSARL_v2cydmsre7","5cb5f1e080ba1c0001790399","reward","img/slot.png","74","","test","","","","","",""
"null","338256","pSARL_v2","pSARL_v2cydmsre7","5cb5f1e080ba1c0001790399","points","<div class=""verylowPoints""> -4 </div>","null","na","test","","","","8","-4","7"
"449.2999999523163","338713","pSARL_v2","pSARL_v2cydmsre7","5cb5f1e080ba1c0001790399","freq","img/orange_2bandit_a2.png","70","70","test","1","190","190","9","",""
"null","339079","pSARL_v2","pSARL_v2cydmsre7","5cb5f1e080ba1c0001790399","freq_resp","img/orange_2bandit_a.png","70","70","test","","","","9","",""
"null","339239","pSARL_v2","pSARL_v2cydmsre7","5cb5f1e080ba1c0001790399","fixation","img/fixation.png","null","","test","","","","","",""
"329.5","339576","pSARL_v2","pSARL_v2cydmsre7","5cb5f1e080ba1c0001790399","freq","img/orange_2bandit_a2.png","70","70","test","1","191","191","9","",""
"null","340063","pSARL_v2","pSARL_v2cydmsre7","5cb5f1e080ba1c0001790399","freq_resp","img/orange_2bandit_a.png","70","70","test","","","","9","",""
"null","340236","pSARL_v2","pSARL_v2cydmsre7","5cb5f1e080ba1c0001790399","fixation","img/fixation.png","null","","test","","","","","",""
"276.7000000476837","340520","pSARL_v2","pSARL_v2cydmsre7","5cb5f1e080ba1c0001790399","freq","img/orange_2bandit_a2.png","70","70","test","1","192","192","9","",""
"null","341049","pSARL_v2","pSARL_v2cydmsre7","5cb5f1e080ba1c0001790399","freq_resp","img/orange_2bandit_a.png","70","70","test","","","","9","",""
"null","341219","pSARL_v2","pSARL_v2cydmsre7","5cb5f1e080ba1c0001790399","fixation","img/fixation.png","null","","test","","","","","",""
"253.40000009536743","341478","pSARL_v2","pSARL_v2cydmsre7","5cb5f1e080ba1c0001790399","freq","img/orange_2bandit_a2.png","70","70","test","1","193","193","9","",""
"null","342039","pSARL_v2","pSARL_v2cydmsre7","5cb5f1e080ba1c0001790399","freq_resp","img/orange_2bandit_a.png","70","70","test","","","","9","",""
"null","342203","pSARL_v2","pSARL_v2cydmsre7","5cb5f1e080ba1c0001790399","fixation","img/fixation.png","null","","test","","","","","",""
"309.10000014305115","342519","pSARL_v2","pSARL_v2cydmsre7","5cb5f1e080ba1c0001790399","freq","img/orange_2bandit_a2.png","70","70","test","1","194","194","9","",""
"null","343026","pSARL_v2","pSARL_v2cydmsre7","5cb5f1e080ba1c0001790399","freq_resp","img/orange_2bandit_a.png","70","70","test","","","","9","",""
"null","343190","pSARL_v2","pSARL_v2cydmsre7","5cb5f1e080ba1c0001790399","fixation","img/fixation.png","null","","test","","","","","",""
"290.2999999523163","343488","pSARL_v2","pSARL_v2cydmsre7","5cb5f1e080ba1c0001790399","freq","img/orange_2bandit_a2.png","70","70","test","1","195","195","9","",""
"null","344006","pSARL_v2","pSARL_v2cydmsre7","5cb5f1e080ba1c0001790399","freq_resp","img/orange_2bandit_a.png","70","70","test","","","","9","",""
"null","344173","pSARL_v2","pSARL_v2cydmsre7","5cb5f1e080ba1c0001790399","fixation","img/fixation.png","null","","test","","","","","",""
"435.10000014305115","344614","pSARL_v2","pSARL_v2cydmsre7","5cb5f1e080ba1c0001790399","freq","img/orange_2bandit_a2.png","70","70","test","1","196","196","9","",""
"null","344987","pSARL_v2","pSARL_v2cydmsre7","5cb5f1e080ba1c0001790399","freq_resp","img/orange_2bandit_a.png","70","70","test","","","","9","",""
"null","345147","pSARL_v2","pSARL_v2cydmsre7","5cb5f1e080ba1c0001790399","fixation","img/fixation.png","null","","test","","","","","",""
"341.7999999523163","345495","pSARL_v2","pSARL_v2cydmsre7","5cb5f1e080ba1c0001790399","freq","img/orange_2bandit_a2.png","70","70","test","1","197","197","9","",""
"null","345968","pSARL_v2","pSARL_v2cydmsre7","5cb5f1e080ba1c0001790399","freq_resp","img/orange_2bandit_a.png","70","70","test","","","","9","",""
"null","346137","pSARL_v2","pSARL_v2cydmsre7","5cb5f1e080ba1c0001790399","fixation","img/fixation.png","null","","test","","","","","",""
"415.5","346559","pSARL_v2","pSARL_v2cydmsre7","5cb5f1e080ba1c0001790399","freq","img/orange_2bandit_a2.png","70","70","test","1","198","198","9","",""
"null","346956","pSARL_v2","pSARL_v2cydmsre7","5cb5f1e080ba1c0001790399","freq_resp","img/orange_2bandit_a.png","70","70","test","","","","9","",""
"null","347116","pSARL_v2","pSARL_v2cydmsre7","5cb5f1e080ba1c0001790399","fixation","img/fixation.png","null","","test","","","","","",""
"348.5","347472","pSARL_v2","pSARL_v2cydmsre7","5cb5f1e080ba1c0001790399","freq","img/orange_2bandit_a2.png","70","70","test","1","199","199","9","",""
"null","347932","pSARL_v2","pSARL_v2cydmsre7","5cb5f1e080ba1c0001790399","freq_resp","img/orange_2bandit_a.png","70","70","test","","","","9","",""
"null","348097","pSARL_v2","pSARL_v2cydmsre7","5cb5f1e080ba1c0001790399","fixation","img/fixation.png","null","","test","","","","","",""
"312.09999990463257","348415","pSARL_v2","pSARL_v2cydmsre7","5cb5f1e080ba1c0001790399","freq","img/orange_2bandit_a2.png","70","70","test","1","200","200","9","",""
"null","348918","pSARL_v2","pSARL_v2cydmsre7","5cb5f1e080ba1c0001790399","freq_resp","img/orange_2bandit_a.png","70","70","test","","","","9","",""
"null","349082","pSARL_v2","pSARL_v2cydmsre7","5cb5f1e080ba1c0001790399","fixation","img/fixation.png","null","","test","","","","","",""
"462.40000009536743","349553","pSARL_v2","pSARL_v2cydmsre7","5cb5f1e080ba1c0001790399","infreq","img/green_2bandit_a2.png","68","68","test","1","201","201","9","",""
"null","349905","pSARL_v2","pSARL_v2cydmsre7","5cb5f1e080ba1c0001790399","infreq_resp","img/green_2bandit_a.png","68","68","test","","","","9","",""
"null","350062","pSARL_v2","pSARL_v2cydmsre7","5cb5f1e080ba1c0001790399","fixation","img/fixation.png","null","","test","","","","","",""
"258.39999985694885","350327","pSARL_v2","pSARL_v2cydmsre7","5cb5f1e080ba1c0001790399","freq","img/orange_2bandit_a2.png","70","70","test","1","202","202","9","",""
"null","350882","pSARL_v2","pSARL_v2cydmsre7","5cb5f1e080ba1c0001790399","freq_resp","img/orange_2bandit_a.png","70","70","test","","","","9","",""
"null","351041","pSARL_v2","pSARL_v2cydmsre7","5cb5f1e080ba1c0001790399","fixation","img/fixation.png","null","","test","","","","","",""
"287.5","351338","pSARL_v2","pSARL_v2cydmsre7","5cb5f1e080ba1c0001790399","freq","img/orange_2bandit_a2.png","70","70","test","1","203","203","9","",""
"null","351860","pSARL_v2","pSARL_v2cydmsre7","5cb5f1e080ba1c0001790399","freq_resp","img/orange_2bandit_a.png","70","70","test","","","","9","",""
"null","352019","pSARL_v2","pSARL_v2cydmsre7","5cb5f1e080ba1c0001790399","fixation","img/fixation.png","null","","test","","","","","",""
"253.70000004768372","352280","pSARL_v2","pSARL_v2cydmsre7","5cb5f1e080ba1c0001790399","freq","img/orange_2bandit_a2.png","70","70","test","1","204","204","9","",""
"null","352841","pSARL_v2","pSARL_v2cydmsre7","5cb5f1e080ba1c0001790399","freq_resp","img/orange_2bandit_a.png","70","70","test","","","","9","",""
"null","353002","pSARL_v2","pSARL_v2cydmsre7","5cb5f1e080ba1c0001790399","fixation","img/fixation.png","null","","test","","","","","",""
"437.80000019073486","353446","pSARL_v2","pSARL_v2cydmsre7","5cb5f1e080ba1c0001790399","infreq","img/green_2bandit_a2.png","68","68","test","1","205","205","9","",""
"null","353819","pSARL_v2","pSARL_v2cydmsre7","5cb5f1e080ba1c0001790399","infreq_resp","img/green_2bandit_a.png","68","68","test","","","","9","",""
"null","353987","pSARL_v2","pSARL_v2cydmsre7","5cb5f1e080ba1c0001790399","fixation","img/fixation.png","null","","test","","","","","",""
"245","354239","pSARL_v2","pSARL_v2cydmsre7","5cb5f1e080ba1c0001790399","freq","img/orange_2bandit_a2.png","70","70","test","1","206","206","9","",""
"null","354804","pSARL_v2","pSARL_v2cydmsre7","5cb5f1e080ba1c0001790399","freq_resp","img/orange_2bandit_a.png","70","70","test","","","","9","",""
"null","354961","pSARL_v2","pSARL_v2cydmsre7","5cb5f1e080ba1c0001790399","fixation","img/fixation.png","null","","test","","","","","",""
