"rt","time_elapsed","expId","subject","prolificID","trialType","stimulus","key_press","corrresp","phase","corr","trialNum","attentionRunNum","blockNum","points","rlNum"
"85630.7000002861","85636","pSARL_v2","pSARL_v2pulzzvbo","6291861f8937c6bd60637cf8","","","","","","","","","","",""
"","87982","pSARL_v2","pSARL_v2pulzzvbo","6291861f8937c6bd60637cf8","fullscreen","","","","","","","","","",""
"54222.2000002861","142209","pSARL_v2","pSARL_v2pulzzvbo","6291861f8937c6bd60637cf8","","","","","","","","","","",""
"null","143026","pSARL_v2","pSARL_v2pulzzvbo","6291861f8937c6bd60637cf8","freqPrac","img/orange_2bandit_a2.png","null","70","prac","0","","","","",""
"null","144042","pSARL_v2","pSARL_v2pulzzvbo","6291861f8937c6bd60637cf8","feedback","img/tooSlow.png","null","na","prac","","","","","",""
"null","144202","pSARL_v2","pSARL_v2pulzzvbo","6291861f8937c6bd60637cf8","fixation","img/fixation.png","null","","prac","","","","","",""
"null","145018","pSARL_v2","pSARL_v2pulzzvbo","6291861f8937c6bd60637cf8","infreqPrac","img/green_2bandit_a2.png","null","68","prac","0","","","","",""
"null","146033","pSARL_v2","pSARL_v2pulzzvbo","6291861f8937c6bd60637cf8","feedback","img/tooSlow.png","null","na","prac","","","","","",""
"null","146199","pSARL_v2","pSARL_v2pulzzvbo","6291861f8937c6bd60637cf8","fixation","img/fixation.png","null","","prac","","","","","",""
"664.3000001907349","146872","pSARL_v2","pSARL_v2pulzzvbo","6291861f8937c6bd60637cf8","freqPrac","img/orange_2bandit_a2.png","70","70","prac","1","","","","",""
"664.3000001907349","147020","pSARL_v2","pSARL_v2pulzzvbo","6291861f8937c6bd60637cf8","freqPrac_resp","img/orange_2bandit_a.png","70","70","prac","","","","","",""
"null","147183","pSARL_v2","pSARL_v2pulzzvbo","6291861f8937c6bd60637cf8","fixation","img/fixation.png","null","","prac","","","","","",""
"580.5","147771","pSARL_v2","pSARL_v2pulzzvbo","6291861f8937c6bd60637cf8","infreqPrac","img/green_2bandit_a2.png","68","68","prac","1","","","","",""
"580.5","148000","pSARL_v2","pSARL_v2pulzzvbo","6291861f8937c6bd60637cf8","infreqPrac_resp","img/green_2bandit_a.png","68","68","prac","","","","","",""
"null","148164","pSARL_v2","pSARL_v2pulzzvbo","6291861f8937c6bd60637cf8","fixation","img/fixation.png","null","","prac","","","","","",""
"396","148569","pSARL_v2","pSARL_v2pulzzvbo","6291861f8937c6bd60637cf8","infreqPrac","img/green_2bandit_a2.png","68","68","prac","1","","","","",""
"396","148985","pSARL_v2","pSARL_v2pulzzvbo","6291861f8937c6bd60637cf8","infreqPrac_resp","img/green_2bandit_a.png","68","68","prac","","","","","",""
"null","149152","pSARL_v2","pSARL_v2pulzzvbo","6291861f8937c6bd60637cf8","fixation","img/fixation.png","null","","prac","","","","","",""
"351.80000019073486","149514","pSARL_v2","pSARL_v2pulzzvbo","6291861f8937c6bd60637cf8","infreqPrac","img/green_2bandit_a2.png","68","68","prac","1","","","","",""
"351.80000019073486","149973","pSARL_v2","pSARL_v2pulzzvbo","6291861f8937c6bd60637cf8","infreqPrac_resp","img/green_2bandit_a.png","68","68","prac","","","","","",""
"null","150138","pSARL_v2","pSARL_v2pulzzvbo","6291861f8937c6bd60637cf8","fixation","img/fixation.png","null","","prac","","","","","",""
"489.40000009536743","150634","pSARL_v2","pSARL_v2pulzzvbo","6291861f8937c6bd60637cf8","freqPrac","img/orange_2bandit_a2.png","70","70","prac","1","","","","",""
"489.40000009536743","150958","pSARL_v2","pSARL_v2pulzzvbo","6291861f8937c6bd60637cf8","freqPrac_resp","img/orange_2bandit_a.png","70","70","prac","","","","","",""
"null","151122","pSARL_v2","pSARL_v2pulzzvbo","6291861f8937c6bd60637cf8","fixation","img/fixation.png","null","","prac","","","","","",""
"437.7000002861023","151568","pSARL_v2","pSARL_v2pulzzvbo","6291861f8937c6bd60637cf8","infreqPrac","img/green_2bandit_a2.png","68","68","prac","1","","","","",""
"437.7000002861023","151946","pSARL_v2","pSARL_v2pulzzvbo","6291861f8937c6bd60637cf8","infreqPrac_resp","img/green_2bandit_a.png","68","68","prac","","","","","",""
"null","152115","pSARL_v2","pSARL_v2pulzzvbo","6291861f8937c6bd60637cf8","fixation","img/fixation.png","null","","prac","","","","","",""
"492.90000009536743","152617","pSARL_v2","pSARL_v2pulzzvbo","6291861f8937c6bd60637cf8","freqPrac","img/orange_2bandit_a2.png","70","70","prac","1","","","","",""
"492.90000009536743","152939","pSARL_v2","pSARL_v2pulzzvbo","6291861f8937c6bd60637cf8","freqPrac_resp","img/orange_2bandit_a.png","70","70","prac","","","","","",""
"null","153101","pSARL_v2","pSARL_v2pulzzvbo","6291861f8937c6bd60637cf8","fixation","img/fixation.png","null","","prac","","","","","",""
"420.69999980926514","153530","pSARL_v2","pSARL_v2pulzzvbo","6291861f8937c6bd60637cf8","freqPrac","img/orange_2bandit_a2.png","70","70","prac","1","","","","",""
"420.69999980926514","153919","pSARL_v2","pSARL_v2pulzzvbo","6291861f8937c6bd60637cf8","freqPrac_resp","img/orange_2bandit_a.png","70","70","prac","","","","","",""
"null","154082","pSARL_v2","pSARL_v2pulzzvbo","6291861f8937c6bd60637cf8","fixation","img/fixation.png","null","","prac","","","","","",""
"19512.099999904633","173601","pSARL_v2","pSARL_v2pulzzvbo","6291861f8937c6bd60637cf8","","","","","prac","","","","","",""
"618.1999998092651","174228","pSARL_v2","pSARL_v2pulzzvbo","6291861f8937c6bd60637cf8","rewardPractice","img/slot.png","74","","prac","","","","","",""
"null","174990","pSARL_v2","pSARL_v2pulzzvbo","6291861f8937c6bd60637cf8","feedback","<div class=""veryhighPoints""> +15 </div>","null","na","prac","","","","","",""
"null","175152","pSARL_v2","pSARL_v2pulzzvbo","6291861f8937c6bd60637cf8","fixation","img/fixation.png","null","","prac","","","","","",""
"9153.900000095367","184314","pSARL_v2","pSARL_v2pulzzvbo","6291861f8937c6bd60637cf8","","","","","prac","","","","","",""
"572.4000000953674","184895","pSARL_v2","pSARL_v2pulzzvbo","6291861f8937c6bd60637cf8","freq","img/orange_2bandit_a2.png","70","70","test","1","1","1","1","",""
"null","185137","pSARL_v2","pSARL_v2pulzzvbo","6291861f8937c6bd60637cf8","freq_resp","img/orange_2bandit_a.png","70","70","test","","","","1","",""
"null","185300","pSARL_v2","pSARL_v2pulzzvbo","6291861f8937c6bd60637cf8","fixation","img/fixation.png","null","","test","","","","","",""
"337.40000009536743","185646","pSARL_v2","pSARL_v2pulzzvbo","6291861f8937c6bd60637cf8","freq","img/orange_2bandit_a2.png","70","70","test","1","2","2","1","",""
"null","186125","pSARL_v2","pSARL_v2pulzzvbo","6291861f8937c6bd60637cf8","freq_resp","img/orange_2bandit_a.png","70","70","test","","","","1","",""
"null","186284","pSARL_v2","pSARL_v2pulzzvbo","6291861f8937c6bd60637cf8","fixation","img/fixation.png","null","","test","","","","","",""
"402.09999990463257","186695","pSARL_v2","pSARL_v2pulzzvbo","6291861f8937c6bd60637cf8","freq","img/orange_2bandit_a2.png","70","70","test","1","3","3","1","",""
"null","187108","pSARL_v2","pSARL_v2pulzzvbo","6291861f8937c6bd60637cf8","freq_resp","img/orange_2bandit_a.png","70","70","test","","","","1","",""
"null","187275","pSARL_v2","pSARL_v2pulzzvbo","6291861f8937c6bd60637cf8","fixation","img/fixation.png","null","","test","","","","","",""
"402.30000019073486","187685","pSARL_v2","pSARL_v2pulzzvbo","6291861f8937c6bd60637cf8","freq","img/orange_2bandit_a2.png","70","70","test","1","4","4","1","",""
"null","188097","pSARL_v2","pSARL_v2pulzzvbo","6291861f8937c6bd60637cf8","freq_resp","img/orange_2bandit_a.png","70","70","test","","","","1","",""
"null","188261","pSARL_v2","pSARL_v2pulzzvbo","6291861f8937c6bd60637cf8","fixation","img/fixation.png","null","","test","","","","","",""
"362.2000002861023","188633","pSARL_v2","pSARL_v2pulzzvbo","6291861f8937c6bd60637cf8","freq","img/orange_2bandit_a2.png","70","70","test","1","5","5","1","",""
"null","189080","pSARL_v2","pSARL_v2pulzzvbo","6291861f8937c6bd60637cf8","freq_resp","img/orange_2bandit_a.png","70","70","test","","","","1","",""
"null","189240","pSARL_v2","pSARL_v2pulzzvbo","6291861f8937c6bd60637cf8","fixation","img/fixation.png","null","","test","","","","","",""
"369.69999980926514","189620","pSARL_v2","pSARL_v2pulzzvbo","6291861f8937c6bd60637cf8","freq","img/orange_2bandit_a2.png","70","70","test","1","6","6","1","",""
"null","190066","pSARL_v2","pSARL_v2pulzzvbo","6291861f8937c6bd60637cf8","freq_resp","img/orange_2bandit_a.png","70","70","test","","","","1","",""
"null","190227","pSARL_v2","pSARL_v2pulzzvbo","6291861f8937c6bd60637cf8","fixation","img/fixation.png","null","","test","","","","","",""
"378","190614","pSARL_v2","pSARL_v2pulzzvbo","6291861f8937c6bd60637cf8","freq","img/orange_2bandit_a2.png","70","70","test","1","7","7","1","",""
"null","191050","pSARL_v2","pSARL_v2pulzzvbo","6291861f8937c6bd60637cf8","freq_resp","img/orange_2bandit_a.png","70","70","test","","","","1","",""
"null","191215","pSARL_v2","pSARL_v2pulzzvbo","6291861f8937c6bd60637cf8","fixation","img/fixation.png","null","","test","","","","","",""
"466.09999990463257","191689","pSARL_v2","pSARL_v2pulzzvbo","6291861f8937c6bd60637cf8","infreq","img/green_2bandit_a2.png","68","68","test","1","8","8","1","",""
"null","192034","pSARL_v2","pSARL_v2pulzzvbo","6291861f8937c6bd60637cf8","infreq_resp","img/green_2bandit_a.png","68","68","test","","","","1","",""
"null","192196","pSARL_v2","pSARL_v2pulzzvbo","6291861f8937c6bd60637cf8","fixation","img/fixation.png","null","","test","","","","","",""
"476","192679","pSARL_v2","pSARL_v2pulzzvbo","6291861f8937c6bd60637cf8","freq","img/orange_2bandit_a2.png","70","70","test","1","9","9","1","",""
"null","193013","pSARL_v2","pSARL_v2pulzzvbo","6291861f8937c6bd60637cf8","freq_resp","img/orange_2bandit_a.png","70","70","test","","","","1","",""
"null","193178","pSARL_v2","pSARL_v2pulzzvbo","6291861f8937c6bd60637cf8","fixation","img/fixation.png","null","","test","","","","","",""
"394.59999990463257","193582","pSARL_v2","pSARL_v2pulzzvbo","6291861f8937c6bd60637cf8","freq","img/orange_2bandit_a2.png","70","70","test","1","10","10","1","",""
"null","194003","pSARL_v2","pSARL_v2pulzzvbo","6291861f8937c6bd60637cf8","freq_resp","img/orange_2bandit_a.png","70","70","test","","","","1","",""
"null","194166","pSARL_v2","pSARL_v2pulzzvbo","6291861f8937c6bd60637cf8","fixation","img/fixation.png","null","","test","","","","","",""
"362.5","194536","pSARL_v2","pSARL_v2pulzzvbo","6291861f8937c6bd60637cf8","freq","img/orange_2bandit_a2.png","70","70","test","1","11","11","1","",""
"null","194986","pSARL_v2","pSARL_v2pulzzvbo","6291861f8937c6bd60637cf8","freq_resp","img/orange_2bandit_a.png","70","70","test","","","","1","",""
"null","195150","pSARL_v2","pSARL_v2pulzzvbo","6291861f8937c6bd60637cf8","fixation","img/fixation.png","null","","test","","","","","",""
"464.5","195622","pSARL_v2","pSARL_v2pulzzvbo","6291861f8937c6bd60637cf8","freq","img/orange_2bandit_a2.png","70","70","test","1","12","12","1","",""
"null","195973","pSARL_v2","pSARL_v2pulzzvbo","6291861f8937c6bd60637cf8","freq_resp","img/orange_2bandit_a.png","70","70","test","","","","1","",""
"null","196134","pSARL_v2","pSARL_v2pulzzvbo","6291861f8937c6bd60637cf8","fixation","img/fixation.png","null","","test","","","","","",""
"436.2999997138977","196578","pSARL_v2","pSARL_v2pulzzvbo","6291861f8937c6bd60637cf8","freq","img/orange_2bandit_a2.png","70","70","test","1","13","13","1","",""
"null","196956","pSARL_v2","pSARL_v2pulzzvbo","6291861f8937c6bd60637cf8","freq_resp","img/orange_2bandit_a.png","70","70","test","","","","1","",""
"null","197117","pSARL_v2","pSARL_v2pulzzvbo","6291861f8937c6bd60637cf8","fixation","img/fixation.png","null","","test","","","","","",""
"369.80000019073486","197495","pSARL_v2","pSARL_v2pulzzvbo","6291861f8937c6bd60637cf8","freq","img/orange_2bandit_a2.png","70","70","test","1","14","14","1","",""
"null","197934","pSARL_v2","pSARL_v2pulzzvbo","6291861f8937c6bd60637cf8","freq_resp","img/orange_2bandit_a.png","70","70","test","","","","1","",""
"null","198094","pSARL_v2","pSARL_v2pulzzvbo","6291861f8937c6bd60637cf8","fixation","img/fixation.png","null","","test","","","","","",""
"413.30000019073486","198515","pSARL_v2","pSARL_v2pulzzvbo","6291861f8937c6bd60637cf8","freq","img/orange_2bandit_a2.png","70","70","test","1","15","15","1","",""
"null","198914","pSARL_v2","pSARL_v2pulzzvbo","6291861f8937c6bd60637cf8","freq_resp","img/orange_2bandit_a.png","70","70","test","","","","1","",""
"null","199082","pSARL_v2","pSARL_v2pulzzvbo","6291861f8937c6bd60637cf8","fixation","img/fixation.png","null","","test","","","","","",""
"369","199460","pSARL_v2","pSARL_v2pulzzvbo","6291861f8937c6bd60637cf8","freq","img/orange_2bandit_a2.png","70","70","test","1","16","16","1","",""
"null","199905","pSARL_v2","pSARL_v2pulzzvbo","6291861f8937c6bd60637cf8","freq_resp","img/orange_2bandit_a.png","70","70","test","","","","1","",""
"null","200069","pSARL_v2","pSARL_v2pulzzvbo","6291861f8937c6bd60637cf8","fixation","img/fixation.png","null","","test","","","","","",""
"403.59999990463257","200481","pSARL_v2","pSARL_v2pulzzvbo","6291861f8937c6bd60637cf8","freq","img/orange_2bandit_a2.png","70","70","test","1","17","17","1","",""
"null","200890","pSARL_v2","pSARL_v2pulzzvbo","6291861f8937c6bd60637cf8","freq_resp","img/orange_2bandit_a.png","70","70","test","","","","1","",""
"null","201049","pSARL_v2","pSARL_v2pulzzvbo","6291861f8937c6bd60637cf8","fixation","img/fixation.png","null","","test","","","","","",""
"444.09999990463257","201501","pSARL_v2","pSARL_v2pulzzvbo","6291861f8937c6bd60637cf8","freq","img/orange_2bandit_a2.png","70","70","test","1","18","18","1","",""
"null","201873","pSARL_v2","pSARL_v2pulzzvbo","6291861f8937c6bd60637cf8","freq_resp","img/orange_2bandit_a.png","70","70","test","","","","1","",""
"null","202034","pSARL_v2","pSARL_v2pulzzvbo","6291861f8937c6bd60637cf8","fixation","img/fixation.png","null","","test","","","","","",""
"388.19999980926514","202431","pSARL_v2","pSARL_v2pulzzvbo","6291861f8937c6bd60637cf8","freq","img/orange_2bandit_a2.png","70","70","test","1","19","19","1","",""
"null","202857","pSARL_v2","pSARL_v2pulzzvbo","6291861f8937c6bd60637cf8","freq_resp","img/orange_2bandit_a.png","70","70","test","","","","1","",""
"null","203021","pSARL_v2","pSARL_v2pulzzvbo","6291861f8937c6bd60637cf8","fixation","img/fixation.png","null","","test","","","","","",""
"467.40000009536743","203496","pSARL_v2","pSARL_v2pulzzvbo","6291861f8937c6bd60637cf8","infreq","img/green_2bandit_a2.png","68","68","test","1","20","20","1","",""
"null","203838","pSARL_v2","pSARL_v2pulzzvbo","6291861f8937c6bd60637cf8","infreq_resp","img/green_2bandit_a.png","68","68","test","","","","1","",""
"null","204001","pSARL_v2","pSARL_v2pulzzvbo","6291861f8937c6bd60637cf8","fixation","img/fixation.png","null","","test","","","","","",""
"416","204424","pSARL_v2","pSARL_v2pulzzvbo","6291861f8937c6bd60637cf8","freq","img/orange_2bandit_a2.png","70","70","test","1","21","21","1","",""
"null","204821","pSARL_v2","pSARL_v2pulzzvbo","6291861f8937c6bd60637cf8","freq_resp","img/orange_2bandit_a.png","70","70","test","","","","1","",""
"null","204989","pSARL_v2","pSARL_v2pulzzvbo","6291861f8937c6bd60637cf8","fixation","img/fixation.png","null","","test","","","","","",""
"643.8999996185303","205642","pSARL_v2","pSARL_v2pulzzvbo","6291861f8937c6bd60637cf8","reward","img/slot.png","74","","test","","","","","",""
"null","206405","pSARL_v2","pSARL_v2pulzzvbo","6291861f8937c6bd60637cf8","points","<div class=""verylowPoints""> -6 </div>","null","na","test","","","","1","-6","0"
"784.9000000953674","207198","pSARL_v2","pSARL_v2pulzzvbo","6291861f8937c6bd60637cf8","freq","img/orange_2bandit_a2.png","70","70","test","1","22","22","2","",""
"null","207218","pSARL_v2","pSARL_v2pulzzvbo","6291861f8937c6bd60637cf8","freq_resp","img/orange_2bandit_a.png","70","70","test","","","","2","",""
"null","207381","pSARL_v2","pSARL_v2pulzzvbo","6291861f8937c6bd60637cf8","fixation","img/fixation.png","null","","test","","","","","",""
"605.5","207997","pSARL_v2","pSARL_v2pulzzvbo","6291861f8937c6bd60637cf8","freq","img/orange_2bandit_a2.png","70","70","test","1","23","23","2","",""
"null","208207","pSARL_v2","pSARL_v2pulzzvbo","6291861f8937c6bd60637cf8","freq_resp","img/orange_2bandit_a.png","70","70","test","","","","2","",""
"null","208367","pSARL_v2","pSARL_v2pulzzvbo","6291861f8937c6bd60637cf8","fixation","img/fixation.png","null","","test","","","","","",""
"487.3999996185303","208863","pSARL_v2","pSARL_v2pulzzvbo","6291861f8937c6bd60637cf8","infreq","img/green_2bandit_a2.png","68","68","test","1","24","24","2","",""
"null","209189","pSARL_v2","pSARL_v2pulzzvbo","6291861f8937c6bd60637cf8","infreq_resp","img/green_2bandit_a.png","68","68","test","","","","2","",""
"null","209350","pSARL_v2","pSARL_v2pulzzvbo","6291861f8937c6bd60637cf8","fixation","img/fixation.png","null","","test","","","","","",""
"421.2999997138977","209780","pSARL_v2","pSARL_v2pulzzvbo","6291861f8937c6bd60637cf8","freq","img/orange_2bandit_a2.png","70","70","test","1","25","25","2","",""
"null","210170","pSARL_v2","pSARL_v2pulzzvbo","6291861f8937c6bd60637cf8","freq_resp","img/orange_2bandit_a.png","70","70","test","","","","2","",""
"null","210334","pSARL_v2","pSARL_v2pulzzvbo","6291861f8937c6bd60637cf8","fixation","img/fixation.png","null","","test","","","","","",""
"426.90000009536743","210771","pSARL_v2","pSARL_v2pulzzvbo","6291861f8937c6bd60637cf8","infreq","img/green_2bandit_a2.png","70","68","test","0","26","26","2","",""
"null","211157","pSARL_v2","pSARL_v2pulzzvbo","6291861f8937c6bd60637cf8","infreq_resp","img/green_2bandit_a.png","70","68","test","","","","2","",""
"null","211316","pSARL_v2","pSARL_v2pulzzvbo","6291861f8937c6bd60637cf8","fixation","img/fixation.png","null","","test","","","","","",""
"432.7999997138977","211758","pSARL_v2","pSARL_v2pulzzvbo","6291861f8937c6bd60637cf8","freq","img/orange_2bandit_a2.png","70","70","test","1","27","27","2","",""
"null","212138","pSARL_v2","pSARL_v2pulzzvbo","6291861f8937c6bd60637cf8","freq_resp","img/orange_2bandit_a.png","70","70","test","","","","2","",""
"null","212301","pSARL_v2","pSARL_v2pulzzvbo","6291861f8937c6bd60637cf8","fixation","img/fixation.png","null","","test","","","","","",""
"349.69999980926514","212660","pSARL_v2","pSARL_v2pulzzvbo","6291861f8937c6bd60637cf8","freq","img/orange_2bandit_a2.png","70","70","test","1","28","28","2","",""
"null","213123","pSARL_v2","pSARL_v2pulzzvbo","6291861f8937c6bd60637cf8","freq_resp","img/orange_2bandit_a.png","70","70","test","","","","2","",""
"null","213287","pSARL_v2","pSARL_v2pulzzvbo","6291861f8937c6bd60637cf8","fixation","img/fixation.png","null","","test","","","","","",""
"354.59999990463257","213650","pSARL_v2","pSARL_v2pulzzvbo","6291861f8937c6bd60637cf8","freq","img/orange_2bandit_a2.png","70","70","test","1","29","29","2","",""
"null","214111","pSARL_v2","pSARL_v2pulzzvbo","6291861f8937c6bd60637cf8","freq_resp","img/orange_2bandit_a.png","70","70","test","","","","2","",""
"null","214273","pSARL_v2","pSARL_v2pulzzvbo","6291861f8937c6bd60637cf8","fixation","img/fixation.png","null","","test","","","","","",""
"358","214640","pSARL_v2","pSARL_v2pulzzvbo","6291861f8937c6bd60637cf8","freq","img/orange_2bandit_a2.png","70","70","test","1","30","30","2","",""
"null","215096","pSARL_v2","pSARL_v2pulzzvbo","6291861f8937c6bd60637cf8","freq_resp","img/orange_2bandit_a.png","70","70","test","","","","2","",""
"null","215259","pSARL_v2","pSARL_v2pulzzvbo","6291861f8937c6bd60637cf8","fixation","img/fixation.png","null","","test","","","","","",""
"378.5","215645","pSARL_v2","pSARL_v2pulzzvbo","6291861f8937c6bd60637cf8","freq","img/orange_2bandit_a2.png","70","70","test","1","31","31","2","",""
"null","216076","pSARL_v2","pSARL_v2pulzzvbo","6291861f8937c6bd60637cf8","freq_resp","img/orange_2bandit_a.png","70","70","test","","","","2","",""
"null","216243","pSARL_v2","pSARL_v2pulzzvbo","6291861f8937c6bd60637cf8","fixation","img/fixation.png","null","","test","","","","","",""
"398.80000019073486","216652","pSARL_v2","pSARL_v2pulzzvbo","6291861f8937c6bd60637cf8","freq","img/orange_2bandit_a2.png","70","70","test","1","32","32","2","",""
"null","217073","pSARL_v2","pSARL_v2pulzzvbo","6291861f8937c6bd60637cf8","freq_resp","img/orange_2bandit_a.png","70","70","test","","","","2","",""
"null","217236","pSARL_v2","pSARL_v2pulzzvbo","6291861f8937c6bd60637cf8","fixation","img/fixation.png","null","","test","","","","","",""
"365.80000019073486","217610","pSARL_v2","pSARL_v2pulzzvbo","6291861f8937c6bd60637cf8","freq","img/orange_2bandit_a2.png","70","70","test","1","33","33","2","",""
"null","218058","pSARL_v2","pSARL_v2pulzzvbo","6291861f8937c6bd60637cf8","freq_resp","img/orange_2bandit_a.png","70","70","test","","","","2","",""
"null","218222","pSARL_v2","pSARL_v2pulzzvbo","6291861f8937c6bd60637cf8","fixation","img/fixation.png","null","","test","","","","","",""
"369.59999990463257","218600","pSARL_v2","pSARL_v2pulzzvbo","6291861f8937c6bd60637cf8","freq","img/orange_2bandit_a2.png","70","70","test","1","34","34","2","",""
"null","219043","pSARL_v2","pSARL_v2pulzzvbo","6291861f8937c6bd60637cf8","freq_resp","img/orange_2bandit_a.png","70","70","test","","","","2","",""
"null","219208","pSARL_v2","pSARL_v2pulzzvbo","6291861f8937c6bd60637cf8","fixation","img/fixation.png","null","","test","","","","","",""
"373.5","219591","pSARL_v2","pSARL_v2pulzzvbo","6291861f8937c6bd60637cf8","freq","img/orange_2bandit_a2.png","70","70","test","1","35","35","2","",""
"null","220030","pSARL_v2","pSARL_v2pulzzvbo","6291861f8937c6bd60637cf8","freq_resp","img/orange_2bandit_a.png","70","70","test","","","","2","",""
"null","220194","pSARL_v2","pSARL_v2pulzzvbo","6291861f8937c6bd60637cf8","fixation","img/fixation.png","null","","test","","","","","",""
"377.69999980926514","220581","pSARL_v2","pSARL_v2pulzzvbo","6291861f8937c6bd60637cf8","freq","img/orange_2bandit_a2.png","70","70","test","1","36","36","2","",""
"null","221016","pSARL_v2","pSARL_v2pulzzvbo","6291861f8937c6bd60637cf8","freq_resp","img/orange_2bandit_a.png","70","70","test","","","","2","",""
"null","221176","pSARL_v2","pSARL_v2pulzzvbo","6291861f8937c6bd60637cf8","fixation","img/fixation.png","null","","test","","","","","",""
"339.5","221524","pSARL_v2","pSARL_v2pulzzvbo","6291861f8937c6bd60637cf8","freq","img/orange_2bandit_a2.png","70","70","test","1","37","37","2","",""
"null","221997","pSARL_v2","pSARL_v2pulzzvbo","6291861f8937c6bd60637cf8","freq_resp","img/orange_2bandit_a.png","70","70","test","","","","2","",""
"null","222162","pSARL_v2","pSARL_v2pulzzvbo","6291861f8937c6bd60637cf8","fixation","img/fixation.png","null","","test","","","","","",""
"386.59999990463257","222557","pSARL_v2","pSARL_v2pulzzvbo","6291861f8937c6bd60637cf8","freq","img/orange_2bandit_a2.png","70","70","test","1","38","38","2","",""
"null","222983","pSARL_v2","pSARL_v2pulzzvbo","6291861f8937c6bd60637cf8","freq_resp","img/orange_2bandit_a.png","70","70","test","","","","2","",""
"null","223150","pSARL_v2","pSARL_v2pulzzvbo","6291861f8937c6bd60637cf8","fixation","img/fixation.png","null","","test","","","","","",""
"372.5","223529","pSARL_v2","pSARL_v2pulzzvbo","6291861f8937c6bd60637cf8","freq","img/orange_2bandit_a2.png","70","70","test","1","39","39","2","",""
"null","223972","pSARL_v2","pSARL_v2pulzzvbo","6291861f8937c6bd60637cf8","freq_resp","img/orange_2bandit_a.png","70","70","test","","","","2","",""
"null","224132","pSARL_v2","pSARL_v2pulzzvbo","6291861f8937c6bd60637cf8","fixation","img/fixation.png","null","","test","","","","","",""
"395.40000009536743","224536","pSARL_v2","pSARL_v2pulzzvbo","6291861f8937c6bd60637cf8","freq","img/orange_2bandit_a2.png","70","70","test","1","40","40","2","",""
"null","224954","pSARL_v2","pSARL_v2pulzzvbo","6291861f8937c6bd60637cf8","freq_resp","img/orange_2bandit_a.png","70","70","test","","","","2","",""
"null","225123","pSARL_v2","pSARL_v2pulzzvbo","6291861f8937c6bd60637cf8","fixation","img/fixation.png","null","","test","","","","","",""
"607.8999996185303","225739","pSARL_v2","pSARL_v2pulzzvbo","6291861f8937c6bd60637cf8","reward","img/slot.png","74","","test","","","","","",""
"null","226503","pSARL_v2","pSARL_v2pulzzvbo","6291861f8937c6bd60637cf8","points","<div class=""verylowPoints""> -11 </div>","null","na","test","","","","2","-11","1"
"652.3000001907349","227163","pSARL_v2","pSARL_v2pulzzvbo","6291861f8937c6bd60637cf8","freq","img/orange_2bandit_a2.png","70","70","test","1","41","41","3","",""
"null","227326","pSARL_v2","pSARL_v2pulzzvbo","6291861f8937c6bd60637cf8","freq_resp","img/orange_2bandit_a.png","70","70","test","","","","3","",""
"null","227491","pSARL_v2","pSARL_v2pulzzvbo","6291861f8937c6bd60637cf8","fixation","img/fixation.png","null","","test","","","","","",""
"400.8999996185303","227900","pSARL_v2","pSARL_v2pulzzvbo","6291861f8937c6bd60637cf8","freq","img/orange_2bandit_a2.png","70","70","test","1","42","42","3","",""
"null","228314","pSARL_v2","pSARL_v2pulzzvbo","6291861f8937c6bd60637cf8","freq_resp","img/orange_2bandit_a.png","70","70","test","","","","3","",""
"null","228474","pSARL_v2","pSARL_v2pulzzvbo","6291861f8937c6bd60637cf8","fixation","img/fixation.png","null","","test","","","","","",""
"362.7000002861023","228845","pSARL_v2","pSARL_v2pulzzvbo","6291861f8937c6bd60637cf8","freq","img/orange_2bandit_a2.png","70","70","test","1","43","43","3","",""
"null","229296","pSARL_v2","pSARL_v2pulzzvbo","6291861f8937c6bd60637cf8","freq_resp","img/orange_2bandit_a.png","70","70","test","","","","3","",""
"null","229460","pSARL_v2","pSARL_v2pulzzvbo","6291861f8937c6bd60637cf8","fixation","img/fixation.png","null","","test","","","","","",""
"352.19999980926514","229823","pSARL_v2","pSARL_v2pulzzvbo","6291861f8937c6bd60637cf8","freq","img/orange_2bandit_a2.png","70","70","test","1","44","44","3","",""
"null","230277","pSARL_v2","pSARL_v2pulzzvbo","6291861f8937c6bd60637cf8","freq_resp","img/orange_2bandit_a.png","70","70","test","","","","3","",""
"null","230441","pSARL_v2","pSARL_v2pulzzvbo","6291861f8937c6bd60637cf8","fixation","img/fixation.png","null","","test","","","","","",""
"330","230780","pSARL_v2","pSARL_v2pulzzvbo","6291861f8937c6bd60637cf8","freq","img/orange_2bandit_a2.png","70","70","test","1","45","45","3","",""
"null","231267","pSARL_v2","pSARL_v2pulzzvbo","6291861f8937c6bd60637cf8","freq_resp","img/orange_2bandit_a.png","70","70","test","","","","3","",""
"null","231432","pSARL_v2","pSARL_v2pulzzvbo","6291861f8937c6bd60637cf8","fixation","img/fixation.png","null","","test","","","","","",""
"342.69999980926514","231783","pSARL_v2","pSARL_v2pulzzvbo","6291861f8937c6bd60637cf8","freq","img/orange_2bandit_a2.png","70","70","test","1","46","46","3","",""
"null","232255","pSARL_v2","pSARL_v2pulzzvbo","6291861f8937c6bd60637cf8","freq_resp","img/orange_2bandit_a.png","70","70","test","","","","3","",""
"null","232417","pSARL_v2","pSARL_v2pulzzvbo","6291861f8937c6bd60637cf8","fixation","img/fixation.png","null","","test","","","","","",""
"348.69999980926514","232774","pSARL_v2","pSARL_v2pulzzvbo","6291861f8937c6bd60637cf8","freq","img/orange_2bandit_a2.png","70","70","test","1","47","47","3","",""
"null","233238","pSARL_v2","pSARL_v2pulzzvbo","6291861f8937c6bd60637cf8","freq_resp","img/orange_2bandit_a.png","70","70","test","","","","3","",""
"null","233403","pSARL_v2","pSARL_v2pulzzvbo","6291861f8937c6bd60637cf8","fixation","img/fixation.png","null","","test","","","","","",""
"353","233764","pSARL_v2","pSARL_v2pulzzvbo","6291861f8937c6bd60637cf8","freq","img/orange_2bandit_a2.png","70","70","test","1","48","48","3","",""
"null","234230","pSARL_v2","pSARL_v2pulzzvbo","6291861f8937c6bd60637cf8","freq_resp","img/orange_2bandit_a.png","70","70","test","","","","3","",""
"null","234395","pSARL_v2","pSARL_v2pulzzvbo","6291861f8937c6bd60637cf8","fixation","img/fixation.png","null","","test","","","","","",""
"380.19999980926514","234783","pSARL_v2","pSARL_v2pulzzvbo","6291861f8937c6bd60637cf8","freq","img/orange_2bandit_a2.png","70","70","test","1","49","49","3","",""
"null","235216","pSARL_v2","pSARL_v2pulzzvbo","6291861f8937c6bd60637cf8","freq_resp","img/orange_2bandit_a.png","70","70","test","","","","3","",""
"null","235381","pSARL_v2","pSARL_v2pulzzvbo","6291861f8937c6bd60637cf8","fixation","img/fixation.png","null","","test","","","","","",""
"355.40000009536743","235744","pSARL_v2","pSARL_v2pulzzvbo","6291861f8937c6bd60637cf8","freq","img/orange_2bandit_a2.png","70","70","test","1","50","50","3","",""
"null","236200","pSARL_v2","pSARL_v2pulzzvbo","6291861f8937c6bd60637cf8","freq_resp","img/orange_2bandit_a.png","70","70","test","","","","3","",""
"null","236365","pSARL_v2","pSARL_v2pulzzvbo","6291861f8937c6bd60637cf8","fixation","img/fixation.png","null","","test","","","","","",""
"359.30000019073486","236735","pSARL_v2","pSARL_v2pulzzvbo","6291861f8937c6bd60637cf8","freq","img/orange_2bandit_a2.png","70","70","test","1","51","51","3","",""
"null","237185","pSARL_v2","pSARL_v2pulzzvbo","6291861f8937c6bd60637cf8","freq_resp","img/orange_2bandit_a.png","70","70","test","","","","3","",""
"null","237351","pSARL_v2","pSARL_v2pulzzvbo","6291861f8937c6bd60637cf8","fixation","img/fixation.png","null","","test","","","","","",""
"361.40000009536743","237722","pSARL_v2","pSARL_v2pulzzvbo","6291861f8937c6bd60637cf8","freq","img/orange_2bandit_a2.png","70","70","test","1","52","52","3","",""
"null","238170","pSARL_v2","pSARL_v2pulzzvbo","6291861f8937c6bd60637cf8","freq_resp","img/orange_2bandit_a.png","70","70","test","","","","3","",""
"null","238338","pSARL_v2","pSARL_v2pulzzvbo","6291861f8937c6bd60637cf8","fixation","img/fixation.png","null","","test","","","","","",""
"367.30000019073486","238714","pSARL_v2","pSARL_v2pulzzvbo","6291861f8937c6bd60637cf8","freq","img/orange_2bandit_a2.png","70","70","test","1","53","53","3","",""
"null","239157","pSARL_v2","pSARL_v2pulzzvbo","6291861f8937c6bd60637cf8","freq_resp","img/orange_2bandit_a.png","70","70","test","","","","3","",""
"null","239319","pSARL_v2","pSARL_v2pulzzvbo","6291861f8937c6bd60637cf8","fixation","img/fixation.png","null","","test","","","","","",""
"391.59999990463257","239719","pSARL_v2","pSARL_v2pulzzvbo","6291861f8937c6bd60637cf8","freq","img/orange_2bandit_a2.png","70","70","test","1","54","54","3","",""
"null","240138","pSARL_v2","pSARL_v2pulzzvbo","6291861f8937c6bd60637cf8","freq_resp","img/orange_2bandit_a.png","70","70","test","","","","3","",""
"null","240303","pSARL_v2","pSARL_v2pulzzvbo","6291861f8937c6bd60637cf8","fixation","img/fixation.png","null","","test","","","","","",""
"412.40000009536743","240724","pSARL_v2","pSARL_v2pulzzvbo","6291861f8937c6bd60637cf8","freq","img/orange_2bandit_a2.png","70","70","test","1","55","55","3","",""
"null","241126","pSARL_v2","pSARL_v2pulzzvbo","6291861f8937c6bd60637cf8","freq_resp","img/orange_2bandit_a.png","70","70","test","","","","3","",""
"null","241292","pSARL_v2","pSARL_v2pulzzvbo","6291861f8937c6bd60637cf8","fixation","img/fixation.png","null","","test","","","","","",""
"533.5","241837","pSARL_v2","pSARL_v2pulzzvbo","6291861f8937c6bd60637cf8","infreq","img/green_2bandit_a2.png","68","68","test","1","56","56","3","",""
"null","242116","pSARL_v2","pSARL_v2pulzzvbo","6291861f8937c6bd60637cf8","infreq_resp","img/green_2bandit_a.png","68","68","test","","","","3","",""
"null","242280","pSARL_v2","pSARL_v2pulzzvbo","6291861f8937c6bd60637cf8","fixation","img/fixation.png","null","","test","","","","","",""
"490.90000009536743","242779","pSARL_v2","pSARL_v2pulzzvbo","6291861f8937c6bd60637cf8","freq","img/orange_2bandit_a2.png","70","70","test","1","57","57","3","",""
"null","243103","pSARL_v2","pSARL_v2pulzzvbo","6291861f8937c6bd60637cf8","freq_resp","img/orange_2bandit_a.png","70","70","test","","","","3","",""
"null","243265","pSARL_v2","pSARL_v2pulzzvbo","6291861f8937c6bd60637cf8","fixation","img/fixation.png","null","","test","","","","","",""
"405.3999996185303","243680","pSARL_v2","pSARL_v2pulzzvbo","6291861f8937c6bd60637cf8","freq","img/orange_2bandit_a2.png","70","70","test","1","58","58","3","",""
"null","244085","pSARL_v2","pSARL_v2pulzzvbo","6291861f8937c6bd60637cf8","freq_resp","img/orange_2bandit_a.png","70","70","test","","","","3","",""
"null","244253","pSARL_v2","pSARL_v2pulzzvbo","6291861f8937c6bd60637cf8","fixation","img/fixation.png","null","","test","","","","","",""
"362.80000019073486","244624","pSARL_v2","pSARL_v2pulzzvbo","6291861f8937c6bd60637cf8","freq","img/orange_2bandit_a2.png","70","70","test","1","59","59","3","",""
"null","245076","pSARL_v2","pSARL_v2pulzzvbo","6291861f8937c6bd60637cf8","freq_resp","img/orange_2bandit_a.png","70","70","test","","","","3","",""
"null","245235","pSARL_v2","pSARL_v2pulzzvbo","6291861f8937c6bd60637cf8","fixation","img/fixation.png","null","","test","","","","","",""
"579.9000000953674","245823","pSARL_v2","pSARL_v2pulzzvbo","6291861f8937c6bd60637cf8","infreq","img/green_2bandit_a2.png","68","68","test","1","60","60","3","",""
"null","246054","pSARL_v2","pSARL_v2pulzzvbo","6291861f8937c6bd60637cf8","infreq_resp","img/green_2bandit_a.png","68","68","test","","","","3","",""
"null","246218","pSARL_v2","pSARL_v2pulzzvbo","6291861f8937c6bd60637cf8","fixation","img/fixation.png","null","","test","","","","","",""
"437.5","246668","pSARL_v2","pSARL_v2pulzzvbo","6291861f8937c6bd60637cf8","freq","img/orange_2bandit_a2.png","70","70","test","1","61","61","3","",""
"null","247044","pSARL_v2","pSARL_v2pulzzvbo","6291861f8937c6bd60637cf8","freq_resp","img/orange_2bandit_a.png","70","70","test","","","","3","",""
"null","247209","pSARL_v2","pSARL_v2pulzzvbo","6291861f8937c6bd60637cf8","fixation","img/fixation.png","null","","test","","","","","",""
"376.59999990463257","247593","pSARL_v2","pSARL_v2pulzzvbo","6291861f8937c6bd60637cf8","freq","img/orange_2bandit_a2.png","70","70","test","1","62","62","3","",""
"null","248030","pSARL_v2","pSARL_v2pulzzvbo","6291861f8937c6bd60637cf8","freq_resp","img/orange_2bandit_a.png","70","70","test","","","","3","",""
"null","248188","pSARL_v2","pSARL_v2pulzzvbo","6291861f8937c6bd60637cf8","fixation","img/fixation.png","null","","test","","","","","",""
"567.9000000953674","248764","pSARL_v2","pSARL_v2pulzzvbo","6291861f8937c6bd60637cf8","reward","img/slot.png","74","","test","","","","","",""
"null","249525","pSARL_v2","pSARL_v2pulzzvbo","6291861f8937c6bd60637cf8","points","<div class=""verylowPoints""> -7 </div>","null","na","test","","","","3","-7","2"
"595.0999999046326","250129","pSARL_v2","pSARL_v2pulzzvbo","6291861f8937c6bd60637cf8","freq","img/orange_2bandit_a2.png","70","70","test","1","63","63","4","",""
"null","250343","pSARL_v2","pSARL_v2pulzzvbo","6291861f8937c6bd60637cf8","freq_resp","img/orange_2bandit_a.png","70","70","test","","","","4","",""
"null","250505","pSARL_v2","pSARL_v2pulzzvbo","6291861f8937c6bd60637cf8","fixation","img/fixation.png","null","","test","","","","","",""
"545.5999999046326","251059","pSARL_v2","pSARL_v2pulzzvbo","6291861f8937c6bd60637cf8","infreq","img/green_2bandit_a2.png","68","68","test","1","64","64","4","",""
"null","251326","pSARL_v2","pSARL_v2pulzzvbo","6291861f8937c6bd60637cf8","infreq_resp","img/green_2bandit_a.png","68","68","test","","","","4","",""
"null","251492","pSARL_v2","pSARL_v2pulzzvbo","6291861f8937c6bd60637cf8","fixation","img/fixation.png","null","","test","","","","","",""
"413.5","251914","pSARL_v2","pSARL_v2pulzzvbo","6291861f8937c6bd60637cf8","freq","img/orange_2bandit_a2.png","70","70","test","1","65","65","4","",""
"null","252316","pSARL_v2","pSARL_v2pulzzvbo","6291861f8937c6bd60637cf8","freq_resp","img/orange_2bandit_a.png","70","70","test","","","","4","",""
"null","252479","pSARL_v2","pSARL_v2pulzzvbo","6291861f8937c6bd60637cf8","fixation","img/fixation.png","null","","test","","","","","",""
"338.19999980926514","252825","pSARL_v2","pSARL_v2pulzzvbo","6291861f8937c6bd60637cf8","freq","img/orange_2bandit_a2.png","70","70","test","1","66","66","4","",""
"null","253304","pSARL_v2","pSARL_v2pulzzvbo","6291861f8937c6bd60637cf8","freq_resp","img/orange_2bandit_a.png","70","70","test","","","","4","",""
"null","253470","pSARL_v2","pSARL_v2pulzzvbo","6291861f8937c6bd60637cf8","fixation","img/fixation.png","null","","test","","","","","",""
"355.59999990463257","253833","pSARL_v2","pSARL_v2pulzzvbo","6291861f8937c6bd60637cf8","freq","img/orange_2bandit_a2.png","70","70","test","1","67","67","4","",""
"null","254289","pSARL_v2","pSARL_v2pulzzvbo","6291861f8937c6bd60637cf8","freq_resp","img/orange_2bandit_a.png","70","70","test","","","","4","",""
"null","254456","pSARL_v2","pSARL_v2pulzzvbo","6291861f8937c6bd60637cf8","fixation","img/fixation.png","null","","test","","","","","",""
"522","254987","pSARL_v2","pSARL_v2pulzzvbo","6291861f8937c6bd60637cf8","infreq","img/green_2bandit_a2.png","68","68","test","1","68","68","4","",""
"null","255276","pSARL_v2","pSARL_v2pulzzvbo","6291861f8937c6bd60637cf8","infreq_resp","img/green_2bandit_a.png","68","68","test","","","","4","",""
"null","255439","pSARL_v2","pSARL_v2pulzzvbo","6291861f8937c6bd60637cf8","fixation","img/fixation.png","null","","test","","","","","",""
"561.6999998092651","256009","pSARL_v2","pSARL_v2pulzzvbo","6291861f8937c6bd60637cf8","freq","img/orange_2bandit_a2.png","70","70","test","1","69","69","4","",""
"null","256259","pSARL_v2","pSARL_v2pulzzvbo","6291861f8937c6bd60637cf8","freq_resp","img/orange_2bandit_a.png","70","70","test","","","","4","",""
"null","256425","pSARL_v2","pSARL_v2pulzzvbo","6291861f8937c6bd60637cf8","fixation","img/fixation.png","null","","test","","","","","",""
"476.7999997138977","256910","pSARL_v2","pSARL_v2pulzzvbo","6291861f8937c6bd60637cf8","freq","img/orange_2bandit_a2.png","70","70","test","1","70","70","4","",""
"null","257243","pSARL_v2","pSARL_v2pulzzvbo","6291861f8937c6bd60637cf8","freq_resp","img/orange_2bandit_a.png","70","70","test","","","","4","",""
"null","257404","pSARL_v2","pSARL_v2pulzzvbo","6291861f8937c6bd60637cf8","fixation","img/fixation.png","null","","test","","","","","",""
"411","257824","pSARL_v2","pSARL_v2pulzzvbo","6291861f8937c6bd60637cf8","freq","img/orange_2bandit_a2.png","70","70","test","1","71","71","4","",""
"null","258229","pSARL_v2","pSARL_v2pulzzvbo","6291861f8937c6bd60637cf8","freq_resp","img/orange_2bandit_a.png","70","70","test","","","","4","",""
"null","258397","pSARL_v2","pSARL_v2pulzzvbo","6291861f8937c6bd60637cf8","fixation","img/fixation.png","null","","test","","","","","",""
"363.59999990463257","258770","pSARL_v2","pSARL_v2pulzzvbo","6291861f8937c6bd60637cf8","freq","img/orange_2bandit_a2.png","70","70","test","1","72","72","4","",""
"null","259218","pSARL_v2","pSARL_v2pulzzvbo","6291861f8937c6bd60637cf8","freq_resp","img/orange_2bandit_a.png","70","70","test","","","","4","",""
"null","259382","pSARL_v2","pSARL_v2pulzzvbo","6291861f8937c6bd60637cf8","fixation","img/fixation.png","null","","test","","","","","",""
"397.80000019073486","259789","pSARL_v2","pSARL_v2pulzzvbo","6291861f8937c6bd60637cf8","freq","img/orange_2bandit_a2.png","70","70","test","1","73","73","4","",""
"null","260208","pSARL_v2","pSARL_v2pulzzvbo","6291861f8937c6bd60637cf8","freq_resp","img/orange_2bandit_a.png","70","70","test","","","","4","",""
"null","260369","pSARL_v2","pSARL_v2pulzzvbo","6291861f8937c6bd60637cf8","fixation","img/fixation.png","null","","test","","","","","",""
"371.1000003814697","260749","pSARL_v2","pSARL_v2pulzzvbo","6291861f8937c6bd60637cf8","freq","img/orange_2bandit_a2.png","70","70","test","1","74","74","4","",""
"null","261188","pSARL_v2","pSARL_v2pulzzvbo","6291861f8937c6bd60637cf8","freq_resp","img/orange_2bandit_a.png","70","70","test","","","","4","",""
"null","261354","pSARL_v2","pSARL_v2pulzzvbo","6291861f8937c6bd60637cf8","fixation","img/fixation.png","null","","test","","","","","",""
"375.69999980926514","261740","pSARL_v2","pSARL_v2pulzzvbo","6291861f8937c6bd60637cf8","freq","img/orange_2bandit_a2.png","70","70","test","1","75","75","4","",""
"null","262177","pSARL_v2","pSARL_v2pulzzvbo","6291861f8937c6bd60637cf8","freq_resp","img/orange_2bandit_a.png","70","70","test","","","","4","",""
"null","262342","pSARL_v2","pSARL_v2pulzzvbo","6291861f8937c6bd60637cf8","fixation","img/fixation.png","null","","test","","","","","",""
"362.69999980926514","262714","pSARL_v2","pSARL_v2pulzzvbo","6291861f8937c6bd60637cf8","freq","img/orange_2bandit_a2.png","70","70","test","1","76","76","4","",""
"null","263162","pSARL_v2","pSARL_v2pulzzvbo","6291861f8937c6bd60637cf8","freq_resp","img/orange_2bandit_a.png","70","70","test","","","","4","",""
"null","263325","pSARL_v2","pSARL_v2pulzzvbo","6291861f8937c6bd60637cf8","fixation","img/fixation.png","null","","test","","","","","",""
"371.19999980926514","263704","pSARL_v2","pSARL_v2pulzzvbo","6291861f8937c6bd60637cf8","freq","img/orange_2bandit_a2.png","70","70","test","1","77","77","4","",""
"null","264149","pSARL_v2","pSARL_v2pulzzvbo","6291861f8937c6bd60637cf8","freq_resp","img/orange_2bandit_a.png","70","70","test","","","","4","",""
"null","264313","pSARL_v2","pSARL_v2pulzzvbo","6291861f8937c6bd60637cf8","fixation","img/fixation.png","null","","test","","","","","",""
"353.7000002861023","264674","pSARL_v2","pSARL_v2pulzzvbo","6291861f8937c6bd60637cf8","freq","img/orange_2bandit_a2.png","70","70","test","1","78","78","4","",""
"null","265131","pSARL_v2","pSARL_v2pulzzvbo","6291861f8937c6bd60637cf8","freq_resp","img/orange_2bandit_a.png","70","70","test","","","","4","",""
"null","265298","pSARL_v2","pSARL_v2pulzzvbo","6291861f8937c6bd60637cf8","fixation","img/fixation.png","null","","test","","","","","",""
"377","265687","pSARL_v2","pSARL_v2pulzzvbo","6291861f8937c6bd60637cf8","freq","img/orange_2bandit_a2.png","70","70","test","1","79","79","4","",""
"null","266125","pSARL_v2","pSARL_v2pulzzvbo","6291861f8937c6bd60637cf8","freq_resp","img/orange_2bandit_a.png","70","70","test","","","","4","",""
"null","266286","pSARL_v2","pSARL_v2pulzzvbo","6291861f8937c6bd60637cf8","fixation","img/fixation.png","null","","test","","","","","",""
"409.59999990463257","266702","pSARL_v2","pSARL_v2pulzzvbo","6291861f8937c6bd60637cf8","freq","img/orange_2bandit_a2.png","70","70","test","1","80","80","4","",""
"null","267103","pSARL_v2","pSARL_v2pulzzvbo","6291861f8937c6bd60637cf8","freq_resp","img/orange_2bandit_a.png","70","70","test","","","","4","",""
"null","267267","pSARL_v2","pSARL_v2pulzzvbo","6291861f8937c6bd60637cf8","fixation","img/fixation.png","null","","test","","","","","",""
"418.1000003814697","267693","pSARL_v2","pSARL_v2pulzzvbo","6291861f8937c6bd60637cf8","freq","img/orange_2bandit_a2.png","70","70","test","1","81","81","4","",""
"null","268089","pSARL_v2","pSARL_v2pulzzvbo","6291861f8937c6bd60637cf8","freq_resp","img/orange_2bandit_a.png","70","70","test","","","","4","",""
"null","268255","pSARL_v2","pSARL_v2pulzzvbo","6291861f8937c6bd60637cf8","fixation","img/fixation.png","null","","test","","","","","",""
"405.5","268669","pSARL_v2","pSARL_v2pulzzvbo","6291861f8937c6bd60637cf8","freq","img/orange_2bandit_a2.png","70","70","test","1","82","82","4","",""
"null","269079","pSARL_v2","pSARL_v2pulzzvbo","6291861f8937c6bd60637cf8","freq_resp","img/orange_2bandit_a.png","70","70","test","","","","4","",""
"null","269247","pSARL_v2","pSARL_v2pulzzvbo","6291861f8937c6bd60637cf8","fixation","img/fixation.png","null","","test","","","","","",""
"388.09999990463257","269642","pSARL_v2","pSARL_v2pulzzvbo","6291861f8937c6bd60637cf8","freq","img/orange_2bandit_a2.png","70","70","test","1","83","83","4","",""
"null","270068","pSARL_v2","pSARL_v2pulzzvbo","6291861f8937c6bd60637cf8","freq_resp","img/orange_2bandit_a.png","70","70","test","","","","4","",""
"null","270234","pSARL_v2","pSARL_v2pulzzvbo","6291861f8937c6bd60637cf8","fixation","img/fixation.png","null","","test","","","","","",""
"570.8999996185303","270814","pSARL_v2","pSARL_v2pulzzvbo","6291861f8937c6bd60637cf8","reward","img/slot.png","74","","test","","","","","",""
"null","271576","pSARL_v2","pSARL_v2pulzzvbo","6291861f8937c6bd60637cf8","points","<div class=""verylowPoints""> -3 </div>","null","na","test","","","","4","-3","3"
"471.2999997138977","272056","pSARL_v2","pSARL_v2pulzzvbo","6291861f8937c6bd60637cf8","freq","img/orange_2bandit_a2.png","70","70","test","1","84","84","5","",""
"null","272394","pSARL_v2","pSARL_v2pulzzvbo","6291861f8937c6bd60637cf8","freq_resp","img/orange_2bandit_a.png","70","70","test","","","","5","",""
"null","272559","pSARL_v2","pSARL_v2pulzzvbo","6291861f8937c6bd60637cf8","fixation","img/fixation.png","null","","test","","","","","",""
"421.3999996185303","272988","pSARL_v2","pSARL_v2pulzzvbo","6291861f8937c6bd60637cf8","freq","img/orange_2bandit_a2.png","70","70","test","1","85","85","5","",""
"null","273377","pSARL_v2","pSARL_v2pulzzvbo","6291861f8937c6bd60637cf8","freq_resp","img/orange_2bandit_a.png","70","70","test","","","","5","",""
"null","273542","pSARL_v2","pSARL_v2pulzzvbo","6291861f8937c6bd60637cf8","fixation","img/fixation.png","null","","test","","","","","",""
"398.19999980926514","273949","pSARL_v2","pSARL_v2pulzzvbo","6291861f8937c6bd60637cf8","freq","img/orange_2bandit_a2.png","70","70","test","1","86","86","5","",""
"null","274364","pSARL_v2","pSARL_v2pulzzvbo","6291861f8937c6bd60637cf8","freq_resp","img/orange_2bandit_a.png","70","70","test","","","","5","",""
"null","274524","pSARL_v2","pSARL_v2pulzzvbo","6291861f8937c6bd60637cf8","fixation","img/fixation.png","null","","test","","","","","",""
"395.40000009536743","274928","pSARL_v2","pSARL_v2pulzzvbo","6291861f8937c6bd60637cf8","freq","img/orange_2bandit_a2.png","70","70","test","1","87","87","5","",""
"null","275348","pSARL_v2","pSARL_v2pulzzvbo","6291861f8937c6bd60637cf8","freq_resp","img/orange_2bandit_a.png","70","70","test","","","","5","",""
"null","275513","pSARL_v2","pSARL_v2pulzzvbo","6291861f8937c6bd60637cf8","fixation","img/fixation.png","null","","test","","","","","",""
"391.90000009536743","275914","pSARL_v2","pSARL_v2pulzzvbo","6291861f8937c6bd60637cf8","freq","img/orange_2bandit_a2.png","70","70","test","1","88","88","5","",""
"null","276335","pSARL_v2","pSARL_v2pulzzvbo","6291861f8937c6bd60637cf8","freq_resp","img/orange_2bandit_a.png","70","70","test","","","","5","",""
"null","276498","pSARL_v2","pSARL_v2pulzzvbo","6291861f8937c6bd60637cf8","fixation","img/fixation.png","null","","test","","","","","",""
"368.09999990463257","276875","pSARL_v2","pSARL_v2pulzzvbo","6291861f8937c6bd60637cf8","freq","img/orange_2bandit_a2.png","70","70","test","1","89","89","5","",""
"null","277314","pSARL_v2","pSARL_v2pulzzvbo","6291861f8937c6bd60637cf8","freq_resp","img/orange_2bandit_a.png","70","70","test","","","","5","",""
"null","277481","pSARL_v2","pSARL_v2pulzzvbo","6291861f8937c6bd60637cf8","fixation","img/fixation.png","null","","test","","","","","",""
"375.5","277866","pSARL_v2","pSARL_v2pulzzvbo","6291861f8937c6bd60637cf8","freq","img/orange_2bandit_a2.png","70","70","test","1","90","90","5","",""
"null","278304","pSARL_v2","pSARL_v2pulzzvbo","6291861f8937c6bd60637cf8","freq_resp","img/orange_2bandit_a.png","70","70","test","","","","5","",""
"null","278474","pSARL_v2","pSARL_v2pulzzvbo","6291861f8937c6bd60637cf8","fixation","img/fixation.png","null","","test","","","","","",""
"370.69999980926514","278854","pSARL_v2","pSARL_v2pulzzvbo","6291861f8937c6bd60637cf8","freq","img/orange_2bandit_a2.png","70","70","test","1","91","91","5","",""
"null","279292","pSARL_v2","pSARL_v2pulzzvbo","6291861f8937c6bd60637cf8","freq_resp","img/orange_2bandit_a.png","70","70","test","","","","5","",""
"null","279454","pSARL_v2","pSARL_v2pulzzvbo","6291861f8937c6bd60637cf8","fixation","img/fixation.png","null","","test","","","","","",""
"394.40000009536743","279857","pSARL_v2","pSARL_v2pulzzvbo","6291861f8937c6bd60637cf8","freq","img/orange_2bandit_a2.png","70","70","test","1","92","92","5","",""
"null","280275","pSARL_v2","pSARL_v2pulzzvbo","6291861f8937c6bd60637cf8","freq_resp","img/orange_2bandit_a.png","70","70","test","","","","5","",""
"null","280439","pSARL_v2","pSARL_v2pulzzvbo","6291861f8937c6bd60637cf8","fixation","img/fixation.png","null","","test","","","","","",""
"371.40000009536743","280820","pSARL_v2","pSARL_v2pulzzvbo","6291861f8937c6bd60637cf8","freq","img/orange_2bandit_a2.png","70","70","test","1","93","93","5","",""
"null","281262","pSARL_v2","pSARL_v2pulzzvbo","6291861f8937c6bd60637cf8","freq_resp","img/orange_2bandit_a.png","70","70","test","","","","5","",""
"null","281425","pSARL_v2","pSARL_v2pulzzvbo","6291861f8937c6bd60637cf8","fixation","img/fixation.png","null","","test","","","","","",""
"390.19999980926514","281826","pSARL_v2","pSARL_v2pulzzvbo","6291861f8937c6bd60637cf8","freq","img/orange_2bandit_a2.png","70","70","test","1","94","94","5","",""
"null","282252","pSARL_v2","pSARL_v2pulzzvbo","6291861f8937c6bd60637cf8","freq_resp","img/orange_2bandit_a.png","70","70","test","","","","5","",""
"null","282418","pSARL_v2","pSARL_v2pulzzvbo","6291861f8937c6bd60637cf8","fixation","img/fixation.png","null","","test","","","","","",""
"372.30000019073486","282801","pSARL_v2","pSARL_v2pulzzvbo","6291861f8937c6bd60637cf8","freq","img/orange_2bandit_a2.png","70","70","test","1","95","95","5","",""
"null","283242","pSARL_v2","pSARL_v2pulzzvbo","6291861f8937c6bd60637cf8","freq_resp","img/orange_2bandit_a.png","70","70","test","","","","5","",""
"null","283406","pSARL_v2","pSARL_v2pulzzvbo","6291861f8937c6bd60637cf8","fixation","img/fixation.png","null","","test","","","","","",""
"404.1000003814697","283819","pSARL_v2","pSARL_v2pulzzvbo","6291861f8937c6bd60637cf8","freq","img/orange_2bandit_a2.png","70","70","test","1","96","96","5","",""
"null","284226","pSARL_v2","pSARL_v2pulzzvbo","6291861f8937c6bd60637cf8","freq_resp","img/orange_2bandit_a.png","70","70","test","","","","5","",""
"null","284390","pSARL_v2","pSARL_v2pulzzvbo","6291861f8937c6bd60637cf8","fixation","img/fixation.png","null","","test","","","","","",""
"410.69999980926514","284807","pSARL_v2","pSARL_v2pulzzvbo","6291861f8937c6bd60637cf8","freq","img/orange_2bandit_a2.png","70","70","test","1","97","97","5","",""
"null","285206","pSARL_v2","pSARL_v2pulzzvbo","6291861f8937c6bd60637cf8","freq_resp","img/orange_2bandit_a.png","70","70","test","","","","5","",""
"null","285373","pSARL_v2","pSARL_v2pulzzvbo","6291861f8937c6bd60637cf8","fixation","img/fixation.png","null","","test","","","","","",""
"463.30000019073486","285846","pSARL_v2","pSARL_v2pulzzvbo","6291861f8937c6bd60637cf8","freq","img/orange_2bandit_a2.png","70","70","test","1","98","98","5","",""
"null","286196","pSARL_v2","pSARL_v2pulzzvbo","6291861f8937c6bd60637cf8","freq_resp","img/orange_2bandit_a.png","70","70","test","","","","5","",""
"null","286356","pSARL_v2","pSARL_v2pulzzvbo","6291861f8937c6bd60637cf8","fixation","img/fixation.png","null","","test","","","","","",""
"468.90000009536743","286835","pSARL_v2","pSARL_v2pulzzvbo","6291861f8937c6bd60637cf8","freq","img/orange_2bandit_a2.png","70","70","test","1","99","99","5","",""
"null","287175","pSARL_v2","pSARL_v2pulzzvbo","6291861f8937c6bd60637cf8","freq_resp","img/orange_2bandit_a.png","70","70","test","","","","5","",""
"null","287337","pSARL_v2","pSARL_v2pulzzvbo","6291861f8937c6bd60637cf8","fixation","img/fixation.png","null","","test","","","","","",""
"507.59999990463257","287854","pSARL_v2","pSARL_v2pulzzvbo","6291861f8937c6bd60637cf8","infreq","img/green_2bandit_a2.png","68","68","test","1","100","100","5","",""
"null","288160","pSARL_v2","pSARL_v2pulzzvbo","6291861f8937c6bd60637cf8","infreq_resp","img/green_2bandit_a.png","68","68","test","","","","5","",""
"null","288328","pSARL_v2","pSARL_v2pulzzvbo","6291861f8937c6bd60637cf8","fixation","img/fixation.png","null","","test","","","","","",""
"612.1999998092651","288948","pSARL_v2","pSARL_v2pulzzvbo","6291861f8937c6bd60637cf8","infreq","img/green_2bandit_a2.png","68","68","test","1","101","101","5","",""
"null","289152","pSARL_v2","pSARL_v2pulzzvbo","6291861f8937c6bd60637cf8","infreq_resp","img/green_2bandit_a.png","68","68","test","","","","5","",""
"null","289316","pSARL_v2","pSARL_v2pulzzvbo","6291861f8937c6bd60637cf8","fixation","img/fixation.png","null","","test","","","","","",""
"523.2000002861023","289849","pSARL_v2","pSARL_v2pulzzvbo","6291861f8937c6bd60637cf8","freq","img/orange_2bandit_a2.png","70","70","test","1","102","102","5","",""
"null","290137","pSARL_v2","pSARL_v2pulzzvbo","6291861f8937c6bd60637cf8","freq_resp","img/orange_2bandit_a.png","70","70","test","","","","5","",""
"null","290305","pSARL_v2","pSARL_v2pulzzvbo","6291861f8937c6bd60637cf8","fixation","img/fixation.png","null","","test","","","","","",""
"524.9000000953674","290841","pSARL_v2","pSARL_v2pulzzvbo","6291861f8937c6bd60637cf8","infreq","img/green_2bandit_a2.png","68","68","test","1","103","103","5","",""
"null","291126","pSARL_v2","pSARL_v2pulzzvbo","6291861f8937c6bd60637cf8","infreq_resp","img/green_2bandit_a.png","68","68","test","","","","5","",""
"null","291296","pSARL_v2","pSARL_v2pulzzvbo","6291861f8937c6bd60637cf8","fixation","img/fixation.png","null","","test","","","","","",""
"445.5","291750","pSARL_v2","pSARL_v2pulzzvbo","6291861f8937c6bd60637cf8","freq","img/orange_2bandit_a2.png","70","70","test","1","104","104","5","",""
"null","292120","pSARL_v2","pSARL_v2pulzzvbo","6291861f8937c6bd60637cf8","freq_resp","img/orange_2bandit_a.png","70","70","test","","","","5","",""
"null","292285","pSARL_v2","pSARL_v2pulzzvbo","6291861f8937c6bd60637cf8","fixation","img/fixation.png","null","","test","","","","","",""
"477.69999980926514","292771","pSARL_v2","pSARL_v2pulzzvbo","6291861f8937c6bd60637cf8","freq","img/orange_2bandit_a2.png","70","70","test","1","105","105","5","",""
"null","293104","pSARL_v2","pSARL_v2pulzzvbo","6291861f8937c6bd60637cf8","freq_resp","img/orange_2bandit_a.png","70","70","test","","","","5","",""
"null","293271","pSARL_v2","pSARL_v2pulzzvbo","6291861f8937c6bd60637cf8","fixation","img/fixation.png","null","","test","","","","","",""
"439","293719","pSARL_v2","pSARL_v2pulzzvbo","6291861f8937c6bd60637cf8","freq","img/orange_2bandit_a2.png","70","70","test","1","106","106","5","",""
"null","294095","pSARL_v2","pSARL_v2pulzzvbo","6291861f8937c6bd60637cf8","freq_resp","img/orange_2bandit_a.png","70","70","test","","","","5","",""
"null","294262","pSARL_v2","pSARL_v2pulzzvbo","6291861f8937c6bd60637cf8","fixation","img/fixation.png","null","","test","","","","","",""
"617.3000001907349","294888","pSARL_v2","pSARL_v2pulzzvbo","6291861f8937c6bd60637cf8","reward","img/slot.png","74","","test","","","","","",""
"null","295652","pSARL_v2","pSARL_v2pulzzvbo","6291861f8937c6bd60637cf8","points","<div class=""veryhighPoints""> +1 </div>","null","na","test","","","","5","1","4"
"519","296179","pSARL_v2","pSARL_v2pulzzvbo","6291861f8937c6bd60637cf8","freq","img/orange_2bandit_a2.png","70","70","test","1","107","107","6","",""
"null","296474","pSARL_v2","pSARL_v2pulzzvbo","6291861f8937c6bd60637cf8","freq_resp","img/orange_2bandit_a.png","70","70","test","","","","6","",""
"null","296641","pSARL_v2","pSARL_v2pulzzvbo","6291861f8937c6bd60637cf8","fixation","img/fixation.png","null","","test","","","","","",""
"398.59999990463257","297048","pSARL_v2","pSARL_v2pulzzvbo","6291861f8937c6bd60637cf8","freq","img/orange_2bandit_a2.png","70","70","test","1","108","108","6","",""
"null","297459","pSARL_v2","pSARL_v2pulzzvbo","6291861f8937c6bd60637cf8","freq_resp","img/orange_2bandit_a.png","70","70","test","","","","6","",""
"null","297620","pSARL_v2","pSARL_v2pulzzvbo","6291861f8937c6bd60637cf8","fixation","img/fixation.png","null","","test","","","","","",""
"348.7999997138977","297978","pSARL_v2","pSARL_v2pulzzvbo","6291861f8937c6bd60637cf8","freq","img/orange_2bandit_a2.png","70","70","test","1","109","109","6","",""
"null","298443","pSARL_v2","pSARL_v2pulzzvbo","6291861f8937c6bd60637cf8","freq_resp","img/orange_2bandit_a.png","70","70","test","","","","6","",""
"null","298605","pSARL_v2","pSARL_v2pulzzvbo","6291861f8937c6bd60637cf8","fixation","img/fixation.png","null","","test","","","","","",""
"338.90000009536743","298952","pSARL_v2","pSARL_v2pulzzvbo","6291861f8937c6bd60637cf8","freq","img/orange_2bandit_a2.png","70","70","test","1","110","110","6","",""
"null","299429","pSARL_v2","pSARL_v2pulzzvbo","6291861f8937c6bd60637cf8","freq_resp","img/orange_2bandit_a.png","70","70","test","","","","6","",""
"null","299592","pSARL_v2","pSARL_v2pulzzvbo","6291861f8937c6bd60637cf8","fixation","img/fixation.png","null","","test","","","","","",""
"372.19999980926514","299972","pSARL_v2","pSARL_v2pulzzvbo","6291861f8937c6bd60637cf8","freq","img/orange_2bandit_a2.png","70","70","test","1","111","111","6","",""
"null","300415","pSARL_v2","pSARL_v2pulzzvbo","6291861f8937c6bd60637cf8","freq_resp","img/orange_2bandit_a.png","70","70","test","","","","6","",""
"null","300577","pSARL_v2","pSARL_v2pulzzvbo","6291861f8937c6bd60637cf8","fixation","img/fixation.png","null","","test","","","","","",""
"407.40000009536743","300993","pSARL_v2","pSARL_v2pulzzvbo","6291861f8937c6bd60637cf8","freq","img/orange_2bandit_a2.png","70","70","test","1","112","112","6","",""
"null","301400","pSARL_v2","pSARL_v2pulzzvbo","6291861f8937c6bd60637cf8","freq_resp","img/orange_2bandit_a.png","70","70","test","","","","6","",""
"null","301564","pSARL_v2","pSARL_v2pulzzvbo","6291861f8937c6bd60637cf8","fixation","img/fixation.png","null","","test","","","","","",""
"380.7000002861023","301953","pSARL_v2","pSARL_v2pulzzvbo","6291861f8937c6bd60637cf8","freq","img/orange_2bandit_a2.png","70","70","test","1","113","113","6","",""
"null","302385","pSARL_v2","pSARL_v2pulzzvbo","6291861f8937c6bd60637cf8","freq_resp","img/orange_2bandit_a.png","70","70","test","","","","6","",""
"null","302547","pSARL_v2","pSARL_v2pulzzvbo","6291861f8937c6bd60637cf8","fixation","img/fixation.png","null","","test","","","","","",""
"403.19999980926514","302959","pSARL_v2","pSARL_v2pulzzvbo","6291861f8937c6bd60637cf8","freq","img/orange_2bandit_a2.png","70","70","test","1","114","114","6","",""
"null","303368","pSARL_v2","pSARL_v2pulzzvbo","6291861f8937c6bd60637cf8","freq_resp","img/orange_2bandit_a.png","70","70","test","","","","6","",""
"null","303528","pSARL_v2","pSARL_v2pulzzvbo","6291861f8937c6bd60637cf8","fixation","img/fixation.png","null","","test","","","","","",""
"397","303934","pSARL_v2","pSARL_v2pulzzvbo","6291861f8937c6bd60637cf8","freq","img/orange_2bandit_a2.png","70","70","test","1","115","115","6","",""
"null","304351","pSARL_v2","pSARL_v2pulzzvbo","6291861f8937c6bd60637cf8","freq_resp","img/orange_2bandit_a.png","70","70","test","","","","6","",""
"null","304515","pSARL_v2","pSARL_v2pulzzvbo","6291861f8937c6bd60637cf8","fixation","img/fixation.png","null","","test","","","","","",""
"671.9000000953674","305195","pSARL_v2","pSARL_v2pulzzvbo","6291861f8937c6bd60637cf8","infreq","img/green_2bandit_a2.png","68","68","test","1","116","116","6","",""
"null","305337","pSARL_v2","pSARL_v2pulzzvbo","6291861f8937c6bd60637cf8","infreq_resp","img/green_2bandit_a.png","68","68","test","","","","6","",""
"null","305501","pSARL_v2","pSARL_v2pulzzvbo","6291861f8937c6bd60637cf8","fixation","img/fixation.png","null","","test","","","","","",""
"584.1999998092651","306093","pSARL_v2","pSARL_v2pulzzvbo","6291861f8937c6bd60637cf8","freq","img/orange_2bandit_a2.png","70","70","test","1","117","117","6","",""
"null","306321","pSARL_v2","pSARL_v2pulzzvbo","6291861f8937c6bd60637cf8","freq_resp","img/orange_2bandit_a.png","70","70","test","","","","6","",""
"null","306487","pSARL_v2","pSARL_v2pulzzvbo","6291861f8937c6bd60637cf8","fixation","img/fixation.png","null","","test","","","","","",""
"603.7999997138977","307099","pSARL_v2","pSARL_v2pulzzvbo","6291861f8937c6bd60637cf8","infreq","img/green_2bandit_a2.png","68","68","test","1","118","118","6","",""
"null","307308","pSARL_v2","pSARL_v2pulzzvbo","6291861f8937c6bd60637cf8","infreq_resp","img/green_2bandit_a.png","68","68","test","","","","6","",""
"null","307472","pSARL_v2","pSARL_v2pulzzvbo","6291861f8937c6bd60637cf8","fixation","img/fixation.png","null","","test","","","","","",""
"440.2000002861023","307921","pSARL_v2","pSARL_v2pulzzvbo","6291861f8937c6bd60637cf8","freq","img/orange_2bandit_a2.png","70","70","test","1","119","119","6","",""
"null","308294","pSARL_v2","pSARL_v2pulzzvbo","6291861f8937c6bd60637cf8","freq_resp","img/orange_2bandit_a.png","70","70","test","","","","6","",""
"null","308458","pSARL_v2","pSARL_v2pulzzvbo","6291861f8937c6bd60637cf8","fixation","img/fixation.png","null","","test","","","","","",""
"386.59999990463257","308853","pSARL_v2","pSARL_v2pulzzvbo","6291861f8937c6bd60637cf8","freq","img/orange_2bandit_a2.png","70","70","test","1","120","120","6","",""
"null","309280","pSARL_v2","pSARL_v2pulzzvbo","6291861f8937c6bd60637cf8","freq_resp","img/orange_2bandit_a.png","70","70","test","","","","6","",""
"null","309441","pSARL_v2","pSARL_v2pulzzvbo","6291861f8937c6bd60637cf8","fixation","img/fixation.png","null","","test","","","","","",""
"438","309889","pSARL_v2","pSARL_v2pulzzvbo","6291861f8937c6bd60637cf8","freq","img/orange_2bandit_a2.png","70","70","test","1","121","121","6","",""
"null","310264","pSARL_v2","pSARL_v2pulzzvbo","6291861f8937c6bd60637cf8","freq_resp","img/orange_2bandit_a.png","70","70","test","","","","6","",""
"null","310425","pSARL_v2","pSARL_v2pulzzvbo","6291861f8937c6bd60637cf8","fixation","img/fixation.png","null","","test","","","","","",""
"368.90000009536743","310802","pSARL_v2","pSARL_v2pulzzvbo","6291861f8937c6bd60637cf8","freq","img/orange_2bandit_a2.png","70","70","test","1","122","122","6","",""
"null","311245","pSARL_v2","pSARL_v2pulzzvbo","6291861f8937c6bd60637cf8","freq_resp","img/orange_2bandit_a.png","70","70","test","","","","6","",""
"null","311414","pSARL_v2","pSARL_v2pulzzvbo","6291861f8937c6bd60637cf8","fixation","img/fixation.png","null","","test","","","","","",""
"355.19999980926514","311778","pSARL_v2","pSARL_v2pulzzvbo","6291861f8937c6bd60637cf8","freq","img/orange_2bandit_a2.png","70","70","test","1","123","123","6","",""
"null","312233","pSARL_v2","pSARL_v2pulzzvbo","6291861f8937c6bd60637cf8","freq_resp","img/orange_2bandit_a.png","70","70","test","","","","6","",""
"null","312400","pSARL_v2","pSARL_v2pulzzvbo","6291861f8937c6bd60637cf8","fixation","img/fixation.png","null","","test","","","","","",""
"343.90000009536743","312753","pSARL_v2","pSARL_v2pulzzvbo","6291861f8937c6bd60637cf8","freq","img/orange_2bandit_a2.png","70","70","test","1","124","124","6","",""
"null","313223","pSARL_v2","pSARL_v2pulzzvbo","6291861f8937c6bd60637cf8","freq_resp","img/orange_2bandit_a.png","70","70","test","","","","6","",""
"null","313387","pSARL_v2","pSARL_v2pulzzvbo","6291861f8937c6bd60637cf8","fixation","img/fixation.png","null","","test","","","","","",""
"361.80000019073486","313756","pSARL_v2","pSARL_v2pulzzvbo","6291861f8937c6bd60637cf8","freq","img/orange_2bandit_a2.png","70","70","test","1","125","125","6","",""
"null","314205","pSARL_v2","pSARL_v2pulzzvbo","6291861f8937c6bd60637cf8","freq_resp","img/orange_2bandit_a.png","70","70","test","","","","6","",""
"null","314368","pSARL_v2","pSARL_v2pulzzvbo","6291861f8937c6bd60637cf8","fixation","img/fixation.png","null","","test","","","","","",""
"356.5","314732","pSARL_v2","pSARL_v2pulzzvbo","6291861f8937c6bd60637cf8","freq","img/orange_2bandit_a2.png","70","70","test","1","126","126","6","",""
"null","315190","pSARL_v2","pSARL_v2pulzzvbo","6291861f8937c6bd60637cf8","freq_resp","img/orange_2bandit_a.png","70","70","test","","","","6","",""
"null","315354","pSARL_v2","pSARL_v2pulzzvbo","6291861f8937c6bd60637cf8","fixation","img/fixation.png","null","","test","","","","","",""
"359.90000009536743","315721","pSARL_v2","pSARL_v2pulzzvbo","6291861f8937c6bd60637cf8","freq","img/orange_2bandit_a2.png","70","70","test","1","127","127","6","",""
"null","316173","pSARL_v2","pSARL_v2pulzzvbo","6291861f8937c6bd60637cf8","freq_resp","img/orange_2bandit_a.png","70","70","test","","","","6","",""
"null","316335","pSARL_v2","pSARL_v2pulzzvbo","6291861f8937c6bd60637cf8","fixation","img/fixation.png","null","","test","","","","","",""
"355.40000009536743","316699","pSARL_v2","pSARL_v2pulzzvbo","6291861f8937c6bd60637cf8","freq","img/orange_2bandit_a2.png","70","70","test","1","128","128","6","",""
"null","317157","pSARL_v2","pSARL_v2pulzzvbo","6291861f8937c6bd60637cf8","freq_resp","img/orange_2bandit_a.png","70","70","test","","","","6","",""
"null","317321","pSARL_v2","pSARL_v2pulzzvbo","6291861f8937c6bd60637cf8","fixation","img/fixation.png","null","","test","","","","","",""
"354","317684","pSARL_v2","pSARL_v2pulzzvbo","6291861f8937c6bd60637cf8","freq","img/orange_2bandit_a2.png","70","70","test","1","129","129","6","",""
"null","318141","pSARL_v2","pSARL_v2pulzzvbo","6291861f8937c6bd60637cf8","freq_resp","img/orange_2bandit_a.png","70","70","test","","","","6","",""
"null","318305","pSARL_v2","pSARL_v2pulzzvbo","6291861f8937c6bd60637cf8","fixation","img/fixation.png","null","","test","","","","","",""
"574.8000001907349","318888","pSARL_v2","pSARL_v2pulzzvbo","6291861f8937c6bd60637cf8","reward","img/slot.png","74","","test","","","","","",""
"null","319649","pSARL_v2","pSARL_v2pulzzvbo","6291861f8937c6bd60637cf8","points","<div class=""verylowPoints""> -7 </div>","null","na","test","","","","6","-7","5"
"745.4000000953674","320402","pSARL_v2","pSARL_v2pulzzvbo","6291861f8937c6bd60637cf8","freq","img/orange_2bandit_a2.png","70","70","test","1","130","130","7","",""
"null","320469","pSARL_v2","pSARL_v2pulzzvbo","6291861f8937c6bd60637cf8","freq_resp","img/orange_2bandit_a.png","70","70","test","","","","7","",""
"null","320632","pSARL_v2","pSARL_v2pulzzvbo","6291861f8937c6bd60637cf8","fixation","img/fixation.png","null","","test","","","","","",""
"498.5","321137","pSARL_v2","pSARL_v2pulzzvbo","6291861f8937c6bd60637cf8","freq","img/orange_2bandit_a2.png","70","70","test","1","131","131","7","",""
"null","321452","pSARL_v2","pSARL_v2pulzzvbo","6291861f8937c6bd60637cf8","freq_resp","img/orange_2bandit_a.png","70","70","test","","","","7","",""
"null","321615","pSARL_v2","pSARL_v2pulzzvbo","6291861f8937c6bd60637cf8","fixation","img/fixation.png","null","","test","","","","","",""
"413.59999990463257","322038","pSARL_v2","pSARL_v2pulzzvbo","6291861f8937c6bd60637cf8","freq","img/orange_2bandit_a2.png","70","70","test","1","132","132","7","",""
"null","322443","pSARL_v2","pSARL_v2pulzzvbo","6291861f8937c6bd60637cf8","freq_resp","img/orange_2bandit_a.png","70","70","test","","","","7","",""
"null","322609","pSARL_v2","pSARL_v2pulzzvbo","6291861f8937c6bd60637cf8","fixation","img/fixation.png","null","","test","","","","","",""
"379.19999980926514","322995","pSARL_v2","pSARL_v2pulzzvbo","6291861f8937c6bd60637cf8","freq","img/orange_2bandit_a2.png","70","70","test","1","133","133","7","",""
"null","323428","pSARL_v2","pSARL_v2pulzzvbo","6291861f8937c6bd60637cf8","freq_resp","img/orange_2bandit_a.png","70","70","test","","","","7","",""
"null","323591","pSARL_v2","pSARL_v2pulzzvbo","6291861f8937c6bd60637cf8","fixation","img/fixation.png","null","","test","","","","","",""
"373.09999990463257","323975","pSARL_v2","pSARL_v2pulzzvbo","6291861f8937c6bd60637cf8","freq","img/orange_2bandit_a2.png","70","70","test","1","134","134","7","",""
"null","324415","pSARL_v2","pSARL_v2pulzzvbo","6291861f8937c6bd60637cf8","freq_resp","img/orange_2bandit_a.png","70","70","test","","","","7","",""
"null","324576","pSARL_v2","pSARL_v2pulzzvbo","6291861f8937c6bd60637cf8","fixation","img/fixation.png","null","","test","","","","","",""
"363.2999997138977","324948","pSARL_v2","pSARL_v2pulzzvbo","6291861f8937c6bd60637cf8","freq","img/orange_2bandit_a2.png","70","70","test","1","135","135","7","",""
"null","325392","pSARL_v2","pSARL_v2pulzzvbo","6291861f8937c6bd60637cf8","freq_resp","img/orange_2bandit_a.png","70","70","test","","","","7","",""
"null","325556","pSARL_v2","pSARL_v2pulzzvbo","6291861f8937c6bd60637cf8","fixation","img/fixation.png","null","","test","","","","","",""
"387.40000009536743","325951","pSARL_v2","pSARL_v2pulzzvbo","6291861f8937c6bd60637cf8","freq","img/orange_2bandit_a2.png","70","70","test","1","136","136","7","",""
"null","326376","pSARL_v2","pSARL_v2pulzzvbo","6291861f8937c6bd60637cf8","freq_resp","img/orange_2bandit_a.png","70","70","test","","","","7","",""
"null","326542","pSARL_v2","pSARL_v2pulzzvbo","6291861f8937c6bd60637cf8","fixation","img/fixation.png","null","","test","","","","","",""
"407.40000009536743","326956","pSARL_v2","pSARL_v2pulzzvbo","6291861f8937c6bd60637cf8","freq","img/orange_2bandit_a2.png","70","70","test","1","137","137","7","",""
"null","327360","pSARL_v2","pSARL_v2pulzzvbo","6291861f8937c6bd60637cf8","freq_resp","img/orange_2bandit_a.png","70","70","test","","","","7","",""
"null","327526","pSARL_v2","pSARL_v2pulzzvbo","6291861f8937c6bd60637cf8","fixation","img/fixation.png","null","","test","","","","","",""
"533.6000003814697","328068","pSARL_v2","pSARL_v2pulzzvbo","6291861f8937c6bd60637cf8","infreq","img/green_2bandit_a2.png","68","68","test","1","138","138","7","",""
"null","328347","pSARL_v2","pSARL_v2pulzzvbo","6291861f8937c6bd60637cf8","infreq_resp","img/green_2bandit_a.png","68","68","test","","","","7","",""
"null","328511","pSARL_v2","pSARL_v2pulzzvbo","6291861f8937c6bd60637cf8","fixation","img/fixation.png","null","","test","","","","","",""
"416.2999997138977","328939","pSARL_v2","pSARL_v2pulzzvbo","6291861f8937c6bd60637cf8","freq","img/orange_2bandit_a2.png","70","70","test","1","139","139","7","",""
"null","329332","pSARL_v2","pSARL_v2pulzzvbo","6291861f8937c6bd60637cf8","freq_resp","img/orange_2bandit_a.png","70","70","test","","","","7","",""
"null","329497","pSARL_v2","pSARL_v2pulzzvbo","6291861f8937c6bd60637cf8","fixation","img/fixation.png","null","","test","","","","","",""
"377.7000002861023","329883","pSARL_v2","pSARL_v2pulzzvbo","6291861f8937c6bd60637cf8","freq","img/orange_2bandit_a2.png","70","70","test","1","140","140","7","",""
"null","330315","pSARL_v2","pSARL_v2pulzzvbo","6291861f8937c6bd60637cf8","freq_resp","img/orange_2bandit_a.png","70","70","test","","","","7","",""
"null","330481","pSARL_v2","pSARL_v2pulzzvbo","6291861f8937c6bd60637cf8","fixation","img/fixation.png","null","","test","","","","","",""
"366.7000002861023","330855","pSARL_v2","pSARL_v2pulzzvbo","6291861f8937c6bd60637cf8","freq","img/orange_2bandit_a2.png","70","70","test","1","141","141","7","",""
"null","331298","pSARL_v2","pSARL_v2pulzzvbo","6291861f8937c6bd60637cf8","freq_resp","img/orange_2bandit_a.png","70","70","test","","","","7","",""
"null","331463","pSARL_v2","pSARL_v2pulzzvbo","6291861f8937c6bd60637cf8","fixation","img/fixation.png","null","","test","","","","","",""
"330.80000019073486","331802","pSARL_v2","pSARL_v2pulzzvbo","6291861f8937c6bd60637cf8","freq","img/orange_2bandit_a2.png","70","70","test","1","142","142","7","",""
"null","332288","pSARL_v2","pSARL_v2pulzzvbo","6291861f8937c6bd60637cf8","freq_resp","img/orange_2bandit_a.png","70","70","test","","","","7","",""
"null","332451","pSARL_v2","pSARL_v2pulzzvbo","6291861f8937c6bd60637cf8","fixation","img/fixation.png","null","","test","","","","","",""
"346.5","332807","pSARL_v2","pSARL_v2pulzzvbo","6291861f8937c6bd60637cf8","freq","img/orange_2bandit_a2.png","70","70","test","1","143","143","7","",""
"null","333276","pSARL_v2","pSARL_v2pulzzvbo","6291861f8937c6bd60637cf8","freq_resp","img/orange_2bandit_a.png","70","70","test","","","","7","",""
"null","333443","pSARL_v2","pSARL_v2pulzzvbo","6291861f8937c6bd60637cf8","fixation","img/fixation.png","null","","test","","","","","",""
"376.2999997138977","333827","pSARL_v2","pSARL_v2pulzzvbo","6291861f8937c6bd60637cf8","freq","img/orange_2bandit_a2.png","70","70","test","1","144","144","7","",""
"null","334266","pSARL_v2","pSARL_v2pulzzvbo","6291861f8937c6bd60637cf8","freq_resp","img/orange_2bandit_a.png","70","70","test","","","","7","",""
"null","334428","pSARL_v2","pSARL_v2pulzzvbo","6291861f8937c6bd60637cf8","fixation","img/fixation.png","null","","test","","","","","",""
"380.40000009536743","334818","pSARL_v2","pSARL_v2pulzzvbo","6291861f8937c6bd60637cf8","freq","img/orange_2bandit_a2.png","70","70","test","1","145","145","7","",""
"null","335251","pSARL_v2","pSARL_v2pulzzvbo","6291861f8937c6bd60637cf8","freq_resp","img/orange_2bandit_a.png","70","70","test","","","","7","",""
"null","335415","pSARL_v2","pSARL_v2pulzzvbo","6291861f8937c6bd60637cf8","fixation","img/fixation.png","null","","test","","","","","",""
"383.5","335807","pSARL_v2","pSARL_v2pulzzvbo","6291861f8937c6bd60637cf8","freq","img/orange_2bandit_a2.png","70","70","test","1","146","146","7","",""
"null","336240","pSARL_v2","pSARL_v2pulzzvbo","6291861f8937c6bd60637cf8","freq_resp","img/orange_2bandit_a.png","70","70","test","","","","7","",""
"null","336400","pSARL_v2","pSARL_v2pulzzvbo","6291861f8937c6bd60637cf8","fixation","img/fixation.png","null","","test","","","","","",""
"405.19999980926514","336815","pSARL_v2","pSARL_v2pulzzvbo","6291861f8937c6bd60637cf8","freq","img/orange_2bandit_a2.png","70","70","test","1","147","147","7","",""
"null","337225","pSARL_v2","pSARL_v2pulzzvbo","6291861f8937c6bd60637cf8","freq_resp","img/orange_2bandit_a.png","70","70","test","","","","7","",""
"null","337391","pSARL_v2","pSARL_v2pulzzvbo","6291861f8937c6bd60637cf8","fixation","img/fixation.png","null","","test","","","","","",""
"433.19999980926514","337833","pSARL_v2","pSARL_v2pulzzvbo","6291861f8937c6bd60637cf8","freq","img/orange_2bandit_a2.png","70","70","test","1","148","148","7","",""
"null","338215","pSARL_v2","pSARL_v2pulzzvbo","6291861f8937c6bd60637cf8","freq_resp","img/orange_2bandit_a.png","70","70","test","","","","7","",""
"null","338378","pSARL_v2","pSARL_v2pulzzvbo","6291861f8937c6bd60637cf8","fixation","img/fixation.png","null","","test","","","","","",""
"495.90000009536743","338881","pSARL_v2","pSARL_v2pulzzvbo","6291861f8937c6bd60637cf8","freq","img/orange_2bandit_a2.png","70","70","test","1","149","149","7","",""
"null","339196","pSARL_v2","pSARL_v2pulzzvbo","6291861f8937c6bd60637cf8","freq_resp","img/orange_2bandit_a.png","70","70","test","","","","7","",""
"null","339361","pSARL_v2","pSARL_v2pulzzvbo","6291861f8937c6bd60637cf8","fixation","img/fixation.png","null","","test","","","","","",""
"487","339856","pSARL_v2","pSARL_v2pulzzvbo","6291861f8937c6bd60637cf8","freq","img/orange_2bandit_a2.png","70","70","test","1","150","150","7","",""
"null","340183","pSARL_v2","pSARL_v2pulzzvbo","6291861f8937c6bd60637cf8","freq_resp","img/orange_2bandit_a.png","70","70","test","","","","7","",""
"null","340348","pSARL_v2","pSARL_v2pulzzvbo","6291861f8937c6bd60637cf8","fixation","img/fixation.png","null","","test","","","","","",""
"475.90000009536743","340832","pSARL_v2","pSARL_v2pulzzvbo","6291861f8937c6bd60637cf8","freq","img/orange_2bandit_a2.png","70","70","test","1","151","151","7","",""
"null","341168","pSARL_v2","pSARL_v2pulzzvbo","6291861f8937c6bd60637cf8","freq_resp","img/orange_2bandit_a.png","70","70","test","","","","7","",""
"null","341333","pSARL_v2","pSARL_v2pulzzvbo","6291861f8937c6bd60637cf8","fixation","img/fixation.png","null","","test","","","","","",""
"614.9000000953674","341954","pSARL_v2","pSARL_v2pulzzvbo","6291861f8937c6bd60637cf8","infreq","img/green_2bandit_a2.png","68","68","test","1","152","152","7","",""
"null","342154","pSARL_v2","pSARL_v2pulzzvbo","6291861f8937c6bd60637cf8","infreq_resp","img/green_2bandit_a.png","68","68","test","","","","7","",""
"null","342320","pSARL_v2","pSARL_v2pulzzvbo","6291861f8937c6bd60637cf8","fixation","img/fixation.png","null","","test","","","","","",""
"514.6000003814697","342843","pSARL_v2","pSARL_v2pulzzvbo","6291861f8937c6bd60637cf8","freq","img/orange_2bandit_a2.png","70","70","test","1","153","153","7","",""
"null","343141","pSARL_v2","pSARL_v2pulzzvbo","6291861f8937c6bd60637cf8","freq_resp","img/orange_2bandit_a.png","70","70","test","","","","7","",""
"null","343311","pSARL_v2","pSARL_v2pulzzvbo","6291861f8937c6bd60637cf8","fixation","img/fixation.png","null","","test","","","","","",""
"466.7999997138977","343786","pSARL_v2","pSARL_v2pulzzvbo","6291861f8937c6bd60637cf8","freq","img/orange_2bandit_a2.png","70","70","test","1","154","154","7","",""
"null","344131","pSARL_v2","pSARL_v2pulzzvbo","6291861f8937c6bd60637cf8","freq_resp","img/orange_2bandit_a.png","70","70","test","","","","7","",""
"null","344292","pSARL_v2","pSARL_v2pulzzvbo","6291861f8937c6bd60637cf8","fixation","img/fixation.png","null","","test","","","","","",""
"492.30000019073486","344791","pSARL_v2","pSARL_v2pulzzvbo","6291861f8937c6bd60637cf8","freq","img/orange_2bandit_a2.png","70","70","test","1","155","155","7","",""
"null","345114","pSARL_v2","pSARL_v2pulzzvbo","6291861f8937c6bd60637cf8","freq_resp","img/orange_2bandit_a.png","70","70","test","","","","7","",""
"null","345278","pSARL_v2","pSARL_v2pulzzvbo","6291861f8937c6bd60637cf8","fixation","img/fixation.png","null","","test","","","","","",""
"435","345721","pSARL_v2","pSARL_v2pulzzvbo","6291861f8937c6bd60637cf8","reward","img/slot.png","74","","test","","","","","",""
"null","346482","pSARL_v2","pSARL_v2pulzzvbo","6291861f8937c6bd60637cf8","points","<div class=""verylowPoints""> -6 </div>","null","na","test","","","","7","-6","6"
"582.4000000953674","347073","pSARL_v2","pSARL_v2pulzzvbo","6291861f8937c6bd60637cf8","freq","img/orange_2bandit_a2.png","70","70","test","1","156","156","8","",""
"null","347303","pSARL_v2","pSARL_v2pulzzvbo","6291861f8937c6bd60637cf8","freq_resp","img/orange_2bandit_a.png","70","70","test","","","","8","",""
"null","347469","pSARL_v2","pSARL_v2pulzzvbo","6291861f8937c6bd60637cf8","fixation","img/fixation.png","null","","test","","","","","",""
"463","347942","pSARL_v2","pSARL_v2pulzzvbo","6291861f8937c6bd60637cf8","freq","img/orange_2bandit_a2.png","70","70","test","1","157","157","8","",""
"null","348292","pSARL_v2","pSARL_v2pulzzvbo","6291861f8937c6bd60637cf8","freq_resp","img/orange_2bandit_a.png","70","70","test","","","","8","",""
"null","348453","pSARL_v2","pSARL_v2pulzzvbo","6291861f8937c6bd60637cf8","fixation","img/fixation.png","null","","test","","","","","",""
"394.6000003814697","348854","pSARL_v2","pSARL_v2pulzzvbo","6291861f8937c6bd60637cf8","freq","img/orange_2bandit_a2.png","70","70","test","1","158","158","8","",""
"null","349273","pSARL_v2","pSARL_v2pulzzvbo","6291861f8937c6bd60637cf8","freq_resp","img/orange_2bandit_a.png","70","70","test","","","","8","",""
"null","349436","pSARL_v2","pSARL_v2pulzzvbo","6291861f8937c6bd60637cf8","fixation","img/fixation.png","null","","test","","","","","",""
"358.09999990463257","349802","pSARL_v2","pSARL_v2pulzzvbo","6291861f8937c6bd60637cf8","freq","img/orange_2bandit_a2.png","70","70","test","1","159","159","8","",""
"null","350260","pSARL_v2","pSARL_v2pulzzvbo","6291861f8937c6bd60637cf8","freq_resp","img/orange_2bandit_a.png","70","70","test","","","","8","",""
"null","350422","pSARL_v2","pSARL_v2pulzzvbo","6291861f8937c6bd60637cf8","fixation","img/fixation.png","null","","test","","","","","",""
"377","350812","pSARL_v2","pSARL_v2pulzzvbo","6291861f8937c6bd60637cf8","freq","img/orange_2bandit_a2.png","70","70","test","1","160","160","8","",""
"null","351249","pSARL_v2","pSARL_v2pulzzvbo","6291861f8937c6bd60637cf8","freq_resp","img/orange_2bandit_a.png","70","70","test","","","","8","",""
"null","351415","pSARL_v2","pSARL_v2pulzzvbo","6291861f8937c6bd60637cf8","fixation","img/fixation.png","null","","test","","","","","",""
"418.19999980926514","351841","pSARL_v2","pSARL_v2pulzzvbo","6291861f8937c6bd60637cf8","freq","img/orange_2bandit_a2.png","70","70","test","1","161","161","8","",""
"null","352234","pSARL_v2","pSARL_v2pulzzvbo","6291861f8937c6bd60637cf8","freq_resp","img/orange_2bandit_a.png","70","70","test","","","","8","",""
"null","352400","pSARL_v2","pSARL_v2pulzzvbo","6291861f8937c6bd60637cf8","fixation","img/fixation.png","null","","test","","","","","",""
"394.90000009536743","352807","pSARL_v2","pSARL_v2pulzzvbo","6291861f8937c6bd60637cf8","freq","img/orange_2bandit_a2.png","70","70","test","1","162","162","8","",""
"null","353229","pSARL_v2","pSARL_v2pulzzvbo","6291861f8937c6bd60637cf8","freq_resp","img/orange_2bandit_a.png","70","70","test","","","","8","",""
"null","353394","pSARL_v2","pSARL_v2pulzzvbo","6291861f8937c6bd60637cf8","fixation","img/fixation.png","null","","test","","","","","",""
"479.19999980926514","353880","pSARL_v2","pSARL_v2pulzzvbo","6291861f8937c6bd60637cf8","freq","img/orange_2bandit_a2.png","70","70","test","1","163","163","8","",""
"null","354213","pSARL_v2","pSARL_v2pulzzvbo","6291861f8937c6bd60637cf8","freq_resp","img/orange_2bandit_a.png","70","70","test","","","","8","",""
"null","354379","pSARL_v2","pSARL_v2pulzzvbo","6291861f8937c6bd60637cf8","fixation","img/fixation.png","null","","test","","","","","",""
"525.9000000953674","354914","pSARL_v2","pSARL_v2pulzzvbo","6291861f8937c6bd60637cf8","freq","img/orange_2bandit_a2.png","70","70","test","1","164","164","8","",""
"null","355201","pSARL_v2","pSARL_v2pulzzvbo","6291861f8937c6bd60637cf8","freq_resp","img/orange_2bandit_a.png","70","70","test","","","","8","",""
"null","355365","pSARL_v2","pSARL_v2pulzzvbo","6291861f8937c6bd60637cf8","fixation","img/fixation.png","null","","test","","","","","",""
"532.5","355906","pSARL_v2","pSARL_v2pulzzvbo","6291861f8937c6bd60637cf8","infreq","img/green_2bandit_a2.png","68","68","test","1","165","165","8","",""
"null","356184","pSARL_v2","pSARL_v2pulzzvbo","6291861f8937c6bd60637cf8","infreq_resp","img/green_2bandit_a.png","68","68","test","","","","8","",""
"null","356349","pSARL_v2","pSARL_v2pulzzvbo","6291861f8937c6bd60637cf8","fixation","img/fixation.png","null","","test","","","","","",""
"463.7999997138977","356820","pSARL_v2","pSARL_v2pulzzvbo","6291861f8937c6bd60637cf8","freq","img/orange_2bandit_a2.png","70","70","test","1","166","166","8","",""
"null","357170","pSARL_v2","pSARL_v2pulzzvbo","6291861f8937c6bd60637cf8","freq_resp","img/orange_2bandit_a.png","70","70","test","","","","8","",""
"null","357330","pSARL_v2","pSARL_v2pulzzvbo","6291861f8937c6bd60637cf8","fixation","img/fixation.png","null","","test","","","","","",""
"608.6999998092651","357950","pSARL_v2","pSARL_v2pulzzvbo","6291861f8937c6bd60637cf8","infreq","img/green_2bandit_a2.png","68","68","test","1","167","167","8","",""
"null","358154","pSARL_v2","pSARL_v2pulzzvbo","6291861f8937c6bd60637cf8","infreq_resp","img/green_2bandit_a.png","68","68","test","","","","8","",""
"null","358315","pSARL_v2","pSARL_v2pulzzvbo","6291861f8937c6bd60637cf8","fixation","img/fixation.png","null","","test","","","","","",""
"522.2000002861023","358846","pSARL_v2","pSARL_v2pulzzvbo","6291861f8937c6bd60637cf8","freq","img/orange_2bandit_a2.png","70","70","test","1","168","168","8","",""
"null","359136","pSARL_v2","pSARL_v2pulzzvbo","6291861f8937c6bd60637cf8","freq_resp","img/orange_2bandit_a.png","70","70","test","","","","8","",""
"null","359297","pSARL_v2","pSARL_v2pulzzvbo","6291861f8937c6bd60637cf8","fixation","img/fixation.png","null","","test","","","","","",""
"454.90000009536743","359759","pSARL_v2","pSARL_v2pulzzvbo","6291861f8937c6bd60637cf8","freq","img/orange_2bandit_a2.png","70","70","test","1","169","169","8","",""
"null","360124","pSARL_v2","pSARL_v2pulzzvbo","6291861f8937c6bd60637cf8","freq_resp","img/orange_2bandit_a.png","70","70","test","","","","8","",""
"null","360289","pSARL_v2","pSARL_v2pulzzvbo","6291861f8937c6bd60637cf8","fixation","img/fixation.png","null","","test","","","","","",""
"454.59999990463257","360751","pSARL_v2","pSARL_v2pulzzvbo","6291861f8937c6bd60637cf8","freq","img/orange_2bandit_a2.png","70","70","test","1","170","170","8","",""
"null","361110","pSARL_v2","pSARL_v2pulzzvbo","6291861f8937c6bd60637cf8","freq_resp","img/orange_2bandit_a.png","70","70","test","","","","8","",""
"null","361271","pSARL_v2","pSARL_v2pulzzvbo","6291861f8937c6bd60637cf8","fixation","img/fixation.png","null","","test","","","","","",""
"447.19999980926514","361725","pSARL_v2","pSARL_v2pulzzvbo","6291861f8937c6bd60637cf8","freq","img/orange_2bandit_a2.png","70","70","test","1","171","171","8","",""
"null","362087","pSARL_v2","pSARL_v2pulzzvbo","6291861f8937c6bd60637cf8","freq_resp","img/orange_2bandit_a.png","70","70","test","","","","8","",""
"null","362249","pSARL_v2","pSARL_v2pulzzvbo","6291861f8937c6bd60637cf8","fixation","img/fixation.png","null","","test","","","","","",""
"431.69999980926514","362690","pSARL_v2","pSARL_v2pulzzvbo","6291861f8937c6bd60637cf8","freq","img/orange_2bandit_a2.png","70","70","test","1","172","172","8","",""
"null","363067","pSARL_v2","pSARL_v2pulzzvbo","6291861f8937c6bd60637cf8","freq_resp","img/orange_2bandit_a.png","70","70","test","","","","8","",""
"null","363230","pSARL_v2","pSARL_v2pulzzvbo","6291861f8937c6bd60637cf8","fixation","img/fixation.png","null","","test","","","","","",""
"440.2000002861023","363681","pSARL_v2","pSARL_v2pulzzvbo","6291861f8937c6bd60637cf8","freq","img/orange_2bandit_a2.png","70","70","test","1","173","173","8","",""
"null","364055","pSARL_v2","pSARL_v2pulzzvbo","6291861f8937c6bd60637cf8","freq_resp","img/orange_2bandit_a.png","70","70","test","","","","8","",""
"null","364217","pSARL_v2","pSARL_v2pulzzvbo","6291861f8937c6bd60637cf8","fixation","img/fixation.png","null","","test","","","","","",""
"410.5","364637","pSARL_v2","pSARL_v2pulzzvbo","6291861f8937c6bd60637cf8","freq","img/orange_2bandit_a2.png","70","70","test","1","174","174","8","",""
"null","365040","pSARL_v2","pSARL_v2pulzzvbo","6291861f8937c6bd60637cf8","freq_resp","img/orange_2bandit_a.png","70","70","test","","","","8","",""
"null","365201","pSARL_v2","pSARL_v2pulzzvbo","6291861f8937c6bd60637cf8","fixation","img/fixation.png","null","","test","","","","","",""
"492.40000009536743","365702","pSARL_v2","pSARL_v2pulzzvbo","6291861f8937c6bd60637cf8","freq","img/orange_2bandit_a2.png","70","70","test","1","175","175","8","",""
"null","366025","pSARL_v2","pSARL_v2pulzzvbo","6291861f8937c6bd60637cf8","freq_resp","img/orange_2bandit_a.png","70","70","test","","","","8","",""
"null","366191","pSARL_v2","pSARL_v2pulzzvbo","6291861f8937c6bd60637cf8","fixation","img/fixation.png","null","","test","","","","","",""
"552.7000002861023","366754","pSARL_v2","pSARL_v2pulzzvbo","6291861f8937c6bd60637cf8","reward","img/slot.png","74","","test","","","","","",""
"null","367520","pSARL_v2","pSARL_v2pulzzvbo","6291861f8937c6bd60637cf8","points","<div class=""verylowPoints""> -4 </div>","null","na","test","","","","8","-4","7"
"423.1000003814697","367951","pSARL_v2","pSARL_v2pulzzvbo","6291861f8937c6bd60637cf8","freq","img/orange_2bandit_a2.png","70","70","test","1","176","176","9","",""
"null","368339","pSARL_v2","pSARL_v2pulzzvbo","6291861f8937c6bd60637cf8","freq_resp","img/orange_2bandit_a.png","70","70","test","","","","9","",""
"null","368505","pSARL_v2","pSARL_v2pulzzvbo","6291861f8937c6bd60637cf8","fixation","img/fixation.png","null","","test","","","","","",""
"354.3999996185303","368871","pSARL_v2","pSARL_v2pulzzvbo","6291861f8937c6bd60637cf8","freq","img/orange_2bandit_a2.png","70","70","test","1","177","177","9","",""
"null","369328","pSARL_v2","pSARL_v2pulzzvbo","6291861f8937c6bd60637cf8","freq_resp","img/orange_2bandit_a.png","70","70","test","","","","9","",""
"null","369491","pSARL_v2","pSARL_v2pulzzvbo","6291861f8937c6bd60637cf8","fixation","img/fixation.png","null","","test","","","","","",""
"368.09999990463257","369869","pSARL_v2","pSARL_v2pulzzvbo","6291861f8937c6bd60637cf8","freq","img/orange_2bandit_a2.png","70","70","test","1","178","178","9","",""
"null","370315","pSARL_v2","pSARL_v2pulzzvbo","6291861f8937c6bd60637cf8","freq_resp","img/orange_2bandit_a.png","70","70","test","","","","9","",""
"null","370482","pSARL_v2","pSARL_v2pulzzvbo","6291861f8937c6bd60637cf8","fixation","img/fixation.png","null","","test","","","","","",""
"520.6000003814697","371013","pSARL_v2","pSARL_v2pulzzvbo","6291861f8937c6bd60637cf8","infreq","img/green_2bandit_a2.png","68","68","test","1","179","179","9","",""
"null","371309","pSARL_v2","pSARL_v2pulzzvbo","6291861f8937c6bd60637cf8","infreq_resp","img/green_2bandit_a.png","68","68","test","","","","9","",""
"null","371473","pSARL_v2","pSARL_v2pulzzvbo","6291861f8937c6bd60637cf8","fixation","img/fixation.png","null","","test","","","","","",""
"400.3999996185303","371882","pSARL_v2","pSARL_v2pulzzvbo","6291861f8937c6bd60637cf8","freq","img/orange_2bandit_a2.png","70","70","test","1","180","180","9","",""
"null","372299","pSARL_v2","pSARL_v2pulzzvbo","6291861f8937c6bd60637cf8","freq_resp","img/orange_2bandit_a.png","70","70","test","","","","9","",""
"null","372462","pSARL_v2","pSARL_v2pulzzvbo","6291861f8937c6bd60637cf8","fixation","img/fixation.png","null","","test","","","","","",""
"367.7000002861023","372839","pSARL_v2","pSARL_v2pulzzvbo","6291861f8937c6bd60637cf8","freq","img/orange_2bandit_a2.png","70","70","test","1","181","181","9","",""
"null","373284","pSARL_v2","pSARL_v2pulzzvbo","6291861f8937c6bd60637cf8","freq_resp","img/orange_2bandit_a.png","70","70","test","","","","9","",""
"null","373449","pSARL_v2","pSARL_v2pulzzvbo","6291861f8937c6bd60637cf8","fixation","img/fixation.png","null","","test","","","","","",""
"343.7999997138977","373802","pSARL_v2","pSARL_v2pulzzvbo","6291861f8937c6bd60637cf8","freq","img/orange_2bandit_a2.png","70","70","test","1","182","182","9","",""
"null","374277","pSARL_v2","pSARL_v2pulzzvbo","6291861f8937c6bd60637cf8","freq_resp","img/orange_2bandit_a.png","70","70","test","","","","9","",""
"null","374441","pSARL_v2","pSARL_v2pulzzvbo","6291861f8937c6bd60637cf8","fixation","img/fixation.png","null","","test","","","","","",""
"340.2999997138977","374790","pSARL_v2","pSARL_v2pulzzvbo","6291861f8937c6bd60637cf8","freq","img/orange_2bandit_a2.png","70","70","test","1","183","183","9","",""
"null","375264","pSARL_v2","pSARL_v2pulzzvbo","6291861f8937c6bd60637cf8","freq_resp","img/orange_2bandit_a.png","70","70","test","","","","9","",""
"null","375429","pSARL_v2","pSARL_v2pulzzvbo","6291861f8937c6bd60637cf8","fixation","img/fixation.png","null","","test","","","","","",""
"373.8999996185303","375811","pSARL_v2","pSARL_v2pulzzvbo","6291861f8937c6bd60637cf8","freq","img/orange_2bandit_a2.png","70","70","test","1","184","184","9","",""
"null","376248","pSARL_v2","pSARL_v2pulzzvbo","6291861f8937c6bd60637cf8","freq_resp","img/orange_2bandit_a.png","70","70","test","","","","9","",""
"null","376412","pSARL_v2","pSARL_v2pulzzvbo","6291861f8937c6bd60637cf8","fixation","img/fixation.png","null","","test","","","","","",""
"349.09999990463257","376769","pSARL_v2","pSARL_v2pulzzvbo","6291861f8937c6bd60637cf8","freq","img/orange_2bandit_a2.png","70","70","test","1","185","185","9","",""
"null","377231","pSARL_v2","pSARL_v2pulzzvbo","6291861f8937c6bd60637cf8","freq_resp","img/orange_2bandit_a.png","70","70","test","","","","9","",""
"null","377394","pSARL_v2","pSARL_v2pulzzvbo","6291861f8937c6bd60637cf8","fixation","img/fixation.png","null","","test","","","","","",""
"375","377776","pSARL_v2","pSARL_v2pulzzvbo","6291861f8937c6bd60637cf8","freq","img/orange_2bandit_a2.png","70","70","test","1","186","186","9","",""
"null","378215","pSARL_v2","pSARL_v2pulzzvbo","6291861f8937c6bd60637cf8","freq_resp","img/orange_2bandit_a.png","70","70","test","","","","9","",""
"null","378381","pSARL_v2","pSARL_v2pulzzvbo","6291861f8937c6bd60637cf8","fixation","img/fixation.png","null","","test","","","","","",""
"389.19999980926514","378779","pSARL_v2","pSARL_v2pulzzvbo","6291861f8937c6bd60637cf8","freq","img/orange_2bandit_a2.png","70","70","test","1","187","187","9","",""
"null","379199","pSARL_v2","pSARL_v2pulzzvbo","6291861f8937c6bd60637cf8","freq_resp","img/orange_2bandit_a.png","70","70","test","","","","9","",""
"null","379364","pSARL_v2","pSARL_v2pulzzvbo","6291861f8937c6bd60637cf8","fixation","img/fixation.png","null","","test","","","","","",""
"429.6000003814697","379801","pSARL_v2","pSARL_v2pulzzvbo","6291861f8937c6bd60637cf8","freq","img/orange_2bandit_a2.png","70","70","test","1","188","188","9","",""
"null","380181","pSARL_v2","pSARL_v2pulzzvbo","6291861f8937c6bd60637cf8","freq_resp","img/orange_2bandit_a.png","70","70","test","","","","9","",""
"null","380343","pSARL_v2","pSARL_v2pulzzvbo","6291861f8937c6bd60637cf8","fixation","img/fixation.png","null","","test","","","","","",""
"425.8999996185303","380776","pSARL_v2","pSARL_v2pulzzvbo","6291861f8937c6bd60637cf8","freq","img/orange_2bandit_a2.png","70","70","test","1","189","189","9","",""
"null","381167","pSARL_v2","pSARL_v2pulzzvbo","6291861f8937c6bd60637cf8","freq_resp","img/orange_2bandit_a.png","70","70","test","","","","9","",""
"null","381330","pSARL_v2","pSARL_v2pulzzvbo","6291861f8937c6bd60637cf8","fixation","img/fixation.png","null","","test","","","","","",""
"503.5","381842","pSARL_v2","pSARL_v2pulzzvbo","6291861f8937c6bd60637cf8","infreq","img/green_2bandit_a2.png","68","68","test","1","190","190","9","",""
"null","382154","pSARL_v2","pSARL_v2pulzzvbo","6291861f8937c6bd60637cf8","infreq_resp","img/green_2bandit_a.png","68","68","test","","","","9","",""
"null","382314","pSARL_v2","pSARL_v2pulzzvbo","6291861f8937c6bd60637cf8","fixation","img/fixation.png","null","","test","","","","","",""
"419.09999990463257","382741","pSARL_v2","pSARL_v2pulzzvbo","6291861f8937c6bd60637cf8","freq","img/orange_2bandit_a2.png","70","70","test","1","191","191","9","",""
"null","383133","pSARL_v2","pSARL_v2pulzzvbo","6291861f8937c6bd60637cf8","freq_resp","img/orange_2bandit_a.png","70","70","test","","","","9","",""
"null","383297","pSARL_v2","pSARL_v2pulzzvbo","6291861f8937c6bd60637cf8","fixation","img/fixation.png","null","","test","","","","","",""
"362.59999990463257","383669","pSARL_v2","pSARL_v2pulzzvbo","6291861f8937c6bd60637cf8","freq","img/orange_2bandit_a2.png","70","70","test","1","192","192","9","",""
"null","384117","pSARL_v2","pSARL_v2pulzzvbo","6291861f8937c6bd60637cf8","freq_resp","img/orange_2bandit_a.png","70","70","test","","","","9","",""
"null","384285","pSARL_v2","pSARL_v2pulzzvbo","6291861f8937c6bd60637cf8","fixation","img/fixation.png","null","","test","","","","","",""
"518.8000001907349","384812","pSARL_v2","pSARL_v2pulzzvbo","6291861f8937c6bd60637cf8","infreq","img/green_2bandit_a2.png","68","68","test","1","193","193","9","",""
"null","385105","pSARL_v2","pSARL_v2pulzzvbo","6291861f8937c6bd60637cf8","infreq_resp","img/green_2bandit_a.png","68","68","test","","","","9","",""
"null","385271","pSARL_v2","pSARL_v2pulzzvbo","6291861f8937c6bd60637cf8","fixation","img/fixation.png","null","","test","","","","","",""
"417.7000002861023","385702","pSARL_v2","pSARL_v2pulzzvbo","6291861f8937c6bd60637cf8","freq","img/orange_2bandit_a2.png","70","70","test","1","194","194","9","",""
"null","386097","pSARL_v2","pSARL_v2pulzzvbo","6291861f8937c6bd60637cf8","freq_resp","img/orange_2bandit_a.png","70","70","test","","","","9","",""
"null","386264","pSARL_v2","pSARL_v2pulzzvbo","6291861f8937c6bd60637cf8","fixation","img/fixation.png","null","","test","","","","","",""
"414.6000003814697","386685","pSARL_v2","pSARL_v2pulzzvbo","6291861f8937c6bd60637cf8","freq","img/orange_2bandit_a2.png","70","70","test","1","195","195","9","",""
"null","387083","pSARL_v2","pSARL_v2pulzzvbo","6291861f8937c6bd60637cf8","freq_resp","img/orange_2bandit_a.png","70","70","test","","","","9","",""
"null","387245","pSARL_v2","pSARL_v2pulzzvbo","6291861f8937c6bd60637cf8","fixation","img/fixation.png","null","","test","","","","","",""
"377.59999990463257","387630","pSARL_v2","pSARL_v2pulzzvbo","6291861f8937c6bd60637cf8","freq","img/orange_2bandit_a2.png","70","70","test","1","196","196","9","",""
"null","388066","pSARL_v2","pSARL_v2pulzzvbo","6291861f8937c6bd60637cf8","freq_resp","img/orange_2bandit_a.png","70","70","test","","","","9","",""
"null","388232","pSARL_v2","pSARL_v2pulzzvbo","6291861f8937c6bd60637cf8","fixation","img/fixation.png","null","","test","","","","","",""
"336.40000009536743","388578","pSARL_v2","pSARL_v2pulzzvbo","6291861f8937c6bd60637cf8","freq","img/orange_2bandit_a2.png","70","70","test","1","197","197","9","",""
"null","389051","pSARL_v2","pSARL_v2pulzzvbo","6291861f8937c6bd60637cf8","freq_resp","img/orange_2bandit_a.png","70","70","test","","","","9","",""
"null","389217","pSARL_v2","pSARL_v2pulzzvbo","6291861f8937c6bd60637cf8","fixation","img/fixation.png","null","","test","","","","","",""
"460","389685","pSARL_v2","pSARL_v2pulzzvbo","6291861f8937c6bd60637cf8","reward","img/slot.png","74","","test","","","","","",""
"null","390448","pSARL_v2","pSARL_v2pulzzvbo","6291861f8937c6bd60637cf8","points","<div class=""verylowPoints""> -3 </div>","null","na","test","","","","9","-3","8"
"398.7000002861023","390855","pSARL_v2","pSARL_v2pulzzvbo","6291861f8937c6bd60637cf8","freq","img/orange_2bandit_a2.png","70","70","test","1","198","198","10","",""
"null","391272","pSARL_v2","pSARL_v2pulzzvbo","6291861f8937c6bd60637cf8","freq_resp","img/orange_2bandit_a.png","70","70","test","","","","10","",""
"null","391435","pSARL_v2","pSARL_v2pulzzvbo","6291861f8937c6bd60637cf8","fixation","img/fixation.png","null","","test","","","","","",""
"420.7000002861023","391864","pSARL_v2","pSARL_v2pulzzvbo","6291861f8937c6bd60637cf8","freq","img/orange_2bandit_a2.png","70","70","test","1","199","199","10","",""
"null","392256","pSARL_v2","pSARL_v2pulzzvbo","6291861f8937c6bd60637cf8","freq_resp","img/orange_2bandit_a.png","70","70","test","","","","10","",""
"null","392422","pSARL_v2","pSARL_v2pulzzvbo","6291861f8937c6bd60637cf8","fixation","img/fixation.png","null","","test","","","","","",""
"391","392821","pSARL_v2","pSARL_v2pulzzvbo","6291861f8937c6bd60637cf8","freq","img/orange_2bandit_a2.png","70","70","test","1","200","200","10","",""
"null","393244","pSARL_v2","pSARL_v2pulzzvbo","6291861f8937c6bd60637cf8","freq_resp","img/orange_2bandit_a.png","70","70","test","","","","10","",""
"null","393408","pSARL_v2","pSARL_v2pulzzvbo","6291861f8937c6bd60637cf8","fixation","img/fixation.png","null","","test","","","","","",""
"394.59999990463257","393812","pSARL_v2","pSARL_v2pulzzvbo","6291861f8937c6bd60637cf8","freq","img/orange_2bandit_a2.png","70","70","test","1","201","201","10","",""
"null","394230","pSARL_v2","pSARL_v2pulzzvbo","6291861f8937c6bd60637cf8","freq_resp","img/orange_2bandit_a.png","70","70","test","","","","10","",""
"null","394395","pSARL_v2","pSARL_v2pulzzvbo","6291861f8937c6bd60637cf8","fixation","img/fixation.png","null","","test","","","","","",""
"428.5","394830","pSARL_v2","pSARL_v2pulzzvbo","6291861f8937c6bd60637cf8","freq","img/orange_2bandit_a2.png","70","70","test","1","202","202","10","",""
"null","395210","pSARL_v2","pSARL_v2pulzzvbo","6291861f8937c6bd60637cf8","freq_resp","img/orange_2bandit_a.png","70","70","test","","","","10","",""
"null","395374","pSARL_v2","pSARL_v2pulzzvbo","6291861f8937c6bd60637cf8","fixation","img/fixation.png","null","","test","","","","","",""
"469.30000019073486","395851","pSARL_v2","pSARL_v2pulzzvbo","6291861f8937c6bd60637cf8","freq","img/orange_2bandit_a2.png","70","70","test","1","203","203","10","",""
"null","396192","pSARL_v2","pSARL_v2pulzzvbo","6291861f8937c6bd60637cf8","freq_resp","img/orange_2bandit_a.png","70","70","test","","","","10","",""
"null","396356","pSARL_v2","pSARL_v2pulzzvbo","6291861f8937c6bd60637cf8","fixation","img/fixation.png","null","","test","","","","","",""
"506.30000019073486","396871","pSARL_v2","pSARL_v2pulzzvbo","6291861f8937c6bd60637cf8","freq","img/orange_2bandit_a2.png","70","70","test","1","204","204","10","",""
"null","397174","pSARL_v2","pSARL_v2pulzzvbo","6291861f8937c6bd60637cf8","freq_resp","img/orange_2bandit_a.png","70","70","test","","","","10","",""
"null","397337","pSARL_v2","pSARL_v2pulzzvbo","6291861f8937c6bd60637cf8","fixation","img/fixation.png","null","","test","","","","","",""
"515.0999999046326","397860","pSARL_v2","pSARL_v2pulzzvbo","6291861f8937c6bd60637cf8","freq","img/orange_2bandit_a2.png","70","70","test","1","205","205","10","",""
