"rt","time_elapsed","expId","subject","prolificID","trialType","stimulus","key_press","corrresp","phase","corr","trialNum","attentionRunNum","blockNum","points","rlNum"
"4118.5","4137","pSARL_v2","pSARL_v2cmg8vb22","614c9d5dc06e92405dadfaf9","","","","","","","","","","",""
"","7138","pSARL_v2","pSARL_v2cmg8vb22","614c9d5dc06e92405dadfaf9","fullscreen","","","","","","","","","",""
"78755.80000007153","85914","pSARL_v2","pSARL_v2cmg8vb22","614c9d5dc06e92405dadfaf9","","","","","","","","","","",""
"null","86739","pSARL_v2","pSARL_v2cmg8vb22","614c9d5dc06e92405dadfaf9","freqPrac","img/green_2bandit_b2.png","null","70","prac","0","","","","",""
"null","87757","pSARL_v2","pSARL_v2cmg8vb22","614c9d5dc06e92405dadfaf9","feedback","img/tooSlow.png","null","na","prac","","","","","",""
"null","87921","pSARL_v2","pSARL_v2cmg8vb22","614c9d5dc06e92405dadfaf9","fixation","img/fixation.png","null","","prac","","","","","",""
"433.39999997615814","88363","pSARL_v2","pSARL_v2cmg8vb22","614c9d5dc06e92405dadfaf9","infreqPrac","img/orange_2bandit_b2.png","70","68","prac","0","","","","",""
"433.39999997615814","88744","pSARL_v2","pSARL_v2cmg8vb22","614c9d5dc06e92405dadfaf9","infreqPrac_resp","img/orange_2bandit_b.png","70","68","prac","","","","","",""
"null","89758","pSARL_v2","pSARL_v2cmg8vb22","614c9d5dc06e92405dadfaf9","feedback","img/wrongKey.png","null","na","prac","","","","","",""
"null","89924","pSARL_v2","pSARL_v2cmg8vb22","614c9d5dc06e92405dadfaf9","fixation","img/fixation.png","null","","prac","","","","","",""
"328.2999999523163","90261","pSARL_v2","pSARL_v2cmg8vb22","614c9d5dc06e92405dadfaf9","freqPrac","img/green_2bandit_b2.png","68","70","prac","0","","","","",""
"328.2999999523163","90751","pSARL_v2","pSARL_v2cmg8vb22","614c9d5dc06e92405dadfaf9","freqPrac_resp","img/green_2bandit_b.png","68","70","prac","","","","","",""
"null","91762","pSARL_v2","pSARL_v2cmg8vb22","614c9d5dc06e92405dadfaf9","feedback","img/wrongKey.png","null","na","prac","","","","","",""
"null","91938","pSARL_v2","pSARL_v2cmg8vb22","614c9d5dc06e92405dadfaf9","fixation","img/fixation.png","null","","prac","","","","","",""
"477.2000000476837","92424","pSARL_v2","pSARL_v2cmg8vb22","614c9d5dc06e92405dadfaf9","infreqPrac","img/orange_2bandit_b2.png","70","68","prac","0","","","","",""
"477.2000000476837","92763","pSARL_v2","pSARL_v2cmg8vb22","614c9d5dc06e92405dadfaf9","infreqPrac_resp","img/orange_2bandit_b.png","70","68","prac","","","","","",""
"null","93781","pSARL_v2","pSARL_v2cmg8vb22","614c9d5dc06e92405dadfaf9","feedback","img/wrongKey.png","null","na","prac","","","","","",""
"null","93955","pSARL_v2","pSARL_v2cmg8vb22","614c9d5dc06e92405dadfaf9","fixation","img/fixation.png","null","","prac","","","","","",""
"708","94672","pSARL_v2","pSARL_v2cmg8vb22","614c9d5dc06e92405dadfaf9","infreqPrac","img/orange_2bandit_b2.png","68","68","prac","1","","","","",""
"708","94777","pSARL_v2","pSARL_v2cmg8vb22","614c9d5dc06e92405dadfaf9","infreqPrac_resp","img/orange_2bandit_b.png","68","68","prac","","","","","",""
"null","94939","pSARL_v2","pSARL_v2cmg8vb22","614c9d5dc06e92405dadfaf9","fixation","img/fixation.png","null","","prac","","","","","",""
"629.3000000715256","95577","pSARL_v2","pSARL_v2cmg8vb22","614c9d5dc06e92405dadfaf9","infreqPrac","img/orange_2bandit_b2.png","68","68","prac","1","","","","",""
"629.3000000715256","95772","pSARL_v2","pSARL_v2cmg8vb22","614c9d5dc06e92405dadfaf9","infreqPrac_resp","img/orange_2bandit_b.png","68","68","prac","","","","","",""
"null","95941","pSARL_v2","pSARL_v2cmg8vb22","614c9d5dc06e92405dadfaf9","fixation","img/fixation.png","null","","prac","","","","","",""
"755.3000000715256","96707","pSARL_v2","pSARL_v2cmg8vb22","614c9d5dc06e92405dadfaf9","freqPrac","img/green_2bandit_b2.png","70","70","prac","1","","","","",""
"755.3000000715256","96778","pSARL_v2","pSARL_v2cmg8vb22","614c9d5dc06e92405dadfaf9","freqPrac_resp","img/green_2bandit_b.png","70","70","prac","","","","","",""
"null","96940","pSARL_v2","pSARL_v2cmg8vb22","614c9d5dc06e92405dadfaf9","fixation","img/fixation.png","null","","prac","","","","","",""
"462.2999999523163","97412","pSARL_v2","pSARL_v2cmg8vb22","614c9d5dc06e92405dadfaf9","infreqPrac","img/orange_2bandit_b2.png","68","68","prac","1","","","","",""
"462.2999999523163","97761","pSARL_v2","pSARL_v2cmg8vb22","614c9d5dc06e92405dadfaf9","infreqPrac_resp","img/orange_2bandit_b.png","68","68","prac","","","","","",""
"null","97922","pSARL_v2","pSARL_v2cmg8vb22","614c9d5dc06e92405dadfaf9","fixation","img/fixation.png","null","","prac","","","","","",""
"330.60000002384186","98260","pSARL_v2","pSARL_v2cmg8vb22","614c9d5dc06e92405dadfaf9","freqPrac","img/green_2bandit_b2.png","68","70","prac","0","","","","",""
"330.60000002384186","98753","pSARL_v2","pSARL_v2cmg8vb22","614c9d5dc06e92405dadfaf9","freqPrac_resp","img/green_2bandit_b.png","68","70","prac","","","","","",""
"null","99766","pSARL_v2","pSARL_v2cmg8vb22","614c9d5dc06e92405dadfaf9","feedback","img/wrongKey.png","null","na","prac","","","","","",""
"null","99939","pSARL_v2","pSARL_v2cmg8vb22","614c9d5dc06e92405dadfaf9","fixation","img/fixation.png","null","","prac","","","","","",""
"509.2999999523163","100458","pSARL_v2","pSARL_v2cmg8vb22","614c9d5dc06e92405dadfaf9","freqPrac","img/green_2bandit_b2.png","70","70","prac","1","","","","",""
"509.2999999523163","100760","pSARL_v2","pSARL_v2cmg8vb22","614c9d5dc06e92405dadfaf9","freqPrac_resp","img/green_2bandit_b.png","70","70","prac","","","","","",""
"null","100925","pSARL_v2","pSARL_v2cmg8vb22","614c9d5dc06e92405dadfaf9","fixation","img/fixation.png","null","","prac","","","","","",""
"20188.799999952316","121121","pSARL_v2","pSARL_v2cmg8vb22","614c9d5dc06e92405dadfaf9","","","","","prac","","","","","",""
"473","121607","pSARL_v2","pSARL_v2cmg8vb22","614c9d5dc06e92405dadfaf9","rewardPractice","img/slot.png","74","","prac","","","","","",""
"null","122368","pSARL_v2","pSARL_v2cmg8vb22","614c9d5dc06e92405dadfaf9","feedback","<div class=""veryhighPoints""> +15 </div>","null","na","prac","","","","","",""
"null","122543","pSARL_v2","pSARL_v2cmg8vb22","614c9d5dc06e92405dadfaf9","fixation","img/fixation.png","null","","prac","","","","","",""
"9116.899999976158","131668","pSARL_v2","pSARL_v2cmg8vb22","614c9d5dc06e92405dadfaf9","","","","","prac","","","","","",""
"484.39999997615814","132163","pSARL_v2","pSARL_v2cmg8vb22","614c9d5dc06e92405dadfaf9","freq","img/green_2bandit_b2.png","70","70","test","1","1","1","1","",""
"null","132497","pSARL_v2","pSARL_v2cmg8vb22","614c9d5dc06e92405dadfaf9","freq_resp","img/green_2bandit_b.png","70","70","test","","","","1","",""
"null","132662","pSARL_v2","pSARL_v2cmg8vb22","614c9d5dc06e92405dadfaf9","fixation","img/fixation.png","null","","test","","","","","",""
"314.89999997615814","132985","pSARL_v2","pSARL_v2cmg8vb22","614c9d5dc06e92405dadfaf9","freq","img/green_2bandit_b2.png","70","70","test","1","2","2","1","",""
"null","133492","pSARL_v2","pSARL_v2cmg8vb22","614c9d5dc06e92405dadfaf9","freq_resp","img/green_2bandit_b.png","70","70","test","","","","1","",""
"null","133659","pSARL_v2","pSARL_v2cmg8vb22","614c9d5dc06e92405dadfaf9","fixation","img/fixation.png","null","","test","","","","","",""
"475.59999990463257","134145","pSARL_v2","pSARL_v2cmg8vb22","614c9d5dc06e92405dadfaf9","freq","img/green_2bandit_b2.png","70","70","test","1","3","3","1","",""
"null","134481","pSARL_v2","pSARL_v2cmg8vb22","614c9d5dc06e92405dadfaf9","freq_resp","img/green_2bandit_b.png","70","70","test","","","","1","",""
"null","134644","pSARL_v2","pSARL_v2cmg8vb22","614c9d5dc06e92405dadfaf9","fixation","img/fixation.png","null","","test","","","","","",""
"489.90000009536743","135144","pSARL_v2","pSARL_v2cmg8vb22","614c9d5dc06e92405dadfaf9","freq","img/green_2bandit_b2.png","70","70","test","1","4","4","1","",""
"null","135463","pSARL_v2","pSARL_v2cmg8vb22","614c9d5dc06e92405dadfaf9","freq_resp","img/green_2bandit_b.png","70","70","test","","","","1","",""
"null","135623","pSARL_v2","pSARL_v2cmg8vb22","614c9d5dc06e92405dadfaf9","fixation","img/fixation.png","null","","test","","","","","",""
"329.89999997615814","135963","pSARL_v2","pSARL_v2cmg8vb22","614c9d5dc06e92405dadfaf9","freq","img/green_2bandit_b2.png","70","70","test","1","5","5","1","",""
"null","136455","pSARL_v2","pSARL_v2cmg8vb22","614c9d5dc06e92405dadfaf9","freq_resp","img/green_2bandit_b.png","70","70","test","","","","1","",""
"null","136627","pSARL_v2","pSARL_v2cmg8vb22","614c9d5dc06e92405dadfaf9","fixation","img/fixation.png","null","","test","","","","","",""
"291.5","136927","pSARL_v2","pSARL_v2cmg8vb22","614c9d5dc06e92405dadfaf9","freq","img/green_2bandit_b2.png","70","70","test","1","6","6","1","",""
"null","137446","pSARL_v2","pSARL_v2cmg8vb22","614c9d5dc06e92405dadfaf9","freq_resp","img/green_2bandit_b.png","70","70","test","","","","1","",""
"null","137611","pSARL_v2","pSARL_v2cmg8vb22","614c9d5dc06e92405dadfaf9","fixation","img/fixation.png","null","","test","","","","","",""
"331.39999997615814","137951","pSARL_v2","pSARL_v2cmg8vb22","614c9d5dc06e92405dadfaf9","freq","img/green_2bandit_b2.png","70","70","test","1","7","7","1","",""
"null","138443","pSARL_v2","pSARL_v2cmg8vb22","614c9d5dc06e92405dadfaf9","freq_resp","img/green_2bandit_b.png","70","70","test","","","","1","",""
"null","138611","pSARL_v2","pSARL_v2cmg8vb22","614c9d5dc06e92405dadfaf9","fixation","img/fixation.png","null","","test","","","","","",""
"320.8000000715256","138940","pSARL_v2","pSARL_v2cmg8vb22","614c9d5dc06e92405dadfaf9","infreq","img/orange_2bandit_b2.png","68","68","test","1","8","8","1","",""
"null","139445","pSARL_v2","pSARL_v2cmg8vb22","614c9d5dc06e92405dadfaf9","infreq_resp","img/orange_2bandit_b.png","68","68","test","","","","1","",""
"null","139611","pSARL_v2","pSARL_v2cmg8vb22","614c9d5dc06e92405dadfaf9","fixation","img/fixation.png","null","","test","","","","","",""
"599.0999999046326","140219","pSARL_v2","pSARL_v2cmg8vb22","614c9d5dc06e92405dadfaf9","freq","img/green_2bandit_b2.png","70","70","test","1","9","9","1","",""
"null","140439","pSARL_v2","pSARL_v2cmg8vb22","614c9d5dc06e92405dadfaf9","freq_resp","img/green_2bandit_b.png","70","70","test","","","","1","",""
"null","140611","pSARL_v2","pSARL_v2cmg8vb22","614c9d5dc06e92405dadfaf9","fixation","img/fixation.png","null","","test","","","","","",""
"374.2000000476837","140993","pSARL_v2","pSARL_v2cmg8vb22","614c9d5dc06e92405dadfaf9","freq","img/green_2bandit_b2.png","70","70","test","1","10","10","1","",""
"null","141446","pSARL_v2","pSARL_v2cmg8vb22","614c9d5dc06e92405dadfaf9","freq_resp","img/green_2bandit_b.png","70","70","test","","","","1","",""
"null","141610","pSARL_v2","pSARL_v2cmg8vb22","614c9d5dc06e92405dadfaf9","fixation","img/fixation.png","null","","test","","","","","",""
"259.5","141879","pSARL_v2","pSARL_v2cmg8vb22","614c9d5dc06e92405dadfaf9","freq","img/green_2bandit_b2.png","70","70","test","1","11","11","1","",""
"null","142439","pSARL_v2","pSARL_v2cmg8vb22","614c9d5dc06e92405dadfaf9","freq_resp","img/green_2bandit_b.png","70","70","test","","","","1","",""
"null","142611","pSARL_v2","pSARL_v2cmg8vb22","614c9d5dc06e92405dadfaf9","fixation","img/fixation.png","null","","test","","","","","",""
"278.10000002384186","142897","pSARL_v2","pSARL_v2cmg8vb22","614c9d5dc06e92405dadfaf9","freq","img/green_2bandit_b2.png","70","70","test","1","12","12","1","",""
"null","143441","pSARL_v2","pSARL_v2cmg8vb22","614c9d5dc06e92405dadfaf9","freq_resp","img/green_2bandit_b.png","70","70","test","","","","1","",""
"null","143610","pSARL_v2","pSARL_v2cmg8vb22","614c9d5dc06e92405dadfaf9","fixation","img/fixation.png","null","","test","","","","","",""
"262.2999999523163","143881","pSARL_v2","pSARL_v2cmg8vb22","614c9d5dc06e92405dadfaf9","freq","img/green_2bandit_b2.png","70","70","test","1","13","13","1","",""
"null","144436","pSARL_v2","pSARL_v2cmg8vb22","614c9d5dc06e92405dadfaf9","freq_resp","img/green_2bandit_b.png","70","70","test","","","","1","",""
"null","144599","pSARL_v2","pSARL_v2cmg8vb22","614c9d5dc06e92405dadfaf9","fixation","img/fixation.png","null","","test","","","","","",""
"298.40000009536743","144906","pSARL_v2","pSARL_v2cmg8vb22","614c9d5dc06e92405dadfaf9","freq","img/green_2bandit_b2.png","70","70","test","1","14","14","1","",""
"null","145421","pSARL_v2","pSARL_v2cmg8vb22","614c9d5dc06e92405dadfaf9","freq_resp","img/green_2bandit_b.png","70","70","test","","","","1","",""
"null","145594","pSARL_v2","pSARL_v2cmg8vb22","614c9d5dc06e92405dadfaf9","fixation","img/fixation.png","null","","test","","","","","",""
"282.7999999523163","145886","pSARL_v2","pSARL_v2cmg8vb22","614c9d5dc06e92405dadfaf9","freq","img/green_2bandit_b2.png","70","70","test","1","15","15","1","",""
"null","146428","pSARL_v2","pSARL_v2cmg8vb22","614c9d5dc06e92405dadfaf9","freq_resp","img/green_2bandit_b.png","70","70","test","","","","1","",""
"null","146595","pSARL_v2","pSARL_v2cmg8vb22","614c9d5dc06e92405dadfaf9","fixation","img/fixation.png","null","","test","","","","","",""
"304.5","146909","pSARL_v2","pSARL_v2cmg8vb22","614c9d5dc06e92405dadfaf9","freq","img/green_2bandit_b2.png","70","70","test","1","16","16","1","",""
"null","147416","pSARL_v2","pSARL_v2cmg8vb22","614c9d5dc06e92405dadfaf9","freq_resp","img/green_2bandit_b.png","70","70","test","","","","1","",""
"null","147578","pSARL_v2","pSARL_v2cmg8vb22","614c9d5dc06e92405dadfaf9","fixation","img/fixation.png","null","","test","","","","","",""
"264.7000000476837","147852","pSARL_v2","pSARL_v2cmg8vb22","614c9d5dc06e92405dadfaf9","freq","img/green_2bandit_b2.png","70","70","test","1","17","17","1","",""
"null","148411","pSARL_v2","pSARL_v2cmg8vb22","614c9d5dc06e92405dadfaf9","freq_resp","img/green_2bandit_b.png","70","70","test","","","","1","",""
"null","148578","pSARL_v2","pSARL_v2cmg8vb22","614c9d5dc06e92405dadfaf9","fixation","img/fixation.png","null","","test","","","","","",""
"285.60000002384186","148871","pSARL_v2","pSARL_v2cmg8vb22","614c9d5dc06e92405dadfaf9","freq","img/green_2bandit_b2.png","70","70","test","1","18","18","1","",""
"null","149403","pSARL_v2","pSARL_v2cmg8vb22","614c9d5dc06e92405dadfaf9","freq_resp","img/green_2bandit_b.png","70","70","test","","","","1","",""
"null","149577","pSARL_v2","pSARL_v2cmg8vb22","614c9d5dc06e92405dadfaf9","fixation","img/fixation.png","null","","test","","","","","",""
"299.2000000476837","149885","pSARL_v2","pSARL_v2cmg8vb22","614c9d5dc06e92405dadfaf9","freq","img/green_2bandit_b2.png","70","70","test","1","19","19","1","",""
"null","150403","pSARL_v2","pSARL_v2cmg8vb22","614c9d5dc06e92405dadfaf9","freq_resp","img/green_2bandit_b.png","70","70","test","","","","1","",""
"null","150578","pSARL_v2","pSARL_v2cmg8vb22","614c9d5dc06e92405dadfaf9","fixation","img/fixation.png","null","","test","","","","","",""
"263.5","150850","pSARL_v2","pSARL_v2cmg8vb22","614c9d5dc06e92405dadfaf9","freq","img/green_2bandit_b2.png","70","70","test","1","20","20","1","",""
"null","151398","pSARL_v2","pSARL_v2cmg8vb22","614c9d5dc06e92405dadfaf9","freq_resp","img/green_2bandit_b.png","70","70","test","","","","1","",""
"null","151563","pSARL_v2","pSARL_v2cmg8vb22","614c9d5dc06e92405dadfaf9","fixation","img/fixation.png","null","","test","","","","","",""
"267.89999997615814","151839","pSARL_v2","pSARL_v2cmg8vb22","614c9d5dc06e92405dadfaf9","freq","img/green_2bandit_b2.png","70","70","test","1","21","21","1","",""
"null","152387","pSARL_v2","pSARL_v2cmg8vb22","614c9d5dc06e92405dadfaf9","freq_resp","img/green_2bandit_b.png","70","70","test","","","","1","",""
"null","152547","pSARL_v2","pSARL_v2cmg8vb22","614c9d5dc06e92405dadfaf9","fixation","img/fixation.png","null","","test","","","","","",""
"288","152843","pSARL_v2","pSARL_v2cmg8vb22","614c9d5dc06e92405dadfaf9","freq","img/green_2bandit_b2.png","70","70","test","1","22","22","1","",""
"null","153371","pSARL_v2","pSARL_v2cmg8vb22","614c9d5dc06e92405dadfaf9","freq_resp","img/green_2bandit_b.png","70","70","test","","","","1","",""
"null","153545","pSARL_v2","pSARL_v2cmg8vb22","614c9d5dc06e92405dadfaf9","fixation","img/fixation.png","null","","test","","","","","",""
"379.2000000476837","153933","pSARL_v2","pSARL_v2cmg8vb22","614c9d5dc06e92405dadfaf9","infreq","img/orange_2bandit_b2.png","68","68","test","1","23","23","1","",""
"null","154364","pSARL_v2","pSARL_v2cmg8vb22","614c9d5dc06e92405dadfaf9","infreq_resp","img/orange_2bandit_b.png","68","68","test","","","","1","",""
"null","154528","pSARL_v2","pSARL_v2cmg8vb22","614c9d5dc06e92405dadfaf9","fixation","img/fixation.png","null","","test","","","","","",""
"369.8000000715256","154906","pSARL_v2","pSARL_v2cmg8vb22","614c9d5dc06e92405dadfaf9","freq","img/green_2bandit_b2.png","70","70","test","1","24","24","1","",""
"null","155352","pSARL_v2","pSARL_v2cmg8vb22","614c9d5dc06e92405dadfaf9","freq_resp","img/green_2bandit_b.png","70","70","test","","","","1","",""
"null","155527","pSARL_v2","pSARL_v2cmg8vb22","614c9d5dc06e92405dadfaf9","fixation","img/fixation.png","null","","test","","","","","",""
"344.59999990463257","155881","pSARL_v2","pSARL_v2cmg8vb22","614c9d5dc06e92405dadfaf9","freq","img/green_2bandit_b2.png","70","70","test","1","25","25","1","",""
"null","156357","pSARL_v2","pSARL_v2cmg8vb22","614c9d5dc06e92405dadfaf9","freq_resp","img/green_2bandit_b.png","70","70","test","","","","1","",""
"null","156519","pSARL_v2","pSARL_v2cmg8vb22","614c9d5dc06e92405dadfaf9","fixation","img/fixation.png","null","","test","","","","","",""
"381.6999999284744","156910","pSARL_v2","pSARL_v2cmg8vb22","614c9d5dc06e92405dadfaf9","freq","img/green_2bandit_b2.png","70","70","test","1","26","26","1","",""
"null","157345","pSARL_v2","pSARL_v2cmg8vb22","614c9d5dc06e92405dadfaf9","freq_resp","img/green_2bandit_b.png","70","70","test","","","","1","",""
"null","157511","pSARL_v2","pSARL_v2cmg8vb22","614c9d5dc06e92405dadfaf9","fixation","img/fixation.png","null","","test","","","","","",""
"484","158003","pSARL_v2","pSARL_v2cmg8vb22","614c9d5dc06e92405dadfaf9","reward","img/slot.png","74","","test","","","","","",""
"null","158764","pSARL_v2","pSARL_v2cmg8vb22","614c9d5dc06e92405dadfaf9","points","<div class=""verylowPoints""> -6 </div>","null","na","test","","","","1","-6","0"
"577.7999999523163","159351","pSARL_v2","pSARL_v2cmg8vb22","614c9d5dc06e92405dadfaf9","freq","img/green_2bandit_b2.png","70","70","test","1","27","27","2","",""
"null","159589","pSARL_v2","pSARL_v2cmg8vb22","614c9d5dc06e92405dadfaf9","freq_resp","img/green_2bandit_b.png","70","70","test","","","","2","",""
"null","159762","pSARL_v2","pSARL_v2cmg8vb22","614c9d5dc06e92405dadfaf9","fixation","img/fixation.png","null","","test","","","","","",""
"441.39999997615814","160213","pSARL_v2","pSARL_v2cmg8vb22","614c9d5dc06e92405dadfaf9","freq","img/green_2bandit_b2.png","70","70","test","1","28","28","2","",""
"null","160583","pSARL_v2","pSARL_v2cmg8vb22","614c9d5dc06e92405dadfaf9","freq_resp","img/green_2bandit_b.png","70","70","test","","","","2","",""
"null","160746","pSARL_v2","pSARL_v2cmg8vb22","614c9d5dc06e92405dadfaf9","fixation","img/fixation.png","null","","test","","","","","",""
"281.39999997615814","161035","pSARL_v2","pSARL_v2cmg8vb22","614c9d5dc06e92405dadfaf9","freq","img/green_2bandit_b2.png","70","70","test","1","29","29","2","",""
"null","161570","pSARL_v2","pSARL_v2cmg8vb22","614c9d5dc06e92405dadfaf9","freq_resp","img/green_2bandit_b.png","70","70","test","","","","2","",""
"null","161742","pSARL_v2","pSARL_v2cmg8vb22","614c9d5dc06e92405dadfaf9","fixation","img/fixation.png","null","","test","","","","","",""
"462.2000000476837","162215","pSARL_v2","pSARL_v2cmg8vb22","614c9d5dc06e92405dadfaf9","infreq","img/orange_2bandit_b2.png","68","68","test","1","30","30","2","",""
"null","162566","pSARL_v2","pSARL_v2cmg8vb22","614c9d5dc06e92405dadfaf9","infreq_resp","img/orange_2bandit_b.png","68","68","test","","","","2","",""
"null","162730","pSARL_v2","pSARL_v2cmg8vb22","614c9d5dc06e92405dadfaf9","fixation","img/fixation.png","null","","test","","","","","",""
"488.39999997615814","163227","pSARL_v2","pSARL_v2cmg8vb22","614c9d5dc06e92405dadfaf9","freq","img/green_2bandit_b2.png","70","70","test","1","31","31","2","",""
"null","163556","pSARL_v2","pSARL_v2cmg8vb22","614c9d5dc06e92405dadfaf9","freq_resp","img/green_2bandit_b.png","70","70","test","","","","2","",""
"null","163729","pSARL_v2","pSARL_v2cmg8vb22","614c9d5dc06e92405dadfaf9","fixation","img/fixation.png","null","","test","","","","","",""
"351.5","164088","pSARL_v2","pSARL_v2cmg8vb22","614c9d5dc06e92405dadfaf9","freq","img/green_2bandit_b2.png","70","70","test","1","32","32","2","",""
"null","164559","pSARL_v2","pSARL_v2cmg8vb22","614c9d5dc06e92405dadfaf9","freq_resp","img/green_2bandit_b.png","70","70","test","","","","2","",""
"null","164729","pSARL_v2","pSARL_v2cmg8vb22","614c9d5dc06e92405dadfaf9","fixation","img/fixation.png","null","","test","","","","","",""
"294.10000002384186","165032","pSARL_v2","pSARL_v2cmg8vb22","614c9d5dc06e92405dadfaf9","freq","img/green_2bandit_b2.png","70","70","test","1","33","33","2","",""
"null","165555","pSARL_v2","pSARL_v2cmg8vb22","614c9d5dc06e92405dadfaf9","freq_resp","img/green_2bandit_b.png","70","70","test","","","","2","",""
"null","165726","pSARL_v2","pSARL_v2cmg8vb22","614c9d5dc06e92405dadfaf9","fixation","img/fixation.png","null","","test","","","","","",""
"610.8999999761581","166346","pSARL_v2","pSARL_v2cmg8vb22","614c9d5dc06e92405dadfaf9","infreq","img/orange_2bandit_b2.png","68","68","test","1","34","34","2","",""
"null","166557","pSARL_v2","pSARL_v2cmg8vb22","614c9d5dc06e92405dadfaf9","infreq_resp","img/orange_2bandit_b.png","68","68","test","","","","2","",""
"null","166719","pSARL_v2","pSARL_v2cmg8vb22","614c9d5dc06e92405dadfaf9","fixation","img/fixation.png","null","","test","","","","","",""
"397.1999999284744","167125","pSARL_v2","pSARL_v2cmg8vb22","614c9d5dc06e92405dadfaf9","freq","img/green_2bandit_b2.png","70","70","test","1","35","35","2","",""
"null","167545","pSARL_v2","pSARL_v2cmg8vb22","614c9d5dc06e92405dadfaf9","freq_resp","img/green_2bandit_b.png","70","70","test","","","","2","",""
"null","167712","pSARL_v2","pSARL_v2cmg8vb22","614c9d5dc06e92405dadfaf9","fixation","img/fixation.png","null","","test","","","","","",""
"487.8000000715256","168209","pSARL_v2","pSARL_v2cmg8vb22","614c9d5dc06e92405dadfaf9","freq","img/green_2bandit_b2.png","70","70","test","1","36","36","2","",""
"null","168539","pSARL_v2","pSARL_v2cmg8vb22","614c9d5dc06e92405dadfaf9","freq_resp","img/green_2bandit_b.png","70","70","test","","","","2","",""
"null","168710","pSARL_v2","pSARL_v2cmg8vb22","614c9d5dc06e92405dadfaf9","fixation","img/fixation.png","null","","test","","","","","",""
"752.8999999761581","169476","pSARL_v2","pSARL_v2cmg8vb22","614c9d5dc06e92405dadfaf9","freq","img/green_2bandit_b2.png","70","70","test","1","37","37","2","",""
"null","169551","pSARL_v2","pSARL_v2cmg8vb22","614c9d5dc06e92405dadfaf9","freq_resp","img/green_2bandit_b.png","70","70","test","","","","2","",""
"null","169713","pSARL_v2","pSARL_v2cmg8vb22","614c9d5dc06e92405dadfaf9","fixation","img/fixation.png","null","","test","","","","","",""
"461.90000009536743","170183","pSARL_v2","pSARL_v2cmg8vb22","614c9d5dc06e92405dadfaf9","freq","img/green_2bandit_b2.png","70","70","test","1","38","38","2","",""
"null","170543","pSARL_v2","pSARL_v2cmg8vb22","614c9d5dc06e92405dadfaf9","freq_resp","img/green_2bandit_b.png","70","70","test","","","","2","",""
"null","170713","pSARL_v2","pSARL_v2cmg8vb22","614c9d5dc06e92405dadfaf9","fixation","img/fixation.png","null","","test","","","","","",""
"270.39999997615814","170992","pSARL_v2","pSARL_v2cmg8vb22","614c9d5dc06e92405dadfaf9","freq","img/green_2bandit_b2.png","70","70","test","1","39","39","2","",""
"null","171541","pSARL_v2","pSARL_v2cmg8vb22","614c9d5dc06e92405dadfaf9","freq_resp","img/green_2bandit_b.png","70","70","test","","","","2","",""
"null","171715","pSARL_v2","pSARL_v2cmg8vb22","614c9d5dc06e92405dadfaf9","fixation","img/fixation.png","null","","test","","","","","",""
"247.5","171970","pSARL_v2","pSARL_v2cmg8vb22","614c9d5dc06e92405dadfaf9","freq","img/green_2bandit_b2.png","70","70","test","1","40","40","2","",""
"null","172536","pSARL_v2","pSARL_v2cmg8vb22","614c9d5dc06e92405dadfaf9","freq_resp","img/green_2bandit_b.png","70","70","test","","","","2","",""
"null","172712","pSARL_v2","pSARL_v2cmg8vb22","614c9d5dc06e92405dadfaf9","fixation","img/fixation.png","null","","test","","","","","",""
"264.5","172985","pSARL_v2","pSARL_v2cmg8vb22","614c9d5dc06e92405dadfaf9","freq","img/green_2bandit_b2.png","70","70","test","1","41","41","2","",""
"null","173545","pSARL_v2","pSARL_v2cmg8vb22","614c9d5dc06e92405dadfaf9","freq_resp","img/green_2bandit_b.png","70","70","test","","","","2","",""
"null","173714","pSARL_v2","pSARL_v2cmg8vb22","614c9d5dc06e92405dadfaf9","fixation","img/fixation.png","null","","test","","","","","",""
"282.60000002384186","174004","pSARL_v2","pSARL_v2cmg8vb22","614c9d5dc06e92405dadfaf9","freq","img/green_2bandit_b2.png","70","70","test","1","42","42","2","",""
"null","174541","pSARL_v2","pSARL_v2cmg8vb22","614c9d5dc06e92405dadfaf9","freq_resp","img/green_2bandit_b.png","70","70","test","","","","2","",""
"null","174713","pSARL_v2","pSARL_v2cmg8vb22","614c9d5dc06e92405dadfaf9","fixation","img/fixation.png","null","","test","","","","","",""
"276.2000000476837","174998","pSARL_v2","pSARL_v2cmg8vb22","614c9d5dc06e92405dadfaf9","freq","img/green_2bandit_b2.png","70","70","test","1","43","43","2","",""
"null","175547","pSARL_v2","pSARL_v2cmg8vb22","614c9d5dc06e92405dadfaf9","freq_resp","img/green_2bandit_b.png","70","70","test","","","","2","",""
"null","175713","pSARL_v2","pSARL_v2cmg8vb22","614c9d5dc06e92405dadfaf9","fixation","img/fixation.png","null","","test","","","","","",""
"240.39999997615814","175962","pSARL_v2","pSARL_v2cmg8vb22","614c9d5dc06e92405dadfaf9","freq","img/green_2bandit_b2.png","70","70","test","1","44","44","2","",""
"null","176541","pSARL_v2","pSARL_v2cmg8vb22","614c9d5dc06e92405dadfaf9","freq_resp","img/green_2bandit_b.png","70","70","test","","","","2","",""
"null","176714","pSARL_v2","pSARL_v2cmg8vb22","614c9d5dc06e92405dadfaf9","fixation","img/fixation.png","null","","test","","","","","",""
"258.89999997615814","176982","pSARL_v2","pSARL_v2cmg8vb22","614c9d5dc06e92405dadfaf9","freq","img/green_2bandit_b2.png","70","70","test","1","45","45","2","",""
"null","177537","pSARL_v2","pSARL_v2cmg8vb22","614c9d5dc06e92405dadfaf9","freq_resp","img/green_2bandit_b.png","70","70","test","","","","2","",""
"null","177711","pSARL_v2","pSARL_v2cmg8vb22","614c9d5dc06e92405dadfaf9","fixation","img/fixation.png","null","","test","","","","","",""
"251.39999997615814","177971","pSARL_v2","pSARL_v2cmg8vb22","614c9d5dc06e92405dadfaf9","freq","img/green_2bandit_b2.png","70","70","test","1","46","46","2","",""
"null","178539","pSARL_v2","pSARL_v2cmg8vb22","614c9d5dc06e92405dadfaf9","freq_resp","img/green_2bandit_b.png","70","70","test","","","","2","",""
"null","178712","pSARL_v2","pSARL_v2cmg8vb22","614c9d5dc06e92405dadfaf9","fixation","img/fixation.png","null","","test","","","","","",""
"283.6999999284744","179004","pSARL_v2","pSARL_v2cmg8vb22","614c9d5dc06e92405dadfaf9","freq","img/green_2bandit_b2.png","70","70","test","1","47","47","2","",""
"null","179539","pSARL_v2","pSARL_v2cmg8vb22","614c9d5dc06e92405dadfaf9","freq_resp","img/green_2bandit_b.png","70","70","test","","","","2","",""
"null","179712","pSARL_v2","pSARL_v2cmg8vb22","614c9d5dc06e92405dadfaf9","fixation","img/fixation.png","null","","test","","","","","",""
"323.7999999523163","180043","pSARL_v2","pSARL_v2cmg8vb22","614c9d5dc06e92405dadfaf9","freq","img/green_2bandit_b2.png","70","70","test","1","48","48","2","",""
"null","180541","pSARL_v2","pSARL_v2cmg8vb22","614c9d5dc06e92405dadfaf9","freq_resp","img/green_2bandit_b.png","70","70","test","","","","2","",""
"null","180714","pSARL_v2","pSARL_v2cmg8vb22","614c9d5dc06e92405dadfaf9","fixation","img/fixation.png","null","","test","","","","","",""
"409.60000002384186","181133","pSARL_v2","pSARL_v2cmg8vb22","614c9d5dc06e92405dadfaf9","reward","img/slot.png","74","","test","","","","","",""
"null","181908","pSARL_v2","pSARL_v2cmg8vb22","614c9d5dc06e92405dadfaf9","points","<div class=""verylowPoints""> -11 </div>","null","na","test","","","","2","-11","1"
"314.10000002384186","182232","pSARL_v2","pSARL_v2cmg8vb22","614c9d5dc06e92405dadfaf9","freq","img/green_2bandit_b2.png","70","70","test","1","49","49","3","",""
"null","182743","pSARL_v2","pSARL_v2cmg8vb22","614c9d5dc06e92405dadfaf9","freq_resp","img/green_2bandit_b.png","70","70","test","","","","3","",""
"null","182916","pSARL_v2","pSARL_v2cmg8vb22","614c9d5dc06e92405dadfaf9","fixation","img/fixation.png","null","","test","","","","","",""
"150.30000007152557","183074","pSARL_v2","pSARL_v2cmg8vb22","614c9d5dc06e92405dadfaf9","freq","img/green_2bandit_b2.png","70","70","test","1","50","50","3","",""
"null","183736","pSARL_v2","pSARL_v2cmg8vb22","614c9d5dc06e92405dadfaf9","freq_resp","img/green_2bandit_b.png","70","70","test","","","","3","",""
"null","183898","pSARL_v2","pSARL_v2cmg8vb22","614c9d5dc06e92405dadfaf9","fixation","img/fixation.png","null","","test","","","","","",""
"291.60000002384186","184200","pSARL_v2","pSARL_v2cmg8vb22","614c9d5dc06e92405dadfaf9","freq","img/green_2bandit_b2.png","70","70","test","1","51","51","3","",""
"null","184722","pSARL_v2","pSARL_v2cmg8vb22","614c9d5dc06e92405dadfaf9","freq_resp","img/green_2bandit_b.png","70","70","test","","","","3","",""
"null","184897","pSARL_v2","pSARL_v2cmg8vb22","614c9d5dc06e92405dadfaf9","fixation","img/fixation.png","null","","test","","","","","",""
"317.10000002384186","185224","pSARL_v2","pSARL_v2cmg8vb22","614c9d5dc06e92405dadfaf9","freq","img/green_2bandit_b2.png","70","70","test","1","52","52","3","",""
"null","185724","pSARL_v2","pSARL_v2cmg8vb22","614c9d5dc06e92405dadfaf9","freq_resp","img/green_2bandit_b.png","70","70","test","","","","3","",""
"null","185888","pSARL_v2","pSARL_v2cmg8vb22","614c9d5dc06e92405dadfaf9","fixation","img/fixation.png","null","","test","","","","","",""
"276.60000002384186","186173","pSARL_v2","pSARL_v2cmg8vb22","614c9d5dc06e92405dadfaf9","freq","img/green_2bandit_b2.png","70","70","test","1","53","53","3","",""
"null","186707","pSARL_v2","pSARL_v2cmg8vb22","614c9d5dc06e92405dadfaf9","freq_resp","img/green_2bandit_b.png","70","70","test","","","","3","",""
"null","186867","pSARL_v2","pSARL_v2cmg8vb22","614c9d5dc06e92405dadfaf9","fixation","img/fixation.png","null","","test","","","","","",""
"243.89999997615814","187118","pSARL_v2","pSARL_v2cmg8vb22","614c9d5dc06e92405dadfaf9","freq","img/green_2bandit_b2.png","70","70","test","1","54","54","3","",""
"null","187684","pSARL_v2","pSARL_v2cmg8vb22","614c9d5dc06e92405dadfaf9","freq_resp","img/green_2bandit_b.png","70","70","test","","","","3","",""
"null","187848","pSARL_v2","pSARL_v2cmg8vb22","614c9d5dc06e92405dadfaf9","fixation","img/fixation.png","null","","test","","","","","",""
"116","187973","pSARL_v2","pSARL_v2cmg8vb22","614c9d5dc06e92405dadfaf9","infreq","img/orange_2bandit_b2.png","70","68","test","0","55","55","3","",""
"null","188673","pSARL_v2","pSARL_v2cmg8vb22","614c9d5dc06e92405dadfaf9","infreq_resp","img/orange_2bandit_b.png","70","68","test","","","","3","",""
"null","188848","pSARL_v2","pSARL_v2cmg8vb22","614c9d5dc06e92405dadfaf9","fixation","img/fixation.png","null","","test","","","","","",""
"394.39999997615814","189250","pSARL_v2","pSARL_v2cmg8vb22","614c9d5dc06e92405dadfaf9","freq","img/green_2bandit_b2.png","70","70","test","1","56","56","3","",""
"null","189667","pSARL_v2","pSARL_v2cmg8vb22","614c9d5dc06e92405dadfaf9","freq_resp","img/green_2bandit_b.png","70","70","test","","","","3","",""
"null","189832","pSARL_v2","pSARL_v2cmg8vb22","614c9d5dc06e92405dadfaf9","fixation","img/fixation.png","null","","test","","","","","",""
"371.39999997615814","190212","pSARL_v2","pSARL_v2cmg8vb22","614c9d5dc06e92405dadfaf9","freq","img/green_2bandit_b2.png","70","70","test","1","57","57","3","",""
"null","190664","pSARL_v2","pSARL_v2cmg8vb22","614c9d5dc06e92405dadfaf9","freq_resp","img/green_2bandit_b.png","70","70","test","","","","3","",""
"null","190833","pSARL_v2","pSARL_v2cmg8vb22","614c9d5dc06e92405dadfaf9","fixation","img/fixation.png","null","","test","","","","","",""
"426.5","191269","pSARL_v2","pSARL_v2cmg8vb22","614c9d5dc06e92405dadfaf9","freq","img/green_2bandit_b2.png","70","70","test","1","58","58","3","",""
"null","191668","pSARL_v2","pSARL_v2cmg8vb22","614c9d5dc06e92405dadfaf9","freq_resp","img/green_2bandit_b.png","70","70","test","","","","3","",""
"null","191833","pSARL_v2","pSARL_v2cmg8vb22","614c9d5dc06e92405dadfaf9","fixation","img/fixation.png","null","","test","","","","","",""
"397.2000000476837","192238","pSARL_v2","pSARL_v2cmg8vb22","614c9d5dc06e92405dadfaf9","infreq","img/orange_2bandit_b2.png","68","68","test","1","59","59","3","",""
"null","192656","pSARL_v2","pSARL_v2cmg8vb22","614c9d5dc06e92405dadfaf9","infreq_resp","img/orange_2bandit_b.png","68","68","test","","","","3","",""
"null","192837","pSARL_v2","pSARL_v2cmg8vb22","614c9d5dc06e92405dadfaf9","fixation","img/fixation.png","null","","test","","","","","",""
"417.10000002384186","193264","pSARL_v2","pSARL_v2cmg8vb22","614c9d5dc06e92405dadfaf9","freq","img/green_2bandit_b2.png","70","70","test","1","60","60","3","",""
"null","193675","pSARL_v2","pSARL_v2cmg8vb22","614c9d5dc06e92405dadfaf9","freq_resp","img/green_2bandit_b.png","70","70","test","","","","3","",""
"null","193849","pSARL_v2","pSARL_v2cmg8vb22","614c9d5dc06e92405dadfaf9","fixation","img/fixation.png","null","","test","","","","","",""
"243.60000002384186","194102","pSARL_v2","pSARL_v2cmg8vb22","614c9d5dc06e92405dadfaf9","freq","img/green_2bandit_b2.png","70","70","test","1","61","61","3","",""
"null","194677","pSARL_v2","pSARL_v2cmg8vb22","614c9d5dc06e92405dadfaf9","freq_resp","img/green_2bandit_b.png","70","70","test","","","","3","",""
"null","194849","pSARL_v2","pSARL_v2cmg8vb22","614c9d5dc06e92405dadfaf9","fixation","img/fixation.png","null","","test","","","","","",""
"276.90000009536743","195136","pSARL_v2","pSARL_v2cmg8vb22","614c9d5dc06e92405dadfaf9","freq","img/green_2bandit_b2.png","70","70","test","1","62","62","3","",""
"null","195673","pSARL_v2","pSARL_v2cmg8vb22","614c9d5dc06e92405dadfaf9","freq_resp","img/green_2bandit_b.png","70","70","test","","","","3","",""
"null","195838","pSARL_v2","pSARL_v2cmg8vb22","614c9d5dc06e92405dadfaf9","fixation","img/fixation.png","null","","test","","","","","",""
"276.59999990463257","196124","pSARL_v2","pSARL_v2cmg8vb22","614c9d5dc06e92405dadfaf9","freq","img/green_2bandit_b2.png","70","70","test","1","63","63","3","",""
"null","196669","pSARL_v2","pSARL_v2cmg8vb22","614c9d5dc06e92405dadfaf9","freq_resp","img/green_2bandit_b.png","70","70","test","","","","3","",""
"null","196832","pSARL_v2","pSARL_v2cmg8vb22","614c9d5dc06e92405dadfaf9","fixation","img/fixation.png","null","","test","","","","","",""
"260.5","197101","pSARL_v2","pSARL_v2cmg8vb22","614c9d5dc06e92405dadfaf9","freq","img/green_2bandit_b2.png","70","70","test","1","64","64","3","",""
"null","197659","pSARL_v2","pSARL_v2cmg8vb22","614c9d5dc06e92405dadfaf9","freq_resp","img/green_2bandit_b.png","70","70","test","","","","3","",""
"null","197834","pSARL_v2","pSARL_v2cmg8vb22","614c9d5dc06e92405dadfaf9","fixation","img/fixation.png","null","","test","","","","","",""
"265.1999999284744","198108","pSARL_v2","pSARL_v2cmg8vb22","614c9d5dc06e92405dadfaf9","freq","img/green_2bandit_b2.png","70","70","test","1","65","65","3","",""
"null","198666","pSARL_v2","pSARL_v2cmg8vb22","614c9d5dc06e92405dadfaf9","freq_resp","img/green_2bandit_b.png","70","70","test","","","","3","",""
"null","198832","pSARL_v2","pSARL_v2cmg8vb22","614c9d5dc06e92405dadfaf9","fixation","img/fixation.png","null","","test","","","","","",""
"224.29999995231628","199063","pSARL_v2","pSARL_v2cmg8vb22","614c9d5dc06e92405dadfaf9","freq","img/green_2bandit_b2.png","70","70","test","1","66","66","3","",""
"null","199651","pSARL_v2","pSARL_v2cmg8vb22","614c9d5dc06e92405dadfaf9","freq_resp","img/green_2bandit_b.png","70","70","test","","","","3","",""
"null","199817","pSARL_v2","pSARL_v2cmg8vb22","614c9d5dc06e92405dadfaf9","fixation","img/fixation.png","null","","test","","","","","",""
"259.5","200086","pSARL_v2","pSARL_v2cmg8vb22","614c9d5dc06e92405dadfaf9","freq","img/green_2bandit_b2.png","70","70","test","1","67","67","3","",""
"null","200646","pSARL_v2","pSARL_v2cmg8vb22","614c9d5dc06e92405dadfaf9","freq_resp","img/green_2bandit_b.png","70","70","test","","","","3","",""
"null","200816","pSARL_v2","pSARL_v2cmg8vb22","614c9d5dc06e92405dadfaf9","fixation","img/fixation.png","null","","test","","","","","",""
"230.79999995231628","201055","pSARL_v2","pSARL_v2cmg8vb22","614c9d5dc06e92405dadfaf9","freq","img/green_2bandit_b2.png","70","70","test","1","68","68","3","",""
"null","201647","pSARL_v2","pSARL_v2cmg8vb22","614c9d5dc06e92405dadfaf9","freq_resp","img/green_2bandit_b.png","70","70","test","","","","3","",""
"null","201813","pSARL_v2","pSARL_v2cmg8vb22","614c9d5dc06e92405dadfaf9","fixation","img/fixation.png","null","","test","","","","","",""
"267.6999999284744","202089","pSARL_v2","pSARL_v2cmg8vb22","614c9d5dc06e92405dadfaf9","freq","img/green_2bandit_b2.png","70","70","test","1","69","69","3","",""
"null","202642","pSARL_v2","pSARL_v2cmg8vb22","614c9d5dc06e92405dadfaf9","freq_resp","img/green_2bandit_b.png","70","70","test","","","","3","",""
"null","202813","pSARL_v2","pSARL_v2cmg8vb22","614c9d5dc06e92405dadfaf9","fixation","img/fixation.png","null","","test","","","","","",""
"245.5","203068","pSARL_v2","pSARL_v2cmg8vb22","614c9d5dc06e92405dadfaf9","freq","img/green_2bandit_b2.png","70","70","test","1","70","70","3","",""
"null","203633","pSARL_v2","pSARL_v2cmg8vb22","614c9d5dc06e92405dadfaf9","freq_resp","img/green_2bandit_b.png","70","70","test","","","","3","",""
"null","203799","pSARL_v2","pSARL_v2cmg8vb22","614c9d5dc06e92405dadfaf9","fixation","img/fixation.png","null","","test","","","","","",""
"231.69999992847443","204037","pSARL_v2","pSARL_v2cmg8vb22","614c9d5dc06e92405dadfaf9","freq","img/green_2bandit_b2.png","70","70","test","1","71","71","3","",""
"null","204628","pSARL_v2","pSARL_v2cmg8vb22","614c9d5dc06e92405dadfaf9","freq_resp","img/green_2bandit_b.png","70","70","test","","","","3","",""
"null","204791","pSARL_v2","pSARL_v2cmg8vb22","614c9d5dc06e92405dadfaf9","fixation","img/fixation.png","null","","test","","","","","",""
"456.7999999523163","205256","pSARL_v2","pSARL_v2cmg8vb22","614c9d5dc06e92405dadfaf9","reward","img/slot.png","74","","test","","","","","",""
"null","206024","pSARL_v2","pSARL_v2cmg8vb22","614c9d5dc06e92405dadfaf9","points","<div class=""verylowPoints""> -7 </div>","null","na","test","","","","3","-7","2"
"330.8000000715256","206361","pSARL_v2","pSARL_v2cmg8vb22","614c9d5dc06e92405dadfaf9","freq","img/green_2bandit_b2.png","70","70","test","1","72","72","4","",""
"null","206849","pSARL_v2","pSARL_v2cmg8vb22","614c9d5dc06e92405dadfaf9","freq_resp","img/green_2bandit_b.png","70","70","test","","","","4","",""
"null","207013","pSARL_v2","pSARL_v2cmg8vb22","614c9d5dc06e92405dadfaf9","fixation","img/fixation.png","null","","test","","","","","",""
"246.29999995231628","207267","pSARL_v2","pSARL_v2cmg8vb22","614c9d5dc06e92405dadfaf9","freq","img/green_2bandit_b2.png","70","70","test","1","73","73","4","",""
"null","207838","pSARL_v2","pSARL_v2cmg8vb22","614c9d5dc06e92405dadfaf9","freq_resp","img/green_2bandit_b.png","70","70","test","","","","4","",""
"null","208001","pSARL_v2","pSARL_v2cmg8vb22","614c9d5dc06e92405dadfaf9","fixation","img/fixation.png","null","","test","","","","","",""
"223.80000007152557","208233","pSARL_v2","pSARL_v2cmg8vb22","614c9d5dc06e92405dadfaf9","freq","img/green_2bandit_b2.png","70","70","test","1","74","74","4","",""
"null","208828","pSARL_v2","pSARL_v2cmg8vb22","614c9d5dc06e92405dadfaf9","freq_resp","img/green_2bandit_b.png","70","70","test","","","","4","",""
"null","209002","pSARL_v2","pSARL_v2cmg8vb22","614c9d5dc06e92405dadfaf9","fixation","img/fixation.png","null","","test","","","","","",""
"258.39999997615814","209268","pSARL_v2","pSARL_v2cmg8vb22","614c9d5dc06e92405dadfaf9","freq","img/green_2bandit_b2.png","70","70","test","1","75","75","4","",""
"null","209826","pSARL_v2","pSARL_v2cmg8vb22","614c9d5dc06e92405dadfaf9","freq_resp","img/green_2bandit_b.png","70","70","test","","","","4","",""
"null","210000","pSARL_v2","pSARL_v2cmg8vb22","614c9d5dc06e92405dadfaf9","fixation","img/fixation.png","null","","test","","","","","",""
"327.6999999284744","210337","pSARL_v2","pSARL_v2cmg8vb22","614c9d5dc06e92405dadfaf9","freq","img/green_2bandit_b2.png","70","70","test","1","76","76","4","",""
"null","210821","pSARL_v2","pSARL_v2cmg8vb22","614c9d5dc06e92405dadfaf9","freq_resp","img/green_2bandit_b.png","70","70","test","","","","4","",""
"null","210985","pSARL_v2","pSARL_v2cmg8vb22","614c9d5dc06e92405dadfaf9","fixation","img/fixation.png","null","","test","","","","","",""
"332.5","211325","pSARL_v2","pSARL_v2cmg8vb22","614c9d5dc06e92405dadfaf9","freq","img/green_2bandit_b2.png","70","70","test","1","77","77","4","",""
"null","211816","pSARL_v2","pSARL_v2cmg8vb22","614c9d5dc06e92405dadfaf9","freq_resp","img/green_2bandit_b.png","70","70","test","","","","4","",""
"null","211984","pSARL_v2","pSARL_v2cmg8vb22","614c9d5dc06e92405dadfaf9","fixation","img/fixation.png","null","","test","","","","","",""
"381.89999997615814","212375","pSARL_v2","pSARL_v2cmg8vb22","614c9d5dc06e92405dadfaf9","freq","img/green_2bandit_b2.png","70","70","test","1","78","78","4","",""
"null","212805","pSARL_v2","pSARL_v2cmg8vb22","614c9d5dc06e92405dadfaf9","freq_resp","img/green_2bandit_b.png","70","70","test","","","","4","",""
"null","212968","pSARL_v2","pSARL_v2cmg8vb22","614c9d5dc06e92405dadfaf9","fixation","img/fixation.png","null","","test","","","","","",""
"460.7000000476837","213438","pSARL_v2","pSARL_v2cmg8vb22","614c9d5dc06e92405dadfaf9","freq","img/green_2bandit_b2.png","70","70","test","1","79","79","4","",""
"null","213795","pSARL_v2","pSARL_v2cmg8vb22","614c9d5dc06e92405dadfaf9","freq_resp","img/green_2bandit_b.png","70","70","test","","","","4","",""
"null","213971","pSARL_v2","pSARL_v2cmg8vb22","614c9d5dc06e92405dadfaf9","fixation","img/fixation.png","null","","test","","","","","",""
"426.89999997615814","214409","pSARL_v2","pSARL_v2cmg8vb22","614c9d5dc06e92405dadfaf9","infreq","img/orange_2bandit_b2.png","68","68","test","1","80","80","4","",""
"null","214804","pSARL_v2","pSARL_v2cmg8vb22","614c9d5dc06e92405dadfaf9","infreq_resp","img/orange_2bandit_b.png","68","68","test","","","","4","",""
"null","214968","pSARL_v2","pSARL_v2cmg8vb22","614c9d5dc06e92405dadfaf9","fixation","img/fixation.png","null","","test","","","","","",""
"340.89999997615814","215317","pSARL_v2","pSARL_v2cmg8vb22","614c9d5dc06e92405dadfaf9","freq","img/green_2bandit_b2.png","70","70","test","1","81","81","4","",""
"null","215790","pSARL_v2","pSARL_v2cmg8vb22","614c9d5dc06e92405dadfaf9","freq_resp","img/green_2bandit_b.png","70","70","test","","","","4","",""
"null","215952","pSARL_v2","pSARL_v2cmg8vb22","614c9d5dc06e92405dadfaf9","fixation","img/fixation.png","null","","test","","","","","",""
"480.10000002384186","216442","pSARL_v2","pSARL_v2cmg8vb22","614c9d5dc06e92405dadfaf9","freq","img/green_2bandit_b2.png","70","70","test","1","82","82","4","",""
"null","216786","pSARL_v2","pSARL_v2cmg8vb22","614c9d5dc06e92405dadfaf9","freq_resp","img/green_2bandit_b.png","70","70","test","","","","4","",""
"null","216951","pSARL_v2","pSARL_v2cmg8vb22","614c9d5dc06e92405dadfaf9","fixation","img/fixation.png","null","","test","","","","","",""
"416.5","217376","pSARL_v2","pSARL_v2cmg8vb22","614c9d5dc06e92405dadfaf9","freq","img/green_2bandit_b2.png","70","70","test","1","83","83","4","",""
"null","217776","pSARL_v2","pSARL_v2cmg8vb22","614c9d5dc06e92405dadfaf9","freq_resp","img/green_2bandit_b.png","70","70","test","","","","4","",""
"null","217938","pSARL_v2","pSARL_v2cmg8vb22","614c9d5dc06e92405dadfaf9","fixation","img/fixation.png","null","","test","","","","","",""
"328.89999997615814","218274","pSARL_v2","pSARL_v2cmg8vb22","614c9d5dc06e92405dadfaf9","freq","img/green_2bandit_b2.png","70","70","test","1","84","84","4","",""
"null","218763","pSARL_v2","pSARL_v2cmg8vb22","614c9d5dc06e92405dadfaf9","freq_resp","img/green_2bandit_b.png","70","70","test","","","","4","",""
"null","218935","pSARL_v2","pSARL_v2cmg8vb22","614c9d5dc06e92405dadfaf9","fixation","img/fixation.png","null","","test","","","","","",""
"300.2999999523163","219244","pSARL_v2","pSARL_v2cmg8vb22","614c9d5dc06e92405dadfaf9","freq","img/green_2bandit_b2.png","70","70","test","1","85","85","4","",""
"null","219754","pSARL_v2","pSARL_v2cmg8vb22","614c9d5dc06e92405dadfaf9","freq_resp","img/green_2bandit_b.png","70","70","test","","","","4","",""
"null","219919","pSARL_v2","pSARL_v2cmg8vb22","614c9d5dc06e92405dadfaf9","fixation","img/fixation.png","null","","test","","","","","",""
"420.5","220348","pSARL_v2","pSARL_v2cmg8vb22","614c9d5dc06e92405dadfaf9","freq","img/green_2bandit_b2.png","70","70","test","1","86","86","4","",""
"null","220738","pSARL_v2","pSARL_v2cmg8vb22","614c9d5dc06e92405dadfaf9","freq_resp","img/green_2bandit_b.png","70","70","test","","","","4","",""
"null","220901","pSARL_v2","pSARL_v2cmg8vb22","614c9d5dc06e92405dadfaf9","fixation","img/fixation.png","null","","test","","","","","",""
"580.2000000476837","221489","pSARL_v2","pSARL_v2cmg8vb22","614c9d5dc06e92405dadfaf9","infreq","img/orange_2bandit_b2.png","68","68","test","1","87","87","4","",""
"null","221729","pSARL_v2","pSARL_v2cmg8vb22","614c9d5dc06e92405dadfaf9","infreq_resp","img/orange_2bandit_b.png","68","68","test","","","","4","",""
"null","221903","pSARL_v2","pSARL_v2cmg8vb22","614c9d5dc06e92405dadfaf9","fixation","img/fixation.png","null","","test","","","","","",""
"433.2000000476837","222345","pSARL_v2","pSARL_v2cmg8vb22","614c9d5dc06e92405dadfaf9","freq","img/green_2bandit_b2.png","70","70","test","1","88","88","4","",""
"null","222722","pSARL_v2","pSARL_v2cmg8vb22","614c9d5dc06e92405dadfaf9","freq_resp","img/green_2bandit_b.png","70","70","test","","","","4","",""
"null","222886","pSARL_v2","pSARL_v2cmg8vb22","614c9d5dc06e92405dadfaf9","fixation","img/fixation.png","null","","test","","","","","",""
"653.2000000476837","223547","pSARL_v2","pSARL_v2cmg8vb22","614c9d5dc06e92405dadfaf9","freq","img/green_2bandit_b2.png","70","70","test","1","89","89","4","",""
"null","223704","pSARL_v2","pSARL_v2cmg8vb22","614c9d5dc06e92405dadfaf9","freq_resp","img/green_2bandit_b.png","70","70","test","","","","4","",""
"null","223869","pSARL_v2","pSARL_v2cmg8vb22","614c9d5dc06e92405dadfaf9","fixation","img/fixation.png","null","","test","","","","","",""
"336.39999997615814","224214","pSARL_v2","pSARL_v2cmg8vb22","614c9d5dc06e92405dadfaf9","freq","img/green_2bandit_b2.png","70","70","test","1","90","90","4","",""
"null","224694","pSARL_v2","pSARL_v2cmg8vb22","614c9d5dc06e92405dadfaf9","freq_resp","img/green_2bandit_b.png","70","70","test","","","","4","",""
"null","224859","pSARL_v2","pSARL_v2cmg8vb22","614c9d5dc06e92405dadfaf9","fixation","img/fixation.png","null","","test","","","","","",""
"490.2000000476837","225358","pSARL_v2","pSARL_v2cmg8vb22","614c9d5dc06e92405dadfaf9","reward","img/slot.png","74","","test","","","","","",""
"null","226128","pSARL_v2","pSARL_v2cmg8vb22","614c9d5dc06e92405dadfaf9","points","<div class=""verylowPoints""> -3 </div>","null","na","test","","","","4","-3","3"
"500.10000002384186","226638","pSARL_v2","pSARL_v2cmg8vb22","614c9d5dc06e92405dadfaf9","freq","img/green_2bandit_b2.png","70","70","test","1","91","91","5","",""
"null","226962","pSARL_v2","pSARL_v2cmg8vb22","614c9d5dc06e92405dadfaf9","freq_resp","img/green_2bandit_b.png","70","70","test","","","","5","",""
"null","227137","pSARL_v2","pSARL_v2cmg8vb22","614c9d5dc06e92405dadfaf9","fixation","img/fixation.png","null","","test","","","","","",""
"275.8000000715256","227422","pSARL_v2","pSARL_v2cmg8vb22","614c9d5dc06e92405dadfaf9","freq","img/green_2bandit_b2.png","70","70","test","1","92","92","5","",""
"null","227969","pSARL_v2","pSARL_v2cmg8vb22","614c9d5dc06e92405dadfaf9","freq_resp","img/green_2bandit_b.png","70","70","test","","","","5","",""
"null","228136","pSARL_v2","pSARL_v2cmg8vb22","614c9d5dc06e92405dadfaf9","fixation","img/fixation.png","null","","test","","","","","",""
"280.6999999284744","228427","pSARL_v2","pSARL_v2cmg8vb22","614c9d5dc06e92405dadfaf9","freq","img/green_2bandit_b2.png","70","70","test","1","93","93","5","",""
"null","228965","pSARL_v2","pSARL_v2cmg8vb22","614c9d5dc06e92405dadfaf9","freq_resp","img/green_2bandit_b.png","70","70","test","","","","5","",""
"null","229141","pSARL_v2","pSARL_v2cmg8vb22","614c9d5dc06e92405dadfaf9","fixation","img/fixation.png","null","","test","","","","","",""
"258.5","229410","pSARL_v2","pSARL_v2cmg8vb22","614c9d5dc06e92405dadfaf9","freq","img/green_2bandit_b2.png","70","70","test","1","94","94","5","",""
"null","229970","pSARL_v2","pSARL_v2cmg8vb22","614c9d5dc06e92405dadfaf9","freq_resp","img/green_2bandit_b.png","70","70","test","","","","5","",""
"null","230135","pSARL_v2","pSARL_v2cmg8vb22","614c9d5dc06e92405dadfaf9","fixation","img/fixation.png","null","","test","","","","","",""
"404.5","230548","pSARL_v2","pSARL_v2cmg8vb22","614c9d5dc06e92405dadfaf9","freq","img/green_2bandit_b2.png","70","70","test","1","95","95","5","",""
"null","230968","pSARL_v2","pSARL_v2cmg8vb22","614c9d5dc06e92405dadfaf9","freq_resp","img/green_2bandit_b.png","70","70","test","","","","5","",""
"null","231137","pSARL_v2","pSARL_v2cmg8vb22","614c9d5dc06e92405dadfaf9","fixation","img/fixation.png","null","","test","","","","","",""
"297.89999997615814","231443","pSARL_v2","pSARL_v2cmg8vb22","614c9d5dc06e92405dadfaf9","freq","img/green_2bandit_b2.png","70","70","test","1","96","96","5","",""
"null","231957","pSARL_v2","pSARL_v2cmg8vb22","614c9d5dc06e92405dadfaf9","freq_resp","img/green_2bandit_b.png","70","70","test","","","","5","",""
"null","232120","pSARL_v2","pSARL_v2cmg8vb22","614c9d5dc06e92405dadfaf9","fixation","img/fixation.png","null","","test","","","","","",""
"477.39999997615814","232607","pSARL_v2","pSARL_v2cmg8vb22","614c9d5dc06e92405dadfaf9","freq","img/green_2bandit_b2.png","70","70","test","1","97","97","5","",""
"null","232951","pSARL_v2","pSARL_v2cmg8vb22","614c9d5dc06e92405dadfaf9","freq_resp","img/green_2bandit_b.png","70","70","test","","","","5","",""
"null","233120","pSARL_v2","pSARL_v2cmg8vb22","614c9d5dc06e92405dadfaf9","fixation","img/fixation.png","null","","test","","","","","",""
"305.8000000715256","233436","pSARL_v2","pSARL_v2cmg8vb22","614c9d5dc06e92405dadfaf9","freq","img/green_2bandit_b2.png","70","70","test","1","98","98","5","",""
"null","233951","pSARL_v2","pSARL_v2cmg8vb22","614c9d5dc06e92405dadfaf9","freq_resp","img/green_2bandit_b.png","70","70","test","","","","5","",""
"null","234121","pSARL_v2","pSARL_v2cmg8vb22","614c9d5dc06e92405dadfaf9","fixation","img/fixation.png","null","","test","","","","","",""
"185.79999995231628","234316","pSARL_v2","pSARL_v2cmg8vb22","614c9d5dc06e92405dadfaf9","freq","img/green_2bandit_b2.png","70","70","test","1","99","99","5","",""
"null","234956","pSARL_v2","pSARL_v2cmg8vb22","614c9d5dc06e92405dadfaf9","freq_resp","img/green_2bandit_b.png","70","70","test","","","","5","",""
"null","235120","pSARL_v2","pSARL_v2cmg8vb22","614c9d5dc06e92405dadfaf9","fixation","img/fixation.png","null","","test","","","","","",""
"209.79999995231628","235340","pSARL_v2","pSARL_v2cmg8vb22","614c9d5dc06e92405dadfaf9","freq","img/green_2bandit_b2.png","70","70","test","1","100","100","5","",""
"null","235953","pSARL_v2","pSARL_v2cmg8vb22","614c9d5dc06e92405dadfaf9","freq_resp","img/green_2bandit_b.png","70","70","test","","","","5","",""
"null","236121","pSARL_v2","pSARL_v2cmg8vb22","614c9d5dc06e92405dadfaf9","fixation","img/fixation.png","null","","test","","","","","",""
"244.10000002384186","236375","pSARL_v2","pSARL_v2cmg8vb22","614c9d5dc06e92405dadfaf9","freq","img/green_2bandit_b2.png","70","70","test","1","101","101","5","",""
"null","236944","pSARL_v2","pSARL_v2cmg8vb22","614c9d5dc06e92405dadfaf9","freq_resp","img/green_2bandit_b.png","70","70","test","","","","5","",""
"null","237106","pSARL_v2","pSARL_v2cmg8vb22","614c9d5dc06e92405dadfaf9","fixation","img/fixation.png","null","","test","","","","","",""
"311.6999999284744","237427","pSARL_v2","pSARL_v2cmg8vb22","614c9d5dc06e92405dadfaf9","freq","img/green_2bandit_b2.png","70","70","test","1","102","102","5","",""
"null","237931","pSARL_v2","pSARL_v2cmg8vb22","614c9d5dc06e92405dadfaf9","freq_resp","img/green_2bandit_b.png","70","70","test","","","","5","",""
"null","238104","pSARL_v2","pSARL_v2cmg8vb22","614c9d5dc06e92405dadfaf9","fixation","img/fixation.png","null","","test","","","","","",""
"412.8000000715256","238525","pSARL_v2","pSARL_v2cmg8vb22","614c9d5dc06e92405dadfaf9","infreq","img/orange_2bandit_b2.png","68","68","test","1","103","103","5","",""
"null","238937","pSARL_v2","pSARL_v2cmg8vb22","614c9d5dc06e92405dadfaf9","infreq_resp","img/orange_2bandit_b.png","68","68","test","","","","5","",""
"null","239106","pSARL_v2","pSARL_v2cmg8vb22","614c9d5dc06e92405dadfaf9","fixation","img/fixation.png","null","","test","","","","","",""
"419.60000002384186","239534","pSARL_v2","pSARL_v2cmg8vb22","614c9d5dc06e92405dadfaf9","freq","img/green_2bandit_b2.png","70","70","test","1","104","104","5","",""
"null","239938","pSARL_v2","pSARL_v2cmg8vb22","614c9d5dc06e92405dadfaf9","freq_resp","img/green_2bandit_b.png","70","70","test","","","","5","",""
"null","240104","pSARL_v2","pSARL_v2cmg8vb22","614c9d5dc06e92405dadfaf9","fixation","img/fixation.png","null","","test","","","","","",""
"312","240425","pSARL_v2","pSARL_v2cmg8vb22","614c9d5dc06e92405dadfaf9","freq","img/green_2bandit_b2.png","70","70","test","1","105","105","5","",""
"null","240939","pSARL_v2","pSARL_v2cmg8vb22","614c9d5dc06e92405dadfaf9","freq_resp","img/green_2bandit_b.png","70","70","test","","","","5","",""
"null","241104","pSARL_v2","pSARL_v2cmg8vb22","614c9d5dc06e92405dadfaf9","fixation","img/fixation.png","null","","test","","","","","",""
"235.59999990463257","241349","pSARL_v2","pSARL_v2cmg8vb22","614c9d5dc06e92405dadfaf9","freq","img/green_2bandit_b2.png","70","70","test","1","106","106","5","",""
"null","241928","pSARL_v2","pSARL_v2cmg8vb22","614c9d5dc06e92405dadfaf9","freq_resp","img/green_2bandit_b.png","70","70","test","","","","5","",""
"null","242101","pSARL_v2","pSARL_v2cmg8vb22","614c9d5dc06e92405dadfaf9","fixation","img/fixation.png","null","","test","","","","","",""
"152.39999997615814","242262","pSARL_v2","pSARL_v2cmg8vb22","614c9d5dc06e92405dadfaf9","freq","img/green_2bandit_b2.png","70","70","test","1","107","107","5","",""
"null","242921","pSARL_v2","pSARL_v2cmg8vb22","614c9d5dc06e92405dadfaf9","freq_resp","img/green_2bandit_b.png","70","70","test","","","","5","",""
"null","243088","pSARL_v2","pSARL_v2cmg8vb22","614c9d5dc06e92405dadfaf9","fixation","img/fixation.png","null","","test","","","","","",""
"264.39999997615814","243361","pSARL_v2","pSARL_v2cmg8vb22","614c9d5dc06e92405dadfaf9","freq","img/green_2bandit_b2.png","70","70","test","1","108","108","5","",""
"null","243907","pSARL_v2","pSARL_v2cmg8vb22","614c9d5dc06e92405dadfaf9","freq_resp","img/green_2bandit_b.png","70","70","test","","","","5","",""
"null","244072","pSARL_v2","pSARL_v2cmg8vb22","614c9d5dc06e92405dadfaf9","fixation","img/fixation.png","null","","test","","","","","",""
"281.1999999284744","244363","pSARL_v2","pSARL_v2cmg8vb22","614c9d5dc06e92405dadfaf9","freq","img/green_2bandit_b2.png","70","70","test","1","109","109","5","",""
"null","244913","pSARL_v2","pSARL_v2cmg8vb22","614c9d5dc06e92405dadfaf9","freq_resp","img/green_2bandit_b.png","70","70","test","","","","5","",""
"null","245087","pSARL_v2","pSARL_v2cmg8vb22","614c9d5dc06e92405dadfaf9","fixation","img/fixation.png","null","","test","","","","","",""
"243.60000002384186","245339","pSARL_v2","pSARL_v2cmg8vb22","614c9d5dc06e92405dadfaf9","freq","img/green_2bandit_b2.png","70","70","test","1","110","110","5","",""
"null","245911","pSARL_v2","pSARL_v2cmg8vb22","614c9d5dc06e92405dadfaf9","freq_resp","img/green_2bandit_b.png","70","70","test","","","","5","",""
"null","246087","pSARL_v2","pSARL_v2cmg8vb22","614c9d5dc06e92405dadfaf9","fixation","img/fixation.png","null","","test","","","","","",""
"338.2999999523163","246433","pSARL_v2","pSARL_v2cmg8vb22","614c9d5dc06e92405dadfaf9","infreq","img/orange_2bandit_b2.png","68","68","test","1","111","111","5","",""
"null","246909","pSARL_v2","pSARL_v2cmg8vb22","614c9d5dc06e92405dadfaf9","infreq_resp","img/orange_2bandit_b.png","68","68","test","","","","5","",""
"null","247071","pSARL_v2","pSARL_v2cmg8vb22","614c9d5dc06e92405dadfaf9","fixation","img/fixation.png","null","","test","","","","","",""
"382.8000000715256","247462","pSARL_v2","pSARL_v2cmg8vb22","614c9d5dc06e92405dadfaf9","freq","img/green_2bandit_b2.png","70","70","test","1","112","112","5","",""
"null","247894","pSARL_v2","pSARL_v2cmg8vb22","614c9d5dc06e92405dadfaf9","freq_resp","img/green_2bandit_b.png","70","70","test","","","","5","",""
"null","248059","pSARL_v2","pSARL_v2cmg8vb22","614c9d5dc06e92405dadfaf9","fixation","img/fixation.png","null","","test","","","","","",""
"269.2000000476837","248337","pSARL_v2","pSARL_v2cmg8vb22","614c9d5dc06e92405dadfaf9","freq","img/green_2bandit_b2.png","70","70","test","1","113","113","5","",""
"null","248889","pSARL_v2","pSARL_v2cmg8vb22","614c9d5dc06e92405dadfaf9","freq_resp","img/green_2bandit_b.png","70","70","test","","","","5","",""
"null","249056","pSARL_v2","pSARL_v2cmg8vb22","614c9d5dc06e92405dadfaf9","fixation","img/fixation.png","null","","test","","","","","",""
"280.6999999284744","249346","pSARL_v2","pSARL_v2cmg8vb22","614c9d5dc06e92405dadfaf9","freq","img/green_2bandit_b2.png","70","70","test","1","114","114","5","",""
"null","249878","pSARL_v2","pSARL_v2cmg8vb22","614c9d5dc06e92405dadfaf9","freq_resp","img/green_2bandit_b.png","70","70","test","","","","5","",""
"null","250040","pSARL_v2","pSARL_v2cmg8vb22","614c9d5dc06e92405dadfaf9","fixation","img/fixation.png","null","","test","","","","","",""
"245.60000002384186","250294","pSARL_v2","pSARL_v2cmg8vb22","614c9d5dc06e92405dadfaf9","freq","img/green_2bandit_b2.png","70","70","test","1","115","115","5","",""
"null","250861","pSARL_v2","pSARL_v2cmg8vb22","614c9d5dc06e92405dadfaf9","freq_resp","img/green_2bandit_b.png","70","70","test","","","","5","",""
"null","251022","pSARL_v2","pSARL_v2cmg8vb22","614c9d5dc06e92405dadfaf9","fixation","img/fixation.png","null","","test","","","","","",""
"427","251459","pSARL_v2","pSARL_v2cmg8vb22","614c9d5dc06e92405dadfaf9","reward","img/slot.png","74","","test","","","","","",""
"null","252231","pSARL_v2","pSARL_v2cmg8vb22","614c9d5dc06e92405dadfaf9","points","<div class=""veryhighPoints""> +1 </div>","null","na","test","","","","5","1","4"
"386.8000000715256","252628","pSARL_v2","pSARL_v2cmg8vb22","614c9d5dc06e92405dadfaf9","freq","img/green_2bandit_b2.png","70","70","test","1","116","116","6","",""
"null","253057","pSARL_v2","pSARL_v2cmg8vb22","614c9d5dc06e92405dadfaf9","freq_resp","img/green_2bandit_b.png","70","70","test","","","","6","",""
"null","253222","pSARL_v2","pSARL_v2cmg8vb22","614c9d5dc06e92405dadfaf9","fixation","img/fixation.png","null","","test","","","","","",""
"221.10000002384186","253452","pSARL_v2","pSARL_v2cmg8vb22","614c9d5dc06e92405dadfaf9","freq","img/green_2bandit_b2.png","70","70","test","1","117","117","6","",""
"null","254047","pSARL_v2","pSARL_v2cmg8vb22","614c9d5dc06e92405dadfaf9","freq_resp","img/green_2bandit_b.png","70","70","test","","","","6","",""
"null","254221","pSARL_v2","pSARL_v2cmg8vb22","614c9d5dc06e92405dadfaf9","fixation","img/fixation.png","null","","test","","","","","",""
"238.70000004768372","254468","pSARL_v2","pSARL_v2cmg8vb22","614c9d5dc06e92405dadfaf9","freq","img/green_2bandit_b2.png","70","70","test","1","118","118","6","",""
"null","255044","pSARL_v2","pSARL_v2cmg8vb22","614c9d5dc06e92405dadfaf9","freq_resp","img/green_2bandit_b.png","70","70","test","","","","6","",""
"null","255205","pSARL_v2","pSARL_v2cmg8vb22","614c9d5dc06e92405dadfaf9","fixation","img/fixation.png","null","","test","","","","","",""
"261.1999999284744","255474","pSARL_v2","pSARL_v2cmg8vb22","614c9d5dc06e92405dadfaf9","freq","img/green_2bandit_b2.png","70","70","test","1","119","119","6","",""
"null","256038","pSARL_v2","pSARL_v2cmg8vb22","614c9d5dc06e92405dadfaf9","freq_resp","img/green_2bandit_b.png","70","70","test","","","","6","",""
"null","256206","pSARL_v2","pSARL_v2cmg8vb22","614c9d5dc06e92405dadfaf9","fixation","img/fixation.png","null","","test","","","","","",""
"235.20000004768372","256450","pSARL_v2","pSARL_v2cmg8vb22","614c9d5dc06e92405dadfaf9","freq","img/green_2bandit_b2.png","70","70","test","1","120","120","6","",""
"null","257028","pSARL_v2","pSARL_v2cmg8vb22","614c9d5dc06e92405dadfaf9","freq_resp","img/green_2bandit_b.png","70","70","test","","","","6","",""
"null","257190","pSARL_v2","pSARL_v2cmg8vb22","614c9d5dc06e92405dadfaf9","fixation","img/fixation.png","null","","test","","","","","",""
"269.10000002384186","257471","pSARL_v2","pSARL_v2cmg8vb22","614c9d5dc06e92405dadfaf9","freq","img/green_2bandit_b2.png","70","70","test","1","121","121","6","",""
"null","258013","pSARL_v2","pSARL_v2cmg8vb22","614c9d5dc06e92405dadfaf9","freq_resp","img/green_2bandit_b.png","70","70","test","","","","6","",""
"null","258188","pSARL_v2","pSARL_v2cmg8vb22","614c9d5dc06e92405dadfaf9","fixation","img/fixation.png","null","","test","","","","","",""
"240.59999990463257","258437","pSARL_v2","pSARL_v2cmg8vb22","614c9d5dc06e92405dadfaf9","freq","img/green_2bandit_b2.png","70","70","test","1","122","122","6","",""
"null","259007","pSARL_v2","pSARL_v2cmg8vb22","614c9d5dc06e92405dadfaf9","freq_resp","img/green_2bandit_b.png","70","70","test","","","","6","",""
"null","259173","pSARL_v2","pSARL_v2cmg8vb22","614c9d5dc06e92405dadfaf9","fixation","img/fixation.png","null","","test","","","","","",""
"234.5","259417","pSARL_v2","pSARL_v2cmg8vb22","614c9d5dc06e92405dadfaf9","freq","img/green_2bandit_b2.png","70","70","test","1","123","123","6","",""
"null","259995","pSARL_v2","pSARL_v2cmg8vb22","614c9d5dc06e92405dadfaf9","freq_resp","img/green_2bandit_b.png","70","70","test","","","","6","",""
"null","260161","pSARL_v2","pSARL_v2cmg8vb22","614c9d5dc06e92405dadfaf9","fixation","img/fixation.png","null","","test","","","","","",""
"295.60000002384186","260467","pSARL_v2","pSARL_v2cmg8vb22","614c9d5dc06e92405dadfaf9","freq","img/green_2bandit_b2.png","70","70","test","1","124","124","6","",""
"null","260981","pSARL_v2","pSARL_v2cmg8vb22","614c9d5dc06e92405dadfaf9","freq_resp","img/green_2bandit_b.png","70","70","test","","","","6","",""
"null","261147","pSARL_v2","pSARL_v2cmg8vb22","614c9d5dc06e92405dadfaf9","fixation","img/fixation.png","null","","test","","","","","",""
"257.39999997615814","261414","pSARL_v2","pSARL_v2cmg8vb22","614c9d5dc06e92405dadfaf9","freq","img/green_2bandit_b2.png","70","70","test","1","125","125","6","",""
"null","261975","pSARL_v2","pSARL_v2cmg8vb22","614c9d5dc06e92405dadfaf9","freq_resp","img/green_2bandit_b.png","70","70","test","","","","6","",""
"null","262140","pSARL_v2","pSARL_v2cmg8vb22","614c9d5dc06e92405dadfaf9","fixation","img/fixation.png","null","","test","","","","","",""
"269.89999997615814","262419","pSARL_v2","pSARL_v2cmg8vb22","614c9d5dc06e92405dadfaf9","freq","img/green_2bandit_b2.png","70","70","test","1","126","126","6","",""
"null","262968","pSARL_v2","pSARL_v2cmg8vb22","614c9d5dc06e92405dadfaf9","freq_resp","img/green_2bandit_b.png","70","70","test","","","","6","",""
"null","263140","pSARL_v2","pSARL_v2cmg8vb22","614c9d5dc06e92405dadfaf9","fixation","img/fixation.png","null","","test","","","","","",""
"285.39999997615814","263436","pSARL_v2","pSARL_v2cmg8vb22","614c9d5dc06e92405dadfaf9","freq","img/green_2bandit_b2.png","70","70","test","1","127","127","6","",""
"null","263969","pSARL_v2","pSARL_v2cmg8vb22","614c9d5dc06e92405dadfaf9","freq_resp","img/green_2bandit_b.png","70","70","test","","","","6","",""
"null","264140","pSARL_v2","pSARL_v2cmg8vb22","614c9d5dc06e92405dadfaf9","fixation","img/fixation.png","null","","test","","","","","",""
"462.7999999523163","264612","pSARL_v2","pSARL_v2cmg8vb22","614c9d5dc06e92405dadfaf9","freq","img/green_2bandit_b2.png","70","70","test","1","128","128","6","",""
"null","264962","pSARL_v2","pSARL_v2cmg8vb22","614c9d5dc06e92405dadfaf9","freq_resp","img/green_2bandit_b.png","70","70","test","","","","6","",""
"null","265125","pSARL_v2","pSARL_v2cmg8vb22","614c9d5dc06e92405dadfaf9","fixation","img/fixation.png","null","","test","","","","","",""
"299.10000002384186","265432","pSARL_v2","pSARL_v2cmg8vb22","614c9d5dc06e92405dadfaf9","freq","img/green_2bandit_b2.png","70","70","test","1","129","129","6","",""
"null","265963","pSARL_v2","pSARL_v2cmg8vb22","614c9d5dc06e92405dadfaf9","freq_resp","img/green_2bandit_b.png","70","70","test","","","","6","",""
"null","266125","pSARL_v2","pSARL_v2cmg8vb22","614c9d5dc06e92405dadfaf9","fixation","img/fixation.png","null","","test","","","","","",""
"263.3000000715256","266396","pSARL_v2","pSARL_v2cmg8vb22","614c9d5dc06e92405dadfaf9","infreq","img/orange_2bandit_b2.png","70","68","test","0","130","130","6","",""
"null","266948","pSARL_v2","pSARL_v2cmg8vb22","614c9d5dc06e92405dadfaf9","infreq_resp","img/orange_2bandit_b.png","70","68","test","","","","6","",""
"null","267123","pSARL_v2","pSARL_v2cmg8vb22","614c9d5dc06e92405dadfaf9","fixation","img/fixation.png","null","","test","","","","","",""
"435.7999999523163","267568","pSARL_v2","pSARL_v2cmg8vb22","614c9d5dc06e92405dadfaf9","freq","img/green_2bandit_b2.png","70","70","test","1","131","131","6","",""
"null","267944","pSARL_v2","pSARL_v2cmg8vb22","614c9d5dc06e92405dadfaf9","freq_resp","img/green_2bandit_b.png","70","70","test","","","","6","",""
"null","268107","pSARL_v2","pSARL_v2cmg8vb22","614c9d5dc06e92405dadfaf9","fixation","img/fixation.png","null","","test","","","","","",""
"404.39999997615814","268519","pSARL_v2","pSARL_v2cmg8vb22","614c9d5dc06e92405dadfaf9","freq","img/green_2bandit_b2.png","70","70","test","1","132","132","6","",""
"null","268930","pSARL_v2","pSARL_v2cmg8vb22","614c9d5dc06e92405dadfaf9","freq_resp","img/green_2bandit_b.png","70","70","test","","","","6","",""
"null","269106","pSARL_v2","pSARL_v2cmg8vb22","614c9d5dc06e92405dadfaf9","fixation","img/fixation.png","null","","test","","","","","",""
"385.7000000476837","269501","pSARL_v2","pSARL_v2cmg8vb22","614c9d5dc06e92405dadfaf9","infreq","img/orange_2bandit_b2.png","68","68","test","1","133","133","6","",""
"null","269940","pSARL_v2","pSARL_v2cmg8vb22","614c9d5dc06e92405dadfaf9","infreq_resp","img/orange_2bandit_b.png","68","68","test","","","","6","",""
"null","270107","pSARL_v2","pSARL_v2cmg8vb22","614c9d5dc06e92405dadfaf9","fixation","img/fixation.png","null","","test","","","","","",""
"429.2999999523163","270545","pSARL_v2","pSARL_v2cmg8vb22","614c9d5dc06e92405dadfaf9","freq","img/green_2bandit_b2.png","70","70","test","1","134","134","6","",""
"null","270934","pSARL_v2","pSARL_v2cmg8vb22","614c9d5dc06e92405dadfaf9","freq_resp","img/green_2bandit_b.png","70","70","test","","","","6","",""
"null","271108","pSARL_v2","pSARL_v2cmg8vb22","614c9d5dc06e92405dadfaf9","fixation","img/fixation.png","null","","test","","","","","",""
"282.39999997615814","271399","pSARL_v2","pSARL_v2cmg8vb22","614c9d5dc06e92405dadfaf9","freq","img/green_2bandit_b2.png","70","70","test","1","135","135","6","",""
"null","271939","pSARL_v2","pSARL_v2cmg8vb22","614c9d5dc06e92405dadfaf9","freq_resp","img/green_2bandit_b.png","70","70","test","","","","6","",""
"null","272108","pSARL_v2","pSARL_v2cmg8vb22","614c9d5dc06e92405dadfaf9","fixation","img/fixation.png","null","","test","","","","","",""
"496.2000000476837","272614","pSARL_v2","pSARL_v2cmg8vb22","614c9d5dc06e92405dadfaf9","reward","img/slot.png","74","","test","","","","","",""
"null","273383","pSARL_v2","pSARL_v2cmg8vb22","614c9d5dc06e92405dadfaf9","points","<div class=""verylowPoints""> -7 </div>","null","na","test","","","","6","-7","5"
"274.10000002384186","273667","pSARL_v2","pSARL_v2cmg8vb22","614c9d5dc06e92405dadfaf9","freq","img/green_2bandit_b2.png","70","70","test","1","136","136","7","",""
"null","274217","pSARL_v2","pSARL_v2cmg8vb22","614c9d5dc06e92405dadfaf9","freq_resp","img/green_2bandit_b.png","70","70","test","","","","7","",""
"null","274391","pSARL_v2","pSARL_v2cmg8vb22","614c9d5dc06e92405dadfaf9","fixation","img/fixation.png","null","","test","","","","","",""
"125.20000004768372","274525","pSARL_v2","pSARL_v2cmg8vb22","614c9d5dc06e92405dadfaf9","infreq","img/orange_2bandit_b2.png","70","68","test","0","137","137","7","",""
"null","275216","pSARL_v2","pSARL_v2cmg8vb22","614c9d5dc06e92405dadfaf9","infreq_resp","img/orange_2bandit_b.png","70","68","test","","","","7","",""
"null","275379","pSARL_v2","pSARL_v2cmg8vb22","614c9d5dc06e92405dadfaf9","fixation","img/fixation.png","null","","test","","","","","",""
"445.60000002384186","275835","pSARL_v2","pSARL_v2cmg8vb22","614c9d5dc06e92405dadfaf9","freq","img/green_2bandit_b2.png","70","70","test","1","138","138","7","",""
"null","276209","pSARL_v2","pSARL_v2cmg8vb22","614c9d5dc06e92405dadfaf9","freq_resp","img/green_2bandit_b.png","70","70","test","","","","7","",""
"null","276373","pSARL_v2","pSARL_v2cmg8vb22","614c9d5dc06e92405dadfaf9","fixation","img/fixation.png","null","","test","","","","","",""
"368.3000000715256","276749","pSARL_v2","pSARL_v2cmg8vb22","614c9d5dc06e92405dadfaf9","infreq","img/orange_2bandit_b2.png","68","68","test","1","139","139","7","",""
"null","277206","pSARL_v2","pSARL_v2cmg8vb22","614c9d5dc06e92405dadfaf9","infreq_resp","img/orange_2bandit_b.png","68","68","test","","","","7","",""
"null","277374","pSARL_v2","pSARL_v2cmg8vb22","614c9d5dc06e92405dadfaf9","fixation","img/fixation.png","null","","test","","","","","",""
"362.60000002384186","277746","pSARL_v2","pSARL_v2cmg8vb22","614c9d5dc06e92405dadfaf9","freq","img/green_2bandit_b2.png","70","70","test","1","140","140","7","",""
"null","278205","pSARL_v2","pSARL_v2cmg8vb22","614c9d5dc06e92405dadfaf9","freq_resp","img/green_2bandit_b.png","70","70","test","","","","7","",""
"null","278375","pSARL_v2","pSARL_v2cmg8vb22","614c9d5dc06e92405dadfaf9","fixation","img/fixation.png","null","","test","","","","","",""
"347.5","278734","pSARL_v2","pSARL_v2cmg8vb22","614c9d5dc06e92405dadfaf9","freq","img/green_2bandit_b2.png","70","70","test","1","141","141","7","",""
"null","279204","pSARL_v2","pSARL_v2cmg8vb22","614c9d5dc06e92405dadfaf9","freq_resp","img/green_2bandit_b.png","70","70","test","","","","7","",""
"null","279377","pSARL_v2","pSARL_v2cmg8vb22","614c9d5dc06e92405dadfaf9","fixation","img/fixation.png","null","","test","","","","","",""
"311.5","279697","pSARL_v2","pSARL_v2cmg8vb22","614c9d5dc06e92405dadfaf9","freq","img/green_2bandit_b2.png","70","70","test","1","142","142","7","",""
"null","280204","pSARL_v2","pSARL_v2cmg8vb22","614c9d5dc06e92405dadfaf9","freq_resp","img/green_2bandit_b.png","70","70","test","","","","7","",""
"null","280375","pSARL_v2","pSARL_v2cmg8vb22","614c9d5dc06e92405dadfaf9","fixation","img/fixation.png","null","","test","","","","","",""
"258.59999990463257","280643","pSARL_v2","pSARL_v2cmg8vb22","614c9d5dc06e92405dadfaf9","freq","img/green_2bandit_b2.png","70","70","test","1","143","143","7","",""
"null","281206","pSARL_v2","pSARL_v2cmg8vb22","614c9d5dc06e92405dadfaf9","freq_resp","img/green_2bandit_b.png","70","70","test","","","","7","",""
"null","281379","pSARL_v2","pSARL_v2cmg8vb22","614c9d5dc06e92405dadfaf9","fixation","img/fixation.png","null","","test","","","","","",""
"270.3000000715256","281660","pSARL_v2","pSARL_v2cmg8vb22","614c9d5dc06e92405dadfaf9","freq","img/green_2bandit_b2.png","70","70","test","1","144","144","7","",""
"null","282204","pSARL_v2","pSARL_v2cmg8vb22","614c9d5dc06e92405dadfaf9","freq_resp","img/green_2bandit_b.png","70","70","test","","","","7","",""
"null","282374","pSARL_v2","pSARL_v2cmg8vb22","614c9d5dc06e92405dadfaf9","fixation","img/fixation.png","null","","test","","","","","",""
"314.7000000476837","282698","pSARL_v2","pSARL_v2cmg8vb22","614c9d5dc06e92405dadfaf9","freq","img/green_2bandit_b2.png","70","70","test","1","145","145","7","",""
"null","283200","pSARL_v2","pSARL_v2cmg8vb22","614c9d5dc06e92405dadfaf9","freq_resp","img/green_2bandit_b.png","70","70","test","","","","7","",""
"null","283374","pSARL_v2","pSARL_v2cmg8vb22","614c9d5dc06e92405dadfaf9","fixation","img/fixation.png","null","","test","","","","","",""
"459","283842","pSARL_v2","pSARL_v2cmg8vb22","614c9d5dc06e92405dadfaf9","freq","img/green_2bandit_b2.png","70","70","test","1","146","146","7","",""
"null","284197","pSARL_v2","pSARL_v2cmg8vb22","614c9d5dc06e92405dadfaf9","freq_resp","img/green_2bandit_b.png","70","70","test","","","","7","",""
"null","284360","pSARL_v2","pSARL_v2cmg8vb22","614c9d5dc06e92405dadfaf9","fixation","img/fixation.png","null","","test","","","","","",""
"303.39999997615814","284672","pSARL_v2","pSARL_v2cmg8vb22","614c9d5dc06e92405dadfaf9","freq","img/green_2bandit_b2.png","70","70","test","1","147","147","7","",""
"null","285188","pSARL_v2","pSARL_v2cmg8vb22","614c9d5dc06e92405dadfaf9","freq_resp","img/green_2bandit_b.png","70","70","test","","","","7","",""
"null","285358","pSARL_v2","pSARL_v2cmg8vb22","614c9d5dc06e92405dadfaf9","fixation","img/fixation.png","null","","test","","","","","",""
"337.89999997615814","285705","pSARL_v2","pSARL_v2cmg8vb22","614c9d5dc06e92405dadfaf9","freq","img/green_2bandit_b2.png","70","70","test","1","148","148","7","",""
"null","286188","pSARL_v2","pSARL_v2cmg8vb22","614c9d5dc06e92405dadfaf9","freq_resp","img/green_2bandit_b.png","70","70","test","","","","7","",""
"null","286358","pSARL_v2","pSARL_v2cmg8vb22","614c9d5dc06e92405dadfaf9","fixation","img/fixation.png","null","","test","","","","","",""
"381.8000000715256","286749","pSARL_v2","pSARL_v2cmg8vb22","614c9d5dc06e92405dadfaf9","freq","img/green_2bandit_b2.png","70","70","test","1","149","149","7","",""
"null","287188","pSARL_v2","pSARL_v2cmg8vb22","614c9d5dc06e92405dadfaf9","freq_resp","img/green_2bandit_b.png","70","70","test","","","","7","",""
"null","287358","pSARL_v2","pSARL_v2cmg8vb22","614c9d5dc06e92405dadfaf9","fixation","img/fixation.png","null","","test","","","","","",""
"301.2000000476837","287669","pSARL_v2","pSARL_v2cmg8vb22","614c9d5dc06e92405dadfaf9","freq","img/green_2bandit_b2.png","70","70","test","1","150","150","7","",""
"null","288193","pSARL_v2","pSARL_v2cmg8vb22","614c9d5dc06e92405dadfaf9","freq_resp","img/green_2bandit_b.png","70","70","test","","","","7","",""
"null","288360","pSARL_v2","pSARL_v2cmg8vb22","614c9d5dc06e92405dadfaf9","fixation","img/fixation.png","null","","test","","","","","",""
"269.89999997615814","288638","pSARL_v2","pSARL_v2cmg8vb22","614c9d5dc06e92405dadfaf9","freq","img/green_2bandit_b2.png","70","70","test","1","151","151","7","",""
"null","289182","pSARL_v2","pSARL_v2cmg8vb22","614c9d5dc06e92405dadfaf9","freq_resp","img/green_2bandit_b.png","70","70","test","","","","7","",""
"null","289357","pSARL_v2","pSARL_v2cmg8vb22","614c9d5dc06e92405dadfaf9","fixation","img/fixation.png","null","","test","","","","","",""
"310.7000000476837","289678","pSARL_v2","pSARL_v2cmg8vb22","614c9d5dc06e92405dadfaf9","freq","img/green_2bandit_b2.png","70","70","test","1","152","152","7","",""
"null","290192","pSARL_v2","pSARL_v2cmg8vb22","614c9d5dc06e92405dadfaf9","freq_resp","img/green_2bandit_b.png","70","70","test","","","","7","",""
"null","290365","pSARL_v2","pSARL_v2cmg8vb22","614c9d5dc06e92405dadfaf9","fixation","img/fixation.png","null","","test","","","","","",""
"551","290926","pSARL_v2","pSARL_v2cmg8vb22","614c9d5dc06e92405dadfaf9","freq","img/green_2bandit_b2.png","70","70","test","1","153","153","7","",""
"null","291186","pSARL_v2","pSARL_v2cmg8vb22","614c9d5dc06e92405dadfaf9","freq_resp","img/green_2bandit_b.png","70","70","test","","","","7","",""
"null","291359","pSARL_v2","pSARL_v2cmg8vb22","614c9d5dc06e92405dadfaf9","fixation","img/fixation.png","null","","test","","","","","",""
"551.1999999284744","291919","pSARL_v2","pSARL_v2cmg8vb22","614c9d5dc06e92405dadfaf9","freq","img/green_2bandit_b2.png","70","70","test","1","154","154","7","",""
"null","292187","pSARL_v2","pSARL_v2cmg8vb22","614c9d5dc06e92405dadfaf9","freq_resp","img/green_2bandit_b.png","70","70","test","","","","7","",""
"null","292359","pSARL_v2","pSARL_v2cmg8vb22","614c9d5dc06e92405dadfaf9","fixation","img/fixation.png","null","","test","","","","","",""
"315.8000000715256","292683","pSARL_v2","pSARL_v2cmg8vb22","614c9d5dc06e92405dadfaf9","freq","img/green_2bandit_b2.png","70","70","test","1","155","155","7","",""
"null","293185","pSARL_v2","pSARL_v2cmg8vb22","614c9d5dc06e92405dadfaf9","freq_resp","img/green_2bandit_b.png","70","70","test","","","","7","",""
"null","293358","pSARL_v2","pSARL_v2cmg8vb22","614c9d5dc06e92405dadfaf9","fixation","img/fixation.png","null","","test","","","","","",""
"460","293828","pSARL_v2","pSARL_v2cmg8vb22","614c9d5dc06e92405dadfaf9","reward","img/slot.png","74","","test","","","","","",""
"null","294600","pSARL_v2","pSARL_v2cmg8vb22","614c9d5dc06e92405dadfaf9","points","<div class=""verylowPoints""> -6 </div>","null","na","test","","","","7","-6","6"
"434.2999999523163","295042","pSARL_v2","pSARL_v2cmg8vb22","614c9d5dc06e92405dadfaf9","freq","img/green_2bandit_b2.png","70","70","test","1","156","156","8","",""
"null","295430","pSARL_v2","pSARL_v2cmg8vb22","614c9d5dc06e92405dadfaf9","freq_resp","img/green_2bandit_b.png","70","70","test","","","","8","",""
"null","295593","pSARL_v2","pSARL_v2cmg8vb22","614c9d5dc06e92405dadfaf9","fixation","img/fixation.png","null","","test","","","","","",""
"395.39999997615814","295997","pSARL_v2","pSARL_v2cmg8vb22","614c9d5dc06e92405dadfaf9","freq","img/green_2bandit_b2.png","70","70","test","1","157","157","8","",""
"null","296413","pSARL_v2","pSARL_v2cmg8vb22","614c9d5dc06e92405dadfaf9","freq_resp","img/green_2bandit_b.png","70","70","test","","","","8","",""
"null","296579","pSARL_v2","pSARL_v2cmg8vb22","614c9d5dc06e92405dadfaf9","fixation","img/fixation.png","null","","test","","","","","",""
"541.8000000715256","297130","pSARL_v2","pSARL_v2cmg8vb22","614c9d5dc06e92405dadfaf9","freq","img/green_2bandit_b2.png","70","70","test","1","158","158","8","",""
"null","297403","pSARL_v2","pSARL_v2cmg8vb22","614c9d5dc06e92405dadfaf9","freq_resp","img/green_2bandit_b.png","70","70","test","","","","8","",""
"null","297575","pSARL_v2","pSARL_v2cmg8vb22","614c9d5dc06e92405dadfaf9","fixation","img/fixation.png","null","","test","","","","","",""
"280.59999990463257","297865","pSARL_v2","pSARL_v2cmg8vb22","614c9d5dc06e92405dadfaf9","freq","img/green_2bandit_b2.png","70","70","test","1","159","159","8","",""
"null","298401","pSARL_v2","pSARL_v2cmg8vb22","614c9d5dc06e92405dadfaf9","freq_resp","img/green_2bandit_b.png","70","70","test","","","","8","",""
"null","298575","pSARL_v2","pSARL_v2cmg8vb22","614c9d5dc06e92405dadfaf9","fixation","img/fixation.png","null","","test","","","","","",""
"258.89999997615814","298842","pSARL_v2","pSARL_v2cmg8vb22","614c9d5dc06e92405dadfaf9","freq","img/green_2bandit_b2.png","70","70","test","1","160","160","8","",""
"null","299408","pSARL_v2","pSARL_v2cmg8vb22","614c9d5dc06e92405dadfaf9","freq_resp","img/green_2bandit_b.png","70","70","test","","","","8","",""
"null","299582","pSARL_v2","pSARL_v2cmg8vb22","614c9d5dc06e92405dadfaf9","fixation","img/fixation.png","null","","test","","","","","",""
"290.39999997615814","299882","pSARL_v2","pSARL_v2cmg8vb22","614c9d5dc06e92405dadfaf9","freq","img/green_2bandit_b2.png","70","70","test","1","161","161","8","",""
"null","300402","pSARL_v2","pSARL_v2cmg8vb22","614c9d5dc06e92405dadfaf9","freq_resp","img/green_2bandit_b.png","70","70","test","","","","8","",""
"null","300573","pSARL_v2","pSARL_v2cmg8vb22","614c9d5dc06e92405dadfaf9","fixation","img/fixation.png","null","","test","","","","","",""
"587.8000000715256","301171","pSARL_v2","pSARL_v2cmg8vb22","614c9d5dc06e92405dadfaf9","infreq","img/orange_2bandit_b2.png","68","68","test","1","162","162","8","",""
"null","301402","pSARL_v2","pSARL_v2cmg8vb22","614c9d5dc06e92405dadfaf9","infreq_resp","img/orange_2bandit_b.png","68","68","test","","","","8","",""
"null","301564","pSARL_v2","pSARL_v2cmg8vb22","614c9d5dc06e92405dadfaf9","fixation","img/fixation.png","null","","test","","","","","",""
"466.89999997615814","302040","pSARL_v2","pSARL_v2cmg8vb22","614c9d5dc06e92405dadfaf9","freq","img/green_2bandit_b2.png","70","70","test","1","163","163","8","",""
"null","302398","pSARL_v2","pSARL_v2cmg8vb22","614c9d5dc06e92405dadfaf9","freq_resp","img/green_2bandit_b.png","70","70","test","","","","8","",""
"null","302561","pSARL_v2","pSARL_v2cmg8vb22","614c9d5dc06e92405dadfaf9","fixation","img/fixation.png","null","","test","","","","","",""
"330.09999990463257","302900","pSARL_v2","pSARL_v2cmg8vb22","614c9d5dc06e92405dadfaf9","freq","img/green_2bandit_b2.png","70","70","test","1","164","164","8","",""
"null","303386","pSARL_v2","pSARL_v2cmg8vb22","614c9d5dc06e92405dadfaf9","freq_resp","img/green_2bandit_b.png","70","70","test","","","","8","",""
"null","303562","pSARL_v2","pSARL_v2cmg8vb22","614c9d5dc06e92405dadfaf9","fixation","img/fixation.png","null","","test","","","","","",""
"290.09999990463257","303861","pSARL_v2","pSARL_v2cmg8vb22","614c9d5dc06e92405dadfaf9","freq","img/green_2bandit_b2.png","70","70","test","1","165","165","8","",""
"null","304388","pSARL_v2","pSARL_v2cmg8vb22","614c9d5dc06e92405dadfaf9","freq_resp","img/green_2bandit_b.png","70","70","test","","","","8","",""
"null","304559","pSARL_v2","pSARL_v2cmg8vb22","614c9d5dc06e92405dadfaf9","fixation","img/fixation.png","null","","test","","","","","",""
"54.299999952316284","304621","pSARL_v2","pSARL_v2cmg8vb22","614c9d5dc06e92405dadfaf9","infreq","img/orange_2bandit_b2.png","70","68","test","0","166","166","8","",""
"null","305385","pSARL_v2","pSARL_v2cmg8vb22","614c9d5dc06e92405dadfaf9","infreq_resp","img/orange_2bandit_b.png","70","68","test","","","","8","",""
"null","305557","pSARL_v2","pSARL_v2cmg8vb22","614c9d5dc06e92405dadfaf9","fixation","img/fixation.png","null","","test","","","","","",""
"414.5","305982","pSARL_v2","pSARL_v2cmg8vb22","614c9d5dc06e92405dadfaf9","freq","img/green_2bandit_b2.png","70","70","test","1","167","167","8","",""
"null","306381","pSARL_v2","pSARL_v2cmg8vb22","614c9d5dc06e92405dadfaf9","freq_resp","img/green_2bandit_b.png","70","70","test","","","","8","",""
"null","306548","pSARL_v2","pSARL_v2cmg8vb22","614c9d5dc06e92405dadfaf9","fixation","img/fixation.png","null","","test","","","","","",""
"392.39999997615814","306950","pSARL_v2","pSARL_v2cmg8vb22","614c9d5dc06e92405dadfaf9","freq","img/green_2bandit_b2.png","70","70","test","1","168","168","8","",""
"null","307377","pSARL_v2","pSARL_v2cmg8vb22","614c9d5dc06e92405dadfaf9","freq_resp","img/green_2bandit_b.png","70","70","test","","","","8","",""
"null","307543","pSARL_v2","pSARL_v2cmg8vb22","614c9d5dc06e92405dadfaf9","fixation","img/fixation.png","null","","test","","","","","",""
"318.89999997615814","307869","pSARL_v2","pSARL_v2cmg8vb22","614c9d5dc06e92405dadfaf9","freq","img/green_2bandit_b2.png","70","70","test","1","169","169","8","",""
"null","308373","pSARL_v2","pSARL_v2cmg8vb22","614c9d5dc06e92405dadfaf9","freq_resp","img/green_2bandit_b.png","70","70","test","","","","8","",""
"null","308545","pSARL_v2","pSARL_v2cmg8vb22","614c9d5dc06e92405dadfaf9","fixation","img/fixation.png","null","","test","","","","","",""
"295.60000002384186","308850","pSARL_v2","pSARL_v2cmg8vb22","614c9d5dc06e92405dadfaf9","freq","img/green_2bandit_b2.png","70","70","test","1","170","170","8","",""
"null","309371","pSARL_v2","pSARL_v2cmg8vb22","614c9d5dc06e92405dadfaf9","freq_resp","img/green_2bandit_b.png","70","70","test","","","","8","",""
"null","309545","pSARL_v2","pSARL_v2cmg8vb22","614c9d5dc06e92405dadfaf9","fixation","img/fixation.png","null","","test","","","","","",""
"263","309817","pSARL_v2","pSARL_v2cmg8vb22","614c9d5dc06e92405dadfaf9","freq","img/green_2bandit_b2.png","70","70","test","1","171","171","8","",""
"null","310371","pSARL_v2","pSARL_v2cmg8vb22","614c9d5dc06e92405dadfaf9","freq_resp","img/green_2bandit_b.png","70","70","test","","","","8","",""
"null","310545","pSARL_v2","pSARL_v2cmg8vb22","614c9d5dc06e92405dadfaf9","fixation","img/fixation.png","null","","test","","","","","",""
"527.4000000953674","311081","pSARL_v2","pSARL_v2cmg8vb22","614c9d5dc06e92405dadfaf9","freq","img/green_2bandit_b2.png","70","70","test","1","172","172","8","",""
"null","311368","pSARL_v2","pSARL_v2cmg8vb22","614c9d5dc06e92405dadfaf9","freq_resp","img/green_2bandit_b.png","70","70","test","","","","8","",""
"null","311543","pSARL_v2","pSARL_v2cmg8vb22","614c9d5dc06e92405dadfaf9","fixation","img/fixation.png","null","","test","","","","","",""
"767.6000000238419","312319","pSARL_v2","pSARL_v2cmg8vb22","614c9d5dc06e92405dadfaf9","freq","img/green_2bandit_b2.png","70","70","test","1","173","173","8","",""
"null","312363","pSARL_v2","pSARL_v2cmg8vb22","614c9d5dc06e92405dadfaf9","freq_resp","img/green_2bandit_b.png","70","70","test","","","","8","",""
"null","312529","pSARL_v2","pSARL_v2cmg8vb22","614c9d5dc06e92405dadfaf9","fixation","img/fixation.png","null","","test","","","","","",""
"403.1999999284744","312942","pSARL_v2","pSARL_v2cmg8vb22","614c9d5dc06e92405dadfaf9","freq","img/green_2bandit_b2.png","70","70","test","1","174","174","8","",""
"null","313361","pSARL_v2","pSARL_v2cmg8vb22","614c9d5dc06e92405dadfaf9","freq_resp","img/green_2bandit_b.png","70","70","test","","","","8","",""
"null","313528","pSARL_v2","pSARL_v2cmg8vb22","614c9d5dc06e92405dadfaf9","fixation","img/fixation.png","null","","test","","","","","",""
"465.7000000476837","314002","pSARL_v2","pSARL_v2cmg8vb22","614c9d5dc06e92405dadfaf9","reward","img/slot.png","74","","test","","","","","",""
"null","314770","pSARL_v2","pSARL_v2cmg8vb22","614c9d5dc06e92405dadfaf9","points","<div class=""verylowPoints""> -4 </div>","null","na","test","","","","8","-4","7"
"297.89999997615814","315078","pSARL_v2","pSARL_v2cmg8vb22","614c9d5dc06e92405dadfaf9","freq","img/green_2bandit_b2.png","70","70","test","1","175","175","9","",""
"null","315603","pSARL_v2","pSARL_v2cmg8vb22","614c9d5dc06e92405dadfaf9","freq_resp","img/green_2bandit_b.png","70","70","test","","","","9","",""
"null","315775","pSARL_v2","pSARL_v2cmg8vb22","614c9d5dc06e92405dadfaf9","fixation","img/fixation.png","null","","test","","","","","",""
"396.3000000715256","316181","pSARL_v2","pSARL_v2cmg8vb22","614c9d5dc06e92405dadfaf9","infreq","img/orange_2bandit_b2.png","68","68","test","1","176","176","9","",""
"null","316610","pSARL_v2","pSARL_v2cmg8vb22","614c9d5dc06e92405dadfaf9","infreq_resp","img/orange_2bandit_b.png","68","68","test","","","","9","",""
"null","316778","pSARL_v2","pSARL_v2cmg8vb22","614c9d5dc06e92405dadfaf9","fixation","img/fixation.png","null","","test","","","","","",""
"357.8000000715256","317146","pSARL_v2","pSARL_v2cmg8vb22","614c9d5dc06e92405dadfaf9","freq","img/green_2bandit_b2.png","70","70","test","1","177","177","9","",""
"null","317607","pSARL_v2","pSARL_v2cmg8vb22","614c9d5dc06e92405dadfaf9","freq_resp","img/green_2bandit_b.png","70","70","test","","","","9","",""
"null","317775","pSARL_v2","pSARL_v2cmg8vb22","614c9d5dc06e92405dadfaf9","fixation","img/fixation.png","null","","test","","","","","",""
"381.2000000476837","318165","pSARL_v2","pSARL_v2cmg8vb22","614c9d5dc06e92405dadfaf9","freq","img/green_2bandit_b2.png","70","70","test","1","178","178","9","",""
"null","318613","pSARL_v2","pSARL_v2cmg8vb22","614c9d5dc06e92405dadfaf9","freq_resp","img/green_2bandit_b.png","70","70","test","","","","9","",""
"null","318779","pSARL_v2","pSARL_v2cmg8vb22","614c9d5dc06e92405dadfaf9","fixation","img/fixation.png","null","","test","","","","","",""
"423.60000002384186","319211","pSARL_v2","pSARL_v2cmg8vb22","614c9d5dc06e92405dadfaf9","freq","img/green_2bandit_b2.png","70","70","test","1","179","179","9","",""
"null","319612","pSARL_v2","pSARL_v2cmg8vb22","614c9d5dc06e92405dadfaf9","freq_resp","img/green_2bandit_b.png","70","70","test","","","","9","",""
"null","319779","pSARL_v2","pSARL_v2cmg8vb22","614c9d5dc06e92405dadfaf9","fixation","img/fixation.png","null","","test","","","","","",""
"573.5","320361","pSARL_v2","pSARL_v2cmg8vb22","614c9d5dc06e92405dadfaf9","freq","img/green_2bandit_b2.png","70","70","test","1","180","180","9","",""
"null","320605","pSARL_v2","pSARL_v2cmg8vb22","614c9d5dc06e92405dadfaf9","freq_resp","img/green_2bandit_b.png","70","70","test","","","","9","",""
"null","320779","pSARL_v2","pSARL_v2cmg8vb22","614c9d5dc06e92405dadfaf9","fixation","img/fixation.png","null","","test","","","","","",""
"441.7000000476837","321231","pSARL_v2","pSARL_v2cmg8vb22","614c9d5dc06e92405dadfaf9","freq","img/green_2bandit_b2.png","70","70","test","1","181","181","9","",""
"null","321605","pSARL_v2","pSARL_v2cmg8vb22","614c9d5dc06e92405dadfaf9","freq_resp","img/green_2bandit_b.png","70","70","test","","","","9","",""
"null","321777","pSARL_v2","pSARL_v2cmg8vb22","614c9d5dc06e92405dadfaf9","fixation","img/fixation.png","null","","test","","","","","",""
"447.10000002384186","322234","pSARL_v2","pSARL_v2cmg8vb22","614c9d5dc06e92405dadfaf9","freq","img/green_2bandit_b2.png","70","70","test","1","182","182","9","",""
"null","322605","pSARL_v2","pSARL_v2cmg8vb22","614c9d5dc06e92405dadfaf9","freq_resp","img/green_2bandit_b.png","70","70","test","","","","9","",""
"null","322777","pSARL_v2","pSARL_v2cmg8vb22","614c9d5dc06e92405dadfaf9","fixation","img/fixation.png","null","","test","","","","","",""
"364","323150","pSARL_v2","pSARL_v2cmg8vb22","614c9d5dc06e92405dadfaf9","freq","img/green_2bandit_b2.png","70","70","test","1","183","183","9","",""
"null","323607","pSARL_v2","pSARL_v2cmg8vb22","614c9d5dc06e92405dadfaf9","freq_resp","img/green_2bandit_b.png","70","70","test","","","","9","",""
"null","323780","pSARL_v2","pSARL_v2cmg8vb22","614c9d5dc06e92405dadfaf9","fixation","img/fixation.png","null","","test","","","","","",""
"488.5","324277","pSARL_v2","pSARL_v2cmg8vb22","614c9d5dc06e92405dadfaf9","freq","img/green_2bandit_b2.png","70","70","test","1","184","184","9","",""
"null","324600","pSARL_v2","pSARL_v2cmg8vb22","614c9d5dc06e92405dadfaf9","freq_resp","img/green_2bandit_b.png","70","70","test","","","","9","",""
"null","324763","pSARL_v2","pSARL_v2cmg8vb22","614c9d5dc06e92405dadfaf9","fixation","img/fixation.png","null","","test","","","","","",""
"326.40000009536743","325099","pSARL_v2","pSARL_v2cmg8vb22","614c9d5dc06e92405dadfaf9","freq","img/green_2bandit_b2.png","70","70","test","1","185","185","9","",""
"null","325591","pSARL_v2","pSARL_v2cmg8vb22","614c9d5dc06e92405dadfaf9","freq_resp","img/green_2bandit_b.png","70","70","test","","","","9","",""
"null","325761","pSARL_v2","pSARL_v2cmg8vb22","614c9d5dc06e92405dadfaf9","fixation","img/fixation.png","null","","test","","","","","",""
"287.39999997615814","326057","pSARL_v2","pSARL_v2cmg8vb22","614c9d5dc06e92405dadfaf9","freq","img/green_2bandit_b2.png","70","70","test","1","186","186","9","",""
"null","326581","pSARL_v2","pSARL_v2cmg8vb22","614c9d5dc06e92405dadfaf9","freq_resp","img/green_2bandit_b.png","70","70","test","","","","9","",""
"null","326745","pSARL_v2","pSARL_v2cmg8vb22","614c9d5dc06e92405dadfaf9","fixation","img/fixation.png","null","","test","","","","","",""
"276.60000002384186","327032","pSARL_v2","pSARL_v2cmg8vb22","614c9d5dc06e92405dadfaf9","freq","img/green_2bandit_b2.png","70","70","test","1","187","187","9","",""
"null","327578","pSARL_v2","pSARL_v2cmg8vb22","614c9d5dc06e92405dadfaf9","freq_resp","img/green_2bandit_b.png","70","70","test","","","","9","",""
"null","327745","pSARL_v2","pSARL_v2cmg8vb22","614c9d5dc06e92405dadfaf9","fixation","img/fixation.png","null","","test","","","","","",""
"271.10000002384186","328025","pSARL_v2","pSARL_v2cmg8vb22","614c9d5dc06e92405dadfaf9","freq","img/green_2bandit_b2.png","70","70","test","1","188","188","9","",""
"null","328572","pSARL_v2","pSARL_v2cmg8vb22","614c9d5dc06e92405dadfaf9","freq_resp","img/green_2bandit_b.png","70","70","test","","","","9","",""
"null","328737","pSARL_v2","pSARL_v2cmg8vb22","614c9d5dc06e92405dadfaf9","fixation","img/fixation.png","null","","test","","","","","",""
"449.09999990463257","329195","pSARL_v2","pSARL_v2cmg8vb22","614c9d5dc06e92405dadfaf9","infreq","img/orange_2bandit_b2.png","68","68","test","1","189","189","9","",""
"null","329570","pSARL_v2","pSARL_v2cmg8vb22","614c9d5dc06e92405dadfaf9","infreq_resp","img/orange_2bandit_b.png","68","68","test","","","","9","",""
"null","329745","pSARL_v2","pSARL_v2cmg8vb22","614c9d5dc06e92405dadfaf9","fixation","img/fixation.png","null","","test","","","","","",""
"496.39999997615814","330250","pSARL_v2","pSARL_v2cmg8vb22","614c9d5dc06e92405dadfaf9","freq","img/green_2bandit_b2.png","70","70","test","1","190","190","9","",""
"null","330566","pSARL_v2","pSARL_v2cmg8vb22","614c9d5dc06e92405dadfaf9","freq_resp","img/green_2bandit_b.png","70","70","test","","","","9","",""
"null","330730","pSARL_v2","pSARL_v2cmg8vb22","614c9d5dc06e92405dadfaf9","fixation","img/fixation.png","null","","test","","","","","",""
"284.1999999284744","331023","pSARL_v2","pSARL_v2cmg8vb22","614c9d5dc06e92405dadfaf9","freq","img/green_2bandit_b2.png","70","70","test","1","191","191","9","",""
"null","331549","pSARL_v2","pSARL_v2cmg8vb22","614c9d5dc06e92405dadfaf9","freq_resp","img/green_2bandit_b.png","70","70","test","","","","9","",""
"null","331714","pSARL_v2","pSARL_v2cmg8vb22","614c9d5dc06e92405dadfaf9","fixation","img/fixation.png","null","","test","","","","","",""
"258.09999990463257","331982","pSARL_v2","pSARL_v2cmg8vb22","614c9d5dc06e92405dadfaf9","freq","img/green_2bandit_b2.png","70","70","test","1","192","192","9","",""
"null","332540","pSARL_v2","pSARL_v2cmg8vb22","614c9d5dc06e92405dadfaf9","freq_resp","img/green_2bandit_b.png","70","70","test","","","","9","",""
"null","332715","pSARL_v2","pSARL_v2cmg8vb22","614c9d5dc06e92405dadfaf9","fixation","img/fixation.png","null","","test","","","","","",""
"262.5","332987","pSARL_v2","pSARL_v2cmg8vb22","614c9d5dc06e92405dadfaf9","freq","img/green_2bandit_b2.png","70","70","test","1","193","193","9","",""
"null","333536","pSARL_v2","pSARL_v2cmg8vb22","614c9d5dc06e92405dadfaf9","freq_resp","img/green_2bandit_b.png","70","70","test","","","","9","",""
"null","333712","pSARL_v2","pSARL_v2cmg8vb22","614c9d5dc06e92405dadfaf9","fixation","img/fixation.png","null","","test","","","","","",""
"315.59999990463257","334037","pSARL_v2","pSARL_v2cmg8vb22","614c9d5dc06e92405dadfaf9","freq","img/green_2bandit_b2.png","70","70","test","1","194","194","9","",""
"null","334540","pSARL_v2","pSARL_v2cmg8vb22","614c9d5dc06e92405dadfaf9","freq_resp","img/green_2bandit_b.png","70","70","test","","","","9","",""
"null","334712","pSARL_v2","pSARL_v2cmg8vb22","614c9d5dc06e92405dadfaf9","fixation","img/fixation.png","null","","test","","","","","",""
"282.10000002384186","335003","pSARL_v2","pSARL_v2cmg8vb22","614c9d5dc06e92405dadfaf9","freq","img/green_2bandit_b2.png","70","70","test","1","195","195","9","",""
"null","335545","pSARL_v2","pSARL_v2cmg8vb22","614c9d5dc06e92405dadfaf9","freq_resp","img/green_2bandit_b.png","70","70","test","","","","9","",""
"null","335713","pSARL_v2","pSARL_v2cmg8vb22","614c9d5dc06e92405dadfaf9","fixation","img/fixation.png","null","","test","","","","","",""
"285.7000000476837","336007","pSARL_v2","pSARL_v2cmg8vb22","614c9d5dc06e92405dadfaf9","freq","img/green_2bandit_b2.png","70","70","test","1","196","196","9","",""
"null","336540","pSARL_v2","pSARL_v2cmg8vb22","614c9d5dc06e92405dadfaf9","freq_resp","img/green_2bandit_b.png","70","70","test","","","","9","",""
"null","336714","pSARL_v2","pSARL_v2cmg8vb22","614c9d5dc06e92405dadfaf9","fixation","img/fixation.png","null","","test","","","","","",""
"224.90000009536743","336947","pSARL_v2","pSARL_v2cmg8vb22","614c9d5dc06e92405dadfaf9","freq","img/green_2bandit_b2.png","70","70","test","1","197","197","9","",""
"null","337543","pSARL_v2","pSARL_v2cmg8vb22","614c9d5dc06e92405dadfaf9","freq_resp","img/green_2bandit_b.png","70","70","test","","","","9","",""
"null","337712","pSARL_v2","pSARL_v2cmg8vb22","614c9d5dc06e92405dadfaf9","fixation","img/fixation.png","null","","test","","","","","",""
"293.2000000476837","338016","pSARL_v2","pSARL_v2cmg8vb22","614c9d5dc06e92405dadfaf9","freq","img/green_2bandit_b2.png","70","70","test","1","198","198","9","",""
"null","338540","pSARL_v2","pSARL_v2cmg8vb22","614c9d5dc06e92405dadfaf9","freq_resp","img/green_2bandit_b.png","70","70","test","","","","9","",""
"null","338719","pSARL_v2","pSARL_v2cmg8vb22","614c9d5dc06e92405dadfaf9","fixation","img/fixation.png","null","","test","","","","","",""
"275.6999999284744","339003","pSARL_v2","pSARL_v2cmg8vb22","614c9d5dc06e92405dadfaf9","freq","img/green_2bandit_b2.png","70","70","test","1","199","199","9","",""
"null","339544","pSARL_v2","pSARL_v2cmg8vb22","614c9d5dc06e92405dadfaf9","freq_resp","img/green_2bandit_b.png","70","70","test","","","","9","",""
"null","339713","pSARL_v2","pSARL_v2cmg8vb22","614c9d5dc06e92405dadfaf9","fixation","img/fixation.png","null","","test","","","","","",""
"566","340287","pSARL_v2","pSARL_v2cmg8vb22","614c9d5dc06e92405dadfaf9","reward","img/slot.png","74","","test","","","","","",""
"null","341056","pSARL_v2","pSARL_v2cmg8vb22","614c9d5dc06e92405dadfaf9","points","<div class=""verylowPoints""> -3 </div>","null","na","test","","","","9","-3","8"
"311.5","341376","pSARL_v2","pSARL_v2cmg8vb22","614c9d5dc06e92405dadfaf9","freq","img/green_2bandit_b2.png","70","70","test","1","200","200","10","",""
"null","341897","pSARL_v2","pSARL_v2cmg8vb22","614c9d5dc06e92405dadfaf9","freq_resp","img/green_2bandit_b.png","70","70","test","","","","10","",""
"null","342065","pSARL_v2","pSARL_v2cmg8vb22","614c9d5dc06e92405dadfaf9","fixation","img/fixation.png","null","","test","","","","","",""
"351.5","342427","pSARL_v2","pSARL_v2cmg8vb22","614c9d5dc06e92405dadfaf9","infreq","img/orange_2bandit_b2.png","68","68","test","1","201","201","10","",""
"null","342895","pSARL_v2","pSARL_v2cmg8vb22","614c9d5dc06e92405dadfaf9","infreq_resp","img/orange_2bandit_b.png","68","68","test","","","","10","",""
"null","343064","pSARL_v2","pSARL_v2cmg8vb22","614c9d5dc06e92405dadfaf9","fixation","img/fixation.png","null","","test","","","","","",""
"351","343424","pSARL_v2","pSARL_v2cmg8vb22","614c9d5dc06e92405dadfaf9","infreq","img/orange_2bandit_b2.png","68","68","test","1","202","202","10","",""
"null","343887","pSARL_v2","pSARL_v2cmg8vb22","614c9d5dc06e92405dadfaf9","infreq_resp","img/orange_2bandit_b.png","68","68","test","","","","10","",""
"null","344049","pSARL_v2","pSARL_v2cmg8vb22","614c9d5dc06e92405dadfaf9","fixation","img/fixation.png","null","","test","","","","","",""
"375","344435","pSARL_v2","pSARL_v2cmg8vb22","614c9d5dc06e92405dadfaf9","freq","img/green_2bandit_b2.png","70","70","test","1","203","203","10","",""
"null","344881","pSARL_v2","pSARL_v2cmg8vb22","614c9d5dc06e92405dadfaf9","freq_resp","img/green_2bandit_b.png","70","70","test","","","","10","",""
"null","345051","pSARL_v2","pSARL_v2cmg8vb22","614c9d5dc06e92405dadfaf9","fixation","img/fixation.png","null","","test","","","","","",""
"283","345343","pSARL_v2","pSARL_v2cmg8vb22","614c9d5dc06e92405dadfaf9","freq","img/green_2bandit_b2.png","70","70","test","1","204","204","10","",""
"null","345872","pSARL_v2","pSARL_v2cmg8vb22","614c9d5dc06e92405dadfaf9","freq_resp","img/green_2bandit_b.png","70","70","test","","","","10","",""
"null","346046","pSARL_v2","pSARL_v2cmg8vb22","614c9d5dc06e92405dadfaf9","fixation","img/fixation.png","null","","test","","","","","",""
