"rt","time_elapsed","expId","subject","prolificID","trialType","stimulus","key_press","corrresp","phase","corr","trialNum","attentionRunNum","blockNum","points","rlNum"
"5488","5497","pSARL_v2","pSARL_v2vk3ang3u","615b5d9b0b5942de8db28622","","","","","","","","","","",""
"","8519","pSARL_v2","pSARL_v2vk3ang3u","615b5d9b0b5942de8db28622","fullscreen","","","","","","","","","",""
"49968.5","58490","pSARL_v2","pSARL_v2vk3ang3u","615b5d9b0b5942de8db28622","","","","","","","","","","",""
"null","59302","pSARL_v2","pSARL_v2vk3ang3u","615b5d9b0b5942de8db28622","freqPrac","img/orange_2bandit_a2.png","null","70","prac","0","","","","",""
"null","60309","pSARL_v2","pSARL_v2vk3ang3u","615b5d9b0b5942de8db28622","feedback","img/tooSlow.png","null","na","prac","","","","","",""
"null","60469","pSARL_v2","pSARL_v2vk3ang3u","615b5d9b0b5942de8db28622","fixation","img/fixation.png","null","","prac","","","","","",""
"510.2000000476837","60984","pSARL_v2","pSARL_v2vk3ang3u","615b5d9b0b5942de8db28622","infreqPrac","img/green_2bandit_a2.png","68","68","prac","1","","","","",""
"510.2000000476837","61279","pSARL_v2","pSARL_v2vk3ang3u","615b5d9b0b5942de8db28622","infreqPrac_resp","img/green_2bandit_a.png","68","68","prac","","","","","",""
"null","61439","pSARL_v2","pSARL_v2vk3ang3u","615b5d9b0b5942de8db28622","fixation","img/fixation.png","null","","prac","","","","","",""
"537","61981","pSARL_v2","pSARL_v2vk3ang3u","615b5d9b0b5942de8db28622","freqPrac","img/orange_2bandit_a2.png","70","70","prac","1","","","","",""
"537","62250","pSARL_v2","pSARL_v2vk3ang3u","615b5d9b0b5942de8db28622","freqPrac_resp","img/orange_2bandit_a.png","70","70","prac","","","","","",""
"null","62410","pSARL_v2","pSARL_v2vk3ang3u","615b5d9b0b5942de8db28622","fixation","img/fixation.png","null","","prac","","","","","",""
"477.10000014305115","62892","pSARL_v2","pSARL_v2vk3ang3u","615b5d9b0b5942de8db28622","infreqPrac","img/green_2bandit_a2.png","68","68","prac","1","","","","",""
"477.10000014305115","63220","pSARL_v2","pSARL_v2vk3ang3u","615b5d9b0b5942de8db28622","infreqPrac_resp","img/green_2bandit_a.png","68","68","prac","","","","","",""
"null","63380","pSARL_v2","pSARL_v2vk3ang3u","615b5d9b0b5942de8db28622","fixation","img/fixation.png","null","","prac","","","","","",""
"403.7999999523163","63789","pSARL_v2","pSARL_v2vk3ang3u","615b5d9b0b5942de8db28622","infreqPrac","img/green_2bandit_a2.png","68","68","prac","1","","","","",""
"403.7999999523163","64190","pSARL_v2","pSARL_v2vk3ang3u","615b5d9b0b5942de8db28622","infreqPrac_resp","img/green_2bandit_a.png","68","68","prac","","","","","",""
"null","64350","pSARL_v2","pSARL_v2vk3ang3u","615b5d9b0b5942de8db28622","fixation","img/fixation.png","null","","prac","","","","","",""
"327.40000009536743","64681","pSARL_v2","pSARL_v2vk3ang3u","615b5d9b0b5942de8db28622","infreqPrac","img/green_2bandit_a2.png","68","68","prac","1","","","","",""
"327.40000009536743","65160","pSARL_v2","pSARL_v2vk3ang3u","615b5d9b0b5942de8db28622","infreqPrac_resp","img/green_2bandit_a.png","68","68","prac","","","","","",""
"null","65321","pSARL_v2","pSARL_v2vk3ang3u","615b5d9b0b5942de8db28622","fixation","img/fixation.png","null","","prac","","","","","",""
"364.90000009536743","65690","pSARL_v2","pSARL_v2vk3ang3u","615b5d9b0b5942de8db28622","freqPrac","img/orange_2bandit_a2.png","70","70","prac","1","","","","",""
"364.90000009536743","66130","pSARL_v2","pSARL_v2vk3ang3u","615b5d9b0b5942de8db28622","freqPrac_resp","img/orange_2bandit_a.png","70","70","prac","","","","","",""
"null","66286","pSARL_v2","pSARL_v2vk3ang3u","615b5d9b0b5942de8db28622","fixation","img/fixation.png","null","","prac","","","","","",""
"428.7000000476837","66719","pSARL_v2","pSARL_v2vk3ang3u","615b5d9b0b5942de8db28622","infreqPrac","img/green_2bandit_a2.png","68","68","prac","1","","","","",""
"428.7000000476837","67096","pSARL_v2","pSARL_v2vk3ang3u","615b5d9b0b5942de8db28622","infreqPrac_resp","img/green_2bandit_a.png","68","68","prac","","","","","",""
"null","67256","pSARL_v2","pSARL_v2vk3ang3u","615b5d9b0b5942de8db28622","fixation","img/fixation.png","null","","prac","","","","","",""
"679.2999999523163","67940","pSARL_v2","pSARL_v2vk3ang3u","615b5d9b0b5942de8db28622","freqPrac","img/orange_2bandit_a2.png","70","70","prac","1","","","","",""
"679.2999999523163","68065","pSARL_v2","pSARL_v2vk3ang3u","615b5d9b0b5942de8db28622","freqPrac_resp","img/orange_2bandit_a.png","70","70","prac","","","","","",""
"null","68226","pSARL_v2","pSARL_v2vk3ang3u","615b5d9b0b5942de8db28622","fixation","img/fixation.png","null","","prac","","","","","",""
"545.5999999046326","68776","pSARL_v2","pSARL_v2vk3ang3u","615b5d9b0b5942de8db28622","freqPrac","img/orange_2bandit_a2.png","70","70","prac","1","","","","",""
"545.5999999046326","69036","pSARL_v2","pSARL_v2vk3ang3u","615b5d9b0b5942de8db28622","freqPrac_resp","img/orange_2bandit_a.png","70","70","prac","","","","","",""
"null","69196","pSARL_v2","pSARL_v2vk3ang3u","615b5d9b0b5942de8db28622","fixation","img/fixation.png","null","","prac","","","","","",""
"16980.800000190735","86180","pSARL_v2","pSARL_v2vk3ang3u","615b5d9b0b5942de8db28622","","","","","prac","","","","","",""
"1036.6000001430511","87221","pSARL_v2","pSARL_v2vk3ang3u","615b5d9b0b5942de8db28622","rewardPractice","img/slot.png","74","","prac","","","","","",""
"null","87978","pSARL_v2","pSARL_v2vk3ang3u","615b5d9b0b5942de8db28622","feedback","<div class=""veryhighPoints""> +15 </div>","null","na","prac","","","","","",""
"null","88133","pSARL_v2","pSARL_v2vk3ang3u","615b5d9b0b5942de8db28622","fixation","img/fixation.png","null","","prac","","","","","",""
"13197.900000095367","101334","pSARL_v2","pSARL_v2vk3ang3u","615b5d9b0b5942de8db28622","","","","","prac","","","","","",""
"799.5999999046326","102138","pSARL_v2","pSARL_v2vk3ang3u","615b5d9b0b5942de8db28622","freq","img/orange_2bandit_a2.png","70","70","test","1","1","1","1","",""
"null","102145","pSARL_v2","pSARL_v2vk3ang3u","615b5d9b0b5942de8db28622","freq_resp","img/orange_2bandit_a.png","70","70","test","","","","1","",""
"null","102305","pSARL_v2","pSARL_v2vk3ang3u","615b5d9b0b5942de8db28622","fixation","img/fixation.png","null","","test","","","","","",""
"519.7000000476837","102829","pSARL_v2","pSARL_v2vk3ang3u","615b5d9b0b5942de8db28622","freq","img/orange_2bandit_a2.png","70","70","test","1","2","2","1","",""
"null","103115","pSARL_v2","pSARL_v2vk3ang3u","615b5d9b0b5942de8db28622","freq_resp","img/orange_2bandit_a.png","70","70","test","","","","1","",""
"null","103275","pSARL_v2","pSARL_v2vk3ang3u","615b5d9b0b5942de8db28622","fixation","img/fixation.png","null","","test","","","","","",""
"455.5","103735","pSARL_v2","pSARL_v2vk3ang3u","615b5d9b0b5942de8db28622","freq","img/orange_2bandit_a2.png","70","70","test","1","3","3","1","",""
"null","104087","pSARL_v2","pSARL_v2vk3ang3u","615b5d9b0b5942de8db28622","freq_resp","img/orange_2bandit_a.png","70","70","test","","","","1","",""
"null","104244","pSARL_v2","pSARL_v2vk3ang3u","615b5d9b0b5942de8db28622","fixation","img/fixation.png","null","","test","","","","","",""
"375.10000014305115","104623","pSARL_v2","pSARL_v2vk3ang3u","615b5d9b0b5942de8db28622","freq","img/orange_2bandit_a2.png","70","70","test","1","4","4","1","",""
"null","105053","pSARL_v2","pSARL_v2vk3ang3u","615b5d9b0b5942de8db28622","freq_resp","img/orange_2bandit_a.png","70","70","test","","","","1","",""
"null","105213","pSARL_v2","pSARL_v2vk3ang3u","615b5d9b0b5942de8db28622","fixation","img/fixation.png","null","","test","","","","","",""
"345.09999990463257","105563","pSARL_v2","pSARL_v2vk3ang3u","615b5d9b0b5942de8db28622","freq","img/orange_2bandit_a2.png","70","70","test","1","5","5","1","",""
"null","106023","pSARL_v2","pSARL_v2vk3ang3u","615b5d9b0b5942de8db28622","freq_resp","img/orange_2bandit_a.png","70","70","test","","","","1","",""
"null","106179","pSARL_v2","pSARL_v2vk3ang3u","615b5d9b0b5942de8db28622","fixation","img/fixation.png","null","","test","","","","","",""
"309.89999985694885","106493","pSARL_v2","pSARL_v2vk3ang3u","615b5d9b0b5942de8db28622","freq","img/orange_2bandit_a2.png","70","70","test","1","6","6","1","",""
"null","106988","pSARL_v2","pSARL_v2vk3ang3u","615b5d9b0b5942de8db28622","freq_resp","img/orange_2bandit_a.png","70","70","test","","","","1","",""
"null","107147","pSARL_v2","pSARL_v2vk3ang3u","615b5d9b0b5942de8db28622","fixation","img/fixation.png","null","","test","","","","","",""
"442.69999980926514","107594","pSARL_v2","pSARL_v2vk3ang3u","615b5d9b0b5942de8db28622","infreq","img/green_2bandit_a2.png","68","68","test","1","7","7","1","",""
"null","107957","pSARL_v2","pSARL_v2vk3ang3u","615b5d9b0b5942de8db28622","infreq_resp","img/green_2bandit_a.png","68","68","test","","","","1","",""
"null","108114","pSARL_v2","pSARL_v2vk3ang3u","615b5d9b0b5942de8db28622","fixation","img/fixation.png","null","","test","","","","","",""
"426","108545","pSARL_v2","pSARL_v2vk3ang3u","615b5d9b0b5942de8db28622","freq","img/orange_2bandit_a2.png","70","70","test","1","8","8","1","",""
"null","108924","pSARL_v2","pSARL_v2vk3ang3u","615b5d9b0b5942de8db28622","freq_resp","img/orange_2bandit_a.png","70","70","test","","","","1","",""
"null","109084","pSARL_v2","pSARL_v2vk3ang3u","615b5d9b0b5942de8db28622","fixation","img/fixation.png","null","","test","","","","","",""
"359.39999985694885","109448","pSARL_v2","pSARL_v2vk3ang3u","615b5d9b0b5942de8db28622","freq","img/orange_2bandit_a2.png","70","70","test","1","9","9","1","",""
"null","109894","pSARL_v2","pSARL_v2vk3ang3u","615b5d9b0b5942de8db28622","freq_resp","img/orange_2bandit_a.png","70","70","test","","","","1","",""
"null","110055","pSARL_v2","pSARL_v2vk3ang3u","615b5d9b0b5942de8db28622","fixation","img/fixation.png","null","","test","","","","","",""
"350.89999985694885","110412","pSARL_v2","pSARL_v2vk3ang3u","615b5d9b0b5942de8db28622","freq","img/orange_2bandit_a2.png","70","70","test","1","10","10","1","",""
"null","110866","pSARL_v2","pSARL_v2vk3ang3u","615b5d9b0b5942de8db28622","freq_resp","img/orange_2bandit_a.png","70","70","test","","","","1","",""
"null","111026","pSARL_v2","pSARL_v2vk3ang3u","615b5d9b0b5942de8db28622","fixation","img/fixation.png","null","","test","","","","","",""
"317.7999999523163","111348","pSARL_v2","pSARL_v2vk3ang3u","615b5d9b0b5942de8db28622","freq","img/orange_2bandit_a2.png","70","70","test","1","11","11","1","",""
"null","111836","pSARL_v2","pSARL_v2vk3ang3u","615b5d9b0b5942de8db28622","freq_resp","img/orange_2bandit_a.png","70","70","test","","","","1","",""
"null","111996","pSARL_v2","pSARL_v2vk3ang3u","615b5d9b0b5942de8db28622","fixation","img/fixation.png","null","","test","","","","","",""
"352.7000000476837","112353","pSARL_v2","pSARL_v2vk3ang3u","615b5d9b0b5942de8db28622","freq","img/orange_2bandit_a2.png","70","70","test","1","12","12","1","",""
"null","112807","pSARL_v2","pSARL_v2vk3ang3u","615b5d9b0b5942de8db28622","freq_resp","img/orange_2bandit_a.png","70","70","test","","","","1","",""
"null","112963","pSARL_v2","pSARL_v2vk3ang3u","615b5d9b0b5942de8db28622","fixation","img/fixation.png","null","","test","","","","","",""
"353.30000019073486","113320","pSARL_v2","pSARL_v2vk3ang3u","615b5d9b0b5942de8db28622","freq","img/orange_2bandit_a2.png","70","70","test","1","13","13","1","",""
"null","113773","pSARL_v2","pSARL_v2vk3ang3u","615b5d9b0b5942de8db28622","freq_resp","img/orange_2bandit_a.png","70","70","test","","","","1","",""
"null","113932","pSARL_v2","pSARL_v2vk3ang3u","615b5d9b0b5942de8db28622","fixation","img/fixation.png","null","","test","","","","","",""
"467","114403","pSARL_v2","pSARL_v2vk3ang3u","615b5d9b0b5942de8db28622","infreq","img/green_2bandit_a2.png","68","68","test","1","14","14","1","",""
"null","114742","pSARL_v2","pSARL_v2vk3ang3u","615b5d9b0b5942de8db28622","infreq_resp","img/green_2bandit_a.png","68","68","test","","","","1","",""
"null","114901","pSARL_v2","pSARL_v2vk3ang3u","615b5d9b0b5942de8db28622","fixation","img/fixation.png","null","","test","","","","","",""
"488","115394","pSARL_v2","pSARL_v2vk3ang3u","615b5d9b0b5942de8db28622","freq","img/orange_2bandit_a2.png","70","70","test","1","15","15","1","",""
"null","115712","pSARL_v2","pSARL_v2vk3ang3u","615b5d9b0b5942de8db28622","freq_resp","img/orange_2bandit_a.png","70","70","test","","","","1","",""
"null","115872","pSARL_v2","pSARL_v2vk3ang3u","615b5d9b0b5942de8db28622","fixation","img/fixation.png","null","","test","","","","","",""
"490.09999990463257","116367","pSARL_v2","pSARL_v2vk3ang3u","615b5d9b0b5942de8db28622","freq","img/orange_2bandit_a2.png","70","70","test","1","16","16","1","",""
"null","116682","pSARL_v2","pSARL_v2vk3ang3u","615b5d9b0b5942de8db28622","freq_resp","img/orange_2bandit_a.png","70","70","test","","","","1","",""
"null","116842","pSARL_v2","pSARL_v2vk3ang3u","615b5d9b0b5942de8db28622","fixation","img/fixation.png","null","","test","","","","","",""
"459.90000009536743","117307","pSARL_v2","pSARL_v2vk3ang3u","615b5d9b0b5942de8db28622","freq","img/orange_2bandit_a2.png","70","70","test","1","17","17","1","",""
"null","117653","pSARL_v2","pSARL_v2vk3ang3u","615b5d9b0b5942de8db28622","freq_resp","img/orange_2bandit_a.png","70","70","test","","","","1","",""
"null","117808","pSARL_v2","pSARL_v2vk3ang3u","615b5d9b0b5942de8db28622","fixation","img/fixation.png","null","","test","","","","","",""
"469.90000009536743","118282","pSARL_v2","pSARL_v2vk3ang3u","615b5d9b0b5942de8db28622","infreq","img/green_2bandit_a2.png","68","68","test","1","18","18","1","",""
"null","118618","pSARL_v2","pSARL_v2vk3ang3u","615b5d9b0b5942de8db28622","infreq_resp","img/green_2bandit_a.png","68","68","test","","","","1","",""
"null","118773","pSARL_v2","pSARL_v2vk3ang3u","615b5d9b0b5942de8db28622","fixation","img/fixation.png","null","","test","","","","","",""
"435","119212","pSARL_v2","pSARL_v2vk3ang3u","615b5d9b0b5942de8db28622","freq","img/orange_2bandit_a2.png","70","70","test","1","19","19","1","",""
"null","119583","pSARL_v2","pSARL_v2vk3ang3u","615b5d9b0b5942de8db28622","freq_resp","img/orange_2bandit_a.png","70","70","test","","","","1","",""
"null","119740","pSARL_v2","pSARL_v2vk3ang3u","615b5d9b0b5942de8db28622","fixation","img/fixation.png","null","","test","","","","","",""
"390.7000000476837","120135","pSARL_v2","pSARL_v2vk3ang3u","615b5d9b0b5942de8db28622","freq","img/orange_2bandit_a2.png","70","70","test","1","20","20","1","",""
"null","120550","pSARL_v2","pSARL_v2vk3ang3u","615b5d9b0b5942de8db28622","freq_resp","img/orange_2bandit_a.png","70","70","test","","","","1","",""
"null","120709","pSARL_v2","pSARL_v2vk3ang3u","615b5d9b0b5942de8db28622","fixation","img/fixation.png","null","","test","","","","","",""
"359.39999985694885","121073","pSARL_v2","pSARL_v2vk3ang3u","615b5d9b0b5942de8db28622","freq","img/orange_2bandit_a2.png","70","70","test","1","21","21","1","",""
"null","121519","pSARL_v2","pSARL_v2vk3ang3u","615b5d9b0b5942de8db28622","freq_resp","img/orange_2bandit_a.png","70","70","test","","","","1","",""
"null","121679","pSARL_v2","pSARL_v2vk3ang3u","615b5d9b0b5942de8db28622","fixation","img/fixation.png","null","","test","","","","","",""
"346.10000014305115","122030","pSARL_v2","pSARL_v2vk3ang3u","615b5d9b0b5942de8db28622","freq","img/orange_2bandit_a2.png","70","70","test","1","22","22","1","",""
"null","122489","pSARL_v2","pSARL_v2vk3ang3u","615b5d9b0b5942de8db28622","freq_resp","img/orange_2bandit_a.png","70","70","test","","","","1","",""
"null","122649","pSARL_v2","pSARL_v2vk3ang3u","615b5d9b0b5942de8db28622","fixation","img/fixation.png","null","","test","","","","","",""
"309.80000019073486","122963","pSARL_v2","pSARL_v2vk3ang3u","615b5d9b0b5942de8db28622","freq","img/orange_2bandit_a2.png","70","70","test","1","23","23","1","",""
"null","123459","pSARL_v2","pSARL_v2vk3ang3u","615b5d9b0b5942de8db28622","freq_resp","img/orange_2bandit_a.png","70","70","test","","","","1","",""
"null","123620","pSARL_v2","pSARL_v2vk3ang3u","615b5d9b0b5942de8db28622","fixation","img/fixation.png","null","","test","","","","","",""
"333","123958","pSARL_v2","pSARL_v2vk3ang3u","615b5d9b0b5942de8db28622","freq","img/orange_2bandit_a2.png","70","70","test","1","24","24","1","",""
"null","124430","pSARL_v2","pSARL_v2vk3ang3u","615b5d9b0b5942de8db28622","freq_resp","img/orange_2bandit_a.png","70","70","test","","","","1","",""
"null","124590","pSARL_v2","pSARL_v2vk3ang3u","615b5d9b0b5942de8db28622","fixation","img/fixation.png","null","","test","","","","","",""
"544.8000001907349","125139","pSARL_v2","pSARL_v2vk3ang3u","615b5d9b0b5942de8db28622","reward","img/slot.png","74","","test","","","","","",""
"null","125899","pSARL_v2","pSARL_v2vk3ang3u","615b5d9b0b5942de8db28622","points","<div class=""verylowPoints""> -6 </div>","null","na","test","","","","1","-6","0"
"null","126709","pSARL_v2","pSARL_v2vk3ang3u","615b5d9b0b5942de8db28622","freq","img/orange_2bandit_a2.png","null","70","test","0","25","25","2","",""
"null","126868","pSARL_v2","pSARL_v2vk3ang3u","615b5d9b0b5942de8db28622","fixation","img/fixation.png","null","","test","","","","","",""
"0.20000004768371582","126872","pSARL_v2","pSARL_v2vk3ang3u","615b5d9b0b5942de8db28622","freq","img/orange_2bandit_a2.png","70","70","test","1","26","26","2","",""
"null","127677","pSARL_v2","pSARL_v2vk3ang3u","615b5d9b0b5942de8db28622","freq_resp","img/orange_2bandit_a.png","70","70","test","","","","2","",""
"null","127833","pSARL_v2","pSARL_v2vk3ang3u","615b5d9b0b5942de8db28622","fixation","img/fixation.png","null","","test","","","","","",""
"391.19999980926514","128229","pSARL_v2","pSARL_v2vk3ang3u","615b5d9b0b5942de8db28622","freq","img/orange_2bandit_a2.png","70","70","test","1","27","27","2","",""
"null","128644","pSARL_v2","pSARL_v2vk3ang3u","615b5d9b0b5942de8db28622","freq_resp","img/orange_2bandit_a.png","70","70","test","","","","2","",""
"null","128799","pSARL_v2","pSARL_v2vk3ang3u","615b5d9b0b5942de8db28622","fixation","img/fixation.png","null","","test","","","","","",""
"333.09999990463257","129137","pSARL_v2","pSARL_v2vk3ang3u","615b5d9b0b5942de8db28622","freq","img/orange_2bandit_a2.png","70","70","test","1","28","28","2","",""
"null","129610","pSARL_v2","pSARL_v2vk3ang3u","615b5d9b0b5942de8db28622","freq_resp","img/orange_2bandit_a.png","70","70","test","","","","2","",""
"null","129770","pSARL_v2","pSARL_v2vk3ang3u","615b5d9b0b5942de8db28622","fixation","img/fixation.png","null","","test","","","","","",""
"531.6999998092651","130306","pSARL_v2","pSARL_v2vk3ang3u","615b5d9b0b5942de8db28622","infreq","img/green_2bandit_a2.png","68","68","test","1","29","29","2","",""
"null","130579","pSARL_v2","pSARL_v2vk3ang3u","615b5d9b0b5942de8db28622","infreq_resp","img/green_2bandit_a.png","68","68","test","","","","2","",""
"null","130740","pSARL_v2","pSARL_v2vk3ang3u","615b5d9b0b5942de8db28622","fixation","img/fixation.png","null","","test","","","","","",""
"656.3000001907349","131401","pSARL_v2","pSARL_v2vk3ang3u","615b5d9b0b5942de8db28622","freq","img/orange_2bandit_a2.png","70","70","test","1","30","30","2","",""
"null","131549","pSARL_v2","pSARL_v2vk3ang3u","615b5d9b0b5942de8db28622","freq_resp","img/orange_2bandit_a.png","70","70","test","","","","2","",""
"null","131704","pSARL_v2","pSARL_v2vk3ang3u","615b5d9b0b5942de8db28622","fixation","img/fixation.png","null","","test","","","","","",""
"580.5","132289","pSARL_v2","pSARL_v2vk3ang3u","615b5d9b0b5942de8db28622","infreq","img/green_2bandit_a2.png","68","68","test","1","31","31","2","",""
"null","132515","pSARL_v2","pSARL_v2vk3ang3u","615b5d9b0b5942de8db28622","infreq_resp","img/green_2bandit_a.png","68","68","test","","","","2","",""
"null","132674","pSARL_v2","pSARL_v2vk3ang3u","615b5d9b0b5942de8db28622","fixation","img/fixation.png","null","","test","","","","","",""
"494.2999999523163","133174","pSARL_v2","pSARL_v2vk3ang3u","615b5d9b0b5942de8db28622","freq","img/orange_2bandit_a2.png","70","70","test","1","32","32","2","",""
"null","133484","pSARL_v2","pSARL_v2vk3ang3u","615b5d9b0b5942de8db28622","freq_resp","img/orange_2bandit_a.png","70","70","test","","","","2","",""
"null","133645","pSARL_v2","pSARL_v2vk3ang3u","615b5d9b0b5942de8db28622","fixation","img/fixation.png","null","","test","","","","","",""
"485.5","134134","pSARL_v2","pSARL_v2vk3ang3u","615b5d9b0b5942de8db28622","freq","img/orange_2bandit_a2.png","70","70","test","1","33","33","2","",""
"null","134454","pSARL_v2","pSARL_v2vk3ang3u","615b5d9b0b5942de8db28622","freq_resp","img/orange_2bandit_a.png","70","70","test","","","","2","",""
"null","134610","pSARL_v2","pSARL_v2vk3ang3u","615b5d9b0b5942de8db28622","fixation","img/fixation.png","null","","test","","","","","",""
"426.7000000476837","135041","pSARL_v2","pSARL_v2vk3ang3u","615b5d9b0b5942de8db28622","freq","img/orange_2bandit_a2.png","70","70","test","1","34","34","2","",""
"null","135420","pSARL_v2","pSARL_v2vk3ang3u","615b5d9b0b5942de8db28622","freq_resp","img/orange_2bandit_a.png","70","70","test","","","","2","",""
"null","135580","pSARL_v2","pSARL_v2vk3ang3u","615b5d9b0b5942de8db28622","fixation","img/fixation.png","null","","test","","","","","",""
"364.2000000476837","135949","pSARL_v2","pSARL_v2vk3ang3u","615b5d9b0b5942de8db28622","freq","img/orange_2bandit_a2.png","70","70","test","1","35","35","2","",""
"null","136390","pSARL_v2","pSARL_v2vk3ang3u","615b5d9b0b5942de8db28622","freq_resp","img/orange_2bandit_a.png","70","70","test","","","","2","",""
"null","136551","pSARL_v2","pSARL_v2vk3ang3u","615b5d9b0b5942de8db28622","fixation","img/fixation.png","null","","test","","","","","",""
"315.59999990463257","136871","pSARL_v2","pSARL_v2vk3ang3u","615b5d9b0b5942de8db28622","freq","img/orange_2bandit_a2.png","70","70","test","1","36","36","2","",""
"null","137361","pSARL_v2","pSARL_v2vk3ang3u","615b5d9b0b5942de8db28622","freq_resp","img/orange_2bandit_a.png","70","70","test","","","","2","",""
"null","137521","pSARL_v2","pSARL_v2vk3ang3u","615b5d9b0b5942de8db28622","fixation","img/fixation.png","null","","test","","","","","",""
"306.19999980926514","137831","pSARL_v2","pSARL_v2vk3ang3u","615b5d9b0b5942de8db28622","freq","img/orange_2bandit_a2.png","70","70","test","1","37","37","2","",""
"null","138330","pSARL_v2","pSARL_v2vk3ang3u","615b5d9b0b5942de8db28622","freq_resp","img/orange_2bandit_a.png","70","70","test","","","","2","",""
"null","138485","pSARL_v2","pSARL_v2vk3ang3u","615b5d9b0b5942de8db28622","fixation","img/fixation.png","null","","test","","","","","",""
"328.2999999523163","138818","pSARL_v2","pSARL_v2vk3ang3u","615b5d9b0b5942de8db28622","freq","img/orange_2bandit_a2.png","70","70","test","1","38","38","2","",""
"null","139296","pSARL_v2","pSARL_v2vk3ang3u","615b5d9b0b5942de8db28622","freq_resp","img/orange_2bandit_a.png","70","70","test","","","","2","",""
"null","139456","pSARL_v2","pSARL_v2vk3ang3u","615b5d9b0b5942de8db28622","fixation","img/fixation.png","null","","test","","","","","",""
"293.5","139753","pSARL_v2","pSARL_v2vk3ang3u","615b5d9b0b5942de8db28622","freq","img/orange_2bandit_a2.png","70","70","test","1","39","39","2","",""
"null","140265","pSARL_v2","pSARL_v2vk3ang3u","615b5d9b0b5942de8db28622","freq_resp","img/orange_2bandit_a.png","70","70","test","","","","2","",""
"null","140426","pSARL_v2","pSARL_v2vk3ang3u","615b5d9b0b5942de8db28622","fixation","img/fixation.png","null","","test","","","","","",""
"296.10000014305115","140726","pSARL_v2","pSARL_v2vk3ang3u","615b5d9b0b5942de8db28622","freq","img/orange_2bandit_a2.png","70","70","test","1","40","40","2","",""
"null","141234","pSARL_v2","pSARL_v2vk3ang3u","615b5d9b0b5942de8db28622","freq_resp","img/orange_2bandit_a.png","70","70","test","","","","2","",""
"null","141394","pSARL_v2","pSARL_v2vk3ang3u","615b5d9b0b5942de8db28622","fixation","img/fixation.png","null","","test","","","","","",""
"355.90000009536743","141755","pSARL_v2","pSARL_v2vk3ang3u","615b5d9b0b5942de8db28622","freq","img/orange_2bandit_a2.png","70","70","test","1","41","41","2","",""
"null","142205","pSARL_v2","pSARL_v2vk3ang3u","615b5d9b0b5942de8db28622","freq_resp","img/orange_2bandit_a.png","70","70","test","","","","2","",""
"null","142361","pSARL_v2","pSARL_v2vk3ang3u","615b5d9b0b5942de8db28622","fixation","img/fixation.png","null","","test","","","","","",""
"320.5","142686","pSARL_v2","pSARL_v2vk3ang3u","615b5d9b0b5942de8db28622","freq","img/orange_2bandit_a2.png","70","70","test","1","42","42","2","",""
"null","143171","pSARL_v2","pSARL_v2vk3ang3u","615b5d9b0b5942de8db28622","freq_resp","img/orange_2bandit_a.png","70","70","test","","","","2","",""
"null","143331","pSARL_v2","pSARL_v2vk3ang3u","615b5d9b0b5942de8db28622","fixation","img/fixation.png","null","","test","","","","","",""
"314.10000014305115","143649","pSARL_v2","pSARL_v2vk3ang3u","615b5d9b0b5942de8db28622","freq","img/orange_2bandit_a2.png","70","70","test","1","43","43","2","",""
"null","144141","pSARL_v2","pSARL_v2vk3ang3u","615b5d9b0b5942de8db28622","freq_resp","img/orange_2bandit_a.png","70","70","test","","","","2","",""
"null","144303","pSARL_v2","pSARL_v2vk3ang3u","615b5d9b0b5942de8db28622","fixation","img/fixation.png","null","","test","","","","","",""
"318.90000009536743","144626","pSARL_v2","pSARL_v2vk3ang3u","615b5d9b0b5942de8db28622","freq","img/orange_2bandit_a2.png","70","70","test","1","44","44","2","",""
"null","145114","pSARL_v2","pSARL_v2vk3ang3u","615b5d9b0b5942de8db28622","freq_resp","img/orange_2bandit_a.png","70","70","test","","","","2","",""
"null","145268","pSARL_v2","pSARL_v2vk3ang3u","615b5d9b0b5942de8db28622","fixation","img/fixation.png","null","","test","","","","","",""
"335.5","145608","pSARL_v2","pSARL_v2vk3ang3u","615b5d9b0b5942de8db28622","freq","img/orange_2bandit_a2.png","70","70","test","1","45","45","2","",""
"null","146077","pSARL_v2","pSARL_v2vk3ang3u","615b5d9b0b5942de8db28622","freq_resp","img/orange_2bandit_a.png","70","70","test","","","","2","",""
"null","146237","pSARL_v2","pSARL_v2vk3ang3u","615b5d9b0b5942de8db28622","fixation","img/fixation.png","null","","test","","","","","",""
"355.90000009536743","146597","pSARL_v2","pSARL_v2vk3ang3u","615b5d9b0b5942de8db28622","freq","img/orange_2bandit_a2.png","70","70","test","1","46","46","2","",""
"null","147046","pSARL_v2","pSARL_v2vk3ang3u","615b5d9b0b5942de8db28622","freq_resp","img/orange_2bandit_a.png","70","70","test","","","","2","",""
"null","147207","pSARL_v2","pSARL_v2vk3ang3u","615b5d9b0b5942de8db28622","fixation","img/fixation.png","null","","test","","","","","",""
"339.7999999523163","147551","pSARL_v2","pSARL_v2vk3ang3u","615b5d9b0b5942de8db28622","freq","img/orange_2bandit_a2.png","70","70","test","1","47","47","2","",""
"null","148017","pSARL_v2","pSARL_v2vk3ang3u","615b5d9b0b5942de8db28622","freq_resp","img/orange_2bandit_a.png","70","70","test","","","","2","",""
"null","148174","pSARL_v2","pSARL_v2vk3ang3u","615b5d9b0b5942de8db28622","fixation","img/fixation.png","null","","test","","","","","",""
"296.60000014305115","148475","pSARL_v2","pSARL_v2vk3ang3u","615b5d9b0b5942de8db28622","freq","img/orange_2bandit_a2.png","70","70","test","1","48","48","2","",""
"null","148984","pSARL_v2","pSARL_v2vk3ang3u","615b5d9b0b5942de8db28622","freq_resp","img/orange_2bandit_a.png","70","70","test","","","","2","",""
"null","149144","pSARL_v2","pSARL_v2vk3ang3u","615b5d9b0b5942de8db28622","fixation","img/fixation.png","null","","test","","","","","",""
"570.2999999523163","149718","pSARL_v2","pSARL_v2vk3ang3u","615b5d9b0b5942de8db28622","reward","img/slot.png","74","","test","","","","","",""
"null","150478","pSARL_v2","pSARL_v2vk3ang3u","615b5d9b0b5942de8db28622","points","<div class=""verylowPoints""> -11 </div>","null","na","test","","","","2","-11","1"
"700.2000000476837","151183","pSARL_v2","pSARL_v2vk3ang3u","615b5d9b0b5942de8db28622","freq","img/orange_2bandit_a2.png","70","70","test","1","49","49","3","",""
"null","151289","pSARL_v2","pSARL_v2vk3ang3u","615b5d9b0b5942de8db28622","freq_resp","img/orange_2bandit_a.png","70","70","test","","","","3","",""
"null","151447","pSARL_v2","pSARL_v2vk3ang3u","615b5d9b0b5942de8db28622","fixation","img/fixation.png","null","","test","","","","","",""
"597.4000000953674","152049","pSARL_v2","pSARL_v2vk3ang3u","615b5d9b0b5942de8db28622","infreq","img/green_2bandit_a2.png","68","68","test","1","50","50","3","",""
"null","152257","pSARL_v2","pSARL_v2vk3ang3u","615b5d9b0b5942de8db28622","infreq_resp","img/green_2bandit_a.png","68","68","test","","","","3","",""
"null","152412","pSARL_v2","pSARL_v2vk3ang3u","615b5d9b0b5942de8db28622","fixation","img/fixation.png","null","","test","","","","","",""
"545.8999998569489","152963","pSARL_v2","pSARL_v2vk3ang3u","615b5d9b0b5942de8db28622","freq","img/orange_2bandit_a2.png","70","70","test","1","51","51","3","",""
"null","153223","pSARL_v2","pSARL_v2vk3ang3u","615b5d9b0b5942de8db28622","freq_resp","img/orange_2bandit_a.png","70","70","test","","","","3","",""
"null","153379","pSARL_v2","pSARL_v2vk3ang3u","615b5d9b0b5942de8db28622","fixation","img/fixation.png","null","","test","","","","","",""
"392.10000014305115","153776","pSARL_v2","pSARL_v2vk3ang3u","615b5d9b0b5942de8db28622","freq","img/orange_2bandit_a2.png","70","70","test","1","52","52","3","",""
"null","154188","pSARL_v2","pSARL_v2vk3ang3u","615b5d9b0b5942de8db28622","freq_resp","img/orange_2bandit_a.png","70","70","test","","","","3","",""
"null","154349","pSARL_v2","pSARL_v2vk3ang3u","615b5d9b0b5942de8db28622","fixation","img/fixation.png","null","","test","","","","","",""
"322.10000014305115","154675","pSARL_v2","pSARL_v2vk3ang3u","615b5d9b0b5942de8db28622","freq","img/orange_2bandit_a2.png","70","70","test","1","53","53","3","",""
"null","155159","pSARL_v2","pSARL_v2vk3ang3u","615b5d9b0b5942de8db28622","freq_resp","img/orange_2bandit_a.png","70","70","test","","","","3","",""
"null","155319","pSARL_v2","pSARL_v2vk3ang3u","615b5d9b0b5942de8db28622","fixation","img/fixation.png","null","","test","","","","","",""
"468.19999980926514","155791","pSARL_v2","pSARL_v2vk3ang3u","615b5d9b0b5942de8db28622","infreq","img/green_2bandit_a2.png","68","68","test","1","54","54","3","",""
"null","156129","pSARL_v2","pSARL_v2vk3ang3u","615b5d9b0b5942de8db28622","infreq_resp","img/green_2bandit_a.png","68","68","test","","","","3","",""
"null","156286","pSARL_v2","pSARL_v2vk3ang3u","615b5d9b0b5942de8db28622","fixation","img/fixation.png","null","","test","","","","","",""
"428.39999985694885","156718","pSARL_v2","pSARL_v2vk3ang3u","615b5d9b0b5942de8db28622","freq","img/orange_2bandit_a2.png","70","70","test","1","55","55","3","",""
"null","157096","pSARL_v2","pSARL_v2vk3ang3u","615b5d9b0b5942de8db28622","freq_resp","img/orange_2bandit_a.png","70","70","test","","","","3","",""
"null","157256","pSARL_v2","pSARL_v2vk3ang3u","615b5d9b0b5942de8db28622","fixation","img/fixation.png","null","","test","","","","","",""
"321.7000000476837","157582","pSARL_v2","pSARL_v2vk3ang3u","615b5d9b0b5942de8db28622","freq","img/orange_2bandit_a2.png","70","70","test","1","56","56","3","",""
"null","158066","pSARL_v2","pSARL_v2vk3ang3u","615b5d9b0b5942de8db28622","freq_resp","img/orange_2bandit_a.png","70","70","test","","","","3","",""
"null","158221","pSARL_v2","pSARL_v2vk3ang3u","615b5d9b0b5942de8db28622","fixation","img/fixation.png","null","","test","","","","","",""
"345.2999999523163","158571","pSARL_v2","pSARL_v2vk3ang3u","615b5d9b0b5942de8db28622","freq","img/orange_2bandit_a2.png","70","70","test","1","57","57","3","",""
"null","159031","pSARL_v2","pSARL_v2vk3ang3u","615b5d9b0b5942de8db28622","freq_resp","img/orange_2bandit_a.png","70","70","test","","","","3","",""
"null","159191","pSARL_v2","pSARL_v2vk3ang3u","615b5d9b0b5942de8db28622","fixation","img/fixation.png","null","","test","","","","","",""
"370.5","159566","pSARL_v2","pSARL_v2vk3ang3u","615b5d9b0b5942de8db28622","freq","img/orange_2bandit_a2.png","70","70","test","1","58","58","3","",""
"null","160001","pSARL_v2","pSARL_v2vk3ang3u","615b5d9b0b5942de8db28622","freq_resp","img/orange_2bandit_a.png","70","70","test","","","","3","",""
"null","160155","pSARL_v2","pSARL_v2vk3ang3u","615b5d9b0b5942de8db28622","fixation","img/fixation.png","null","","test","","","","","",""
"302.40000009536743","160462","pSARL_v2","pSARL_v2vk3ang3u","615b5d9b0b5942de8db28622","freq","img/orange_2bandit_a2.png","70","70","test","1","59","59","3","",""
"null","160964","pSARL_v2","pSARL_v2vk3ang3u","615b5d9b0b5942de8db28622","freq_resp","img/orange_2bandit_a.png","70","70","test","","","","3","",""
"null","161124","pSARL_v2","pSARL_v2vk3ang3u","615b5d9b0b5942de8db28622","fixation","img/fixation.png","null","","test","","","","","",""
"310.89999985694885","161440","pSARL_v2","pSARL_v2vk3ang3u","615b5d9b0b5942de8db28622","freq","img/orange_2bandit_a2.png","70","70","test","1","60","60","3","",""
"null","161935","pSARL_v2","pSARL_v2vk3ang3u","615b5d9b0b5942de8db28622","freq_resp","img/orange_2bandit_a.png","70","70","test","","","","3","",""
"null","162094","pSARL_v2","pSARL_v2vk3ang3u","615b5d9b0b5942de8db28622","fixation","img/fixation.png","null","","test","","","","","",""
"321.2999999523163","162420","pSARL_v2","pSARL_v2vk3ang3u","615b5d9b0b5942de8db28622","freq","img/orange_2bandit_a2.png","70","70","test","1","61","61","3","",""
"null","162905","pSARL_v2","pSARL_v2vk3ang3u","615b5d9b0b5942de8db28622","freq_resp","img/orange_2bandit_a.png","70","70","test","","","","3","",""
"null","163062","pSARL_v2","pSARL_v2vk3ang3u","615b5d9b0b5942de8db28622","fixation","img/fixation.png","null","","test","","","","","",""
"354.2000000476837","163421","pSARL_v2","pSARL_v2vk3ang3u","615b5d9b0b5942de8db28622","freq","img/orange_2bandit_a2.png","70","70","test","1","62","62","3","",""
"null","163871","pSARL_v2","pSARL_v2vk3ang3u","615b5d9b0b5942de8db28622","freq_resp","img/orange_2bandit_a.png","70","70","test","","","","3","",""
"null","164026","pSARL_v2","pSARL_v2vk3ang3u","615b5d9b0b5942de8db28622","fixation","img/fixation.png","null","","test","","","","","",""
"418.40000009536743","164449","pSARL_v2","pSARL_v2vk3ang3u","615b5d9b0b5942de8db28622","freq","img/orange_2bandit_a2.png","70","70","test","1","63","63","3","",""
"null","164840","pSARL_v2","pSARL_v2vk3ang3u","615b5d9b0b5942de8db28622","freq_resp","img/orange_2bandit_a.png","70","70","test","","","","3","",""
"null","164996","pSARL_v2","pSARL_v2vk3ang3u","615b5d9b0b5942de8db28622","fixation","img/fixation.png","null","","test","","","","","",""
"333.39999985694885","165334","pSARL_v2","pSARL_v2vk3ang3u","615b5d9b0b5942de8db28622","freq","img/orange_2bandit_a2.png","70","70","test","1","64","64","3","",""
"null","165807","pSARL_v2","pSARL_v2vk3ang3u","615b5d9b0b5942de8db28622","freq_resp","img/orange_2bandit_a.png","70","70","test","","","","3","",""
"null","165967","pSARL_v2","pSARL_v2vk3ang3u","615b5d9b0b5942de8db28622","fixation","img/fixation.png","null","","test","","","","","",""
"328.7000000476837","166300","pSARL_v2","pSARL_v2vk3ang3u","615b5d9b0b5942de8db28622","freq","img/orange_2bandit_a2.png","70","70","test","1","65","65","3","",""
"null","166777","pSARL_v2","pSARL_v2vk3ang3u","615b5d9b0b5942de8db28622","freq_resp","img/orange_2bandit_a.png","70","70","test","","","","3","",""
"null","166937","pSARL_v2","pSARL_v2vk3ang3u","615b5d9b0b5942de8db28622","fixation","img/fixation.png","null","","test","","","","","",""
"394.2999999523163","167336","pSARL_v2","pSARL_v2vk3ang3u","615b5d9b0b5942de8db28622","freq","img/orange_2bandit_a2.png","70","70","test","1","66","66","3","",""
"null","167747","pSARL_v2","pSARL_v2vk3ang3u","615b5d9b0b5942de8db28622","freq_resp","img/orange_2bandit_a.png","70","70","test","","","","3","",""
"null","167907","pSARL_v2","pSARL_v2vk3ang3u","615b5d9b0b5942de8db28622","fixation","img/fixation.png","null","","test","","","","","",""
"327.10000014305115","168239","pSARL_v2","pSARL_v2vk3ang3u","615b5d9b0b5942de8db28622","freq","img/orange_2bandit_a2.png","70","70","test","1","67","67","3","",""
"null","168718","pSARL_v2","pSARL_v2vk3ang3u","615b5d9b0b5942de8db28622","freq_resp","img/orange_2bandit_a.png","70","70","test","","","","3","",""
"null","168878","pSARL_v2","pSARL_v2vk3ang3u","615b5d9b0b5942de8db28622","fixation","img/fixation.png","null","","test","","","","","",""
"422.2000000476837","169304","pSARL_v2","pSARL_v2vk3ang3u","615b5d9b0b5942de8db28622","reward","img/slot.png","74","","test","","","","","",""
"null","170062","pSARL_v2","pSARL_v2vk3ang3u","615b5d9b0b5942de8db28622","points","<div class=""verylowPoints""> -7 </div>","null","na","test","","","","3","-7","2"
"456.2999999523163","170523","pSARL_v2","pSARL_v2vk3ang3u","615b5d9b0b5942de8db28622","freq","img/orange_2bandit_a2.png","70","70","test","1","68","68","4","",""
"null","170871","pSARL_v2","pSARL_v2vk3ang3u","615b5d9b0b5942de8db28622","freq_resp","img/orange_2bandit_a.png","70","70","test","","","","4","",""
"null","171026","pSARL_v2","pSARL_v2vk3ang3u","615b5d9b0b5942de8db28622","fixation","img/fixation.png","null","","test","","","","","",""
"390.2000000476837","171421","pSARL_v2","pSARL_v2vk3ang3u","615b5d9b0b5942de8db28622","freq","img/orange_2bandit_a2.png","70","70","test","1","69","69","4","",""
"null","171837","pSARL_v2","pSARL_v2vk3ang3u","615b5d9b0b5942de8db28622","freq_resp","img/orange_2bandit_a.png","70","70","test","","","","4","",""
"null","171997","pSARL_v2","pSARL_v2vk3ang3u","615b5d9b0b5942de8db28622","fixation","img/fixation.png","null","","test","","","","","",""
"278.5","172280","pSARL_v2","pSARL_v2vk3ang3u","615b5d9b0b5942de8db28622","freq","img/orange_2bandit_a2.png","70","70","test","1","70","70","4","",""
"null","172807","pSARL_v2","pSARL_v2vk3ang3u","615b5d9b0b5942de8db28622","freq_resp","img/orange_2bandit_a.png","70","70","test","","","","4","",""
"null","172967","pSARL_v2","pSARL_v2vk3ang3u","615b5d9b0b5942de8db28622","fixation","img/fixation.png","null","","test","","","","","",""
"292.5","173264","pSARL_v2","pSARL_v2vk3ang3u","615b5d9b0b5942de8db28622","freq","img/orange_2bandit_a2.png","70","70","test","1","71","71","4","",""
"null","173777","pSARL_v2","pSARL_v2vk3ang3u","615b5d9b0b5942de8db28622","freq_resp","img/orange_2bandit_a.png","70","70","test","","","","4","",""
"null","173937","pSARL_v2","pSARL_v2vk3ang3u","615b5d9b0b5942de8db28622","fixation","img/fixation.png","null","","test","","","","","",""
"301.5","174243","pSARL_v2","pSARL_v2vk3ang3u","615b5d9b0b5942de8db28622","freq","img/orange_2bandit_a2.png","70","70","test","1","72","72","4","",""
"null","174746","pSARL_v2","pSARL_v2vk3ang3u","615b5d9b0b5942de8db28622","freq_resp","img/orange_2bandit_a.png","70","70","test","","","","4","",""
"null","174905","pSARL_v2","pSARL_v2vk3ang3u","615b5d9b0b5942de8db28622","fixation","img/fixation.png","null","","test","","","","","",""
"302.59999990463257","175213","pSARL_v2","pSARL_v2vk3ang3u","615b5d9b0b5942de8db28622","freq","img/orange_2bandit_a2.png","70","70","test","1","73","73","4","",""
"null","175714","pSARL_v2","pSARL_v2vk3ang3u","615b5d9b0b5942de8db28622","freq_resp","img/orange_2bandit_a.png","70","70","test","","","","4","",""
"null","175874","pSARL_v2","pSARL_v2vk3ang3u","615b5d9b0b5942de8db28622","fixation","img/fixation.png","null","","test","","","","","",""
"328.10000014305115","176207","pSARL_v2","pSARL_v2vk3ang3u","615b5d9b0b5942de8db28622","freq","img/orange_2bandit_a2.png","70","70","test","1","74","74","4","",""
"null","176683","pSARL_v2","pSARL_v2vk3ang3u","615b5d9b0b5942de8db28622","freq_resp","img/orange_2bandit_a.png","70","70","test","","","","4","",""
"null","176843","pSARL_v2","pSARL_v2vk3ang3u","615b5d9b0b5942de8db28622","fixation","img/fixation.png","null","","test","","","","","",""
"405.2999999523163","177253","pSARL_v2","pSARL_v2vk3ang3u","615b5d9b0b5942de8db28622","infreq","img/green_2bandit_a2.png","68","68","test","1","75","75","4","",""
"null","177653","pSARL_v2","pSARL_v2vk3ang3u","615b5d9b0b5942de8db28622","infreq_resp","img/green_2bandit_a.png","68","68","test","","","","4","",""
"null","177813","pSARL_v2","pSARL_v2vk3ang3u","615b5d9b0b5942de8db28622","fixation","img/fixation.png","null","","test","","","","","",""
"476.7000000476837","178294","pSARL_v2","pSARL_v2vk3ang3u","615b5d9b0b5942de8db28622","freq","img/orange_2bandit_a2.png","70","70","test","1","76","76","4","",""
"null","178622","pSARL_v2","pSARL_v2vk3ang3u","615b5d9b0b5942de8db28622","freq_resp","img/orange_2bandit_a.png","70","70","test","","","","4","",""
"null","178782","pSARL_v2","pSARL_v2vk3ang3u","615b5d9b0b5942de8db28622","fixation","img/fixation.png","null","","test","","","","","",""
"361.5","179148","pSARL_v2","pSARL_v2vk3ang3u","615b5d9b0b5942de8db28622","freq","img/orange_2bandit_a2.png","70","70","test","1","77","77","4","",""
"null","179592","pSARL_v2","pSARL_v2vk3ang3u","615b5d9b0b5942de8db28622","freq_resp","img/orange_2bandit_a.png","70","70","test","","","","4","",""
"null","179752","pSARL_v2","pSARL_v2vk3ang3u","615b5d9b0b5942de8db28622","fixation","img/fixation.png","null","","test","","","","","",""
"312.90000009536743","180069","pSARL_v2","pSARL_v2vk3ang3u","615b5d9b0b5942de8db28622","infreq","img/green_2bandit_a2.png","70","68","test","0","78","78","4","",""
"null","180561","pSARL_v2","pSARL_v2vk3ang3u","615b5d9b0b5942de8db28622","infreq_resp","img/green_2bandit_a.png","70","68","test","","","","4","",""
"null","180722","pSARL_v2","pSARL_v2vk3ang3u","615b5d9b0b5942de8db28622","fixation","img/fixation.png","null","","test","","","","","",""
"363.7000000476837","181090","pSARL_v2","pSARL_v2vk3ang3u","615b5d9b0b5942de8db28622","freq","img/orange_2bandit_a2.png","70","70","test","1","79","79","4","",""
"null","181531","pSARL_v2","pSARL_v2vk3ang3u","615b5d9b0b5942de8db28622","freq_resp","img/orange_2bandit_a.png","70","70","test","","","","4","",""
"null","181688","pSARL_v2","pSARL_v2vk3ang3u","615b5d9b0b5942de8db28622","fixation","img/fixation.png","null","","test","","","","","",""
"339.5","182032","pSARL_v2","pSARL_v2vk3ang3u","615b5d9b0b5942de8db28622","freq","img/orange_2bandit_a2.png","70","70","test","1","80","80","4","",""
"null","182498","pSARL_v2","pSARL_v2vk3ang3u","615b5d9b0b5942de8db28622","freq_resp","img/orange_2bandit_a.png","70","70","test","","","","4","",""
"null","182655","pSARL_v2","pSARL_v2vk3ang3u","615b5d9b0b5942de8db28622","fixation","img/fixation.png","null","","test","","","","","",""
"347.5","183007","pSARL_v2","pSARL_v2vk3ang3u","615b5d9b0b5942de8db28622","freq","img/orange_2bandit_a2.png","70","70","test","1","81","81","4","",""
"null","183465","pSARL_v2","pSARL_v2vk3ang3u","615b5d9b0b5942de8db28622","freq_resp","img/orange_2bandit_a.png","70","70","test","","","","4","",""
"null","183620","pSARL_v2","pSARL_v2vk3ang3u","615b5d9b0b5942de8db28622","fixation","img/fixation.png","null","","test","","","","","",""
"376.09999990463257","184001","pSARL_v2","pSARL_v2vk3ang3u","615b5d9b0b5942de8db28622","freq","img/orange_2bandit_a2.png","70","70","test","1","82","82","4","",""
"null","184430","pSARL_v2","pSARL_v2vk3ang3u","615b5d9b0b5942de8db28622","freq_resp","img/orange_2bandit_a.png","70","70","test","","","","4","",""
"null","184585","pSARL_v2","pSARL_v2vk3ang3u","615b5d9b0b5942de8db28622","fixation","img/fixation.png","null","","test","","","","","",""
"411.2000000476837","185001","pSARL_v2","pSARL_v2vk3ang3u","615b5d9b0b5942de8db28622","freq","img/orange_2bandit_a2.png","70","70","test","1","83","83","4","",""
"null","185397","pSARL_v2","pSARL_v2vk3ang3u","615b5d9b0b5942de8db28622","freq_resp","img/orange_2bandit_a.png","70","70","test","","","","4","",""
"null","185555","pSARL_v2","pSARL_v2vk3ang3u","615b5d9b0b5942de8db28622","fixation","img/fixation.png","null","","test","","","","","",""
"589.5","186149","pSARL_v2","pSARL_v2vk3ang3u","615b5d9b0b5942de8db28622","freq","img/orange_2bandit_a2.png","70","70","test","1","84","84","4","",""
"null","186365","pSARL_v2","pSARL_v2vk3ang3u","615b5d9b0b5942de8db28622","freq_resp","img/orange_2bandit_a.png","70","70","test","","","","4","",""
"null","186525","pSARL_v2","pSARL_v2vk3ang3u","615b5d9b0b5942de8db28622","fixation","img/fixation.png","null","","test","","","","","",""
"494.09999990463257","187024","pSARL_v2","pSARL_v2vk3ang3u","615b5d9b0b5942de8db28622","freq","img/orange_2bandit_a2.png","70","70","test","1","85","85","4","",""
"null","187334","pSARL_v2","pSARL_v2vk3ang3u","615b5d9b0b5942de8db28622","freq_resp","img/orange_2bandit_a.png","70","70","test","","","","4","",""
"null","187489","pSARL_v2","pSARL_v2vk3ang3u","615b5d9b0b5942de8db28622","fixation","img/fixation.png","null","","test","","","","","",""
"345","187838","pSARL_v2","pSARL_v2vk3ang3u","615b5d9b0b5942de8db28622","freq","img/orange_2bandit_a2.png","70","70","test","1","86","86","4","",""
"null","188299","pSARL_v2","pSARL_v2vk3ang3u","615b5d9b0b5942de8db28622","freq_resp","img/orange_2bandit_a.png","70","70","test","","","","4","",""
"null","188459","pSARL_v2","pSARL_v2vk3ang3u","615b5d9b0b5942de8db28622","fixation","img/fixation.png","null","","test","","","","","",""
"353.2000000476837","188817","pSARL_v2","pSARL_v2vk3ang3u","615b5d9b0b5942de8db28622","freq","img/orange_2bandit_a2.png","70","70","test","1","87","87","4","",""
"null","189270","pSARL_v2","pSARL_v2vk3ang3u","615b5d9b0b5942de8db28622","freq_resp","img/orange_2bandit_a.png","70","70","test","","","","4","",""
"null","189426","pSARL_v2","pSARL_v2vk3ang3u","615b5d9b0b5942de8db28622","fixation","img/fixation.png","null","","test","","","","","",""
"376.59999990463257","189807","pSARL_v2","pSARL_v2vk3ang3u","615b5d9b0b5942de8db28622","freq","img/orange_2bandit_a2.png","70","70","test","1","88","88","4","",""
"null","190236","pSARL_v2","pSARL_v2vk3ang3u","615b5d9b0b5942de8db28622","freq_resp","img/orange_2bandit_a.png","70","70","test","","","","4","",""
"null","190392","pSARL_v2","pSARL_v2vk3ang3u","615b5d9b0b5942de8db28622","fixation","img/fixation.png","null","","test","","","","","",""
"377.5","190774","pSARL_v2","pSARL_v2vk3ang3u","615b5d9b0b5942de8db28622","freq","img/orange_2bandit_a2.png","70","70","test","1","89","89","4","",""
"null","191201","pSARL_v2","pSARL_v2vk3ang3u","615b5d9b0b5942de8db28622","freq_resp","img/orange_2bandit_a.png","70","70","test","","","","4","",""
"null","191361","pSARL_v2","pSARL_v2vk3ang3u","615b5d9b0b5942de8db28622","fixation","img/fixation.png","null","","test","","","","","",""
"428.7999999523163","191794","pSARL_v2","pSARL_v2vk3ang3u","615b5d9b0b5942de8db28622","freq","img/orange_2bandit_a2.png","70","70","test","1","90","90","4","",""
"null","192171","pSARL_v2","pSARL_v2vk3ang3u","615b5d9b0b5942de8db28622","freq_resp","img/orange_2bandit_a.png","70","70","test","","","","4","",""
"null","192328","pSARL_v2","pSARL_v2vk3ang3u","615b5d9b0b5942de8db28622","fixation","img/fixation.png","null","","test","","","","","",""
"499.09999990463257","192831","pSARL_v2","pSARL_v2vk3ang3u","615b5d9b0b5942de8db28622","reward","img/slot.png","74","","test","","","","","",""
"null","193591","pSARL_v2","pSARL_v2vk3ang3u","615b5d9b0b5942de8db28622","points","<div class=""verylowPoints""> -3 </div>","null","na","test","","","","4","-3","3"
"392.40000009536743","193988","pSARL_v2","pSARL_v2vk3ang3u","615b5d9b0b5942de8db28622","freq","img/orange_2bandit_a2.png","70","70","test","1","91","91","5","",""
"null","194401","pSARL_v2","pSARL_v2vk3ang3u","615b5d9b0b5942de8db28622","freq_resp","img/orange_2bandit_a.png","70","70","test","","","","5","",""
"null","194561","pSARL_v2","pSARL_v2vk3ang3u","615b5d9b0b5942de8db28622","fixation","img/fixation.png","null","","test","","","","","",""
"379.40000009536743","194945","pSARL_v2","pSARL_v2vk3ang3u","615b5d9b0b5942de8db28622","freq","img/orange_2bandit_a2.png","70","70","test","1","92","92","5","",""
"null","195372","pSARL_v2","pSARL_v2vk3ang3u","615b5d9b0b5942de8db28622","freq_resp","img/orange_2bandit_a.png","70","70","test","","","","5","",""
"null","195531","pSARL_v2","pSARL_v2vk3ang3u","615b5d9b0b5942de8db28622","fixation","img/fixation.png","null","","test","","","","","",""
"402.2000000476837","195938","pSARL_v2","pSARL_v2vk3ang3u","615b5d9b0b5942de8db28622","freq","img/orange_2bandit_a2.png","70","70","test","1","93","93","5","",""
"null","196341","pSARL_v2","pSARL_v2vk3ang3u","615b5d9b0b5942de8db28622","freq_resp","img/orange_2bandit_a.png","70","70","test","","","","5","",""
"null","196499","pSARL_v2","pSARL_v2vk3ang3u","615b5d9b0b5942de8db28622","fixation","img/fixation.png","null","","test","","","","","",""
"359.60000014305115","196863","pSARL_v2","pSARL_v2vk3ang3u","615b5d9b0b5942de8db28622","freq","img/orange_2bandit_a2.png","70","70","test","1","94","94","5","",""
"null","197310","pSARL_v2","pSARL_v2vk3ang3u","615b5d9b0b5942de8db28622","freq_resp","img/orange_2bandit_a.png","70","70","test","","","","5","",""
"null","197470","pSARL_v2","pSARL_v2vk3ang3u","615b5d9b0b5942de8db28622","fixation","img/fixation.png","null","","test","","","","","",""
"321","197795","pSARL_v2","pSARL_v2vk3ang3u","615b5d9b0b5942de8db28622","freq","img/orange_2bandit_a2.png","70","70","test","1","95","95","5","",""
"null","198280","pSARL_v2","pSARL_v2vk3ang3u","615b5d9b0b5942de8db28622","freq_resp","img/orange_2bandit_a.png","70","70","test","","","","5","",""
"null","198442","pSARL_v2","pSARL_v2vk3ang3u","615b5d9b0b5942de8db28622","fixation","img/fixation.png","null","","test","","","","","",""
"307.90000009536743","198754","pSARL_v2","pSARL_v2vk3ang3u","615b5d9b0b5942de8db28622","freq","img/orange_2bandit_a2.png","70","70","test","1","96","96","5","",""
"null","199252","pSARL_v2","pSARL_v2vk3ang3u","615b5d9b0b5942de8db28622","freq_resp","img/orange_2bandit_a.png","70","70","test","","","","5","",""
"null","199412","pSARL_v2","pSARL_v2vk3ang3u","615b5d9b0b5942de8db28622","fixation","img/fixation.png","null","","test","","","","","",""
"324","199741","pSARL_v2","pSARL_v2vk3ang3u","615b5d9b0b5942de8db28622","freq","img/orange_2bandit_a2.png","70","70","test","1","97","97","5","",""
"null","200222","pSARL_v2","pSARL_v2vk3ang3u","615b5d9b0b5942de8db28622","freq_resp","img/orange_2bandit_a.png","70","70","test","","","","5","",""
"null","200382","pSARL_v2","pSARL_v2vk3ang3u","615b5d9b0b5942de8db28622","fixation","img/fixation.png","null","","test","","","","","",""
"407","200793","pSARL_v2","pSARL_v2vk3ang3u","615b5d9b0b5942de8db28622","infreq","img/green_2bandit_a2.png","68","68","test","1","98","98","5","",""
"null","201192","pSARL_v2","pSARL_v2vk3ang3u","615b5d9b0b5942de8db28622","infreq_resp","img/green_2bandit_a.png","68","68","test","","","","5","",""
"null","201353","pSARL_v2","pSARL_v2vk3ang3u","615b5d9b0b5942de8db28622","fixation","img/fixation.png","null","","test","","","","","",""
"340.89999985694885","201698","pSARL_v2","pSARL_v2vk3ang3u","615b5d9b0b5942de8db28622","freq","img/orange_2bandit_a2.png","70","70","test","1","99","99","5","",""
"null","202163","pSARL_v2","pSARL_v2vk3ang3u","615b5d9b0b5942de8db28622","freq_resp","img/orange_2bandit_a.png","70","70","test","","","","5","",""
"null","202319","pSARL_v2","pSARL_v2vk3ang3u","615b5d9b0b5942de8db28622","fixation","img/fixation.png","null","","test","","","","","",""
"331.2000000476837","202654","pSARL_v2","pSARL_v2vk3ang3u","615b5d9b0b5942de8db28622","freq","img/orange_2bandit_a2.png","70","70","test","1","100","100","5","",""
"null","203128","pSARL_v2","pSARL_v2vk3ang3u","615b5d9b0b5942de8db28622","freq_resp","img/orange_2bandit_a.png","70","70","test","","","","5","",""
"null","203287","pSARL_v2","pSARL_v2vk3ang3u","615b5d9b0b5942de8db28622","fixation","img/fixation.png","null","","test","","","","","",""
"288.19999980926514","203580","pSARL_v2","pSARL_v2vk3ang3u","615b5d9b0b5942de8db28622","freq","img/orange_2bandit_a2.png","70","70","test","1","101","101","5","",""
"null","204096","pSARL_v2","pSARL_v2vk3ang3u","615b5d9b0b5942de8db28622","freq_resp","img/orange_2bandit_a.png","70","70","test","","","","5","",""
"null","204254","pSARL_v2","pSARL_v2vk3ang3u","615b5d9b0b5942de8db28622","fixation","img/fixation.png","null","","test","","","","","",""
"317.19999980926514","204576","pSARL_v2","pSARL_v2vk3ang3u","615b5d9b0b5942de8db28622","freq","img/orange_2bandit_a2.png","70","70","test","1","102","102","5","",""
"null","205065","pSARL_v2","pSARL_v2vk3ang3u","615b5d9b0b5942de8db28622","freq_resp","img/orange_2bandit_a.png","70","70","test","","","","5","",""
"null","205222","pSARL_v2","pSARL_v2vk3ang3u","615b5d9b0b5942de8db28622","fixation","img/fixation.png","null","","test","","","","","",""
"373.2999999523163","205600","pSARL_v2","pSARL_v2vk3ang3u","615b5d9b0b5942de8db28622","freq","img/orange_2bandit_a2.png","70","70","test","1","103","103","5","",""
"null","206032","pSARL_v2","pSARL_v2vk3ang3u","615b5d9b0b5942de8db28622","freq_resp","img/orange_2bandit_a.png","70","70","test","","","","5","",""
"null","206192","pSARL_v2","pSARL_v2vk3ang3u","615b5d9b0b5942de8db28622","fixation","img/fixation.png","null","","test","","","","","",""
"338.2999999523163","206535","pSARL_v2","pSARL_v2vk3ang3u","615b5d9b0b5942de8db28622","freq","img/orange_2bandit_a2.png","70","70","test","1","104","104","5","",""
"null","207002","pSARL_v2","pSARL_v2vk3ang3u","615b5d9b0b5942de8db28622","freq_resp","img/orange_2bandit_a.png","70","70","test","","","","5","",""
"null","207162","pSARL_v2","pSARL_v2vk3ang3u","615b5d9b0b5942de8db28622","fixation","img/fixation.png","null","","test","","","","","",""
"312.2999999523163","207478","pSARL_v2","pSARL_v2vk3ang3u","615b5d9b0b5942de8db28622","freq","img/orange_2bandit_a2.png","70","70","test","1","105","105","5","",""
"null","207972","pSARL_v2","pSARL_v2vk3ang3u","615b5d9b0b5942de8db28622","freq_resp","img/orange_2bandit_a.png","70","70","test","","","","5","",""
"null","208130","pSARL_v2","pSARL_v2vk3ang3u","615b5d9b0b5942de8db28622","fixation","img/fixation.png","null","","test","","","","","",""
"305.2000000476837","208439","pSARL_v2","pSARL_v2vk3ang3u","615b5d9b0b5942de8db28622","freq","img/orange_2bandit_a2.png","70","70","test","1","106","106","5","",""
"null","208940","pSARL_v2","pSARL_v2vk3ang3u","615b5d9b0b5942de8db28622","freq_resp","img/orange_2bandit_a.png","70","70","test","","","","5","",""
"null","209098","pSARL_v2","pSARL_v2vk3ang3u","615b5d9b0b5942de8db28622","fixation","img/fixation.png","null","","test","","","","","",""
"328.59999990463257","209431","pSARL_v2","pSARL_v2vk3ang3u","615b5d9b0b5942de8db28622","freq","img/orange_2bandit_a2.png","70","70","test","1","107","107","5","",""
"null","209908","pSARL_v2","pSARL_v2vk3ang3u","615b5d9b0b5942de8db28622","freq_resp","img/orange_2bandit_a.png","70","70","test","","","","5","",""
"null","210068","pSARL_v2","pSARL_v2vk3ang3u","615b5d9b0b5942de8db28622","fixation","img/fixation.png","null","","test","","","","","",""
"298.19999980926514","210371","pSARL_v2","pSARL_v2vk3ang3u","615b5d9b0b5942de8db28622","freq","img/orange_2bandit_a2.png","70","70","test","1","108","108","5","",""
"null","210877","pSARL_v2","pSARL_v2vk3ang3u","615b5d9b0b5942de8db28622","freq_resp","img/orange_2bandit_a.png","70","70","test","","","","5","",""
"null","211034","pSARL_v2","pSARL_v2vk3ang3u","615b5d9b0b5942de8db28622","fixation","img/fixation.png","null","","test","","","","","",""
"266.2999999523163","211305","pSARL_v2","pSARL_v2vk3ang3u","615b5d9b0b5942de8db28622","freq","img/orange_2bandit_a2.png","70","70","test","1","109","109","5","",""
"null","211844","pSARL_v2","pSARL_v2vk3ang3u","615b5d9b0b5942de8db28622","freq_resp","img/orange_2bandit_a.png","70","70","test","","","","5","",""
"null","212001","pSARL_v2","pSARL_v2vk3ang3u","615b5d9b0b5942de8db28622","fixation","img/fixation.png","null","","test","","","","","",""
"406.40000009536743","212412","pSARL_v2","pSARL_v2vk3ang3u","615b5d9b0b5942de8db28622","infreq","img/green_2bandit_a2.png","68","68","test","1","110","110","5","",""
"null","212810","pSARL_v2","pSARL_v2vk3ang3u","615b5d9b0b5942de8db28622","infreq_resp","img/green_2bandit_a.png","68","68","test","","","","5","",""
"null","212966","pSARL_v2","pSARL_v2vk3ang3u","615b5d9b0b5942de8db28622","fixation","img/fixation.png","null","","test","","","","","",""
"414.7999999523163","213385","pSARL_v2","pSARL_v2vk3ang3u","615b5d9b0b5942de8db28622","freq","img/orange_2bandit_a2.png","70","70","test","1","111","111","5","",""
"null","213776","pSARL_v2","pSARL_v2vk3ang3u","615b5d9b0b5942de8db28622","freq_resp","img/orange_2bandit_a.png","70","70","test","","","","5","",""
"null","213936","pSARL_v2","pSARL_v2vk3ang3u","615b5d9b0b5942de8db28622","fixation","img/fixation.png","null","","test","","","","","",""
"342.10000014305115","214283","pSARL_v2","pSARL_v2vk3ang3u","615b5d9b0b5942de8db28622","freq","img/orange_2bandit_a2.png","70","70","test","1","112","112","5","",""
"null","214745","pSARL_v2","pSARL_v2vk3ang3u","615b5d9b0b5942de8db28622","freq_resp","img/orange_2bandit_a.png","70","70","test","","","","5","",""
"null","214901","pSARL_v2","pSARL_v2vk3ang3u","615b5d9b0b5942de8db28622","fixation","img/fixation.png","null","","test","","","","","",""
"650.0999999046326","215555","pSARL_v2","pSARL_v2vk3ang3u","615b5d9b0b5942de8db28622","reward","img/slot.png","74","","test","","","","","",""
"null","216311","pSARL_v2","pSARL_v2vk3ang3u","615b5d9b0b5942de8db28622","points","<div class=""veryhighPoints""> +1 </div>","null","na","test","","","","5","1","4"
"446.39999985694885","216761","pSARL_v2","pSARL_v2vk3ang3u","615b5d9b0b5942de8db28622","freq","img/orange_2bandit_a2.png","70","70","test","1","113","113","6","",""
"null","217120","pSARL_v2","pSARL_v2vk3ang3u","615b5d9b0b5942de8db28622","freq_resp","img/orange_2bandit_a.png","70","70","test","","","","6","",""
"null","217277","pSARL_v2","pSARL_v2vk3ang3u","615b5d9b0b5942de8db28622","fixation","img/fixation.png","null","","test","","","","","",""
"376.39999985694885","217658","pSARL_v2","pSARL_v2vk3ang3u","615b5d9b0b5942de8db28622","freq","img/orange_2bandit_a2.png","70","70","test","1","114","114","6","",""
"null","218087","pSARL_v2","pSARL_v2vk3ang3u","615b5d9b0b5942de8db28622","freq_resp","img/orange_2bandit_a.png","70","70","test","","","","6","",""
"null","218245","pSARL_v2","pSARL_v2vk3ang3u","615b5d9b0b5942de8db28622","fixation","img/fixation.png","null","","test","","","","","",""
"347.59999990463257","218598","pSARL_v2","pSARL_v2vk3ang3u","615b5d9b0b5942de8db28622","freq","img/orange_2bandit_a2.png","70","70","test","1","115","115","6","",""
"null","219055","pSARL_v2","pSARL_v2vk3ang3u","615b5d9b0b5942de8db28622","freq_resp","img/orange_2bandit_a.png","70","70","test","","","","6","",""
"null","219216","pSARL_v2","pSARL_v2vk3ang3u","615b5d9b0b5942de8db28622","fixation","img/fixation.png","null","","test","","","","","",""
"328.7000000476837","219549","pSARL_v2","pSARL_v2vk3ang3u","615b5d9b0b5942de8db28622","freq","img/orange_2bandit_a2.png","70","70","test","1","116","116","6","",""
"null","220025","pSARL_v2","pSARL_v2vk3ang3u","615b5d9b0b5942de8db28622","freq_resp","img/orange_2bandit_a.png","70","70","test","","","","6","",""
"null","220182","pSARL_v2","pSARL_v2vk3ang3u","615b5d9b0b5942de8db28622","fixation","img/fixation.png","null","","test","","","","","",""
"352.5","220539","pSARL_v2","pSARL_v2vk3ang3u","615b5d9b0b5942de8db28622","freq","img/orange_2bandit_a2.png","70","70","test","1","117","117","6","",""
"null","220993","pSARL_v2","pSARL_v2vk3ang3u","615b5d9b0b5942de8db28622","freq_resp","img/orange_2bandit_a.png","70","70","test","","","","6","",""
"null","221153","pSARL_v2","pSARL_v2vk3ang3u","615b5d9b0b5942de8db28622","fixation","img/fixation.png","null","","test","","","","","",""
"318.7999999523163","221476","pSARL_v2","pSARL_v2vk3ang3u","615b5d9b0b5942de8db28622","freq","img/orange_2bandit_a2.png","70","70","test","1","118","118","6","",""
"null","221964","pSARL_v2","pSARL_v2vk3ang3u","615b5d9b0b5942de8db28622","freq_resp","img/orange_2bandit_a.png","70","70","test","","","","6","",""
"null","222124","pSARL_v2","pSARL_v2vk3ang3u","615b5d9b0b5942de8db28622","fixation","img/fixation.png","null","","test","","","","","",""
"296.7999999523163","222425","pSARL_v2","pSARL_v2vk3ang3u","615b5d9b0b5942de8db28622","freq","img/orange_2bandit_a2.png","70","70","test","1","119","119","6","",""
"null","222934","pSARL_v2","pSARL_v2vk3ang3u","615b5d9b0b5942de8db28622","freq_resp","img/orange_2bandit_a.png","70","70","test","","","","6","",""
"null","223094","pSARL_v2","pSARL_v2vk3ang3u","615b5d9b0b5942de8db28622","fixation","img/fixation.png","null","","test","","","","","",""
"287.5","223386","pSARL_v2","pSARL_v2vk3ang3u","615b5d9b0b5942de8db28622","freq","img/orange_2bandit_a2.png","70","70","test","1","120","120","6","",""
"null","223904","pSARL_v2","pSARL_v2vk3ang3u","615b5d9b0b5942de8db28622","freq_resp","img/orange_2bandit_a.png","70","70","test","","","","6","",""
"null","224063","pSARL_v2","pSARL_v2vk3ang3u","615b5d9b0b5942de8db28622","fixation","img/fixation.png","null","","test","","","","","",""
"296.30000019073486","224364","pSARL_v2","pSARL_v2vk3ang3u","615b5d9b0b5942de8db28622","freq","img/orange_2bandit_a2.png","70","70","test","1","121","121","6","",""
"null","224873","pSARL_v2","pSARL_v2vk3ang3u","615b5d9b0b5942de8db28622","freq_resp","img/orange_2bandit_a.png","70","70","test","","","","6","",""
"null","225028","pSARL_v2","pSARL_v2vk3ang3u","615b5d9b0b5942de8db28622","fixation","img/fixation.png","null","","test","","","","","",""
"308.2999999523163","225343","pSARL_v2","pSARL_v2vk3ang3u","615b5d9b0b5942de8db28622","freq","img/orange_2bandit_a2.png","70","70","test","1","122","122","6","",""
"null","225841","pSARL_v2","pSARL_v2vk3ang3u","615b5d9b0b5942de8db28622","freq_resp","img/orange_2bandit_a.png","70","70","test","","","","6","",""
"null","226001","pSARL_v2","pSARL_v2vk3ang3u","615b5d9b0b5942de8db28622","fixation","img/fixation.png","null","","test","","","","","",""
"305.2999999523163","226313","pSARL_v2","pSARL_v2vk3ang3u","615b5d9b0b5942de8db28622","freq","img/orange_2bandit_a2.png","70","70","test","1","123","123","6","",""
"null","226812","pSARL_v2","pSARL_v2vk3ang3u","615b5d9b0b5942de8db28622","freq_resp","img/orange_2bandit_a.png","70","70","test","","","","6","",""
"null","226972","pSARL_v2","pSARL_v2vk3ang3u","615b5d9b0b5942de8db28622","fixation","img/fixation.png","null","","test","","","","","",""
"349.09999990463257","227326","pSARL_v2","pSARL_v2vk3ang3u","615b5d9b0b5942de8db28622","freq","img/orange_2bandit_a2.png","70","70","test","1","124","124","6","",""
"null","227781","pSARL_v2","pSARL_v2vk3ang3u","615b5d9b0b5942de8db28622","freq_resp","img/orange_2bandit_a.png","70","70","test","","","","6","",""
"null","227941","pSARL_v2","pSARL_v2vk3ang3u","615b5d9b0b5942de8db28622","fixation","img/fixation.png","null","","test","","","","","",""
"320.5","228266","pSARL_v2","pSARL_v2vk3ang3u","615b5d9b0b5942de8db28622","freq","img/orange_2bandit_a2.png","70","70","test","1","125","125","6","",""
"null","228751","pSARL_v2","pSARL_v2vk3ang3u","615b5d9b0b5942de8db28622","freq_resp","img/orange_2bandit_a.png","70","70","test","","","","6","",""
"null","228911","pSARL_v2","pSARL_v2vk3ang3u","615b5d9b0b5942de8db28622","fixation","img/fixation.png","null","","test","","","","","",""
"499.39999985694885","229415","pSARL_v2","pSARL_v2vk3ang3u","615b5d9b0b5942de8db28622","infreq","img/green_2bandit_a2.png","68","68","test","1","126","126","6","",""
"null","229720","pSARL_v2","pSARL_v2vk3ang3u","615b5d9b0b5942de8db28622","infreq_resp","img/green_2bandit_a.png","68","68","test","","","","6","",""
"null","229881","pSARL_v2","pSARL_v2vk3ang3u","615b5d9b0b5942de8db28622","fixation","img/fixation.png","null","","test","","","","","",""
"424.60000014305115","230310","pSARL_v2","pSARL_v2vk3ang3u","615b5d9b0b5942de8db28622","freq","img/orange_2bandit_a2.png","70","70","test","1","127","127","6","",""
"null","230691","pSARL_v2","pSARL_v2vk3ang3u","615b5d9b0b5942de8db28622","freq_resp","img/orange_2bandit_a.png","70","70","test","","","","6","",""
"null","230848","pSARL_v2","pSARL_v2vk3ang3u","615b5d9b0b5942de8db28622","fixation","img/fixation.png","null","","test","","","","","",""
"495","231348","pSARL_v2","pSARL_v2vk3ang3u","615b5d9b0b5942de8db28622","infreq","img/green_2bandit_a2.png","68","68","test","1","128","128","6","",""
"null","231658","pSARL_v2","pSARL_v2vk3ang3u","615b5d9b0b5942de8db28622","infreq_resp","img/green_2bandit_a.png","68","68","test","","","","6","",""
"null","231814","pSARL_v2","pSARL_v2vk3ang3u","615b5d9b0b5942de8db28622","fixation","img/fixation.png","null","","test","","","","","",""
"344.7999999523163","232164","pSARL_v2","pSARL_v2vk3ang3u","615b5d9b0b5942de8db28622","freq","img/orange_2bandit_a2.png","70","70","test","1","129","129","6","",""
"null","232624","pSARL_v2","pSARL_v2vk3ang3u","615b5d9b0b5942de8db28622","freq_resp","img/orange_2bandit_a.png","70","70","test","","","","6","",""
"null","232785","pSARL_v2","pSARL_v2vk3ang3u","615b5d9b0b5942de8db28622","fixation","img/fixation.png","null","","test","","","","","",""
"538.6000001430511","233328","pSARL_v2","pSARL_v2vk3ang3u","615b5d9b0b5942de8db28622","infreq","img/green_2bandit_a2.png","68","68","test","1","130","130","6","",""
"null","233593","pSARL_v2","pSARL_v2vk3ang3u","615b5d9b0b5942de8db28622","infreq_resp","img/green_2bandit_a.png","68","68","test","","","","6","",""
"null","233747","pSARL_v2","pSARL_v2vk3ang3u","615b5d9b0b5942de8db28622","fixation","img/fixation.png","null","","test","","","","","",""
"359.5","234111","pSARL_v2","pSARL_v2vk3ang3u","615b5d9b0b5942de8db28622","freq","img/orange_2bandit_a2.png","70","70","test","1","131","131","6","",""
"null","234557","pSARL_v2","pSARL_v2vk3ang3u","615b5d9b0b5942de8db28622","freq_resp","img/orange_2bandit_a.png","70","70","test","","","","6","",""
"null","234718","pSARL_v2","pSARL_v2vk3ang3u","615b5d9b0b5942de8db28622","fixation","img/fixation.png","null","","test","","","","","",""
"323.09999990463257","235046","pSARL_v2","pSARL_v2vk3ang3u","615b5d9b0b5942de8db28622","freq","img/orange_2bandit_a2.png","70","70","test","1","132","132","6","",""
"null","235529","pSARL_v2","pSARL_v2vk3ang3u","615b5d9b0b5942de8db28622","freq_resp","img/orange_2bandit_a.png","70","70","test","","","","6","",""
"null","235689","pSARL_v2","pSARL_v2vk3ang3u","615b5d9b0b5942de8db28622","fixation","img/fixation.png","null","","test","","","","","",""
"301.10000014305115","235994","pSARL_v2","pSARL_v2vk3ang3u","615b5d9b0b5942de8db28622","freq","img/orange_2bandit_a2.png","70","70","test","1","133","133","6","",""
"null","236499","pSARL_v2","pSARL_v2vk3ang3u","615b5d9b0b5942de8db28622","freq_resp","img/orange_2bandit_a.png","70","70","test","","","","6","",""
"null","236659","pSARL_v2","pSARL_v2vk3ang3u","615b5d9b0b5942de8db28622","fixation","img/fixation.png","null","","test","","","","","",""
"312.59999990463257","236976","pSARL_v2","pSARL_v2vk3ang3u","615b5d9b0b5942de8db28622","freq","img/orange_2bandit_a2.png","70","70","test","1","134","134","6","",""
"null","237470","pSARL_v2","pSARL_v2vk3ang3u","615b5d9b0b5942de8db28622","freq_resp","img/orange_2bandit_a.png","70","70","test","","","","6","",""
"null","237631","pSARL_v2","pSARL_v2vk3ang3u","615b5d9b0b5942de8db28622","fixation","img/fixation.png","null","","test","","","","","",""
"324.90000009536743","237960","pSARL_v2","pSARL_v2vk3ang3u","615b5d9b0b5942de8db28622","freq","img/orange_2bandit_a2.png","70","70","test","1","135","135","6","",""
"null","238441","pSARL_v2","pSARL_v2vk3ang3u","615b5d9b0b5942de8db28622","freq_resp","img/orange_2bandit_a.png","70","70","test","","","","6","",""
"null","238601","pSARL_v2","pSARL_v2vk3ang3u","615b5d9b0b5942de8db28622","fixation","img/fixation.png","null","","test","","","","","",""
"315.7999999523163","238921","pSARL_v2","pSARL_v2vk3ang3u","615b5d9b0b5942de8db28622","freq","img/orange_2bandit_a2.png","70","70","test","1","136","136","6","",""
"null","239411","pSARL_v2","pSARL_v2vk3ang3u","615b5d9b0b5942de8db28622","freq_resp","img/orange_2bandit_a.png","70","70","test","","","","6","",""
"null","239571","pSARL_v2","pSARL_v2vk3ang3u","615b5d9b0b5942de8db28622","fixation","img/fixation.png","null","","test","","","","","",""
"296.40000009536743","239872","pSARL_v2","pSARL_v2vk3ang3u","615b5d9b0b5942de8db28622","freq","img/orange_2bandit_a2.png","70","70","test","1","137","137","6","",""
"null","240381","pSARL_v2","pSARL_v2vk3ang3u","615b5d9b0b5942de8db28622","freq_resp","img/orange_2bandit_a.png","70","70","test","","","","6","",""
"null","240539","pSARL_v2","pSARL_v2vk3ang3u","615b5d9b0b5942de8db28622","fixation","img/fixation.png","null","","test","","","","","",""
"298.7999999523163","240842","pSARL_v2","pSARL_v2vk3ang3u","615b5d9b0b5942de8db28622","freq","img/orange_2bandit_a2.png","70","70","test","1","138","138","6","",""
"null","241349","pSARL_v2","pSARL_v2vk3ang3u","615b5d9b0b5942de8db28622","freq_resp","img/orange_2bandit_a.png","70","70","test","","","","6","",""
"null","241506","pSARL_v2","pSARL_v2vk3ang3u","615b5d9b0b5942de8db28622","fixation","img/fixation.png","null","","test","","","","","",""
"567.7999999523163","242079","pSARL_v2","pSARL_v2vk3ang3u","615b5d9b0b5942de8db28622","reward","img/slot.png","74","","test","","","","","",""
"null","242836","pSARL_v2","pSARL_v2vk3ang3u","615b5d9b0b5942de8db28622","points","<div class=""verylowPoints""> -7 </div>","null","na","test","","","","6","-7","5"
"365.39999985694885","243206","pSARL_v2","pSARL_v2vk3ang3u","615b5d9b0b5942de8db28622","freq","img/orange_2bandit_a2.png","70","70","test","1","139","139","7","",""
"null","243647","pSARL_v2","pSARL_v2vk3ang3u","615b5d9b0b5942de8db28622","freq_resp","img/orange_2bandit_a.png","70","70","test","","","","7","",""
"null","243802","pSARL_v2","pSARL_v2vk3ang3u","615b5d9b0b5942de8db28622","fixation","img/fixation.png","null","","test","","","","","",""
"296.2000000476837","244112","pSARL_v2","pSARL_v2vk3ang3u","615b5d9b0b5942de8db28622","freq","img/orange_2bandit_a2.png","70","70","test","1","140","140","7","",""
"null","244623","pSARL_v2","pSARL_v2vk3ang3u","615b5d9b0b5942de8db28622","freq_resp","img/orange_2bandit_a.png","70","70","test","","","","7","",""
"null","244783","pSARL_v2","pSARL_v2vk3ang3u","615b5d9b0b5942de8db28622","fixation","img/fixation.png","null","","test","","","","","",""
"322.5","245110","pSARL_v2","pSARL_v2vk3ang3u","615b5d9b0b5942de8db28622","freq","img/orange_2bandit_a2.png","70","70","test","1","141","141","7","",""
"null","245593","pSARL_v2","pSARL_v2vk3ang3u","615b5d9b0b5942de8db28622","freq_resp","img/orange_2bandit_a.png","70","70","test","","","","7","",""
"null","245753","pSARL_v2","pSARL_v2vk3ang3u","615b5d9b0b5942de8db28622","fixation","img/fixation.png","null","","test","","","","","",""
"249.20000004768372","246007","pSARL_v2","pSARL_v2vk3ang3u","615b5d9b0b5942de8db28622","freq","img/orange_2bandit_a2.png","70","70","test","1","142","142","7","",""
"null","246563","pSARL_v2","pSARL_v2vk3ang3u","615b5d9b0b5942de8db28622","freq_resp","img/orange_2bandit_a.png","70","70","test","","","","7","",""
"null","246723","pSARL_v2","pSARL_v2vk3ang3u","615b5d9b0b5942de8db28622","fixation","img/fixation.png","null","","test","","","","","",""
"278.7999999523163","247007","pSARL_v2","pSARL_v2vk3ang3u","615b5d9b0b5942de8db28622","freq","img/orange_2bandit_a2.png","70","70","test","1","143","143","7","",""
"null","247533","pSARL_v2","pSARL_v2vk3ang3u","615b5d9b0b5942de8db28622","freq_resp","img/orange_2bandit_a.png","70","70","test","","","","7","",""
"null","247693","pSARL_v2","pSARL_v2vk3ang3u","615b5d9b0b5942de8db28622","fixation","img/fixation.png","null","","test","","","","","",""
"292.7999999523163","247991","pSARL_v2","pSARL_v2vk3ang3u","615b5d9b0b5942de8db28622","freq","img/orange_2bandit_a2.png","70","70","test","1","144","144","7","",""
"null","248503","pSARL_v2","pSARL_v2vk3ang3u","615b5d9b0b5942de8db28622","freq_resp","img/orange_2bandit_a.png","70","70","test","","","","7","",""
"null","248663","pSARL_v2","pSARL_v2vk3ang3u","615b5d9b0b5942de8db28622","fixation","img/fixation.png","null","","test","","","","","",""
"218.5","248886","pSARL_v2","pSARL_v2vk3ang3u","615b5d9b0b5942de8db28622","freq","img/orange_2bandit_a2.png","70","70","test","1","145","145","7","",""
"null","249474","pSARL_v2","pSARL_v2vk3ang3u","615b5d9b0b5942de8db28622","freq_resp","img/orange_2bandit_a.png","70","70","test","","","","7","",""
"null","249634","pSARL_v2","pSARL_v2vk3ang3u","615b5d9b0b5942de8db28622","fixation","img/fixation.png","null","","test","","","","","",""
"339.09999990463257","249977","pSARL_v2","pSARL_v2vk3ang3u","615b5d9b0b5942de8db28622","freq","img/orange_2bandit_a2.png","70","70","test","1","146","146","7","",""
"null","250444","pSARL_v2","pSARL_v2vk3ang3u","615b5d9b0b5942de8db28622","freq_resp","img/orange_2bandit_a.png","70","70","test","","","","7","",""
"null","250606","pSARL_v2","pSARL_v2vk3ang3u","615b5d9b0b5942de8db28622","fixation","img/fixation.png","null","","test","","","","","",""
"330","250940","pSARL_v2","pSARL_v2vk3ang3u","615b5d9b0b5942de8db28622","freq","img/orange_2bandit_a2.png","70","70","test","1","147","147","7","",""
"null","251416","pSARL_v2","pSARL_v2vk3ang3u","615b5d9b0b5942de8db28622","freq_resp","img/orange_2bandit_a.png","70","70","test","","","","7","",""
"null","251574","pSARL_v2","pSARL_v2vk3ang3u","615b5d9b0b5942de8db28622","fixation","img/fixation.png","null","","test","","","","","",""
"351.40000009536743","251930","pSARL_v2","pSARL_v2vk3ang3u","615b5d9b0b5942de8db28622","freq","img/orange_2bandit_a2.png","70","70","test","1","148","148","7","",""
"null","252385","pSARL_v2","pSARL_v2vk3ang3u","615b5d9b0b5942de8db28622","freq_resp","img/orange_2bandit_a.png","70","70","test","","","","7","",""
"null","252545","pSARL_v2","pSARL_v2vk3ang3u","615b5d9b0b5942de8db28622","fixation","img/fixation.png","null","","test","","","","","",""
"259.39999985694885","252809","pSARL_v2","pSARL_v2vk3ang3u","615b5d9b0b5942de8db28622","freq","img/orange_2bandit_a2.png","70","70","test","1","149","149","7","",""
"null","253358","pSARL_v2","pSARL_v2vk3ang3u","615b5d9b0b5942de8db28622","freq_resp","img/orange_2bandit_a.png","70","70","test","","","","7","",""
"null","253518","pSARL_v2","pSARL_v2vk3ang3u","615b5d9b0b5942de8db28622","fixation","img/fixation.png","null","","test","","","","","",""
"160.69999980926514","253683","pSARL_v2","pSARL_v2vk3ang3u","615b5d9b0b5942de8db28622","freq","img/orange_2bandit_a2.png","70","70","test","1","150","150","7","",""
"null","254328","pSARL_v2","pSARL_v2vk3ang3u","615b5d9b0b5942de8db28622","freq_resp","img/orange_2bandit_a.png","70","70","test","","","","7","",""
"null","254483","pSARL_v2","pSARL_v2vk3ang3u","615b5d9b0b5942de8db28622","fixation","img/fixation.png","null","","test","","","","","",""
"206.39999985694885","254694","pSARL_v2","pSARL_v2vk3ang3u","615b5d9b0b5942de8db28622","freq","img/orange_2bandit_a2.png","70","70","test","1","151","151","7","",""
"null","255293","pSARL_v2","pSARL_v2vk3ang3u","615b5d9b0b5942de8db28622","freq_resp","img/orange_2bandit_a.png","70","70","test","","","","7","",""
"null","255453","pSARL_v2","pSARL_v2vk3ang3u","615b5d9b0b5942de8db28622","fixation","img/fixation.png","null","","test","","","","","",""
"250.10000014305115","255708","pSARL_v2","pSARL_v2vk3ang3u","615b5d9b0b5942de8db28622","freq","img/orange_2bandit_a2.png","70","70","test","1","152","152","7","",""
"null","256263","pSARL_v2","pSARL_v2vk3ang3u","615b5d9b0b5942de8db28622","freq_resp","img/orange_2bandit_a.png","70","70","test","","","","7","",""
"null","256421","pSARL_v2","pSARL_v2vk3ang3u","615b5d9b0b5942de8db28622","fixation","img/fixation.png","null","","test","","","","","",""
"331","256757","pSARL_v2","pSARL_v2vk3ang3u","615b5d9b0b5942de8db28622","freq","img/orange_2bandit_a2.png","70","70","test","1","153","153","7","",""
"null","257232","pSARL_v2","pSARL_v2vk3ang3u","615b5d9b0b5942de8db28622","freq_resp","img/orange_2bandit_a.png","70","70","test","","","","7","",""
"null","257391","pSARL_v2","pSARL_v2vk3ang3u","615b5d9b0b5942de8db28622","fixation","img/fixation.png","null","","test","","","","","",""
"350.89999985694885","257746","pSARL_v2","pSARL_v2vk3ang3u","615b5d9b0b5942de8db28622","freq","img/orange_2bandit_a2.png","70","70","test","1","154","154","7","",""
"null","258201","pSARL_v2","pSARL_v2vk3ang3u","615b5d9b0b5942de8db28622","freq_resp","img/orange_2bandit_a.png","70","70","test","","","","7","",""
"null","258361","pSARL_v2","pSARL_v2vk3ang3u","615b5d9b0b5942de8db28622","fixation","img/fixation.png","null","","test","","","","","",""
"324.2999999523163","258690","pSARL_v2","pSARL_v2vk3ang3u","615b5d9b0b5942de8db28622","freq","img/orange_2bandit_a2.png","70","70","test","1","155","155","7","",""
"null","259172","pSARL_v2","pSARL_v2vk3ang3u","615b5d9b0b5942de8db28622","freq_resp","img/orange_2bandit_a.png","70","70","test","","","","7","",""
"null","259332","pSARL_v2","pSARL_v2vk3ang3u","615b5d9b0b5942de8db28622","fixation","img/fixation.png","null","","test","","","","","",""
"321.7999999523163","259658","pSARL_v2","pSARL_v2vk3ang3u","615b5d9b0b5942de8db28622","freq","img/orange_2bandit_a2.png","70","70","test","1","156","156","7","",""
"null","260142","pSARL_v2","pSARL_v2vk3ang3u","615b5d9b0b5942de8db28622","freq_resp","img/orange_2bandit_a.png","70","70","test","","","","7","",""
"null","260303","pSARL_v2","pSARL_v2vk3ang3u","615b5d9b0b5942de8db28622","fixation","img/fixation.png","null","","test","","","","","",""
"325.80000019073486","260633","pSARL_v2","pSARL_v2vk3ang3u","615b5d9b0b5942de8db28622","freq","img/orange_2bandit_a2.png","70","70","test","1","157","157","7","",""
"null","261113","pSARL_v2","pSARL_v2vk3ang3u","615b5d9b0b5942de8db28622","freq_resp","img/orange_2bandit_a.png","70","70","test","","","","7","",""
"null","261273","pSARL_v2","pSARL_v2vk3ang3u","615b5d9b0b5942de8db28622","fixation","img/fixation.png","null","","test","","","","","",""
"332","261610","pSARL_v2","pSARL_v2vk3ang3u","615b5d9b0b5942de8db28622","freq","img/orange_2bandit_a2.png","70","70","test","1","158","158","7","",""
"null","262083","pSARL_v2","pSARL_v2vk3ang3u","615b5d9b0b5942de8db28622","freq_resp","img/orange_2bandit_a.png","70","70","test","","","","7","",""
"null","262243","pSARL_v2","pSARL_v2vk3ang3u","615b5d9b0b5942de8db28622","fixation","img/fixation.png","null","","test","","","","","",""
"354.90000009536743","262602","pSARL_v2","pSARL_v2vk3ang3u","615b5d9b0b5942de8db28622","freq","img/orange_2bandit_a2.png","70","70","test","1","159","159","7","",""
"null","263052","pSARL_v2","pSARL_v2vk3ang3u","615b5d9b0b5942de8db28622","freq_resp","img/orange_2bandit_a.png","70","70","test","","","","7","",""
"null","263212","pSARL_v2","pSARL_v2vk3ang3u","615b5d9b0b5942de8db28622","fixation","img/fixation.png","null","","test","","","","","",""
"345.59999990463257","263562","pSARL_v2","pSARL_v2vk3ang3u","615b5d9b0b5942de8db28622","freq","img/orange_2bandit_a2.png","70","70","test","1","160","160","7","",""
"null","264022","pSARL_v2","pSARL_v2vk3ang3u","615b5d9b0b5942de8db28622","freq_resp","img/orange_2bandit_a.png","70","70","test","","","","7","",""
"null","264179","pSARL_v2","pSARL_v2vk3ang3u","615b5d9b0b5942de8db28622","fixation","img/fixation.png","null","","test","","","","","",""
"454.7999999523163","264638","pSARL_v2","pSARL_v2vk3ang3u","615b5d9b0b5942de8db28622","infreq","img/green_2bandit_a2.png","68","68","test","1","161","161","7","",""
"null","264993","pSARL_v2","pSARL_v2vk3ang3u","615b5d9b0b5942de8db28622","infreq_resp","img/green_2bandit_a.png","68","68","test","","","","7","",""
"null","265148","pSARL_v2","pSARL_v2vk3ang3u","615b5d9b0b5942de8db28622","fixation","img/fixation.png","null","","test","","","","","",""
"477.2999999523163","265630","pSARL_v2","pSARL_v2vk3ang3u","615b5d9b0b5942de8db28622","infreq","img/green_2bandit_a2.png","68","68","test","1","162","162","7","",""
"null","265958","pSARL_v2","pSARL_v2vk3ang3u","615b5d9b0b5942de8db28622","infreq_resp","img/green_2bandit_a.png","68","68","test","","","","7","",""
"null","266118","pSARL_v2","pSARL_v2vk3ang3u","615b5d9b0b5942de8db28622","fixation","img/fixation.png","null","","test","","","","","",""
"443.7000000476837","266567","pSARL_v2","pSARL_v2vk3ang3u","615b5d9b0b5942de8db28622","freq","img/orange_2bandit_a2.png","70","70","test","1","163","163","7","",""
"null","266929","pSARL_v2","pSARL_v2vk3ang3u","615b5d9b0b5942de8db28622","freq_resp","img/orange_2bandit_a.png","70","70","test","","","","7","",""
"null","267085","pSARL_v2","pSARL_v2vk3ang3u","615b5d9b0b5942de8db28622","fixation","img/fixation.png","null","","test","","","","","",""
"484.5","267574","pSARL_v2","pSARL_v2vk3ang3u","615b5d9b0b5942de8db28622","reward","img/slot.png","74","","test","","","","","",""
"null","268334","pSARL_v2","pSARL_v2vk3ang3u","615b5d9b0b5942de8db28622","points","<div class=""verylowPoints""> -6 </div>","null","na","test","","","","7","-6","6"
"395.60000014305115","268734","pSARL_v2","pSARL_v2vk3ang3u","615b5d9b0b5942de8db28622","freq","img/orange_2bandit_a2.png","70","70","test","1","164","164","8","",""
"null","269145","pSARL_v2","pSARL_v2vk3ang3u","615b5d9b0b5942de8db28622","freq_resp","img/orange_2bandit_a.png","70","70","test","","","","8","",""
"null","269304","pSARL_v2","pSARL_v2vk3ang3u","615b5d9b0b5942de8db28622","fixation","img/fixation.png","null","","test","","","","","",""
"318.2000000476837","269629","pSARL_v2","pSARL_v2vk3ang3u","615b5d9b0b5942de8db28622","freq","img/orange_2bandit_a2.png","70","70","test","1","165","165","8","",""
"null","270117","pSARL_v2","pSARL_v2vk3ang3u","615b5d9b0b5942de8db28622","freq_resp","img/orange_2bandit_a.png","70","70","test","","","","8","",""
"null","270276","pSARL_v2","pSARL_v2vk3ang3u","615b5d9b0b5942de8db28622","fixation","img/fixation.png","null","","test","","","","","",""
"350.19999980926514","270632","pSARL_v2","pSARL_v2vk3ang3u","615b5d9b0b5942de8db28622","freq","img/orange_2bandit_a2.png","70","70","test","1","166","166","8","",""
"null","271086","pSARL_v2","pSARL_v2vk3ang3u","615b5d9b0b5942de8db28622","freq_resp","img/orange_2bandit_a.png","70","70","test","","","","8","",""
"null","271247","pSARL_v2","pSARL_v2vk3ang3u","615b5d9b0b5942de8db28622","fixation","img/fixation.png","null","","test","","","","","",""
"257.90000009536743","271509","pSARL_v2","pSARL_v2vk3ang3u","615b5d9b0b5942de8db28622","freq","img/orange_2bandit_a2.png","70","70","test","1","167","167","8","",""
"null","272056","pSARL_v2","pSARL_v2vk3ang3u","615b5d9b0b5942de8db28622","freq_resp","img/orange_2bandit_a.png","70","70","test","","","","8","",""
"null","272212","pSARL_v2","pSARL_v2vk3ang3u","615b5d9b0b5942de8db28622","fixation","img/fixation.png","null","","test","","","","","",""
"288.40000009536743","272505","pSARL_v2","pSARL_v2vk3ang3u","615b5d9b0b5942de8db28622","freq","img/orange_2bandit_a2.png","70","70","test","1","168","168","8","",""
"null","273022","pSARL_v2","pSARL_v2vk3ang3u","615b5d9b0b5942de8db28622","freq_resp","img/orange_2bandit_a.png","70","70","test","","","","8","",""
"null","273179","pSARL_v2","pSARL_v2vk3ang3u","615b5d9b0b5942de8db28622","fixation","img/fixation.png","null","","test","","","","","",""
"174.20000004768372","273358","pSARL_v2","pSARL_v2vk3ang3u","615b5d9b0b5942de8db28622","freq","img/orange_2bandit_a2.png","70","70","test","1","169","169","8","",""
"null","273989","pSARL_v2","pSARL_v2vk3ang3u","615b5d9b0b5942de8db28622","freq_resp","img/orange_2bandit_a.png","70","70","test","","","","8","",""
"null","274151","pSARL_v2","pSARL_v2vk3ang3u","615b5d9b0b5942de8db28622","fixation","img/fixation.png","null","","test","","","","","",""
"169.09999990463257","274325","pSARL_v2","pSARL_v2vk3ang3u","615b5d9b0b5942de8db28622","freq","img/orange_2bandit_a2.png","70","70","test","1","170","170","8","",""
"null","274960","pSARL_v2","pSARL_v2vk3ang3u","615b5d9b0b5942de8db28622","freq_resp","img/orange_2bandit_a.png","70","70","test","","","","8","",""
"null","275120","pSARL_v2","pSARL_v2vk3ang3u","615b5d9b0b5942de8db28622","fixation","img/fixation.png","null","","test","","","","","",""
"194.70000004768372","275320","pSARL_v2","pSARL_v2vk3ang3u","615b5d9b0b5942de8db28622","freq","img/orange_2bandit_a2.png","70","70","test","1","171","171","8","",""
"null","275932","pSARL_v2","pSARL_v2vk3ang3u","615b5d9b0b5942de8db28622","freq_resp","img/orange_2bandit_a.png","70","70","test","","","","8","",""
"null","276088","pSARL_v2","pSARL_v2vk3ang3u","615b5d9b0b5942de8db28622","fixation","img/fixation.png","null","","test","","","","","",""
"198.09999990463257","276291","pSARL_v2","pSARL_v2vk3ang3u","615b5d9b0b5942de8db28622","freq","img/orange_2bandit_a2.png","70","70","test","1","172","172","8","",""
"null","276898","pSARL_v2","pSARL_v2vk3ang3u","615b5d9b0b5942de8db28622","freq_resp","img/orange_2bandit_a.png","70","70","test","","","","8","",""
"null","277056","pSARL_v2","pSARL_v2vk3ang3u","615b5d9b0b5942de8db28622","fixation","img/fixation.png","null","","test","","","","","",""
"254.09999990463257","277315","pSARL_v2","pSARL_v2vk3ang3u","615b5d9b0b5942de8db28622","infreq","img/green_2bandit_a2.png","70","68","test","0","173","173","8","",""
"null","277865","pSARL_v2","pSARL_v2vk3ang3u","615b5d9b0b5942de8db28622","infreq_resp","img/green_2bandit_a.png","70","68","test","","","","8","",""
"null","278023","pSARL_v2","pSARL_v2vk3ang3u","615b5d9b0b5942de8db28622","fixation","img/fixation.png","null","","test","","","","","",""
"320","278348","pSARL_v2","pSARL_v2vk3ang3u","615b5d9b0b5942de8db28622","freq","img/orange_2bandit_a2.png","70","70","test","1","174","174","8","",""
"null","278834","pSARL_v2","pSARL_v2vk3ang3u","615b5d9b0b5942de8db28622","freq_resp","img/orange_2bandit_a.png","70","70","test","","","","8","",""
"null","278994","pSARL_v2","pSARL_v2vk3ang3u","615b5d9b0b5942de8db28622","fixation","img/fixation.png","null","","test","","","","","",""
"423.59999990463257","279422","pSARL_v2","pSARL_v2vk3ang3u","615b5d9b0b5942de8db28622","infreq","img/green_2bandit_a2.png","68","68","test","1","175","175","8","",""
"null","279804","pSARL_v2","pSARL_v2vk3ang3u","615b5d9b0b5942de8db28622","infreq_resp","img/green_2bandit_a.png","68","68","test","","","","8","",""
"null","279960","pSARL_v2","pSARL_v2vk3ang3u","615b5d9b0b5942de8db28622","fixation","img/fixation.png","null","","test","","","","","",""
"360.2000000476837","280325","pSARL_v2","pSARL_v2vk3ang3u","615b5d9b0b5942de8db28622","freq","img/orange_2bandit_a2.png","70","70","test","1","176","176","8","",""
"null","280769","pSARL_v2","pSARL_v2vk3ang3u","615b5d9b0b5942de8db28622","freq_resp","img/orange_2bandit_a.png","70","70","test","","","","8","",""
"null","280929","pSARL_v2","pSARL_v2vk3ang3u","615b5d9b0b5942de8db28622","fixation","img/fixation.png","null","","test","","","","","",""
"294.89999985694885","281229","pSARL_v2","pSARL_v2vk3ang3u","615b5d9b0b5942de8db28622","freq","img/orange_2bandit_a2.png","70","70","test","1","177","177","8","",""
"null","281740","pSARL_v2","pSARL_v2vk3ang3u","615b5d9b0b5942de8db28622","freq_resp","img/orange_2bandit_a.png","70","70","test","","","","8","",""
"null","281901","pSARL_v2","pSARL_v2vk3ang3u","615b5d9b0b5942de8db28622","fixation","img/fixation.png","null","","test","","","","","",""
"323.2000000476837","282228","pSARL_v2","pSARL_v2vk3ang3u","615b5d9b0b5942de8db28622","freq","img/orange_2bandit_a2.png","70","70","test","1","178","178","8","",""
"null","282711","pSARL_v2","pSARL_v2vk3ang3u","615b5d9b0b5942de8db28622","freq_resp","img/orange_2bandit_a.png","70","70","test","","","","8","",""
"null","282872","pSARL_v2","pSARL_v2vk3ang3u","615b5d9b0b5942de8db28622","fixation","img/fixation.png","null","","test","","","","","",""
"305.2000000476837","283182","pSARL_v2","pSARL_v2vk3ang3u","615b5d9b0b5942de8db28622","freq","img/orange_2bandit_a2.png","70","70","test","1","179","179","8","",""
"null","283681","pSARL_v2","pSARL_v2vk3ang3u","615b5d9b0b5942de8db28622","freq_resp","img/orange_2bandit_a.png","70","70","test","","","","8","",""
"null","283841","pSARL_v2","pSARL_v2vk3ang3u","615b5d9b0b5942de8db28622","fixation","img/fixation.png","null","","test","","","","","",""
"274.60000014305115","284120","pSARL_v2","pSARL_v2vk3ang3u","615b5d9b0b5942de8db28622","freq","img/orange_2bandit_a2.png","70","70","test","1","180","180","8","",""
"null","284653","pSARL_v2","pSARL_v2vk3ang3u","615b5d9b0b5942de8db28622","freq_resp","img/orange_2bandit_a.png","70","70","test","","","","8","",""
"null","284813","pSARL_v2","pSARL_v2vk3ang3u","615b5d9b0b5942de8db28622","fixation","img/fixation.png","null","","test","","","","","",""
"306.90000009536743","285124","pSARL_v2","pSARL_v2vk3ang3u","615b5d9b0b5942de8db28622","freq","img/orange_2bandit_a2.png","70","70","test","1","181","181","8","",""
"null","285623","pSARL_v2","pSARL_v2vk3ang3u","615b5d9b0b5942de8db28622","freq_resp","img/orange_2bandit_a.png","70","70","test","","","","8","",""
"null","285779","pSARL_v2","pSARL_v2vk3ang3u","615b5d9b0b5942de8db28622","fixation","img/fixation.png","null","","test","","","","","",""
"294","286078","pSARL_v2","pSARL_v2vk3ang3u","615b5d9b0b5942de8db28622","freq","img/orange_2bandit_a2.png","70","70","test","1","182","182","8","",""
"null","286590","pSARL_v2","pSARL_v2vk3ang3u","615b5d9b0b5942de8db28622","freq_resp","img/orange_2bandit_a.png","70","70","test","","","","8","",""
"null","286750","pSARL_v2","pSARL_v2vk3ang3u","615b5d9b0b5942de8db28622","fixation","img/fixation.png","null","","test","","","","","",""
"302.7999999523163","287058","pSARL_v2","pSARL_v2vk3ang3u","615b5d9b0b5942de8db28622","freq","img/orange_2bandit_a2.png","70","70","test","1","183","183","8","",""
"null","287559","pSARL_v2","pSARL_v2vk3ang3u","615b5d9b0b5942de8db28622","freq_resp","img/orange_2bandit_a.png","70","70","test","","","","8","",""
"null","287720","pSARL_v2","pSARL_v2vk3ang3u","615b5d9b0b5942de8db28622","fixation","img/fixation.png","null","","test","","","","","",""
"318.60000014305115","288043","pSARL_v2","pSARL_v2vk3ang3u","615b5d9b0b5942de8db28622","freq","img/orange_2bandit_a2.png","70","70","test","1","184","184","8","",""
"null","288530","pSARL_v2","pSARL_v2vk3ang3u","615b5d9b0b5942de8db28622","freq_resp","img/orange_2bandit_a.png","70","70","test","","","","8","",""
"null","288691","pSARL_v2","pSARL_v2vk3ang3u","615b5d9b0b5942de8db28622","fixation","img/fixation.png","null","","test","","","","","",""
"403.7999999523163","289099","pSARL_v2","pSARL_v2vk3ang3u","615b5d9b0b5942de8db28622","infreq","img/green_2bandit_a2.png","68","68","test","1","185","185","8","",""
"null","289501","pSARL_v2","pSARL_v2vk3ang3u","615b5d9b0b5942de8db28622","infreq_resp","img/green_2bandit_a.png","68","68","test","","","","8","",""
"null","289660","pSARL_v2","pSARL_v2vk3ang3u","615b5d9b0b5942de8db28622","fixation","img/fixation.png","null","","test","","","","","",""
"324.7000000476837","289989","pSARL_v2","pSARL_v2vk3ang3u","615b5d9b0b5942de8db28622","freq","img/orange_2bandit_a2.png","70","70","test","1","186","186","8","",""
"null","290470","pSARL_v2","pSARL_v2vk3ang3u","615b5d9b0b5942de8db28622","freq_resp","img/orange_2bandit_a.png","70","70","test","","","","8","",""
"null","290627","pSARL_v2","pSARL_v2vk3ang3u","615b5d9b0b5942de8db28622","fixation","img/fixation.png","null","","test","","","","","",""
"325.89999985694885","290958","pSARL_v2","pSARL_v2vk3ang3u","615b5d9b0b5942de8db28622","freq","img/orange_2bandit_a2.png","70","70","test","1","187","187","8","",""
"null","291437","pSARL_v2","pSARL_v2vk3ang3u","615b5d9b0b5942de8db28622","freq_resp","img/orange_2bandit_a.png","70","70","test","","","","8","",""
"null","291598","pSARL_v2","pSARL_v2vk3ang3u","615b5d9b0b5942de8db28622","fixation","img/fixation.png","null","","test","","","","","",""
"308.40000009536743","291911","pSARL_v2","pSARL_v2vk3ang3u","615b5d9b0b5942de8db28622","freq","img/orange_2bandit_a2.png","70","70","test","1","188","188","8","",""
"null","292408","pSARL_v2","pSARL_v2vk3ang3u","615b5d9b0b5942de8db28622","freq_resp","img/orange_2bandit_a.png","70","70","test","","","","8","",""
"null","292568","pSARL_v2","pSARL_v2vk3ang3u","615b5d9b0b5942de8db28622","fixation","img/fixation.png","null","","test","","","","","",""
"477.39999985694885","293050","pSARL_v2","pSARL_v2vk3ang3u","615b5d9b0b5942de8db28622","reward","img/slot.png","74","","test","","","","","",""
"null","293807","pSARL_v2","pSARL_v2vk3ang3u","615b5d9b0b5942de8db28622","points","<div class=""verylowPoints""> -4 </div>","null","na","test","","","","8","-4","7"
"371.2000000476837","294183","pSARL_v2","pSARL_v2vk3ang3u","615b5d9b0b5942de8db28622","freq","img/orange_2bandit_a2.png","70","70","test","1","189","189","9","",""
"null","294616","pSARL_v2","pSARL_v2vk3ang3u","615b5d9b0b5942de8db28622","freq_resp","img/orange_2bandit_a.png","70","70","test","","","","9","",""
"null","294777","pSARL_v2","pSARL_v2vk3ang3u","615b5d9b0b5942de8db28622","fixation","img/fixation.png","null","","test","","","","","",""
"308.2000000476837","295089","pSARL_v2","pSARL_v2vk3ang3u","615b5d9b0b5942de8db28622","freq","img/orange_2bandit_a2.png","70","70","test","1","190","190","9","",""
"null","295585","pSARL_v2","pSARL_v2vk3ang3u","615b5d9b0b5942de8db28622","freq_resp","img/orange_2bandit_a.png","70","70","test","","","","9","",""
"null","295746","pSARL_v2","pSARL_v2vk3ang3u","615b5d9b0b5942de8db28622","fixation","img/fixation.png","null","","test","","","","","",""
"252.20000004768372","296002","pSARL_v2","pSARL_v2vk3ang3u","615b5d9b0b5942de8db28622","freq","img/orange_2bandit_a2.png","70","70","test","1","191","191","9","",""
"null","296556","pSARL_v2","pSARL_v2vk3ang3u","615b5d9b0b5942de8db28622","freq_resp","img/orange_2bandit_a.png","70","70","test","","","","9","",""
"null","296712","pSARL_v2","pSARL_v2vk3ang3u","615b5d9b0b5942de8db28622","fixation","img/fixation.png","null","","test","","","","","",""
"165.89999985694885","296883","pSARL_v2","pSARL_v2vk3ang3u","615b5d9b0b5942de8db28622","freq","img/orange_2bandit_a2.png","70","70","test","1","192","192","9","",""
"null","297523","pSARL_v2","pSARL_v2vk3ang3u","615b5d9b0b5942de8db28622","freq_resp","img/orange_2bandit_a.png","70","70","test","","","","9","",""
"null","297683","pSARL_v2","pSARL_v2vk3ang3u","615b5d9b0b5942de8db28622","fixation","img/fixation.png","null","","test","","","","","",""
"210.59999990463257","297898","pSARL_v2","pSARL_v2vk3ang3u","615b5d9b0b5942de8db28622","freq","img/orange_2bandit_a2.png","70","70","test","1","193","193","9","",""
"null","298493","pSARL_v2","pSARL_v2vk3ang3u","615b5d9b0b5942de8db28622","freq_resp","img/orange_2bandit_a.png","70","70","test","","","","9","",""
"null","298653","pSARL_v2","pSARL_v2vk3ang3u","615b5d9b0b5942de8db28622","fixation","img/fixation.png","null","","test","","","","","",""
"158.79999995231628","298817","pSARL_v2","pSARL_v2vk3ang3u","615b5d9b0b5942de8db28622","freq","img/orange_2bandit_a2.png","70","70","test","1","194","194","9","",""
"null","299463","pSARL_v2","pSARL_v2vk3ang3u","615b5d9b0b5942de8db28622","freq_resp","img/orange_2bandit_a.png","70","70","test","","","","9","",""
"null","299622","pSARL_v2","pSARL_v2vk3ang3u","615b5d9b0b5942de8db28622","fixation","img/fixation.png","null","","test","","","","","",""
"118.09999990463257","299744","pSARL_v2","pSARL_v2vk3ang3u","615b5d9b0b5942de8db28622","infreq","img/green_2bandit_a2.png","70","68","test","0","195","195","9","",""
"null","300431","pSARL_v2","pSARL_v2vk3ang3u","615b5d9b0b5942de8db28622","infreq_resp","img/green_2bandit_a.png","70","68","test","","","","9","",""
"null","300587","pSARL_v2","pSARL_v2vk3ang3u","615b5d9b0b5942de8db28622","fixation","img/fixation.png","null","","test","","","","","",""
"300.40000009536743","300892","pSARL_v2","pSARL_v2vk3ang3u","615b5d9b0b5942de8db28622","freq","img/orange_2bandit_a2.png","70","70","test","1","196","196","9","",""
"null","301396","pSARL_v2","pSARL_v2vk3ang3u","615b5d9b0b5942de8db28622","freq_resp","img/orange_2bandit_a.png","70","70","test","","","","9","",""
"null","301556","pSARL_v2","pSARL_v2vk3ang3u","615b5d9b0b5942de8db28622","fixation","img/fixation.png","null","","test","","","","","",""
"238.59999990463257","301799","pSARL_v2","pSARL_v2vk3ang3u","615b5d9b0b5942de8db28622","freq","img/orange_2bandit_a2.png","70","70","test","1","197","197","9","",""
"null","302366","pSARL_v2","pSARL_v2vk3ang3u","615b5d9b0b5942de8db28622","freq_resp","img/orange_2bandit_a.png","70","70","test","","","","9","",""
"null","302526","pSARL_v2","pSARL_v2vk3ang3u","615b5d9b0b5942de8db28622","fixation","img/fixation.png","null","","test","","","","","",""
"158.10000014305115","302689","pSARL_v2","pSARL_v2vk3ang3u","615b5d9b0b5942de8db28622","freq","img/orange_2bandit_a2.png","70","70","test","1","198","198","9","",""
"null","303336","pSARL_v2","pSARL_v2vk3ang3u","615b5d9b0b5942de8db28622","freq_resp","img/orange_2bandit_a.png","70","70","test","","","","9","",""
"null","303492","pSARL_v2","pSARL_v2vk3ang3u","615b5d9b0b5942de8db28622","fixation","img/fixation.png","null","","test","","","","","",""
"233.79999995231628","303731","pSARL_v2","pSARL_v2vk3ang3u","615b5d9b0b5942de8db28622","freq","img/orange_2bandit_a2.png","70","70","test","1","199","199","9","",""
"null","304303","pSARL_v2","pSARL_v2vk3ang3u","615b5d9b0b5942de8db28622","freq_resp","img/orange_2bandit_a.png","70","70","test","","","","9","",""
"null","304463","pSARL_v2","pSARL_v2vk3ang3u","615b5d9b0b5942de8db28622","fixation","img/fixation.png","null","","test","","","","","",""
"172.20000004768372","304639","pSARL_v2","pSARL_v2vk3ang3u","615b5d9b0b5942de8db28622","freq","img/orange_2bandit_a2.png","70","70","test","1","200","200","9","",""
"null","305272","pSARL_v2","pSARL_v2vk3ang3u","615b5d9b0b5942de8db28622","freq_resp","img/orange_2bandit_a.png","70","70","test","","","","9","",""
"null","305433","pSARL_v2","pSARL_v2vk3ang3u","615b5d9b0b5942de8db28622","fixation","img/fixation.png","null","","test","","","","","",""
"306.7999999523163","305744","pSARL_v2","pSARL_v2vk3ang3u","615b5d9b0b5942de8db28622","freq","img/orange_2bandit_a2.png","70","70","test","1","201","201","9","",""
"null","306243","pSARL_v2","pSARL_v2vk3ang3u","615b5d9b0b5942de8db28622","freq_resp","img/orange_2bandit_a.png","70","70","test","","","","9","",""
"null","306401","pSARL_v2","pSARL_v2vk3ang3u","615b5d9b0b5942de8db28622","fixation","img/fixation.png","null","","test","","","","","",""
"362.7999999523163","306768","pSARL_v2","pSARL_v2vk3ang3u","615b5d9b0b5942de8db28622","freq","img/orange_2bandit_a2.png","70","70","test","1","202","202","9","",""
"null","307211","pSARL_v2","pSARL_v2vk3ang3u","615b5d9b0b5942de8db28622","freq_resp","img/orange_2bandit_a.png","70","70","test","","","","9","",""
"null","307368","pSARL_v2","pSARL_v2vk3ang3u","615b5d9b0b5942de8db28622","fixation","img/fixation.png","null","","test","","","","","",""
"428.90000009536743","307801","pSARL_v2","pSARL_v2vk3ang3u","615b5d9b0b5942de8db28622","infreq","img/green_2bandit_a2.png","68","68","test","1","203","203","9","",""
"null","308178","pSARL_v2","pSARL_v2vk3ang3u","615b5d9b0b5942de8db28622","infreq_resp","img/green_2bandit_a.png","68","68","test","","","","9","",""
"null","308338","pSARL_v2","pSARL_v2vk3ang3u","615b5d9b0b5942de8db28622","fixation","img/fixation.png","null","","test","","","","","",""
"379.40000009536743","308722","pSARL_v2","pSARL_v2vk3ang3u","615b5d9b0b5942de8db28622","freq","img/orange_2bandit_a2.png","70","70","test","1","204","204","9","",""
"null","309149","pSARL_v2","pSARL_v2vk3ang3u","615b5d9b0b5942de8db28622","freq_resp","img/orange_2bandit_a.png","70","70","test","","","","9","",""
"null","309309","pSARL_v2","pSARL_v2vk3ang3u","615b5d9b0b5942de8db28622","fixation","img/fixation.png","null","","test","","","","","",""
"246.20000004768372","309560","pSARL_v2","pSARL_v2vk3ang3u","615b5d9b0b5942de8db28622","freq","img/orange_2bandit_a2.png","70","70","test","1","205","205","9","",""
"null","310120","pSARL_v2","pSARL_v2vk3ang3u","615b5d9b0b5942de8db28622","freq_resp","img/orange_2bandit_a.png","70","70","test","","","","9","",""
"null","310276","pSARL_v2","pSARL_v2vk3ang3u","615b5d9b0b5942de8db28622","fixation","img/fixation.png","null","","test","","","","","",""
"285.30000019073486","310565","pSARL_v2","pSARL_v2vk3ang3u","615b5d9b0b5942de8db28622","freq","img/orange_2bandit_a2.png","70","70","test","1","206","206","9","",""
