"rt","time_elapsed","expId","subject","prolificID","trialType","stimulus","key_press","corrresp","phase","corr","trialNum","attentionRunNum","blockNum","points","rlNum"
"11588.800000000745","11592","pSARL_v2","pSARL_v2g9z1u2jb","5b3e2334cdb4ce0001d93c51","","","","","","","","","","",""
"","14331","pSARL_v2","pSARL_v2g9z1u2jb","5b3e2334cdb4ce0001d93c51","fullscreen","","","","","","","","","",""
"67143.60000000149","81479","pSARL_v2","pSARL_v2g9z1u2jb","5b3e2334cdb4ce0001d93c51","","","","","","","","","","",""
"null","82293","pSARL_v2","pSARL_v2g9z1u2jb","5b3e2334cdb4ce0001d93c51","freqPrac","img/green_2bandit_a2.png","null","70","prac","0","","","","",""
"null","83303","pSARL_v2","pSARL_v2g9z1u2jb","5b3e2334cdb4ce0001d93c51","feedback","img/tooSlow.png","null","na","prac","","","","","",""
"null","83461","pSARL_v2","pSARL_v2g9z1u2jb","5b3e2334cdb4ce0001d93c51","fixation","img/fixation.png","null","","prac","","","","","",""
"485.5","83950","pSARL_v2","pSARL_v2g9z1u2jb","5b3e2334cdb4ce0001d93c51","infreqPrac","img/orange_2bandit_a2.png","68","68","prac","1","","","","",""
"485.5","84283","pSARL_v2","pSARL_v2g9z1u2jb","5b3e2334cdb4ce0001d93c51","infreqPrac_resp","img/orange_2bandit_a.png","68","68","prac","","","","","",""
"null","84440","pSARL_v2","pSARL_v2g9z1u2jb","5b3e2334cdb4ce0001d93c51","fixation","img/fixation.png","null","","prac","","","","","",""
"594.6000000014901","85039","pSARL_v2","pSARL_v2g9z1u2jb","5b3e2334cdb4ce0001d93c51","freqPrac","img/green_2bandit_a2.png","70","70","prac","1","","","","",""
"594.6000000014901","85264","pSARL_v2","pSARL_v2g9z1u2jb","5b3e2334cdb4ce0001d93c51","freqPrac_resp","img/green_2bandit_a.png","70","70","prac","","","","","",""
"null","85421","pSARL_v2","pSARL_v2g9z1u2jb","5b3e2334cdb4ce0001d93c51","fixation","img/fixation.png","null","","prac","","","","","",""
"386.0999999977648","85812","pSARL_v2","pSARL_v2g9z1u2jb","5b3e2334cdb4ce0001d93c51","infreqPrac","img/orange_2bandit_a2.png","68","68","prac","1","","","","",""
"386.0999999977648","86244","pSARL_v2","pSARL_v2g9z1u2jb","5b3e2334cdb4ce0001d93c51","infreqPrac_resp","img/orange_2bandit_a.png","68","68","prac","","","","","",""
"null","86401","pSARL_v2","pSARL_v2g9z1u2jb","5b3e2334cdb4ce0001d93c51","fixation","img/fixation.png","null","","prac","","","","","",""
"318.5999999977648","86722","pSARL_v2","pSARL_v2g9z1u2jb","5b3e2334cdb4ce0001d93c51","infreqPrac","img/orange_2bandit_a2.png","68","68","prac","1","","","","",""
"318.5999999977648","87219","pSARL_v2","pSARL_v2g9z1u2jb","5b3e2334cdb4ce0001d93c51","infreqPrac_resp","img/orange_2bandit_a.png","68","68","prac","","","","","",""
"null","87377","pSARL_v2","pSARL_v2g9z1u2jb","5b3e2334cdb4ce0001d93c51","fixation","img/fixation.png","null","","prac","","","","","",""
"324.0999999977648","87705","pSARL_v2","pSARL_v2g9z1u2jb","5b3e2334cdb4ce0001d93c51","infreqPrac","img/orange_2bandit_a2.png","68","68","prac","1","","","","",""
"324.0999999977648","88196","pSARL_v2","pSARL_v2g9z1u2jb","5b3e2334cdb4ce0001d93c51","infreqPrac_resp","img/orange_2bandit_a.png","68","68","prac","","","","","",""
"null","88354","pSARL_v2","pSARL_v2g9z1u2jb","5b3e2334cdb4ce0001d93c51","fixation","img/fixation.png","null","","prac","","","","","",""
"356.0999999977648","88714","pSARL_v2","pSARL_v2g9z1u2jb","5b3e2334cdb4ce0001d93c51","freqPrac","img/green_2bandit_a2.png","70","70","prac","1","","","","",""
"356.0999999977648","89169","pSARL_v2","pSARL_v2g9z1u2jb","5b3e2334cdb4ce0001d93c51","freqPrac_resp","img/green_2bandit_a.png","70","70","prac","","","","","",""
"null","89327","pSARL_v2","pSARL_v2g9z1u2jb","5b3e2334cdb4ce0001d93c51","fixation","img/fixation.png","null","","prac","","","","","",""
"385.5","89716","pSARL_v2","pSARL_v2g9z1u2jb","5b3e2334cdb4ce0001d93c51","infreqPrac","img/orange_2bandit_a2.png","68","68","prac","1","","","","",""
"385.5","90144","pSARL_v2","pSARL_v2g9z1u2jb","5b3e2334cdb4ce0001d93c51","infreqPrac_resp","img/orange_2bandit_a.png","68","68","prac","","","","","",""
"null","90304","pSARL_v2","pSARL_v2g9z1u2jb","5b3e2334cdb4ce0001d93c51","fixation","img/fixation.png","null","","prac","","","","","",""
"435.9000000022352","90743","pSARL_v2","pSARL_v2g9z1u2jb","5b3e2334cdb4ce0001d93c51","freqPrac","img/green_2bandit_a2.png","70","70","prac","1","","","","",""
"435.9000000022352","91122","pSARL_v2","pSARL_v2g9z1u2jb","5b3e2334cdb4ce0001d93c51","freqPrac_resp","img/green_2bandit_a.png","70","70","prac","","","","","",""
"null","91279","pSARL_v2","pSARL_v2g9z1u2jb","5b3e2334cdb4ce0001d93c51","fixation","img/fixation.png","null","","prac","","","","","",""
"343.80000000074506","91626","pSARL_v2","pSARL_v2g9z1u2jb","5b3e2334cdb4ce0001d93c51","freqPrac","img/green_2bandit_a2.png","70","70","prac","1","","","","",""
"343.80000000074506","92095","pSARL_v2","pSARL_v2g9z1u2jb","5b3e2334cdb4ce0001d93c51","freqPrac_resp","img/green_2bandit_a.png","70","70","prac","","","","","",""
"null","92253","pSARL_v2","pSARL_v2g9z1u2jb","5b3e2334cdb4ce0001d93c51","fixation","img/fixation.png","null","","prac","","","","","",""
"22611.89999999851","114868","pSARL_v2","pSARL_v2g9z1u2jb","5b3e2334cdb4ce0001d93c51","","","","","prac","","","","","",""
"529.8000000007451","115401","pSARL_v2","pSARL_v2g9z1u2jb","5b3e2334cdb4ce0001d93c51","rewardPractice","img/slot.png","74","","prac","","","","","",""
"null","116168","pSARL_v2","pSARL_v2g9z1u2jb","5b3e2334cdb4ce0001d93c51","feedback","<div class=""veryhighPoints""> +15 </div>","null","na","prac","","","","","",""
"null","116324","pSARL_v2","pSARL_v2g9z1u2jb","5b3e2334cdb4ce0001d93c51","fixation","img/fixation.png","null","","prac","","","","","",""
"4649.099999997765","120976","pSARL_v2","pSARL_v2g9z1u2jb","5b3e2334cdb4ce0001d93c51","","","","","prac","","","","","",""
"723.7999999970198","121703","pSARL_v2","pSARL_v2g9z1u2jb","5b3e2334cdb4ce0001d93c51","freq","img/green_2bandit_a2.png","70","70","test","1","1","1","1","",""
"null","121789","pSARL_v2","pSARL_v2g9z1u2jb","5b3e2334cdb4ce0001d93c51","freq_resp","img/green_2bandit_a.png","70","70","test","","","","1","",""
"null","121947","pSARL_v2","pSARL_v2g9z1u2jb","5b3e2334cdb4ce0001d93c51","fixation","img/fixation.png","null","","test","","","","","",""
"359.1000000014901","122310","pSARL_v2","pSARL_v2g9z1u2jb","5b3e2334cdb4ce0001d93c51","freq","img/green_2bandit_a2.png","70","70","test","1","2","2","1","",""
"null","122765","pSARL_v2","pSARL_v2g9z1u2jb","5b3e2334cdb4ce0001d93c51","freq_resp","img/green_2bandit_a.png","70","70","test","","","","1","",""
"null","122921","pSARL_v2","pSARL_v2g9z1u2jb","5b3e2334cdb4ce0001d93c51","fixation","img/fixation.png","null","","test","","","","","",""
"341.80000000074506","123266","pSARL_v2","pSARL_v2g9z1u2jb","5b3e2334cdb4ce0001d93c51","freq","img/green_2bandit_a2.png","70","70","test","1","3","3","1","",""
"null","123729","pSARL_v2","pSARL_v2g9z1u2jb","5b3e2334cdb4ce0001d93c51","freq_resp","img/green_2bandit_a.png","70","70","test","","","","1","",""
"null","123886","pSARL_v2","pSARL_v2g9z1u2jb","5b3e2334cdb4ce0001d93c51","fixation","img/fixation.png","null","","test","","","","","",""
"344","124234","pSARL_v2","pSARL_v2g9z1u2jb","5b3e2334cdb4ce0001d93c51","freq","img/green_2bandit_a2.png","70","70","test","1","4","4","1","",""
"null","124705","pSARL_v2","pSARL_v2g9z1u2jb","5b3e2334cdb4ce0001d93c51","freq_resp","img/green_2bandit_a.png","70","70","test","","","","1","",""
"null","124863","pSARL_v2","pSARL_v2g9z1u2jb","5b3e2334cdb4ce0001d93c51","fixation","img/fixation.png","null","","test","","","","","",""
"351.8999999985099","125218","pSARL_v2","pSARL_v2g9z1u2jb","5b3e2334cdb4ce0001d93c51","freq","img/green_2bandit_a2.png","70","70","test","1","5","5","1","",""
"null","125684","pSARL_v2","pSARL_v2g9z1u2jb","5b3e2334cdb4ce0001d93c51","freq_resp","img/green_2bandit_a.png","70","70","test","","","","1","",""
"null","125840","pSARL_v2","pSARL_v2g9z1u2jb","5b3e2334cdb4ce0001d93c51","fixation","img/fixation.png","null","","test","","","","","",""
"343","126186","pSARL_v2","pSARL_v2g9z1u2jb","5b3e2334cdb4ce0001d93c51","freq","img/green_2bandit_a2.png","70","70","test","1","6","6","1","",""
"null","126661","pSARL_v2","pSARL_v2g9z1u2jb","5b3e2334cdb4ce0001d93c51","freq_resp","img/green_2bandit_a.png","70","70","test","","","","1","",""
"null","126819","pSARL_v2","pSARL_v2g9z1u2jb","5b3e2334cdb4ce0001d93c51","fixation","img/fixation.png","null","","test","","","","","",""
"328.30000000074506","127151","pSARL_v2","pSARL_v2g9z1u2jb","5b3e2334cdb4ce0001d93c51","freq","img/green_2bandit_a2.png","70","70","test","1","7","7","1","",""
"null","127638","pSARL_v2","pSARL_v2g9z1u2jb","5b3e2334cdb4ce0001d93c51","freq_resp","img/green_2bandit_a.png","70","70","test","","","","1","",""
"null","127797","pSARL_v2","pSARL_v2g9z1u2jb","5b3e2334cdb4ce0001d93c51","fixation","img/fixation.png","null","","test","","","","","",""
"426.70000000298023","128227","pSARL_v2","pSARL_v2g9z1u2jb","5b3e2334cdb4ce0001d93c51","infreq","img/orange_2bandit_a2.png","68","68","test","1","8","8","1","",""
"null","128617","pSARL_v2","pSARL_v2g9z1u2jb","5b3e2334cdb4ce0001d93c51","infreq_resp","img/orange_2bandit_a.png","68","68","test","","","","1","",""
"null","128772","pSARL_v2","pSARL_v2g9z1u2jb","5b3e2334cdb4ce0001d93c51","fixation","img/fixation.png","null","","test","","","","","",""
"419","129194","pSARL_v2","pSARL_v2g9z1u2jb","5b3e2334cdb4ce0001d93c51","freq","img/green_2bandit_a2.png","70","70","test","1","9","9","1","",""
"null","129580","pSARL_v2","pSARL_v2g9z1u2jb","5b3e2334cdb4ce0001d93c51","freq_resp","img/green_2bandit_a.png","70","70","test","","","","1","",""
"null","129738","pSARL_v2","pSARL_v2g9z1u2jb","5b3e2334cdb4ce0001d93c51","fixation","img/fixation.png","null","","test","","","","","",""
"339.5","130082","pSARL_v2","pSARL_v2g9z1u2jb","5b3e2334cdb4ce0001d93c51","freq","img/green_2bandit_a2.png","70","70","test","1","10","10","1","",""
"null","130558","pSARL_v2","pSARL_v2g9z1u2jb","5b3e2334cdb4ce0001d93c51","freq_resp","img/green_2bandit_a.png","70","70","test","","","","1","",""
"null","130714","pSARL_v2","pSARL_v2g9z1u2jb","5b3e2334cdb4ce0001d93c51","fixation","img/fixation.png","null","","test","","","","","",""
"319.30000000074506","131037","pSARL_v2","pSARL_v2g9z1u2jb","5b3e2334cdb4ce0001d93c51","freq","img/green_2bandit_a2.png","70","70","test","1","11","11","1","",""
"null","131533","pSARL_v2","pSARL_v2g9z1u2jb","5b3e2334cdb4ce0001d93c51","freq_resp","img/green_2bandit_a.png","70","70","test","","","","1","",""
"null","131690","pSARL_v2","pSARL_v2g9z1u2jb","5b3e2334cdb4ce0001d93c51","fixation","img/fixation.png","null","","test","","","","","",""
"272.30000000074506","131966","pSARL_v2","pSARL_v2g9z1u2jb","5b3e2334cdb4ce0001d93c51","freq","img/green_2bandit_a2.png","70","70","test","1","12","12","1","",""
"null","132499","pSARL_v2","pSARL_v2g9z1u2jb","5b3e2334cdb4ce0001d93c51","freq_resp","img/green_2bandit_a.png","70","70","test","","","","1","",""
"null","132656","pSARL_v2","pSARL_v2g9z1u2jb","5b3e2334cdb4ce0001d93c51","fixation","img/fixation.png","null","","test","","","","","",""
"285.19999999925494","132944","pSARL_v2","pSARL_v2g9z1u2jb","5b3e2334cdb4ce0001d93c51","freq","img/green_2bandit_a2.png","70","70","test","1","13","13","1","",""
"null","133477","pSARL_v2","pSARL_v2g9z1u2jb","5b3e2334cdb4ce0001d93c51","freq_resp","img/green_2bandit_a.png","70","70","test","","","","1","",""
"null","133636","pSARL_v2","pSARL_v2g9z1u2jb","5b3e2334cdb4ce0001d93c51","fixation","img/fixation.png","null","","test","","","","","",""
"341.6000000014901","133982","pSARL_v2","pSARL_v2g9z1u2jb","5b3e2334cdb4ce0001d93c51","freq","img/green_2bandit_a2.png","70","70","test","1","14","14","1","",""
"null","134454","pSARL_v2","pSARL_v2g9z1u2jb","5b3e2334cdb4ce0001d93c51","freq_resp","img/green_2bandit_a.png","70","70","test","","","","1","",""
"null","134610","pSARL_v2","pSARL_v2g9z1u2jb","5b3e2334cdb4ce0001d93c51","fixation","img/fixation.png","null","","test","","","","","",""
"306.6000000014901","134920","pSARL_v2","pSARL_v2g9z1u2jb","5b3e2334cdb4ce0001d93c51","freq","img/green_2bandit_a2.png","70","70","test","1","15","15","1","",""
"null","135432","pSARL_v2","pSARL_v2g9z1u2jb","5b3e2334cdb4ce0001d93c51","freq_resp","img/green_2bandit_a.png","70","70","test","","","","1","",""
"null","135588","pSARL_v2","pSARL_v2g9z1u2jb","5b3e2334cdb4ce0001d93c51","fixation","img/fixation.png","null","","test","","","","","",""
"320.1000000014901","135911","pSARL_v2","pSARL_v2g9z1u2jb","5b3e2334cdb4ce0001d93c51","freq","img/green_2bandit_a2.png","70","70","test","1","16","16","1","",""
"null","136409","pSARL_v2","pSARL_v2g9z1u2jb","5b3e2334cdb4ce0001d93c51","freq_resp","img/green_2bandit_a.png","70","70","test","","","","1","",""
"null","136570","pSARL_v2","pSARL_v2g9z1u2jb","5b3e2334cdb4ce0001d93c51","fixation","img/fixation.png","null","","test","","","","","",""
"316.0999999977648","136889","pSARL_v2","pSARL_v2g9z1u2jb","5b3e2334cdb4ce0001d93c51","freq","img/green_2bandit_a2.png","70","70","test","1","17","17","1","",""
"null","137390","pSARL_v2","pSARL_v2g9z1u2jb","5b3e2334cdb4ce0001d93c51","freq_resp","img/green_2bandit_a.png","70","70","test","","","","1","",""
"null","137545","pSARL_v2","pSARL_v2g9z1u2jb","5b3e2334cdb4ce0001d93c51","fixation","img/fixation.png","null","","test","","","","","",""
"355","137904","pSARL_v2","pSARL_v2g9z1u2jb","5b3e2334cdb4ce0001d93c51","freq","img/green_2bandit_a2.png","70","70","test","1","18","18","1","",""
"null","138363","pSARL_v2","pSARL_v2g9z1u2jb","5b3e2334cdb4ce0001d93c51","freq_resp","img/green_2bandit_a.png","70","70","test","","","","1","",""
"null","138520","pSARL_v2","pSARL_v2g9z1u2jb","5b3e2334cdb4ce0001d93c51","fixation","img/fixation.png","null","","test","","","","","",""
"228.70000000298023","138752","pSARL_v2","pSARL_v2g9z1u2jb","5b3e2334cdb4ce0001d93c51","freq","img/green_2bandit_a2.png","70","70","test","1","19","19","1","",""
"null","139343","pSARL_v2","pSARL_v2g9z1u2jb","5b3e2334cdb4ce0001d93c51","freq_resp","img/green_2bandit_a.png","70","70","test","","","","1","",""
"null","139501","pSARL_v2","pSARL_v2g9z1u2jb","5b3e2334cdb4ce0001d93c51","fixation","img/fixation.png","null","","test","","","","","",""
"422.30000000074506","139926","pSARL_v2","pSARL_v2g9z1u2jb","5b3e2334cdb4ce0001d93c51","freq","img/green_2bandit_a2.png","70","70","test","1","20","20","1","",""
"null","140322","pSARL_v2","pSARL_v2g9z1u2jb","5b3e2334cdb4ce0001d93c51","freq_resp","img/green_2bandit_a.png","70","70","test","","","","1","",""
"null","140481","pSARL_v2","pSARL_v2g9z1u2jb","5b3e2334cdb4ce0001d93c51","fixation","img/fixation.png","null","","test","","","","","",""
"282.8999999985099","140768","pSARL_v2","pSARL_v2g9z1u2jb","5b3e2334cdb4ce0001d93c51","freq","img/green_2bandit_a2.png","70","70","test","1","21","21","1","",""
"null","141294","pSARL_v2","pSARL_v2g9z1u2jb","5b3e2334cdb4ce0001d93c51","freq_resp","img/green_2bandit_a.png","70","70","test","","","","1","",""
"null","141454","pSARL_v2","pSARL_v2g9z1u2jb","5b3e2334cdb4ce0001d93c51","fixation","img/fixation.png","null","","test","","","","","",""
"251.30000000074506","141709","pSARL_v2","pSARL_v2g9z1u2jb","5b3e2334cdb4ce0001d93c51","freq","img/green_2bandit_a2.png","70","70","test","1","22","22","1","",""
"null","142271","pSARL_v2","pSARL_v2g9z1u2jb","5b3e2334cdb4ce0001d93c51","freq_resp","img/green_2bandit_a.png","70","70","test","","","","1","",""
"null","142429","pSARL_v2","pSARL_v2g9z1u2jb","5b3e2334cdb4ce0001d93c51","fixation","img/fixation.png","null","","test","","","","","",""
"389.80000000074506","142822","pSARL_v2","pSARL_v2g9z1u2jb","5b3e2334cdb4ce0001d93c51","infreq","img/orange_2bandit_a2.png","68","68","test","1","23","23","1","",""
"null","143252","pSARL_v2","pSARL_v2g9z1u2jb","5b3e2334cdb4ce0001d93c51","infreq_resp","img/orange_2bandit_a.png","68","68","test","","","","1","",""
"null","143407","pSARL_v2","pSARL_v2g9z1u2jb","5b3e2334cdb4ce0001d93c51","fixation","img/fixation.png","null","","test","","","","","",""
"381.80000000074506","143793","pSARL_v2","pSARL_v2g9z1u2jb","5b3e2334cdb4ce0001d93c51","freq","img/green_2bandit_a2.png","70","70","test","1","24","24","1","",""
"null","144229","pSARL_v2","pSARL_v2g9z1u2jb","5b3e2334cdb4ce0001d93c51","freq_resp","img/green_2bandit_a.png","70","70","test","","","","1","",""
"null","144386","pSARL_v2","pSARL_v2g9z1u2jb","5b3e2334cdb4ce0001d93c51","fixation","img/fixation.png","null","","test","","","","","",""
"336.20000000298023","144726","pSARL_v2","pSARL_v2g9z1u2jb","5b3e2334cdb4ce0001d93c51","freq","img/green_2bandit_a2.png","70","70","test","1","25","25","1","",""
"null","145204","pSARL_v2","pSARL_v2g9z1u2jb","5b3e2334cdb4ce0001d93c51","freq_resp","img/green_2bandit_a.png","70","70","test","","","","1","",""
"null","145364","pSARL_v2","pSARL_v2g9z1u2jb","5b3e2334cdb4ce0001d93c51","fixation","img/fixation.png","null","","test","","","","","",""
"344.80000000074506","145713","pSARL_v2","pSARL_v2g9z1u2jb","5b3e2334cdb4ce0001d93c51","freq","img/green_2bandit_a2.png","70","70","test","1","26","26","1","",""
"null","146181","pSARL_v2","pSARL_v2g9z1u2jb","5b3e2334cdb4ce0001d93c51","freq_resp","img/green_2bandit_a.png","70","70","test","","","","1","",""
"null","146338","pSARL_v2","pSARL_v2g9z1u2jb","5b3e2334cdb4ce0001d93c51","fixation","img/fixation.png","null","","test","","","","","",""
"509.4000000022352","146851","pSARL_v2","pSARL_v2g9z1u2jb","5b3e2334cdb4ce0001d93c51","reward","img/slot.png","74","","test","","","","","",""
"null","147613","pSARL_v2","pSARL_v2g9z1u2jb","5b3e2334cdb4ce0001d93c51","points","<div class=""verylowPoints""> -6 </div>","null","na","test","","","","1","-6","0"
"437.1000000014901","148053","pSARL_v2","pSARL_v2g9z1u2jb","5b3e2334cdb4ce0001d93c51","freq","img/green_2bandit_a2.png","70","70","test","1","27","27","2","",""
"null","148436","pSARL_v2","pSARL_v2g9z1u2jb","5b3e2334cdb4ce0001d93c51","freq_resp","img/green_2bandit_a.png","70","70","test","","","","2","",""
"null","148606","pSARL_v2","pSARL_v2g9z1u2jb","5b3e2334cdb4ce0001d93c51","fixation","img/fixation.png","null","","test","","","","","",""
"325.30000000074506","148935","pSARL_v2","pSARL_v2g9z1u2jb","5b3e2334cdb4ce0001d93c51","freq","img/green_2bandit_a2.png","70","70","test","1","28","28","2","",""
"null","149425","pSARL_v2","pSARL_v2g9z1u2jb","5b3e2334cdb4ce0001d93c51","freq_resp","img/green_2bandit_a.png","70","70","test","","","","2","",""
"null","149581","pSARL_v2","pSARL_v2g9z1u2jb","5b3e2334cdb4ce0001d93c51","fixation","img/fixation.png","null","","test","","","","","",""
"310.19999999925494","149895","pSARL_v2","pSARL_v2g9z1u2jb","5b3e2334cdb4ce0001d93c51","freq","img/green_2bandit_a2.png","70","70","test","1","29","29","2","",""
"null","150396","pSARL_v2","pSARL_v2g9z1u2jb","5b3e2334cdb4ce0001d93c51","freq_resp","img/green_2bandit_a.png","70","70","test","","","","2","",""
"null","150555","pSARL_v2","pSARL_v2g9z1u2jb","5b3e2334cdb4ce0001d93c51","fixation","img/fixation.png","null","","test","","","","","",""
"340.8999999985099","150899","pSARL_v2","pSARL_v2g9z1u2jb","5b3e2334cdb4ce0001d93c51","infreq","img/orange_2bandit_a2.png","68","68","test","1","30","30","2","",""
"null","151374","pSARL_v2","pSARL_v2g9z1u2jb","5b3e2334cdb4ce0001d93c51","infreq_resp","img/orange_2bandit_a.png","68","68","test","","","","2","",""
"null","151531","pSARL_v2","pSARL_v2g9z1u2jb","5b3e2334cdb4ce0001d93c51","fixation","img/fixation.png","null","","test","","","","","",""
"372.30000000074506","151907","pSARL_v2","pSARL_v2g9z1u2jb","5b3e2334cdb4ce0001d93c51","freq","img/green_2bandit_a2.png","70","70","test","1","31","31","2","",""
"null","152345","pSARL_v2","pSARL_v2g9z1u2jb","5b3e2334cdb4ce0001d93c51","freq_resp","img/green_2bandit_a.png","70","70","test","","","","2","",""
"null","152504","pSARL_v2","pSARL_v2g9z1u2jb","5b3e2334cdb4ce0001d93c51","fixation","img/fixation.png","null","","test","","","","","",""
"346.9000000022352","152856","pSARL_v2","pSARL_v2g9z1u2jb","5b3e2334cdb4ce0001d93c51","freq","img/green_2bandit_a2.png","70","70","test","1","32","32","2","",""
"null","153319","pSARL_v2","pSARL_v2g9z1u2jb","5b3e2334cdb4ce0001d93c51","freq_resp","img/green_2bandit_a.png","70","70","test","","","","2","",""
"null","153476","pSARL_v2","pSARL_v2g9z1u2jb","5b3e2334cdb4ce0001d93c51","fixation","img/fixation.png","null","","test","","","","","",""
"303.4000000022352","153783","pSARL_v2","pSARL_v2g9z1u2jb","5b3e2334cdb4ce0001d93c51","freq","img/green_2bandit_a2.png","70","70","test","1","33","33","2","",""
"null","154297","pSARL_v2","pSARL_v2g9z1u2jb","5b3e2334cdb4ce0001d93c51","freq_resp","img/green_2bandit_a.png","70","70","test","","","","2","",""
"null","154457","pSARL_v2","pSARL_v2g9z1u2jb","5b3e2334cdb4ce0001d93c51","fixation","img/fixation.png","null","","test","","","","","",""
"357.79999999701977","154818","pSARL_v2","pSARL_v2g9z1u2jb","5b3e2334cdb4ce0001d93c51","infreq","img/orange_2bandit_a2.png","68","68","test","1","34","34","2","",""
"null","155273","pSARL_v2","pSARL_v2g9z1u2jb","5b3e2334cdb4ce0001d93c51","infreq_resp","img/orange_2bandit_a.png","68","68","test","","","","2","",""
"null","155430","pSARL_v2","pSARL_v2g9z1u2jb","5b3e2334cdb4ce0001d93c51","fixation","img/fixation.png","null","","test","","","","","",""
"393.1000000014901","155827","pSARL_v2","pSARL_v2g9z1u2jb","5b3e2334cdb4ce0001d93c51","freq","img/green_2bandit_a2.png","70","70","test","1","35","35","2","",""
"null","156243","pSARL_v2","pSARL_v2g9z1u2jb","5b3e2334cdb4ce0001d93c51","freq_resp","img/green_2bandit_a.png","70","70","test","","","","2","",""
"null","156398","pSARL_v2","pSARL_v2g9z1u2jb","5b3e2334cdb4ce0001d93c51","fixation","img/fixation.png","null","","test","","","","","",""
"341.1000000014901","156743","pSARL_v2","pSARL_v2g9z1u2jb","5b3e2334cdb4ce0001d93c51","freq","img/green_2bandit_a2.png","70","70","test","1","36","36","2","",""
"null","157215","pSARL_v2","pSARL_v2g9z1u2jb","5b3e2334cdb4ce0001d93c51","freq_resp","img/green_2bandit_a.png","70","70","test","","","","2","",""
"null","157372","pSARL_v2","pSARL_v2g9z1u2jb","5b3e2334cdb4ce0001d93c51","fixation","img/fixation.png","null","","test","","","","","",""
"357.6000000014901","157733","pSARL_v2","pSARL_v2g9z1u2jb","5b3e2334cdb4ce0001d93c51","freq","img/green_2bandit_a2.png","70","70","test","1","37","37","2","",""
"null","158187","pSARL_v2","pSARL_v2g9z1u2jb","5b3e2334cdb4ce0001d93c51","freq_resp","img/green_2bandit_a.png","70","70","test","","","","2","",""
"null","158345","pSARL_v2","pSARL_v2g9z1u2jb","5b3e2334cdb4ce0001d93c51","fixation","img/fixation.png","null","","test","","","","","",""
"328.30000000074506","158677","pSARL_v2","pSARL_v2g9z1u2jb","5b3e2334cdb4ce0001d93c51","freq","img/green_2bandit_a2.png","70","70","test","1","38","38","2","",""
"null","159165","pSARL_v2","pSARL_v2g9z1u2jb","5b3e2334cdb4ce0001d93c51","freq_resp","img/green_2bandit_a.png","70","70","test","","","","2","",""
"null","159320","pSARL_v2","pSARL_v2g9z1u2jb","5b3e2334cdb4ce0001d93c51","fixation","img/fixation.png","null","","test","","","","","",""
"334.19999999925494","159658","pSARL_v2","pSARL_v2g9z1u2jb","5b3e2334cdb4ce0001d93c51","freq","img/green_2bandit_a2.png","70","70","test","1","39","39","2","",""
"null","160136","pSARL_v2","pSARL_v2g9z1u2jb","5b3e2334cdb4ce0001d93c51","freq_resp","img/green_2bandit_a.png","70","70","test","","","","2","",""
"null","160294","pSARL_v2","pSARL_v2g9z1u2jb","5b3e2334cdb4ce0001d93c51","fixation","img/fixation.png","null","","test","","","","","",""
"377.19999999925494","160676","pSARL_v2","pSARL_v2g9z1u2jb","5b3e2334cdb4ce0001d93c51","freq","img/green_2bandit_a2.png","70","70","test","1","40","40","2","",""
"null","161115","pSARL_v2","pSARL_v2g9z1u2jb","5b3e2334cdb4ce0001d93c51","freq_resp","img/green_2bandit_a.png","70","70","test","","","","2","",""
"null","161274","pSARL_v2","pSARL_v2g9z1u2jb","5b3e2334cdb4ce0001d93c51","fixation","img/fixation.png","null","","test","","","","","",""
"363.30000000074506","161640","pSARL_v2","pSARL_v2g9z1u2jb","5b3e2334cdb4ce0001d93c51","freq","img/green_2bandit_a2.png","70","70","test","1","41","41","2","",""
"null","162087","pSARL_v2","pSARL_v2g9z1u2jb","5b3e2334cdb4ce0001d93c51","freq_resp","img/green_2bandit_a.png","70","70","test","","","","2","",""
"null","162244","pSARL_v2","pSARL_v2g9z1u2jb","5b3e2334cdb4ce0001d93c51","fixation","img/fixation.png","null","","test","","","","","",""
"355.1000000014901","162602","pSARL_v2","pSARL_v2g9z1u2jb","5b3e2334cdb4ce0001d93c51","freq","img/green_2bandit_a2.png","70","70","test","1","42","42","2","",""
"null","163060","pSARL_v2","pSARL_v2g9z1u2jb","5b3e2334cdb4ce0001d93c51","freq_resp","img/green_2bandit_a.png","70","70","test","","","","2","",""
"null","163218","pSARL_v2","pSARL_v2g9z1u2jb","5b3e2334cdb4ce0001d93c51","fixation","img/fixation.png","null","","test","","","","","",""
"401.9000000022352","163624","pSARL_v2","pSARL_v2g9z1u2jb","5b3e2334cdb4ce0001d93c51","freq","img/green_2bandit_a2.png","70","70","test","1","43","43","2","",""
"null","164031","pSARL_v2","pSARL_v2g9z1u2jb","5b3e2334cdb4ce0001d93c51","freq_resp","img/green_2bandit_a.png","70","70","test","","","","2","",""
"null","164189","pSARL_v2","pSARL_v2g9z1u2jb","5b3e2334cdb4ce0001d93c51","fixation","img/fixation.png","null","","test","","","","","",""
"488.69999999925494","164682","pSARL_v2","pSARL_v2g9z1u2jb","5b3e2334cdb4ce0001d93c51","freq","img/green_2bandit_a2.png","70","70","test","1","44","44","2","",""
"null","165004","pSARL_v2","pSARL_v2g9z1u2jb","5b3e2334cdb4ce0001d93c51","freq_resp","img/green_2bandit_a.png","70","70","test","","","","2","",""
"null","165174","pSARL_v2","pSARL_v2g9z1u2jb","5b3e2334cdb4ce0001d93c51","fixation","img/fixation.png","null","","test","","","","","",""
"497.1000000014901","165674","pSARL_v2","pSARL_v2g9z1u2jb","5b3e2334cdb4ce0001d93c51","freq","img/green_2bandit_a2.png","70","70","test","1","45","45","2","",""
"null","165991","pSARL_v2","pSARL_v2g9z1u2jb","5b3e2334cdb4ce0001d93c51","freq_resp","img/green_2bandit_a.png","70","70","test","","","","2","",""
"null","166146","pSARL_v2","pSARL_v2g9z1u2jb","5b3e2334cdb4ce0001d93c51","fixation","img/fixation.png","null","","test","","","","","",""
"441.79999999701977","166591","pSARL_v2","pSARL_v2g9z1u2jb","5b3e2334cdb4ce0001d93c51","freq","img/green_2bandit_a2.png","70","70","test","1","46","46","2","",""
"null","166967","pSARL_v2","pSARL_v2g9z1u2jb","5b3e2334cdb4ce0001d93c51","freq_resp","img/green_2bandit_a.png","70","70","test","","","","2","",""
"null","167124","pSARL_v2","pSARL_v2g9z1u2jb","5b3e2334cdb4ce0001d93c51","fixation","img/fixation.png","null","","test","","","","","",""
"321.5999999977648","167449","pSARL_v2","pSARL_v2g9z1u2jb","5b3e2334cdb4ce0001d93c51","freq","img/green_2bandit_a2.png","70","70","test","1","47","47","2","",""
"null","167943","pSARL_v2","pSARL_v2g9z1u2jb","5b3e2334cdb4ce0001d93c51","freq_resp","img/green_2bandit_a.png","70","70","test","","","","2","",""
"null","168099","pSARL_v2","pSARL_v2g9z1u2jb","5b3e2334cdb4ce0001d93c51","fixation","img/fixation.png","null","","test","","","","","",""
"331.9000000022352","168435","pSARL_v2","pSARL_v2g9z1u2jb","5b3e2334cdb4ce0001d93c51","freq","img/green_2bandit_a2.png","70","70","test","1","48","48","2","",""
"null","168917","pSARL_v2","pSARL_v2g9z1u2jb","5b3e2334cdb4ce0001d93c51","freq_resp","img/green_2bandit_a.png","70","70","test","","","","2","",""
"null","169073","pSARL_v2","pSARL_v2g9z1u2jb","5b3e2334cdb4ce0001d93c51","fixation","img/fixation.png","null","","test","","","","","",""
"515.1999999992549","169592","pSARL_v2","pSARL_v2g9z1u2jb","5b3e2334cdb4ce0001d93c51","reward","img/slot.png","74","","test","","","","","",""
"null","170358","pSARL_v2","pSARL_v2g9z1u2jb","5b3e2334cdb4ce0001d93c51","points","<div class=""verylowPoints""> -11 </div>","null","na","test","","","","2","-11","1"
"376.19999999925494","170738","pSARL_v2","pSARL_v2g9z1u2jb","5b3e2334cdb4ce0001d93c51","freq","img/green_2bandit_a2.png","70","70","test","1","49","49","3","",""
"null","171174","pSARL_v2","pSARL_v2g9z1u2jb","5b3e2334cdb4ce0001d93c51","freq_resp","img/green_2bandit_a.png","70","70","test","","","","3","",""
"null","171332","pSARL_v2","pSARL_v2g9z1u2jb","5b3e2334cdb4ce0001d93c51","fixation","img/fixation.png","null","","test","","","","","",""
"333.19999999925494","171668","pSARL_v2","pSARL_v2g9z1u2jb","5b3e2334cdb4ce0001d93c51","freq","img/green_2bandit_a2.png","70","70","test","1","50","50","3","",""
"null","172148","pSARL_v2","pSARL_v2g9z1u2jb","5b3e2334cdb4ce0001d93c51","freq_resp","img/green_2bandit_a.png","70","70","test","","","","3","",""
"null","172316","pSARL_v2","pSARL_v2g9z1u2jb","5b3e2334cdb4ce0001d93c51","fixation","img/fixation.png","null","","test","","","","","",""
"310.30000000074506","172630","pSARL_v2","pSARL_v2g9z1u2jb","5b3e2334cdb4ce0001d93c51","freq","img/green_2bandit_a2.png","70","70","test","1","51","51","3","",""
"null","173135","pSARL_v2","pSARL_v2g9z1u2jb","5b3e2334cdb4ce0001d93c51","freq_resp","img/green_2bandit_a.png","70","70","test","","","","3","",""
"null","173305","pSARL_v2","pSARL_v2g9z1u2jb","5b3e2334cdb4ce0001d93c51","fixation","img/fixation.png","null","","test","","","","","",""
"381.3999999985099","173689","pSARL_v2","pSARL_v2g9z1u2jb","5b3e2334cdb4ce0001d93c51","freq","img/green_2bandit_a2.png","70","70","test","1","52","52","3","",""
"null","174126","pSARL_v2","pSARL_v2g9z1u2jb","5b3e2334cdb4ce0001d93c51","freq_resp","img/green_2bandit_a.png","70","70","test","","","","3","",""
"null","174285","pSARL_v2","pSARL_v2g9z1u2jb","5b3e2334cdb4ce0001d93c51","fixation","img/fixation.png","null","","test","","","","","",""
"368.4000000022352","174657","pSARL_v2","pSARL_v2g9z1u2jb","5b3e2334cdb4ce0001d93c51","freq","img/green_2bandit_a2.png","70","70","test","1","53","53","3","",""
"null","175104","pSARL_v2","pSARL_v2g9z1u2jb","5b3e2334cdb4ce0001d93c51","freq_resp","img/green_2bandit_a.png","70","70","test","","","","3","",""
"null","175260","pSARL_v2","pSARL_v2g9z1u2jb","5b3e2334cdb4ce0001d93c51","fixation","img/fixation.png","null","","test","","","","","",""
"415","175678","pSARL_v2","pSARL_v2g9z1u2jb","5b3e2334cdb4ce0001d93c51","freq","img/green_2bandit_a2.png","70","70","test","1","54","54","3","",""
"null","176075","pSARL_v2","pSARL_v2g9z1u2jb","5b3e2334cdb4ce0001d93c51","freq_resp","img/green_2bandit_a.png","70","70","test","","","","3","",""
"null","176234","pSARL_v2","pSARL_v2g9z1u2jb","5b3e2334cdb4ce0001d93c51","fixation","img/fixation.png","null","","test","","","","","",""
"527.2999999970198","176765","pSARL_v2","pSARL_v2g9z1u2jb","5b3e2334cdb4ce0001d93c51","infreq","img/orange_2bandit_a2.png","68","68","test","1","55","55","3","",""
"null","177054","pSARL_v2","pSARL_v2g9z1u2jb","5b3e2334cdb4ce0001d93c51","infreq_resp","img/orange_2bandit_a.png","68","68","test","","","","3","",""
"null","177209","pSARL_v2","pSARL_v2g9z1u2jb","5b3e2334cdb4ce0001d93c51","fixation","img/fixation.png","null","","test","","","","","",""
"520.1999999992549","177733","pSARL_v2","pSARL_v2g9z1u2jb","5b3e2334cdb4ce0001d93c51","freq","img/green_2bandit_a2.png","70","70","test","1","56","56","3","",""
"null","178031","pSARL_v2","pSARL_v2g9z1u2jb","5b3e2334cdb4ce0001d93c51","freq_resp","img/green_2bandit_a.png","70","70","test","","","","3","",""
"null","178191","pSARL_v2","pSARL_v2g9z1u2jb","5b3e2334cdb4ce0001d93c51","fixation","img/fixation.png","null","","test","","","","","",""
"480.0999999977648","178675","pSARL_v2","pSARL_v2g9z1u2jb","5b3e2334cdb4ce0001d93c51","freq","img/green_2bandit_a2.png","70","70","test","1","57","57","3","",""
"null","179008","pSARL_v2","pSARL_v2g9z1u2jb","5b3e2334cdb4ce0001d93c51","freq_resp","img/green_2bandit_a.png","70","70","test","","","","3","",""
"null","179166","pSARL_v2","pSARL_v2g9z1u2jb","5b3e2334cdb4ce0001d93c51","fixation","img/fixation.png","null","","test","","","","","",""
"321.5","179491","pSARL_v2","pSARL_v2g9z1u2jb","5b3e2334cdb4ce0001d93c51","freq","img/green_2bandit_a2.png","70","70","test","1","58","58","3","",""
"null","179987","pSARL_v2","pSARL_v2g9z1u2jb","5b3e2334cdb4ce0001d93c51","freq_resp","img/green_2bandit_a.png","70","70","test","","","","3","",""
"null","180145","pSARL_v2","pSARL_v2g9z1u2jb","5b3e2334cdb4ce0001d93c51","fixation","img/fixation.png","null","","test","","","","","",""
"407","180556","pSARL_v2","pSARL_v2g9z1u2jb","5b3e2334cdb4ce0001d93c51","infreq","img/orange_2bandit_a2.png","68","68","test","1","59","59","3","",""
"null","180966","pSARL_v2","pSARL_v2g9z1u2jb","5b3e2334cdb4ce0001d93c51","infreq_resp","img/orange_2bandit_a.png","68","68","test","","","","3","",""
"null","181122","pSARL_v2","pSARL_v2g9z1u2jb","5b3e2334cdb4ce0001d93c51","fixation","img/fixation.png","null","","test","","","","","",""
"317.4000000022352","181443","pSARL_v2","pSARL_v2g9z1u2jb","5b3e2334cdb4ce0001d93c51","freq","img/green_2bandit_a2.png","70","70","test","1","60","60","3","",""
"null","181930","pSARL_v2","pSARL_v2g9z1u2jb","5b3e2334cdb4ce0001d93c51","freq_resp","img/green_2bandit_a.png","70","70","test","","","","3","",""
"null","182089","pSARL_v2","pSARL_v2g9z1u2jb","5b3e2334cdb4ce0001d93c51","fixation","img/fixation.png","null","","test","","","","","",""
"350.69999999925494","182443","pSARL_v2","pSARL_v2g9z1u2jb","5b3e2334cdb4ce0001d93c51","freq","img/green_2bandit_a2.png","70","70","test","1","61","61","3","",""
"null","182911","pSARL_v2","pSARL_v2g9z1u2jb","5b3e2334cdb4ce0001d93c51","freq_resp","img/green_2bandit_a.png","70","70","test","","","","3","",""
"null","183069","pSARL_v2","pSARL_v2g9z1u2jb","5b3e2334cdb4ce0001d93c51","fixation","img/fixation.png","null","","test","","","","","",""
"316.6000000014901","183390","pSARL_v2","pSARL_v2g9z1u2jb","5b3e2334cdb4ce0001d93c51","freq","img/green_2bandit_a2.png","70","70","test","1","62","62","3","",""
"null","183885","pSARL_v2","pSARL_v2g9z1u2jb","5b3e2334cdb4ce0001d93c51","freq_resp","img/green_2bandit_a.png","70","70","test","","","","3","",""
"null","184042","pSARL_v2","pSARL_v2g9z1u2jb","5b3e2334cdb4ce0001d93c51","fixation","img/fixation.png","null","","test","","","","","",""
"279.70000000298023","184325","pSARL_v2","pSARL_v2g9z1u2jb","5b3e2334cdb4ce0001d93c51","freq","img/green_2bandit_a2.png","70","70","test","1","63","63","3","",""
"null","184858","pSARL_v2","pSARL_v2g9z1u2jb","5b3e2334cdb4ce0001d93c51","freq_resp","img/green_2bandit_a.png","70","70","test","","","","3","",""
"null","185016","pSARL_v2","pSARL_v2g9z1u2jb","5b3e2334cdb4ce0001d93c51","fixation","img/fixation.png","null","","test","","","","","",""
"306.30000000074506","185326","pSARL_v2","pSARL_v2g9z1u2jb","5b3e2334cdb4ce0001d93c51","freq","img/green_2bandit_a2.png","70","70","test","1","64","64","3","",""
"null","185837","pSARL_v2","pSARL_v2g9z1u2jb","5b3e2334cdb4ce0001d93c51","freq_resp","img/green_2bandit_a.png","70","70","test","","","","3","",""
"null","185993","pSARL_v2","pSARL_v2g9z1u2jb","5b3e2334cdb4ce0001d93c51","fixation","img/fixation.png","null","","test","","","","","",""
"254.19999999925494","186250","pSARL_v2","pSARL_v2g9z1u2jb","5b3e2334cdb4ce0001d93c51","freq","img/green_2bandit_a2.png","70","70","test","1","65","65","3","",""
"null","186809","pSARL_v2","pSARL_v2g9z1u2jb","5b3e2334cdb4ce0001d93c51","freq_resp","img/green_2bandit_a.png","70","70","test","","","","3","",""
"null","186967","pSARL_v2","pSARL_v2g9z1u2jb","5b3e2334cdb4ce0001d93c51","fixation","img/fixation.png","null","","test","","","","","",""
"256.69999999925494","187227","pSARL_v2","pSARL_v2g9z1u2jb","5b3e2334cdb4ce0001d93c51","freq","img/green_2bandit_a2.png","70","70","test","1","66","66","3","",""
"null","187785","pSARL_v2","pSARL_v2g9z1u2jb","5b3e2334cdb4ce0001d93c51","freq_resp","img/green_2bandit_a.png","70","70","test","","","","3","",""
"null","187945","pSARL_v2","pSARL_v2g9z1u2jb","5b3e2334cdb4ce0001d93c51","fixation","img/fixation.png","null","","test","","","","","",""
"305.3999999985099","188253","pSARL_v2","pSARL_v2g9z1u2jb","5b3e2334cdb4ce0001d93c51","freq","img/green_2bandit_a2.png","70","70","test","1","67","67","3","",""
"null","188761","pSARL_v2","pSARL_v2g9z1u2jb","5b3e2334cdb4ce0001d93c51","freq_resp","img/green_2bandit_a.png","70","70","test","","","","3","",""
"null","188921","pSARL_v2","pSARL_v2g9z1u2jb","5b3e2334cdb4ce0001d93c51","fixation","img/fixation.png","null","","test","","","","","",""
"275.1000000014901","189199","pSARL_v2","pSARL_v2g9z1u2jb","5b3e2334cdb4ce0001d93c51","freq","img/green_2bandit_a2.png","70","70","test","1","68","68","3","",""
"null","189738","pSARL_v2","pSARL_v2g9z1u2jb","5b3e2334cdb4ce0001d93c51","freq_resp","img/green_2bandit_a.png","70","70","test","","","","3","",""
"null","189897","pSARL_v2","pSARL_v2g9z1u2jb","5b3e2334cdb4ce0001d93c51","fixation","img/fixation.png","null","","test","","","","","",""
"272.1000000014901","190172","pSARL_v2","pSARL_v2g9z1u2jb","5b3e2334cdb4ce0001d93c51","freq","img/green_2bandit_a2.png","70","70","test","1","69","69","3","",""
"null","190716","pSARL_v2","pSARL_v2g9z1u2jb","5b3e2334cdb4ce0001d93c51","freq_resp","img/green_2bandit_a.png","70","70","test","","","","3","",""
"null","190874","pSARL_v2","pSARL_v2g9z1u2jb","5b3e2334cdb4ce0001d93c51","fixation","img/fixation.png","null","","test","","","","","",""
"276.20000000298023","191154","pSARL_v2","pSARL_v2g9z1u2jb","5b3e2334cdb4ce0001d93c51","freq","img/green_2bandit_a2.png","70","70","test","1","70","70","3","",""
"null","191681","pSARL_v2","pSARL_v2g9z1u2jb","5b3e2334cdb4ce0001d93c51","freq_resp","img/green_2bandit_a.png","70","70","test","","","","3","",""
"null","191838","pSARL_v2","pSARL_v2g9z1u2jb","5b3e2334cdb4ce0001d93c51","fixation","img/fixation.png","null","","test","","","","","",""
"252.59999999776483","192094","pSARL_v2","pSARL_v2g9z1u2jb","5b3e2334cdb4ce0001d93c51","freq","img/green_2bandit_a2.png","70","70","test","1","71","71","3","",""
"null","192646","pSARL_v2","pSARL_v2g9z1u2jb","5b3e2334cdb4ce0001d93c51","freq_resp","img/green_2bandit_a.png","70","70","test","","","","3","",""
"null","192803","pSARL_v2","pSARL_v2g9z1u2jb","5b3e2334cdb4ce0001d93c51","fixation","img/fixation.png","null","","test","","","","","",""
"530.1000000014901","193336","pSARL_v2","pSARL_v2g9z1u2jb","5b3e2334cdb4ce0001d93c51","reward","img/slot.png","74","","test","","","","","",""
"null","194091","pSARL_v2","pSARL_v2g9z1u2jb","5b3e2334cdb4ce0001d93c51","points","<div class=""verylowPoints""> -7 </div>","null","na","test","","","","3","-7","2"
"381.80000000074506","194476","pSARL_v2","pSARL_v2g9z1u2jb","5b3e2334cdb4ce0001d93c51","freq","img/green_2bandit_a2.png","70","70","test","1","72","72","4","",""
"null","194914","pSARL_v2","pSARL_v2g9z1u2jb","5b3e2334cdb4ce0001d93c51","freq_resp","img/green_2bandit_a.png","70","70","test","","","","4","",""
"null","195071","pSARL_v2","pSARL_v2g9z1u2jb","5b3e2334cdb4ce0001d93c51","fixation","img/fixation.png","null","","test","","","","","",""
"391.9000000022352","195467","pSARL_v2","pSARL_v2g9z1u2jb","5b3e2334cdb4ce0001d93c51","freq","img/green_2bandit_a2.png","70","70","test","1","73","73","4","",""
"null","195890","pSARL_v2","pSARL_v2g9z1u2jb","5b3e2334cdb4ce0001d93c51","freq_resp","img/green_2bandit_a.png","70","70","test","","","","4","",""
"null","196046","pSARL_v2","pSARL_v2g9z1u2jb","5b3e2334cdb4ce0001d93c51","fixation","img/fixation.png","null","","test","","","","","",""
"370.19999999925494","196419","pSARL_v2","pSARL_v2g9z1u2jb","5b3e2334cdb4ce0001d93c51","freq","img/green_2bandit_a2.png","70","70","test","1","74","74","4","",""
"null","196867","pSARL_v2","pSARL_v2g9z1u2jb","5b3e2334cdb4ce0001d93c51","freq_resp","img/green_2bandit_a.png","70","70","test","","","","4","",""
"null","197025","pSARL_v2","pSARL_v2g9z1u2jb","5b3e2334cdb4ce0001d93c51","fixation","img/fixation.png","null","","test","","","","","",""
"366.19999999925494","197394","pSARL_v2","pSARL_v2g9z1u2jb","5b3e2334cdb4ce0001d93c51","freq","img/green_2bandit_a2.png","70","70","test","1","75","75","4","",""
"null","197845","pSARL_v2","pSARL_v2g9z1u2jb","5b3e2334cdb4ce0001d93c51","freq_resp","img/green_2bandit_a.png","70","70","test","","","","4","",""
"null","198002","pSARL_v2","pSARL_v2g9z1u2jb","5b3e2334cdb4ce0001d93c51","fixation","img/fixation.png","null","","test","","","","","",""
"314","198320","pSARL_v2","pSARL_v2g9z1u2jb","5b3e2334cdb4ce0001d93c51","freq","img/green_2bandit_a2.png","70","70","test","1","76","76","4","",""
"null","198816","pSARL_v2","pSARL_v2g9z1u2jb","5b3e2334cdb4ce0001d93c51","freq_resp","img/green_2bandit_a.png","70","70","test","","","","4","",""
"null","198972","pSARL_v2","pSARL_v2g9z1u2jb","5b3e2334cdb4ce0001d93c51","fixation","img/fixation.png","null","","test","","","","","",""
"318.9000000022352","199295","pSARL_v2","pSARL_v2g9z1u2jb","5b3e2334cdb4ce0001d93c51","freq","img/green_2bandit_a2.png","70","70","test","1","77","77","4","",""
"null","199795","pSARL_v2","pSARL_v2g9z1u2jb","5b3e2334cdb4ce0001d93c51","freq_resp","img/green_2bandit_a.png","70","70","test","","","","4","",""
"null","199950","pSARL_v2","pSARL_v2g9z1u2jb","5b3e2334cdb4ce0001d93c51","fixation","img/fixation.png","null","","test","","","","","",""
"291.20000000298023","200245","pSARL_v2","pSARL_v2g9z1u2jb","5b3e2334cdb4ce0001d93c51","freq","img/green_2bandit_a2.png","70","70","test","1","78","78","4","",""
"null","200770","pSARL_v2","pSARL_v2g9z1u2jb","5b3e2334cdb4ce0001d93c51","freq_resp","img/green_2bandit_a.png","70","70","test","","","","4","",""
"null","200927","pSARL_v2","pSARL_v2g9z1u2jb","5b3e2334cdb4ce0001d93c51","fixation","img/fixation.png","null","","test","","","","","",""
"293.70000000298023","201224","pSARL_v2","pSARL_v2g9z1u2jb","5b3e2334cdb4ce0001d93c51","freq","img/green_2bandit_a2.png","70","70","test","1","79","79","4","",""
"null","201749","pSARL_v2","pSARL_v2g9z1u2jb","5b3e2334cdb4ce0001d93c51","freq_resp","img/green_2bandit_a.png","70","70","test","","","","4","",""
"null","201904","pSARL_v2","pSARL_v2g9z1u2jb","5b3e2334cdb4ce0001d93c51","fixation","img/fixation.png","null","","test","","","","","",""
"407.0999999977648","202315","pSARL_v2","pSARL_v2g9z1u2jb","5b3e2334cdb4ce0001d93c51","infreq","img/orange_2bandit_a2.png","68","68","test","1","80","80","4","",""
"null","202726","pSARL_v2","pSARL_v2g9z1u2jb","5b3e2334cdb4ce0001d93c51","infreq_resp","img/orange_2bandit_a.png","68","68","test","","","","4","",""
"null","202884","pSARL_v2","pSARL_v2g9z1u2jb","5b3e2334cdb4ce0001d93c51","fixation","img/fixation.png","null","","test","","","","","",""
"400.19999999925494","203288","pSARL_v2","pSARL_v2g9z1u2jb","5b3e2334cdb4ce0001d93c51","freq","img/green_2bandit_a2.png","70","70","test","1","81","81","4","",""
"null","203701","pSARL_v2","pSARL_v2g9z1u2jb","5b3e2334cdb4ce0001d93c51","freq_resp","img/green_2bandit_a.png","70","70","test","","","","4","",""
"null","203858","pSARL_v2","pSARL_v2g9z1u2jb","5b3e2334cdb4ce0001d93c51","fixation","img/fixation.png","null","","test","","","","","",""
"317.5","204179","pSARL_v2","pSARL_v2g9z1u2jb","5b3e2334cdb4ce0001d93c51","freq","img/green_2bandit_a2.png","70","70","test","1","82","82","4","",""
"null","204676","pSARL_v2","pSARL_v2g9z1u2jb","5b3e2334cdb4ce0001d93c51","freq_resp","img/green_2bandit_a.png","70","70","test","","","","4","",""
"null","204834","pSARL_v2","pSARL_v2g9z1u2jb","5b3e2334cdb4ce0001d93c51","fixation","img/fixation.png","null","","test","","","","","",""
"327.69999999925494","205165","pSARL_v2","pSARL_v2g9z1u2jb","5b3e2334cdb4ce0001d93c51","freq","img/green_2bandit_a2.png","70","70","test","1","83","83","4","",""
"null","205654","pSARL_v2","pSARL_v2g9z1u2jb","5b3e2334cdb4ce0001d93c51","freq_resp","img/green_2bandit_a.png","70","70","test","","","","4","",""
"null","205813","pSARL_v2","pSARL_v2g9z1u2jb","5b3e2334cdb4ce0001d93c51","fixation","img/fixation.png","null","","test","","","","","",""
"484.69999999925494","206301","pSARL_v2","pSARL_v2g9z1u2jb","5b3e2334cdb4ce0001d93c51","freq","img/green_2bandit_a2.png","70","70","test","1","84","84","4","",""
"null","206628","pSARL_v2","pSARL_v2g9z1u2jb","5b3e2334cdb4ce0001d93c51","freq_resp","img/green_2bandit_a.png","70","70","test","","","","4","",""
"null","206785","pSARL_v2","pSARL_v2g9z1u2jb","5b3e2334cdb4ce0001d93c51","fixation","img/fixation.png","null","","test","","","","","",""
"266","207055","pSARL_v2","pSARL_v2g9z1u2jb","5b3e2334cdb4ce0001d93c51","freq","img/green_2bandit_a2.png","70","70","test","1","85","85","4","",""
"null","207607","pSARL_v2","pSARL_v2g9z1u2jb","5b3e2334cdb4ce0001d93c51","freq_resp","img/green_2bandit_a.png","70","70","test","","","","4","",""
"null","207761","pSARL_v2","pSARL_v2g9z1u2jb","5b3e2334cdb4ce0001d93c51","fixation","img/fixation.png","null","","test","","","","","",""
"243.80000000074506","208008","pSARL_v2","pSARL_v2g9z1u2jb","5b3e2334cdb4ce0001d93c51","freq","img/green_2bandit_a2.png","70","70","test","1","86","86","4","",""
"null","208579","pSARL_v2","pSARL_v2g9z1u2jb","5b3e2334cdb4ce0001d93c51","freq_resp","img/green_2bandit_a.png","70","70","test","","","","4","",""
"null","208738","pSARL_v2","pSARL_v2g9z1u2jb","5b3e2334cdb4ce0001d93c51","fixation","img/fixation.png","null","","test","","","","","",""
"399.69999999925494","209141","pSARL_v2","pSARL_v2g9z1u2jb","5b3e2334cdb4ce0001d93c51","infreq","img/orange_2bandit_a2.png","68","68","test","1","87","87","4","",""
"null","209556","pSARL_v2","pSARL_v2g9z1u2jb","5b3e2334cdb4ce0001d93c51","infreq_resp","img/orange_2bandit_a.png","68","68","test","","","","4","",""
"null","209714","pSARL_v2","pSARL_v2g9z1u2jb","5b3e2334cdb4ce0001d93c51","fixation","img/fixation.png","null","","test","","","","","",""
"347.20000000298023","210065","pSARL_v2","pSARL_v2g9z1u2jb","5b3e2334cdb4ce0001d93c51","freq","img/green_2bandit_a2.png","70","70","test","1","88","88","4","",""
"null","210535","pSARL_v2","pSARL_v2g9z1u2jb","5b3e2334cdb4ce0001d93c51","freq_resp","img/green_2bandit_a.png","70","70","test","","","","4","",""
"null","210693","pSARL_v2","pSARL_v2g9z1u2jb","5b3e2334cdb4ce0001d93c51","fixation","img/fixation.png","null","","test","","","","","",""
"375.9000000022352","211072","pSARL_v2","pSARL_v2g9z1u2jb","5b3e2334cdb4ce0001d93c51","freq","img/green_2bandit_a2.png","70","70","test","1","89","89","4","",""
"null","211512","pSARL_v2","pSARL_v2g9z1u2jb","5b3e2334cdb4ce0001d93c51","freq_resp","img/green_2bandit_a.png","70","70","test","","","","4","",""
"null","211670","pSARL_v2","pSARL_v2g9z1u2jb","5b3e2334cdb4ce0001d93c51","fixation","img/fixation.png","null","","test","","","","","",""
"301.8999999985099","211977","pSARL_v2","pSARL_v2g9z1u2jb","5b3e2334cdb4ce0001d93c51","freq","img/green_2bandit_a2.png","70","70","test","1","90","90","4","",""
"null","212485","pSARL_v2","pSARL_v2g9z1u2jb","5b3e2334cdb4ce0001d93c51","freq_resp","img/green_2bandit_a.png","70","70","test","","","","4","",""
"null","212640","pSARL_v2","pSARL_v2g9z1u2jb","5b3e2334cdb4ce0001d93c51","fixation","img/fixation.png","null","","test","","","","","",""
"435.69999999925494","213079","pSARL_v2","pSARL_v2g9z1u2jb","5b3e2334cdb4ce0001d93c51","reward","img/slot.png","74","","test","","","","","",""
"null","213839","pSARL_v2","pSARL_v2g9z1u2jb","5b3e2334cdb4ce0001d93c51","points","<div class=""verylowPoints""> -3 </div>","null","na","test","","","","4","-3","3"
"333.19999999925494","214176","pSARL_v2","pSARL_v2g9z1u2jb","5b3e2334cdb4ce0001d93c51","freq","img/green_2bandit_a2.png","70","70","test","1","91","91","5","",""
"null","214659","pSARL_v2","pSARL_v2g9z1u2jb","5b3e2334cdb4ce0001d93c51","freq_resp","img/green_2bandit_a.png","70","70","test","","","","5","",""
"null","214816","pSARL_v2","pSARL_v2g9z1u2jb","5b3e2334cdb4ce0001d93c51","fixation","img/fixation.png","null","","test","","","","","",""
"296.69999999925494","215116","pSARL_v2","pSARL_v2g9z1u2jb","5b3e2334cdb4ce0001d93c51","freq","img/green_2bandit_a2.png","70","70","test","1","92","92","5","",""
"null","215636","pSARL_v2","pSARL_v2g9z1u2jb","5b3e2334cdb4ce0001d93c51","freq_resp","img/green_2bandit_a.png","70","70","test","","","","5","",""
"null","215794","pSARL_v2","pSARL_v2g9z1u2jb","5b3e2334cdb4ce0001d93c51","fixation","img/fixation.png","null","","test","","","","","",""
"308.30000000074506","216106","pSARL_v2","pSARL_v2g9z1u2jb","5b3e2334cdb4ce0001d93c51","freq","img/green_2bandit_a2.png","70","70","test","1","93","93","5","",""
"null","216613","pSARL_v2","pSARL_v2g9z1u2jb","5b3e2334cdb4ce0001d93c51","freq_resp","img/green_2bandit_a.png","70","70","test","","","","5","",""
"null","216771","pSARL_v2","pSARL_v2g9z1u2jb","5b3e2334cdb4ce0001d93c51","fixation","img/fixation.png","null","","test","","","","","",""
"311.3999999985099","217087","pSARL_v2","pSARL_v2g9z1u2jb","5b3e2334cdb4ce0001d93c51","freq","img/green_2bandit_a2.png","70","70","test","1","94","94","5","",""
"null","217591","pSARL_v2","pSARL_v2g9z1u2jb","5b3e2334cdb4ce0001d93c51","freq_resp","img/green_2bandit_a.png","70","70","test","","","","5","",""
"null","217749","pSARL_v2","pSARL_v2g9z1u2jb","5b3e2334cdb4ce0001d93c51","fixation","img/fixation.png","null","","test","","","","","",""
"327.3999999985099","218080","pSARL_v2","pSARL_v2g9z1u2jb","5b3e2334cdb4ce0001d93c51","freq","img/green_2bandit_a2.png","70","70","test","1","95","95","5","",""
"null","218571","pSARL_v2","pSARL_v2g9z1u2jb","5b3e2334cdb4ce0001d93c51","freq_resp","img/green_2bandit_a.png","70","70","test","","","","5","",""
"null","218730","pSARL_v2","pSARL_v2g9z1u2jb","5b3e2334cdb4ce0001d93c51","fixation","img/fixation.png","null","","test","","","","","",""
"299.29999999701977","219032","pSARL_v2","pSARL_v2g9z1u2jb","5b3e2334cdb4ce0001d93c51","freq","img/green_2bandit_a2.png","70","70","test","1","96","96","5","",""
"null","219550","pSARL_v2","pSARL_v2g9z1u2jb","5b3e2334cdb4ce0001d93c51","freq_resp","img/green_2bandit_a.png","70","70","test","","","","5","",""
"null","219706","pSARL_v2","pSARL_v2g9z1u2jb","5b3e2334cdb4ce0001d93c51","fixation","img/fixation.png","null","","test","","","","","",""
"396.80000000074506","220106","pSARL_v2","pSARL_v2g9z1u2jb","5b3e2334cdb4ce0001d93c51","freq","img/green_2bandit_a2.png","70","70","test","1","97","97","5","",""
"null","220523","pSARL_v2","pSARL_v2g9z1u2jb","5b3e2334cdb4ce0001d93c51","freq_resp","img/green_2bandit_a.png","70","70","test","","","","5","",""
"null","220680","pSARL_v2","pSARL_v2g9z1u2jb","5b3e2334cdb4ce0001d93c51","fixation","img/fixation.png","null","","test","","","","","",""
"274.3999999985099","220958","pSARL_v2","pSARL_v2g9z1u2jb","5b3e2334cdb4ce0001d93c51","freq","img/green_2bandit_a2.png","70","70","test","1","98","98","5","",""
"null","221501","pSARL_v2","pSARL_v2g9z1u2jb","5b3e2334cdb4ce0001d93c51","freq_resp","img/green_2bandit_a.png","70","70","test","","","","5","",""
"null","221658","pSARL_v2","pSARL_v2g9z1u2jb","5b3e2334cdb4ce0001d93c51","fixation","img/fixation.png","null","","test","","","","","",""
"302.80000000074506","221964","pSARL_v2","pSARL_v2g9z1u2jb","5b3e2334cdb4ce0001d93c51","freq","img/green_2bandit_a2.png","70","70","test","1","99","99","5","",""
"null","222478","pSARL_v2","pSARL_v2g9z1u2jb","5b3e2334cdb4ce0001d93c51","freq_resp","img/green_2bandit_a.png","70","70","test","","","","5","",""
"null","222638","pSARL_v2","pSARL_v2g9z1u2jb","5b3e2334cdb4ce0001d93c51","fixation","img/fixation.png","null","","test","","","","","",""
"298.0999999977648","222940","pSARL_v2","pSARL_v2g9z1u2jb","5b3e2334cdb4ce0001d93c51","freq","img/green_2bandit_a2.png","70","70","test","1","100","100","5","",""
"null","223456","pSARL_v2","pSARL_v2g9z1u2jb","5b3e2334cdb4ce0001d93c51","freq_resp","img/green_2bandit_a.png","70","70","test","","","","5","",""
"null","223610","pSARL_v2","pSARL_v2g9z1u2jb","5b3e2334cdb4ce0001d93c51","fixation","img/fixation.png","null","","test","","","","","",""
"267.5","223881","pSARL_v2","pSARL_v2g9z1u2jb","5b3e2334cdb4ce0001d93c51","freq","img/green_2bandit_a2.png","70","70","test","1","101","101","5","",""
"null","224430","pSARL_v2","pSARL_v2g9z1u2jb","5b3e2334cdb4ce0001d93c51","freq_resp","img/green_2bandit_a.png","70","70","test","","","","5","",""
"null","224589","pSARL_v2","pSARL_v2g9z1u2jb","5b3e2334cdb4ce0001d93c51","fixation","img/fixation.png","null","","test","","","","","",""
"319.30000000074506","224912","pSARL_v2","pSARL_v2g9z1u2jb","5b3e2334cdb4ce0001d93c51","freq","img/green_2bandit_a2.png","70","70","test","1","102","102","5","",""
"null","225409","pSARL_v2","pSARL_v2g9z1u2jb","5b3e2334cdb4ce0001d93c51","freq_resp","img/green_2bandit_a.png","70","70","test","","","","5","",""
"null","225566","pSARL_v2","pSARL_v2g9z1u2jb","5b3e2334cdb4ce0001d93c51","fixation","img/fixation.png","null","","test","","","","","",""
"389.5","225959","pSARL_v2","pSARL_v2g9z1u2jb","5b3e2334cdb4ce0001d93c51","infreq","img/orange_2bandit_a2.png","68","68","test","1","103","103","5","",""
"null","226378","pSARL_v2","pSARL_v2g9z1u2jb","5b3e2334cdb4ce0001d93c51","infreq_resp","img/orange_2bandit_a.png","68","68","test","","","","5","",""
"null","226548","pSARL_v2","pSARL_v2g9z1u2jb","5b3e2334cdb4ce0001d93c51","fixation","img/fixation.png","null","","test","","","","","",""
"346.3999999985099","226897","pSARL_v2","pSARL_v2g9z1u2jb","5b3e2334cdb4ce0001d93c51","freq","img/green_2bandit_a2.png","70","70","test","1","104","104","5","",""
"null","227363","pSARL_v2","pSARL_v2g9z1u2jb","5b3e2334cdb4ce0001d93c51","freq_resp","img/green_2bandit_a.png","70","70","test","","","","5","",""
"null","227519","pSARL_v2","pSARL_v2g9z1u2jb","5b3e2334cdb4ce0001d93c51","fixation","img/fixation.png","null","","test","","","","","",""
"361.1000000014901","227883","pSARL_v2","pSARL_v2g9z1u2jb","5b3e2334cdb4ce0001d93c51","freq","img/green_2bandit_a2.png","70","70","test","1","105","105","5","",""
"null","228335","pSARL_v2","pSARL_v2g9z1u2jb","5b3e2334cdb4ce0001d93c51","freq_resp","img/green_2bandit_a.png","70","70","test","","","","5","",""
"null","228494","pSARL_v2","pSARL_v2g9z1u2jb","5b3e2334cdb4ce0001d93c51","fixation","img/fixation.png","null","","test","","","","","",""
"342.5","228840","pSARL_v2","pSARL_v2g9z1u2jb","5b3e2334cdb4ce0001d93c51","freq","img/green_2bandit_a2.png","70","70","test","1","106","106","5","",""
"null","229317","pSARL_v2","pSARL_v2g9z1u2jb","5b3e2334cdb4ce0001d93c51","freq_resp","img/green_2bandit_a.png","70","70","test","","","","5","",""
"null","229474","pSARL_v2","pSARL_v2g9z1u2jb","5b3e2334cdb4ce0001d93c51","fixation","img/fixation.png","null","","test","","","","","",""
"278.8999999985099","229756","pSARL_v2","pSARL_v2g9z1u2jb","5b3e2334cdb4ce0001d93c51","freq","img/green_2bandit_a2.png","70","70","test","1","107","107","5","",""
"null","230289","pSARL_v2","pSARL_v2g9z1u2jb","5b3e2334cdb4ce0001d93c51","freq_resp","img/green_2bandit_a.png","70","70","test","","","","5","",""
"null","230446","pSARL_v2","pSARL_v2g9z1u2jb","5b3e2334cdb4ce0001d93c51","fixation","img/fixation.png","null","","test","","","","","",""
"301.80000000074506","230751","pSARL_v2","pSARL_v2g9z1u2jb","5b3e2334cdb4ce0001d93c51","freq","img/green_2bandit_a2.png","70","70","test","1","108","108","5","",""
"null","231256","pSARL_v2","pSARL_v2g9z1u2jb","5b3e2334cdb4ce0001d93c51","freq_resp","img/green_2bandit_a.png","70","70","test","","","","5","",""
"null","231413","pSARL_v2","pSARL_v2g9z1u2jb","5b3e2334cdb4ce0001d93c51","fixation","img/fixation.png","null","","test","","","","","",""
"304.5","231721","pSARL_v2","pSARL_v2g9z1u2jb","5b3e2334cdb4ce0001d93c51","freq","img/green_2bandit_a2.png","70","70","test","1","109","109","5","",""
"null","232236","pSARL_v2","pSARL_v2g9z1u2jb","5b3e2334cdb4ce0001d93c51","freq_resp","img/green_2bandit_a.png","70","70","test","","","","5","",""
"null","232393","pSARL_v2","pSARL_v2g9z1u2jb","5b3e2334cdb4ce0001d93c51","fixation","img/fixation.png","null","","test","","","","","",""
"284.20000000298023","232681","pSARL_v2","pSARL_v2g9z1u2jb","5b3e2334cdb4ce0001d93c51","freq","img/green_2bandit_a2.png","70","70","test","1","110","110","5","",""
"null","233217","pSARL_v2","pSARL_v2g9z1u2jb","5b3e2334cdb4ce0001d93c51","freq_resp","img/green_2bandit_a.png","70","70","test","","","","5","",""
"null","233375","pSARL_v2","pSARL_v2g9z1u2jb","5b3e2334cdb4ce0001d93c51","fixation","img/fixation.png","null","","test","","","","","",""
"722.5","234101","pSARL_v2","pSARL_v2g9z1u2jb","5b3e2334cdb4ce0001d93c51","infreq","img/orange_2bandit_a2.png","68","68","test","1","111","111","5","",""
"null","234195","pSARL_v2","pSARL_v2g9z1u2jb","5b3e2334cdb4ce0001d93c51","infreq_resp","img/orange_2bandit_a.png","68","68","test","","","","5","",""
"null","234351","pSARL_v2","pSARL_v2g9z1u2jb","5b3e2334cdb4ce0001d93c51","fixation","img/fixation.png","null","","test","","","","","",""
"493.19999999925494","234848","pSARL_v2","pSARL_v2g9z1u2jb","5b3e2334cdb4ce0001d93c51","freq","img/green_2bandit_a2.png","70","70","test","1","112","112","5","",""
"null","235167","pSARL_v2","pSARL_v2g9z1u2jb","5b3e2334cdb4ce0001d93c51","freq_resp","img/green_2bandit_a.png","70","70","test","","","","5","",""
"null","235325","pSARL_v2","pSARL_v2g9z1u2jb","5b3e2334cdb4ce0001d93c51","fixation","img/fixation.png","null","","test","","","","","",""
"492.69999999925494","235823","pSARL_v2","pSARL_v2g9z1u2jb","5b3e2334cdb4ce0001d93c51","freq","img/green_2bandit_a2.png","70","70","test","1","113","113","5","",""
"null","236141","pSARL_v2","pSARL_v2g9z1u2jb","5b3e2334cdb4ce0001d93c51","freq_resp","img/green_2bandit_a.png","70","70","test","","","","5","",""
"null","236300","pSARL_v2","pSARL_v2g9z1u2jb","5b3e2334cdb4ce0001d93c51","fixation","img/fixation.png","null","","test","","","","","",""
"411.29999999701977","236714","pSARL_v2","pSARL_v2g9z1u2jb","5b3e2334cdb4ce0001d93c51","freq","img/green_2bandit_a2.png","70","70","test","1","114","114","5","",""
"null","237114","pSARL_v2","pSARL_v2g9z1u2jb","5b3e2334cdb4ce0001d93c51","freq_resp","img/green_2bandit_a.png","70","70","test","","","","5","",""
"null","237269","pSARL_v2","pSARL_v2g9z1u2jb","5b3e2334cdb4ce0001d93c51","fixation","img/fixation.png","null","","test","","","","","",""
"310.1000000014901","237582","pSARL_v2","pSARL_v2g9z1u2jb","5b3e2334cdb4ce0001d93c51","freq","img/green_2bandit_a2.png","70","70","test","1","115","115","5","",""
"null","238083","pSARL_v2","pSARL_v2g9z1u2jb","5b3e2334cdb4ce0001d93c51","freq_resp","img/green_2bandit_a.png","70","70","test","","","","5","",""
"null","238239","pSARL_v2","pSARL_v2g9z1u2jb","5b3e2334cdb4ce0001d93c51","fixation","img/fixation.png","null","","test","","","","","",""
"493","238736","pSARL_v2","pSARL_v2g9z1u2jb","5b3e2334cdb4ce0001d93c51","reward","img/slot.png","74","","test","","","","","",""
"null","239499","pSARL_v2","pSARL_v2g9z1u2jb","5b3e2334cdb4ce0001d93c51","points","<div class=""veryhighPoints""> +1 </div>","null","na","test","","","","5","1","4"
"539.6999999992549","240043","pSARL_v2","pSARL_v2g9z1u2jb","5b3e2334cdb4ce0001d93c51","freq","img/green_2bandit_a2.png","70","70","test","1","116","116","6","",""
"null","240315","pSARL_v2","pSARL_v2g9z1u2jb","5b3e2334cdb4ce0001d93c51","freq_resp","img/green_2bandit_a.png","70","70","test","","","","6","",""
"null","240473","pSARL_v2","pSARL_v2g9z1u2jb","5b3e2334cdb4ce0001d93c51","fixation","img/fixation.png","null","","test","","","","","",""
"323.69999999925494","240800","pSARL_v2","pSARL_v2g9z1u2jb","5b3e2334cdb4ce0001d93c51","freq","img/green_2bandit_a2.png","70","70","test","1","117","117","6","",""
"null","241287","pSARL_v2","pSARL_v2g9z1u2jb","5b3e2334cdb4ce0001d93c51","freq_resp","img/green_2bandit_a.png","70","70","test","","","","6","",""
"null","241444","pSARL_v2","pSARL_v2g9z1u2jb","5b3e2334cdb4ce0001d93c51","fixation","img/fixation.png","null","","test","","","","","",""
"325.69999999925494","241773","pSARL_v2","pSARL_v2g9z1u2jb","5b3e2334cdb4ce0001d93c51","freq","img/green_2bandit_a2.png","70","70","test","1","118","118","6","",""
"null","242257","pSARL_v2","pSARL_v2g9z1u2jb","5b3e2334cdb4ce0001d93c51","freq_resp","img/green_2bandit_a.png","70","70","test","","","","6","",""
"null","242416","pSARL_v2","pSARL_v2g9z1u2jb","5b3e2334cdb4ce0001d93c51","fixation","img/fixation.png","null","","test","","","","","",""
"332.6000000014901","242752","pSARL_v2","pSARL_v2g9z1u2jb","5b3e2334cdb4ce0001d93c51","freq","img/green_2bandit_a2.png","70","70","test","1","119","119","6","",""
"null","243233","pSARL_v2","pSARL_v2g9z1u2jb","5b3e2334cdb4ce0001d93c51","freq_resp","img/green_2bandit_a.png","70","70","test","","","","6","",""
"null","243391","pSARL_v2","pSARL_v2g9z1u2jb","5b3e2334cdb4ce0001d93c51","fixation","img/fixation.png","null","","test","","","","","",""
"316.6000000014901","243711","pSARL_v2","pSARL_v2g9z1u2jb","5b3e2334cdb4ce0001d93c51","freq","img/green_2bandit_a2.png","70","70","test","1","120","120","6","",""
"null","244212","pSARL_v2","pSARL_v2g9z1u2jb","5b3e2334cdb4ce0001d93c51","freq_resp","img/green_2bandit_a.png","70","70","test","","","","6","",""
"null","244370","pSARL_v2","pSARL_v2g9z1u2jb","5b3e2334cdb4ce0001d93c51","fixation","img/fixation.png","null","","test","","","","","",""
"297.8999999985099","244671","pSARL_v2","pSARL_v2g9z1u2jb","5b3e2334cdb4ce0001d93c51","freq","img/green_2bandit_a2.png","70","70","test","1","121","121","6","",""
"null","245189","pSARL_v2","pSARL_v2g9z1u2jb","5b3e2334cdb4ce0001d93c51","freq_resp","img/green_2bandit_a.png","70","70","test","","","","6","",""
"null","245346","pSARL_v2","pSARL_v2g9z1u2jb","5b3e2334cdb4ce0001d93c51","fixation","img/fixation.png","null","","test","","","","","",""
"320.5","245670","pSARL_v2","pSARL_v2g9z1u2jb","5b3e2334cdb4ce0001d93c51","freq","img/green_2bandit_a2.png","70","70","test","1","122","122","6","",""
"null","246164","pSARL_v2","pSARL_v2g9z1u2jb","5b3e2334cdb4ce0001d93c51","freq_resp","img/green_2bandit_a.png","70","70","test","","","","6","",""
"null","246320","pSARL_v2","pSARL_v2g9z1u2jb","5b3e2334cdb4ce0001d93c51","fixation","img/fixation.png","null","","test","","","","","",""
"295.30000000074506","246619","pSARL_v2","pSARL_v2g9z1u2jb","5b3e2334cdb4ce0001d93c51","freq","img/green_2bandit_a2.png","70","70","test","1","123","123","6","",""
"null","247136","pSARL_v2","pSARL_v2g9z1u2jb","5b3e2334cdb4ce0001d93c51","freq_resp","img/green_2bandit_a.png","70","70","test","","","","6","",""
"null","247295","pSARL_v2","pSARL_v2g9z1u2jb","5b3e2334cdb4ce0001d93c51","fixation","img/fixation.png","null","","test","","","","","",""
"300.69999999925494","247599","pSARL_v2","pSARL_v2g9z1u2jb","5b3e2334cdb4ce0001d93c51","freq","img/green_2bandit_a2.png","70","70","test","1","124","124","6","",""
"null","248116","pSARL_v2","pSARL_v2g9z1u2jb","5b3e2334cdb4ce0001d93c51","freq_resp","img/green_2bandit_a.png","70","70","test","","","","6","",""
"null","248272","pSARL_v2","pSARL_v2g9z1u2jb","5b3e2334cdb4ce0001d93c51","fixation","img/fixation.png","null","","test","","","","","",""
"283.9000000022352","248560","pSARL_v2","pSARL_v2g9z1u2jb","5b3e2334cdb4ce0001d93c51","freq","img/green_2bandit_a2.png","70","70","test","1","125","125","6","",""
"null","249094","pSARL_v2","pSARL_v2g9z1u2jb","5b3e2334cdb4ce0001d93c51","freq_resp","img/green_2bandit_a.png","70","70","test","","","","6","",""
"null","249252","pSARL_v2","pSARL_v2g9z1u2jb","5b3e2334cdb4ce0001d93c51","fixation","img/fixation.png","null","","test","","","","","",""
"311.4000000022352","249568","pSARL_v2","pSARL_v2g9z1u2jb","5b3e2334cdb4ce0001d93c51","freq","img/green_2bandit_a2.png","70","70","test","1","126","126","6","",""
"null","250075","pSARL_v2","pSARL_v2g9z1u2jb","5b3e2334cdb4ce0001d93c51","freq_resp","img/green_2bandit_a.png","70","70","test","","","","6","",""
"null","250233","pSARL_v2","pSARL_v2g9z1u2jb","5b3e2334cdb4ce0001d93c51","fixation","img/fixation.png","null","","test","","","","","",""
"238.69999999925494","250475","pSARL_v2","pSARL_v2g9z1u2jb","5b3e2334cdb4ce0001d93c51","freq","img/green_2bandit_a2.png","70","70","test","1","127","127","6","",""
"null","251050","pSARL_v2","pSARL_v2g9z1u2jb","5b3e2334cdb4ce0001d93c51","freq_resp","img/green_2bandit_a.png","70","70","test","","","","6","",""
"null","251206","pSARL_v2","pSARL_v2g9z1u2jb","5b3e2334cdb4ce0001d93c51","fixation","img/fixation.png","null","","test","","","","","",""
"295.5999999977648","251505","pSARL_v2","pSARL_v2g9z1u2jb","5b3e2334cdb4ce0001d93c51","freq","img/green_2bandit_a2.png","70","70","test","1","128","128","6","",""
"null","252026","pSARL_v2","pSARL_v2g9z1u2jb","5b3e2334cdb4ce0001d93c51","freq_resp","img/green_2bandit_a.png","70","70","test","","","","6","",""
"null","252182","pSARL_v2","pSARL_v2g9z1u2jb","5b3e2334cdb4ce0001d93c51","fixation","img/fixation.png","null","","test","","","","","",""
"262","252448","pSARL_v2","pSARL_v2g9z1u2jb","5b3e2334cdb4ce0001d93c51","freq","img/green_2bandit_a2.png","70","70","test","1","129","129","6","",""
"null","253006","pSARL_v2","pSARL_v2g9z1u2jb","5b3e2334cdb4ce0001d93c51","freq_resp","img/green_2bandit_a.png","70","70","test","","","","6","",""
"null","253163","pSARL_v2","pSARL_v2g9z1u2jb","5b3e2334cdb4ce0001d93c51","fixation","img/fixation.png","null","","test","","","","","",""
"416.80000000074506","253584","pSARL_v2","pSARL_v2g9z1u2jb","5b3e2334cdb4ce0001d93c51","infreq","img/orange_2bandit_a2.png","68","68","test","1","130","130","6","",""
"null","253979","pSARL_v2","pSARL_v2g9z1u2jb","5b3e2334cdb4ce0001d93c51","infreq_resp","img/orange_2bandit_a.png","68","68","test","","","","6","",""
"null","254138","pSARL_v2","pSARL_v2g9z1u2jb","5b3e2334cdb4ce0001d93c51","fixation","img/fixation.png","null","","test","","","","","",""
"406.0999999977648","254548","pSARL_v2","pSARL_v2g9z1u2jb","5b3e2334cdb4ce0001d93c51","freq","img/green_2bandit_a2.png","70","70","test","1","131","131","6","",""
"null","254955","pSARL_v2","pSARL_v2g9z1u2jb","5b3e2334cdb4ce0001d93c51","freq_resp","img/green_2bandit_a.png","70","70","test","","","","6","",""
"null","255113","pSARL_v2","pSARL_v2g9z1u2jb","5b3e2334cdb4ce0001d93c51","fixation","img/fixation.png","null","","test","","","","","",""
"307.6000000014901","255424","pSARL_v2","pSARL_v2g9z1u2jb","5b3e2334cdb4ce0001d93c51","freq","img/green_2bandit_a2.png","70","70","test","1","132","132","6","",""
"null","255934","pSARL_v2","pSARL_v2g9z1u2jb","5b3e2334cdb4ce0001d93c51","freq_resp","img/green_2bandit_a.png","70","70","test","","","","6","",""
"null","256091","pSARL_v2","pSARL_v2g9z1u2jb","5b3e2334cdb4ce0001d93c51","fixation","img/fixation.png","null","","test","","","","","",""
"446.8999999985099","256541","pSARL_v2","pSARL_v2g9z1u2jb","5b3e2334cdb4ce0001d93c51","infreq","img/orange_2bandit_a2.png","68","68","test","1","133","133","6","",""
"null","256911","pSARL_v2","pSARL_v2g9z1u2jb","5b3e2334cdb4ce0001d93c51","infreq_resp","img/orange_2bandit_a.png","68","68","test","","","","6","",""
"null","257067","pSARL_v2","pSARL_v2g9z1u2jb","5b3e2334cdb4ce0001d93c51","fixation","img/fixation.png","null","","test","","","","","",""
"301","257371","pSARL_v2","pSARL_v2g9z1u2jb","5b3e2334cdb4ce0001d93c51","freq","img/green_2bandit_a2.png","70","70","test","1","134","134","6","",""
"null","257884","pSARL_v2","pSARL_v2g9z1u2jb","5b3e2334cdb4ce0001d93c51","freq_resp","img/green_2bandit_a.png","70","70","test","","","","6","",""
"null","258041","pSARL_v2","pSARL_v2g9z1u2jb","5b3e2334cdb4ce0001d93c51","fixation","img/fixation.png","null","","test","","","","","",""
"362.69999999925494","258408","pSARL_v2","pSARL_v2g9z1u2jb","5b3e2334cdb4ce0001d93c51","freq","img/green_2bandit_a2.png","70","70","test","1","135","135","6","",""
"null","258853","pSARL_v2","pSARL_v2g9z1u2jb","5b3e2334cdb4ce0001d93c51","freq_resp","img/green_2bandit_a.png","70","70","test","","","","6","",""
"null","259008","pSARL_v2","pSARL_v2g9z1u2jb","5b3e2334cdb4ce0001d93c51","fixation","img/fixation.png","null","","test","","","","","",""
"461.3999999985099","259473","pSARL_v2","pSARL_v2g9z1u2jb","5b3e2334cdb4ce0001d93c51","reward","img/slot.png","74","","test","","","","","",""
"null","260236","pSARL_v2","pSARL_v2g9z1u2jb","5b3e2334cdb4ce0001d93c51","points","<div class=""verylowPoints""> -7 </div>","null","na","test","","","","6","-7","5"
"378.30000000074506","260618","pSARL_v2","pSARL_v2g9z1u2jb","5b3e2334cdb4ce0001d93c51","freq","img/green_2bandit_a2.png","70","70","test","1","136","136","7","",""
"null","261054","pSARL_v2","pSARL_v2g9z1u2jb","5b3e2334cdb4ce0001d93c51","freq_resp","img/green_2bandit_a.png","70","70","test","","","","7","",""
"null","261215","pSARL_v2","pSARL_v2g9z1u2jb","5b3e2334cdb4ce0001d93c51","fixation","img/fixation.png","null","","test","","","","","",""
"509.3999999985099","261728","pSARL_v2","pSARL_v2g9z1u2jb","5b3e2334cdb4ce0001d93c51","infreq","img/orange_2bandit_a2.png","68","68","test","1","137","137","7","",""
"null","262034","pSARL_v2","pSARL_v2g9z1u2jb","5b3e2334cdb4ce0001d93c51","infreq_resp","img/orange_2bandit_a.png","68","68","test","","","","7","",""
"null","262189","pSARL_v2","pSARL_v2g9z1u2jb","5b3e2334cdb4ce0001d93c51","fixation","img/fixation.png","null","","test","","","","","",""
"368.69999999925494","262562","pSARL_v2","pSARL_v2g9z1u2jb","5b3e2334cdb4ce0001d93c51","freq","img/green_2bandit_a2.png","70","70","test","1","138","138","7","",""
"null","263011","pSARL_v2","pSARL_v2g9z1u2jb","5b3e2334cdb4ce0001d93c51","freq_resp","img/green_2bandit_a.png","70","70","test","","","","7","",""
"null","263171","pSARL_v2","pSARL_v2g9z1u2jb","5b3e2334cdb4ce0001d93c51","fixation","img/fixation.png","null","","test","","","","","",""
"417.69999999925494","263592","pSARL_v2","pSARL_v2g9z1u2jb","5b3e2334cdb4ce0001d93c51","infreq","img/orange_2bandit_a2.png","68","68","test","1","139","139","7","",""
"null","263988","pSARL_v2","pSARL_v2g9z1u2jb","5b3e2334cdb4ce0001d93c51","infreq_resp","img/orange_2bandit_a.png","68","68","test","","","","7","",""
"null","264146","pSARL_v2","pSARL_v2g9z1u2jb","5b3e2334cdb4ce0001d93c51","fixation","img/fixation.png","null","","test","","","","","",""
"372.30000000074506","264522","pSARL_v2","pSARL_v2g9z1u2jb","5b3e2334cdb4ce0001d93c51","freq","img/green_2bandit_a2.png","70","70","test","1","140","140","7","",""
"null","264968","pSARL_v2","pSARL_v2g9z1u2jb","5b3e2334cdb4ce0001d93c51","freq_resp","img/green_2bandit_a.png","70","70","test","","","","7","",""
"null","265122","pSARL_v2","pSARL_v2g9z1u2jb","5b3e2334cdb4ce0001d93c51","fixation","img/fixation.png","null","","test","","","","","",""
"542.2000000029802","265668","pSARL_v2","pSARL_v2g9z1u2jb","5b3e2334cdb4ce0001d93c51","freq","img/green_2bandit_a2.png","70","70","test","1","141","141","7","",""
"null","265946","pSARL_v2","pSARL_v2g9z1u2jb","5b3e2334cdb4ce0001d93c51","freq_resp","img/green_2bandit_a.png","70","70","test","","","","7","",""
"null","266100","pSARL_v2","pSARL_v2g9z1u2jb","5b3e2334cdb4ce0001d93c51","fixation","img/fixation.png","null","","test","","","","","",""
"374.5","266478","pSARL_v2","pSARL_v2g9z1u2jb","5b3e2334cdb4ce0001d93c51","freq","img/green_2bandit_a2.png","70","70","test","1","142","142","7","",""
"null","266921","pSARL_v2","pSARL_v2g9z1u2jb","5b3e2334cdb4ce0001d93c51","freq_resp","img/green_2bandit_a.png","70","70","test","","","","7","",""
"null","267092","pSARL_v2","pSARL_v2g9z1u2jb","5b3e2334cdb4ce0001d93c51","fixation","img/fixation.png","null","","test","","","","","",""
"345.80000000074506","267441","pSARL_v2","pSARL_v2g9z1u2jb","5b3e2334cdb4ce0001d93c51","freq","img/green_2bandit_a2.png","70","70","test","1","143","143","7","",""
"null","267914","pSARL_v2","pSARL_v2g9z1u2jb","5b3e2334cdb4ce0001d93c51","freq_resp","img/green_2bandit_a.png","70","70","test","","","","7","",""
"null","268070","pSARL_v2","pSARL_v2g9z1u2jb","5b3e2334cdb4ce0001d93c51","fixation","img/fixation.png","null","","test","","","","","",""
"291.79999999701977","268367","pSARL_v2","pSARL_v2g9z1u2jb","5b3e2334cdb4ce0001d93c51","freq","img/green_2bandit_a2.png","70","70","test","1","144","144","7","",""
"null","268888","pSARL_v2","pSARL_v2g9z1u2jb","5b3e2334cdb4ce0001d93c51","freq_resp","img/green_2bandit_a.png","70","70","test","","","","7","",""
"null","269045","pSARL_v2","pSARL_v2g9z1u2jb","5b3e2334cdb4ce0001d93c51","fixation","img/fixation.png","null","","test","","","","","",""
"294.80000000074506","269344","pSARL_v2","pSARL_v2g9z1u2jb","5b3e2334cdb4ce0001d93c51","freq","img/green_2bandit_a2.png","70","70","test","1","145","145","7","",""
"null","269861","pSARL_v2","pSARL_v2g9z1u2jb","5b3e2334cdb4ce0001d93c51","freq_resp","img/green_2bandit_a.png","70","70","test","","","","7","",""
"null","270021","pSARL_v2","pSARL_v2g9z1u2jb","5b3e2334cdb4ce0001d93c51","fixation","img/fixation.png","null","","test","","","","","",""
"285.5","270311","pSARL_v2","pSARL_v2g9z1u2jb","5b3e2334cdb4ce0001d93c51","freq","img/green_2bandit_a2.png","70","70","test","1","146","146","7","",""
"null","270836","pSARL_v2","pSARL_v2g9z1u2jb","5b3e2334cdb4ce0001d93c51","freq_resp","img/green_2bandit_a.png","70","70","test","","","","7","",""
"null","270991","pSARL_v2","pSARL_v2g9z1u2jb","5b3e2334cdb4ce0001d93c51","fixation","img/fixation.png","null","","test","","","","","",""
"306.70000000298023","271301","pSARL_v2","pSARL_v2g9z1u2jb","5b3e2334cdb4ce0001d93c51","freq","img/green_2bandit_a2.png","70","70","test","1","147","147","7","",""
"null","271810","pSARL_v2","pSARL_v2g9z1u2jb","5b3e2334cdb4ce0001d93c51","freq_resp","img/green_2bandit_a.png","70","70","test","","","","7","",""
"null","271965","pSARL_v2","pSARL_v2g9z1u2jb","5b3e2334cdb4ce0001d93c51","fixation","img/fixation.png","null","","test","","","","","",""
"265.79999999701977","272236","pSARL_v2","pSARL_v2g9z1u2jb","5b3e2334cdb4ce0001d93c51","freq","img/green_2bandit_a2.png","70","70","test","1","148","148","7","",""
"null","272786","pSARL_v2","pSARL_v2g9z1u2jb","5b3e2334cdb4ce0001d93c51","freq_resp","img/green_2bandit_a.png","70","70","test","","","","7","",""
"null","272942","pSARL_v2","pSARL_v2g9z1u2jb","5b3e2334cdb4ce0001d93c51","fixation","img/fixation.png","null","","test","","","","","",""
"280.19999999925494","273226","pSARL_v2","pSARL_v2g9z1u2jb","5b3e2334cdb4ce0001d93c51","freq","img/green_2bandit_a2.png","70","70","test","1","149","149","7","",""
"null","273762","pSARL_v2","pSARL_v2g9z1u2jb","5b3e2334cdb4ce0001d93c51","freq_resp","img/green_2bandit_a.png","70","70","test","","","","7","",""
"null","273918","pSARL_v2","pSARL_v2g9z1u2jb","5b3e2334cdb4ce0001d93c51","fixation","img/fixation.png","null","","test","","","","","",""
"240.90000000223517","274162","pSARL_v2","pSARL_v2g9z1u2jb","5b3e2334cdb4ce0001d93c51","freq","img/green_2bandit_a2.png","70","70","test","1","150","150","7","",""
"null","274736","pSARL_v2","pSARL_v2g9z1u2jb","5b3e2334cdb4ce0001d93c51","freq_resp","img/green_2bandit_a.png","70","70","test","","","","7","",""
"null","274894","pSARL_v2","pSARL_v2g9z1u2jb","5b3e2334cdb4ce0001d93c51","fixation","img/fixation.png","null","","test","","","","","",""
"267.79999999701977","275165","pSARL_v2","pSARL_v2g9z1u2jb","5b3e2334cdb4ce0001d93c51","freq","img/green_2bandit_a2.png","70","70","test","1","151","151","7","",""
"null","275708","pSARL_v2","pSARL_v2g9z1u2jb","5b3e2334cdb4ce0001d93c51","freq_resp","img/green_2bandit_a.png","70","70","test","","","","7","",""
"null","275867","pSARL_v2","pSARL_v2g9z1u2jb","5b3e2334cdb4ce0001d93c51","fixation","img/fixation.png","null","","test","","","","","",""
"267.20000000298023","276138","pSARL_v2","pSARL_v2g9z1u2jb","5b3e2334cdb4ce0001d93c51","freq","img/green_2bandit_a2.png","70","70","test","1","152","152","7","",""
"null","276689","pSARL_v2","pSARL_v2g9z1u2jb","5b3e2334cdb4ce0001d93c51","freq_resp","img/green_2bandit_a.png","70","70","test","","","","7","",""
"null","276844","pSARL_v2","pSARL_v2g9z1u2jb","5b3e2334cdb4ce0001d93c51","fixation","img/fixation.png","null","","test","","","","","",""
"289","277137","pSARL_v2","pSARL_v2g9z1u2jb","5b3e2334cdb4ce0001d93c51","freq","img/green_2bandit_a2.png","70","70","test","1","153","153","7","",""
"null","277665","pSARL_v2","pSARL_v2g9z1u2jb","5b3e2334cdb4ce0001d93c51","freq_resp","img/green_2bandit_a.png","70","70","test","","","","7","",""
"null","277821","pSARL_v2","pSARL_v2g9z1u2jb","5b3e2334cdb4ce0001d93c51","fixation","img/fixation.png","null","","test","","","","","",""
"348.19999999925494","278172","pSARL_v2","pSARL_v2g9z1u2jb","5b3e2334cdb4ce0001d93c51","freq","img/green_2bandit_a2.png","70","70","test","1","154","154","7","",""
"null","278638","pSARL_v2","pSARL_v2g9z1u2jb","5b3e2334cdb4ce0001d93c51","freq_resp","img/green_2bandit_a.png","70","70","test","","","","7","",""
"null","278795","pSARL_v2","pSARL_v2g9z1u2jb","5b3e2334cdb4ce0001d93c51","fixation","img/fixation.png","null","","test","","","","","",""
"329.4000000022352","279128","pSARL_v2","pSARL_v2g9z1u2jb","5b3e2334cdb4ce0001d93c51","freq","img/green_2bandit_a2.png","70","70","test","1","155","155","7","",""
"null","279617","pSARL_v2","pSARL_v2g9z1u2jb","5b3e2334cdb4ce0001d93c51","freq_resp","img/green_2bandit_a.png","70","70","test","","","","7","",""
"null","279774","pSARL_v2","pSARL_v2g9z1u2jb","5b3e2334cdb4ce0001d93c51","fixation","img/fixation.png","null","","test","","","","","",""
"467.29999999701977","280245","pSARL_v2","pSARL_v2g9z1u2jb","5b3e2334cdb4ce0001d93c51","reward","img/slot.png","74","","test","","","","","",""
"null","281002","pSARL_v2","pSARL_v2g9z1u2jb","5b3e2334cdb4ce0001d93c51","points","<div class=""verylowPoints""> -6 </div>","null","na","test","","","","7","-6","6"
"378.5","281385","pSARL_v2","pSARL_v2g9z1u2jb","5b3e2334cdb4ce0001d93c51","freq","img/green_2bandit_a2.png","70","70","test","1","156","156","8","",""
"null","281823","pSARL_v2","pSARL_v2g9z1u2jb","5b3e2334cdb4ce0001d93c51","freq_resp","img/green_2bandit_a.png","70","70","test","","","","8","",""
"null","281981","pSARL_v2","pSARL_v2g9z1u2jb","5b3e2334cdb4ce0001d93c51","fixation","img/fixation.png","null","","test","","","","","",""
"438.80000000074506","282423","pSARL_v2","pSARL_v2g9z1u2jb","5b3e2334cdb4ce0001d93c51","freq","img/green_2bandit_a2.png","70","70","test","1","157","157","8","",""
"null","282801","pSARL_v2","pSARL_v2g9z1u2jb","5b3e2334cdb4ce0001d93c51","freq_resp","img/green_2bandit_a.png","70","70","test","","","","8","",""
"null","282958","pSARL_v2","pSARL_v2g9z1u2jb","5b3e2334cdb4ce0001d93c51","fixation","img/fixation.png","null","","test","","","","","",""
"369.6000000014901","283331","pSARL_v2","pSARL_v2g9z1u2jb","5b3e2334cdb4ce0001d93c51","freq","img/green_2bandit_a2.png","70","70","test","1","158","158","8","",""
"null","283775","pSARL_v2","pSARL_v2g9z1u2jb","5b3e2334cdb4ce0001d93c51","freq_resp","img/green_2bandit_a.png","70","70","test","","","","8","",""
"null","283933","pSARL_v2","pSARL_v2g9z1u2jb","5b3e2334cdb4ce0001d93c51","fixation","img/fixation.png","null","","test","","","","","",""
"346.30000000074506","284285","pSARL_v2","pSARL_v2g9z1u2jb","5b3e2334cdb4ce0001d93c51","freq","img/green_2bandit_a2.png","70","70","test","1","159","159","8","",""
"null","284755","pSARL_v2","pSARL_v2g9z1u2jb","5b3e2334cdb4ce0001d93c51","freq_resp","img/green_2bandit_a.png","70","70","test","","","","8","",""
"null","284912","pSARL_v2","pSARL_v2g9z1u2jb","5b3e2334cdb4ce0001d93c51","fixation","img/fixation.png","null","","test","","","","","",""
"339.1000000014901","285256","pSARL_v2","pSARL_v2g9z1u2jb","5b3e2334cdb4ce0001d93c51","freq","img/green_2bandit_a2.png","70","70","test","1","160","160","8","",""
"null","285734","pSARL_v2","pSARL_v2g9z1u2jb","5b3e2334cdb4ce0001d93c51","freq_resp","img/green_2bandit_a.png","70","70","test","","","","8","",""
"null","285891","pSARL_v2","pSARL_v2g9z1u2jb","5b3e2334cdb4ce0001d93c51","fixation","img/fixation.png","null","","test","","","","","",""
"343.30000000074506","286238","pSARL_v2","pSARL_v2g9z1u2jb","5b3e2334cdb4ce0001d93c51","freq","img/green_2bandit_a2.png","70","70","test","1","161","161","8","",""
"null","286714","pSARL_v2","pSARL_v2g9z1u2jb","5b3e2334cdb4ce0001d93c51","freq_resp","img/green_2bandit_a.png","70","70","test","","","","8","",""
"null","286873","pSARL_v2","pSARL_v2g9z1u2jb","5b3e2334cdb4ce0001d93c51","fixation","img/fixation.png","null","","test","","","","","",""
"727.8000000007451","287605","pSARL_v2","pSARL_v2g9z1u2jb","5b3e2334cdb4ce0001d93c51","infreq","img/orange_2bandit_a2.png","68","68","test","1","162","162","8","",""
"null","287687","pSARL_v2","pSARL_v2g9z1u2jb","5b3e2334cdb4ce0001d93c51","infreq_resp","img/orange_2bandit_a.png","68","68","test","","","","8","",""
"null","287845","pSARL_v2","pSARL_v2g9z1u2jb","5b3e2334cdb4ce0001d93c51","fixation","img/fixation.png","null","","test","","","","","",""
"460.1000000014901","288310","pSARL_v2","pSARL_v2g9z1u2jb","5b3e2334cdb4ce0001d93c51","freq","img/green_2bandit_a2.png","70","70","test","1","163","163","8","",""
"null","288664","pSARL_v2","pSARL_v2g9z1u2jb","5b3e2334cdb4ce0001d93c51","freq_resp","img/green_2bandit_a.png","70","70","test","","","","8","",""
"null","288822","pSARL_v2","pSARL_v2g9z1u2jb","5b3e2334cdb4ce0001d93c51","fixation","img/fixation.png","null","","test","","","","","",""
"486.70000000298023","289312","pSARL_v2","pSARL_v2g9z1u2jb","5b3e2334cdb4ce0001d93c51","freq","img/green_2bandit_a2.png","70","70","test","1","164","164","8","",""
"null","289641","pSARL_v2","pSARL_v2g9z1u2jb","5b3e2334cdb4ce0001d93c51","freq_resp","img/green_2bandit_a.png","70","70","test","","","","8","",""
"null","289800","pSARL_v2","pSARL_v2g9z1u2jb","5b3e2334cdb4ce0001d93c51","fixation","img/fixation.png","null","","test","","","","","",""
"418.6000000014901","290223","pSARL_v2","pSARL_v2g9z1u2jb","5b3e2334cdb4ce0001d93c51","freq","img/green_2bandit_a2.png","70","70","test","1","165","165","8","",""
"null","290613","pSARL_v2","pSARL_v2g9z1u2jb","5b3e2334cdb4ce0001d93c51","freq_resp","img/green_2bandit_a.png","70","70","test","","","","8","",""
"null","290783","pSARL_v2","pSARL_v2g9z1u2jb","5b3e2334cdb4ce0001d93c51","fixation","img/fixation.png","null","","test","","","","","",""
"459.19999999925494","291246","pSARL_v2","pSARL_v2g9z1u2jb","5b3e2334cdb4ce0001d93c51","infreq","img/orange_2bandit_a2.png","68","68","test","1","166","166","8","",""
"null","291599","pSARL_v2","pSARL_v2g9z1u2jb","5b3e2334cdb4ce0001d93c51","infreq_resp","img/orange_2bandit_a.png","68","68","test","","","","8","",""
"null","291757","pSARL_v2","pSARL_v2g9z1u2jb","5b3e2334cdb4ce0001d93c51","fixation","img/fixation.png","null","","test","","","","","",""
"471.1000000014901","292231","pSARL_v2","pSARL_v2g9z1u2jb","5b3e2334cdb4ce0001d93c51","freq","img/green_2bandit_a2.png","70","70","test","1","167","167","8","",""
"null","292579","pSARL_v2","pSARL_v2g9z1u2jb","5b3e2334cdb4ce0001d93c51","freq_resp","img/green_2bandit_a.png","70","70","test","","","","8","",""
"null","292736","pSARL_v2","pSARL_v2g9z1u2jb","5b3e2334cdb4ce0001d93c51","fixation","img/fixation.png","null","","test","","","","","",""
"482.69999999925494","293225","pSARL_v2","pSARL_v2g9z1u2jb","5b3e2334cdb4ce0001d93c51","freq","img/green_2bandit_a2.png","70","70","test","1","168","168","8","",""
"null","293557","pSARL_v2","pSARL_v2g9z1u2jb","5b3e2334cdb4ce0001d93c51","freq_resp","img/green_2bandit_a.png","70","70","test","","","","8","",""
"null","293715","pSARL_v2","pSARL_v2g9z1u2jb","5b3e2334cdb4ce0001d93c51","fixation","img/fixation.png","null","","test","","","","","",""
"330.5","294050","pSARL_v2","pSARL_v2g9z1u2jb","5b3e2334cdb4ce0001d93c51","freq","img/green_2bandit_a2.png","70","70","test","1","169","169","8","",""
"null","294527","pSARL_v2","pSARL_v2g9z1u2jb","5b3e2334cdb4ce0001d93c51","freq_resp","img/green_2bandit_a.png","70","70","test","","","","8","",""
"null","294683","pSARL_v2","pSARL_v2g9z1u2jb","5b3e2334cdb4ce0001d93c51","fixation","img/fixation.png","null","","test","","","","","",""
"380.29999999701977","295067","pSARL_v2","pSARL_v2g9z1u2jb","5b3e2334cdb4ce0001d93c51","freq","img/green_2bandit_a2.png","70","70","test","1","170","170","8","",""
"null","295495","pSARL_v2","pSARL_v2g9z1u2jb","5b3e2334cdb4ce0001d93c51","freq_resp","img/green_2bandit_a.png","70","70","test","","","","8","",""
"null","295650","pSARL_v2","pSARL_v2g9z1u2jb","5b3e2334cdb4ce0001d93c51","fixation","img/fixation.png","null","","test","","","","","",""
"268.80000000074506","295922","pSARL_v2","pSARL_v2g9z1u2jb","5b3e2334cdb4ce0001d93c51","freq","img/green_2bandit_a2.png","70","70","test","1","171","171","8","",""
"null","296472","pSARL_v2","pSARL_v2g9z1u2jb","5b3e2334cdb4ce0001d93c51","freq_resp","img/green_2bandit_a.png","70","70","test","","","","8","",""
"null","296632","pSARL_v2","pSARL_v2g9z1u2jb","5b3e2334cdb4ce0001d93c51","fixation","img/fixation.png","null","","test","","","","","",""
"370.19999999925494","297006","pSARL_v2","pSARL_v2g9z1u2jb","5b3e2334cdb4ce0001d93c51","freq","img/green_2bandit_a2.png","70","70","test","1","172","172","8","",""
"null","297451","pSARL_v2","pSARL_v2g9z1u2jb","5b3e2334cdb4ce0001d93c51","freq_resp","img/green_2bandit_a.png","70","70","test","","","","8","",""
"null","297607","pSARL_v2","pSARL_v2g9z1u2jb","5b3e2334cdb4ce0001d93c51","fixation","img/fixation.png","null","","test","","","","","",""
"334","297944","pSARL_v2","pSARL_v2g9z1u2jb","5b3e2334cdb4ce0001d93c51","freq","img/green_2bandit_a2.png","70","70","test","1","173","173","8","",""
"null","298426","pSARL_v2","pSARL_v2g9z1u2jb","5b3e2334cdb4ce0001d93c51","freq_resp","img/green_2bandit_a.png","70","70","test","","","","8","",""
"null","298585","pSARL_v2","pSARL_v2g9z1u2jb","5b3e2334cdb4ce0001d93c51","fixation","img/fixation.png","null","","test","","","","","",""
"275.30000000074506","298864","pSARL_v2","pSARL_v2g9z1u2jb","5b3e2334cdb4ce0001d93c51","freq","img/green_2bandit_a2.png","70","70","test","1","174","174","8","",""
"null","299404","pSARL_v2","pSARL_v2g9z1u2jb","5b3e2334cdb4ce0001d93c51","freq_resp","img/green_2bandit_a.png","70","70","test","","","","8","",""
"null","299561","pSARL_v2","pSARL_v2g9z1u2jb","5b3e2334cdb4ce0001d93c51","fixation","img/fixation.png","null","","test","","","","","",""
"509.19999999925494","300074","pSARL_v2","pSARL_v2g9z1u2jb","5b3e2334cdb4ce0001d93c51","reward","img/slot.png","74","","test","","","","","",""
"null","300836","pSARL_v2","pSARL_v2g9z1u2jb","5b3e2334cdb4ce0001d93c51","points","<div class=""verylowPoints""> -4 </div>","null","na","test","","","","8","-4","7"
"268.8999999985099","301108","pSARL_v2","pSARL_v2g9z1u2jb","5b3e2334cdb4ce0001d93c51","freq","img/green_2bandit_a2.png","70","70","test","1","175","175","9","",""
"null","301657","pSARL_v2","pSARL_v2g9z1u2jb","5b3e2334cdb4ce0001d93c51","freq_resp","img/green_2bandit_a.png","70","70","test","","","","9","",""
"null","301815","pSARL_v2","pSARL_v2g9z1u2jb","5b3e2334cdb4ce0001d93c51","fixation","img/fixation.png","null","","test","","","","","",""
"417.19999999925494","302236","pSARL_v2","pSARL_v2g9z1u2jb","5b3e2334cdb4ce0001d93c51","infreq","img/orange_2bandit_a2.png","68","68","test","1","176","176","9","",""
"null","302634","pSARL_v2","pSARL_v2g9z1u2jb","5b3e2334cdb4ce0001d93c51","infreq_resp","img/orange_2bandit_a.png","68","68","test","","","","9","",""
"null","302792","pSARL_v2","pSARL_v2g9z1u2jb","5b3e2334cdb4ce0001d93c51","fixation","img/fixation.png","null","","test","","","","","",""
"314.30000000074506","303110","pSARL_v2","pSARL_v2g9z1u2jb","5b3e2334cdb4ce0001d93c51","freq","img/green_2bandit_a2.png","70","70","test","1","177","177","9","",""
"null","303603","pSARL_v2","pSARL_v2g9z1u2jb","5b3e2334cdb4ce0001d93c51","freq_resp","img/green_2bandit_a.png","70","70","test","","","","9","",""
"null","303762","pSARL_v2","pSARL_v2g9z1u2jb","5b3e2334cdb4ce0001d93c51","fixation","img/fixation.png","null","","test","","","","","",""
"272.9000000022352","304039","pSARL_v2","pSARL_v2g9z1u2jb","5b3e2334cdb4ce0001d93c51","freq","img/green_2bandit_a2.png","70","70","test","1","178","178","9","",""
"null","304581","pSARL_v2","pSARL_v2g9z1u2jb","5b3e2334cdb4ce0001d93c51","freq_resp","img/green_2bandit_a.png","70","70","test","","","","9","",""
"null","304738","pSARL_v2","pSARL_v2g9z1u2jb","5b3e2334cdb4ce0001d93c51","fixation","img/fixation.png","null","","test","","","","","",""
"313.80000000074506","305056","pSARL_v2","pSARL_v2g9z1u2jb","5b3e2334cdb4ce0001d93c51","freq","img/green_2bandit_a2.png","70","70","test","1","179","179","9","",""
"null","305560","pSARL_v2","pSARL_v2g9z1u2jb","5b3e2334cdb4ce0001d93c51","freq_resp","img/green_2bandit_a.png","70","70","test","","","","9","",""
"null","305716","pSARL_v2","pSARL_v2g9z1u2jb","5b3e2334cdb4ce0001d93c51","fixation","img/fixation.png","null","","test","","","","","",""
"278.0999999977648","305997","pSARL_v2","pSARL_v2g9z1u2jb","5b3e2334cdb4ce0001d93c51","freq","img/green_2bandit_a2.png","70","70","test","1","180","180","9","",""
"null","306537","pSARL_v2","pSARL_v2g9z1u2jb","5b3e2334cdb4ce0001d93c51","freq_resp","img/green_2bandit_a.png","70","70","test","","","","9","",""
"null","306695","pSARL_v2","pSARL_v2g9z1u2jb","5b3e2334cdb4ce0001d93c51","fixation","img/fixation.png","null","","test","","","","","",""
"302.5","307001","pSARL_v2","pSARL_v2g9z1u2jb","5b3e2334cdb4ce0001d93c51","freq","img/green_2bandit_a2.png","70","70","test","1","181","181","9","",""
"null","307515","pSARL_v2","pSARL_v2g9z1u2jb","5b3e2334cdb4ce0001d93c51","freq_resp","img/green_2bandit_a.png","70","70","test","","","","9","",""
"null","307673","pSARL_v2","pSARL_v2g9z1u2jb","5b3e2334cdb4ce0001d93c51","fixation","img/fixation.png","null","","test","","","","","",""
"371.30000000074506","308048","pSARL_v2","pSARL_v2g9z1u2jb","5b3e2334cdb4ce0001d93c51","freq","img/green_2bandit_a2.png","70","70","test","1","182","182","9","",""
"null","308495","pSARL_v2","pSARL_v2g9z1u2jb","5b3e2334cdb4ce0001d93c51","freq_resp","img/green_2bandit_a.png","70","70","test","","","","9","",""
"null","308650","pSARL_v2","pSARL_v2g9z1u2jb","5b3e2334cdb4ce0001d93c51","fixation","img/fixation.png","null","","test","","","","","",""
"225.39999999850988","308881","pSARL_v2","pSARL_v2g9z1u2jb","5b3e2334cdb4ce0001d93c51","freq","img/green_2bandit_a2.png","70","70","test","1","183","183","9","",""
"null","309473","pSARL_v2","pSARL_v2g9z1u2jb","5b3e2334cdb4ce0001d93c51","freq_resp","img/green_2bandit_a.png","70","70","test","","","","9","",""
"null","309631","pSARL_v2","pSARL_v2g9z1u2jb","5b3e2334cdb4ce0001d93c51","fixation","img/fixation.png","null","","test","","","","","",""
"284.3999999985099","309919","pSARL_v2","pSARL_v2g9z1u2jb","5b3e2334cdb4ce0001d93c51","freq","img/green_2bandit_a2.png","70","70","test","1","184","184","9","",""
"null","310441","pSARL_v2","pSARL_v2g9z1u2jb","5b3e2334cdb4ce0001d93c51","freq_resp","img/green_2bandit_a.png","70","70","test","","","","9","",""
"null","310611","pSARL_v2","pSARL_v2g9z1u2jb","5b3e2334cdb4ce0001d93c51","fixation","img/fixation.png","null","","test","","","","","",""
"275.80000000074506","310890","pSARL_v2","pSARL_v2g9z1u2jb","5b3e2334cdb4ce0001d93c51","freq","img/green_2bandit_a2.png","70","70","test","1","185","185","9","",""
"null","311421","pSARL_v2","pSARL_v2g9z1u2jb","5b3e2334cdb4ce0001d93c51","freq_resp","img/green_2bandit_a.png","70","70","test","","","","9","",""
"null","311578","pSARL_v2","pSARL_v2g9z1u2jb","5b3e2334cdb4ce0001d93c51","fixation","img/fixation.png","null","","test","","","","","",""
"284.69999999925494","311867","pSARL_v2","pSARL_v2g9z1u2jb","5b3e2334cdb4ce0001d93c51","freq","img/green_2bandit_a2.png","70","70","test","1","186","186","9","",""
"null","312399","pSARL_v2","pSARL_v2g9z1u2jb","5b3e2334cdb4ce0001d93c51","freq_resp","img/green_2bandit_a.png","70","70","test","","","","9","",""
"null","312557","pSARL_v2","pSARL_v2g9z1u2jb","5b3e2334cdb4ce0001d93c51","fixation","img/fixation.png","null","","test","","","","","",""
"261.19999999925494","312822","pSARL_v2","pSARL_v2g9z1u2jb","5b3e2334cdb4ce0001d93c51","freq","img/green_2bandit_a2.png","70","70","test","1","187","187","9","",""
"null","313379","pSARL_v2","pSARL_v2g9z1u2jb","5b3e2334cdb4ce0001d93c51","freq_resp","img/green_2bandit_a.png","70","70","test","","","","9","",""
"null","313535","pSARL_v2","pSARL_v2g9z1u2jb","5b3e2334cdb4ce0001d93c51","fixation","img/fixation.png","null","","test","","","","","",""
"276.6000000014901","313815","pSARL_v2","pSARL_v2g9z1u2jb","5b3e2334cdb4ce0001d93c51","freq","img/green_2bandit_a2.png","70","70","test","1","188","188","9","",""
"null","314357","pSARL_v2","pSARL_v2g9z1u2jb","5b3e2334cdb4ce0001d93c51","freq_resp","img/green_2bandit_a.png","70","70","test","","","","9","",""
"null","314514","pSARL_v2","pSARL_v2g9z1u2jb","5b3e2334cdb4ce0001d93c51","fixation","img/fixation.png","null","","test","","","","","",""
"396.6000000014901","314914","pSARL_v2","pSARL_v2g9z1u2jb","5b3e2334cdb4ce0001d93c51","infreq","img/orange_2bandit_a2.png","68","68","test","1","189","189","9","",""
"null","315336","pSARL_v2","pSARL_v2g9z1u2jb","5b3e2334cdb4ce0001d93c51","infreq_resp","img/orange_2bandit_a.png","68","68","test","","","","9","",""
"null","315494","pSARL_v2","pSARL_v2g9z1u2jb","5b3e2334cdb4ce0001d93c51","fixation","img/fixation.png","null","","test","","","","","",""
"321.5999999977648","315819","pSARL_v2","pSARL_v2g9z1u2jb","5b3e2334cdb4ce0001d93c51","freq","img/green_2bandit_a2.png","70","70","test","1","190","190","9","",""
"null","316312","pSARL_v2","pSARL_v2g9z1u2jb","5b3e2334cdb4ce0001d93c51","freq_resp","img/green_2bandit_a.png","70","70","test","","","","9","",""
"null","316470","pSARL_v2","pSARL_v2g9z1u2jb","5b3e2334cdb4ce0001d93c51","fixation","img/fixation.png","null","","test","","","","","",""
"367","316840","pSARL_v2","pSARL_v2g9z1u2jb","5b3e2334cdb4ce0001d93c51","freq","img/green_2bandit_a2.png","70","70","test","1","191","191","9","",""
"null","317291","pSARL_v2","pSARL_v2g9z1u2jb","5b3e2334cdb4ce0001d93c51","freq_resp","img/green_2bandit_a.png","70","70","test","","","","9","",""
"null","317450","pSARL_v2","pSARL_v2g9z1u2jb","5b3e2334cdb4ce0001d93c51","fixation","img/fixation.png","null","","test","","","","","",""
"270.9000000022352","317725","pSARL_v2","pSARL_v2g9z1u2jb","5b3e2334cdb4ce0001d93c51","freq","img/green_2bandit_a2.png","70","70","test","1","192","192","9","",""
"null","318267","pSARL_v2","pSARL_v2g9z1u2jb","5b3e2334cdb4ce0001d93c51","freq_resp","img/green_2bandit_a.png","70","70","test","","","","9","",""
"null","318423","pSARL_v2","pSARL_v2g9z1u2jb","5b3e2334cdb4ce0001d93c51","fixation","img/fixation.png","null","","test","","","","","",""
"296.29999999701977","318723","pSARL_v2","pSARL_v2g9z1u2jb","5b3e2334cdb4ce0001d93c51","freq","img/green_2bandit_a2.png","70","70","test","1","193","193","9","",""
"null","319240","pSARL_v2","pSARL_v2g9z1u2jb","5b3e2334cdb4ce0001d93c51","freq_resp","img/green_2bandit_a.png","70","70","test","","","","9","",""
"null","319397","pSARL_v2","pSARL_v2g9z1u2jb","5b3e2334cdb4ce0001d93c51","fixation","img/fixation.png","null","","test","","","","","",""
"280.5","319681","pSARL_v2","pSARL_v2g9z1u2jb","5b3e2334cdb4ce0001d93c51","freq","img/green_2bandit_a2.png","70","70","test","1","194","194","9","",""
"null","320214","pSARL_v2","pSARL_v2g9z1u2jb","5b3e2334cdb4ce0001d93c51","freq_resp","img/green_2bandit_a.png","70","70","test","","","","9","",""
"null","320373","pSARL_v2","pSARL_v2g9z1u2jb","5b3e2334cdb4ce0001d93c51","fixation","img/fixation.png","null","","test","","","","","",""
"325.1000000014901","320702","pSARL_v2","pSARL_v2g9z1u2jb","5b3e2334cdb4ce0001d93c51","freq","img/green_2bandit_a2.png","70","70","test","1","195","195","9","",""
"null","321195","pSARL_v2","pSARL_v2g9z1u2jb","5b3e2334cdb4ce0001d93c51","freq_resp","img/green_2bandit_a.png","70","70","test","","","","9","",""
"null","321366","pSARL_v2","pSARL_v2g9z1u2jb","5b3e2334cdb4ce0001d93c51","fixation","img/fixation.png","null","","test","","","","","",""
"303.0999999977648","321672","pSARL_v2","pSARL_v2g9z1u2jb","5b3e2334cdb4ce0001d93c51","freq","img/green_2bandit_a2.png","70","70","test","1","196","196","9","",""
"null","322176","pSARL_v2","pSARL_v2g9z1u2jb","5b3e2334cdb4ce0001d93c51","freq_resp","img/green_2bandit_a.png","70","70","test","","","","9","",""
"null","322332","pSARL_v2","pSARL_v2g9z1u2jb","5b3e2334cdb4ce0001d93c51","fixation","img/fixation.png","null","","test","","","","","",""
"260","322595","pSARL_v2","pSARL_v2g9z1u2jb","5b3e2334cdb4ce0001d93c51","freq","img/green_2bandit_a2.png","70","70","test","1","197","197","9","",""
"null","323155","pSARL_v2","pSARL_v2g9z1u2jb","5b3e2334cdb4ce0001d93c51","freq_resp","img/green_2bandit_a.png","70","70","test","","","","9","",""
"null","323325","pSARL_v2","pSARL_v2g9z1u2jb","5b3e2334cdb4ce0001d93c51","fixation","img/fixation.png","null","","test","","","","","",""
"313.69999999925494","323642","pSARL_v2","pSARL_v2g9z1u2jb","5b3e2334cdb4ce0001d93c51","freq","img/green_2bandit_a2.png","70","70","test","1","198","198","9","",""
"null","324132","pSARL_v2","pSARL_v2g9z1u2jb","5b3e2334cdb4ce0001d93c51","freq_resp","img/green_2bandit_a.png","70","70","test","","","","9","",""
"null","324291","pSARL_v2","pSARL_v2g9z1u2jb","5b3e2334cdb4ce0001d93c51","fixation","img/fixation.png","null","","test","","","","","",""
"311.1000000014901","324606","pSARL_v2","pSARL_v2g9z1u2jb","5b3e2334cdb4ce0001d93c51","freq","img/green_2bandit_a2.png","70","70","test","1","199","199","9","",""
"null","325104","pSARL_v2","pSARL_v2g9z1u2jb","5b3e2334cdb4ce0001d93c51","freq_resp","img/green_2bandit_a.png","70","70","test","","","","9","",""
"null","325260","pSARL_v2","pSARL_v2g9z1u2jb","5b3e2334cdb4ce0001d93c51","fixation","img/fixation.png","null","","test","","","","","",""
"539.5","325803","pSARL_v2","pSARL_v2g9z1u2jb","5b3e2334cdb4ce0001d93c51","reward","img/slot.png","74","","test","","","","","",""
"null","326571","pSARL_v2","pSARL_v2g9z1u2jb","5b3e2334cdb4ce0001d93c51","points","<div class=""verylowPoints""> -3 </div>","null","na","test","","","","9","-3","8"
"654.8000000007451","327229","pSARL_v2","pSARL_v2g9z1u2jb","5b3e2334cdb4ce0001d93c51","freq","img/green_2bandit_a2.png","70","70","test","1","200","200","10","",""
"null","327379","pSARL_v2","pSARL_v2g9z1u2jb","5b3e2334cdb4ce0001d93c51","freq_resp","img/green_2bandit_a.png","70","70","test","","","","10","",""
"null","327535","pSARL_v2","pSARL_v2g9z1u2jb","5b3e2334cdb4ce0001d93c51","fixation","img/fixation.png","null","","test","","","","","",""
"542.2999999970198","328080","pSARL_v2","pSARL_v2g9z1u2jb","5b3e2334cdb4ce0001d93c51","infreq","img/orange_2bandit_a2.png","68","68","test","1","201","201","10","",""
"null","328354","pSARL_v2","pSARL_v2g9z1u2jb","5b3e2334cdb4ce0001d93c51","infreq_resp","img/orange_2bandit_a.png","68","68","test","","","","10","",""
"null","328511","pSARL_v2","pSARL_v2g9z1u2jb","5b3e2334cdb4ce0001d93c51","fixation","img/fixation.png","null","","test","","","","","",""
"439.6000000014901","328954","pSARL_v2","pSARL_v2g9z1u2jb","5b3e2334cdb4ce0001d93c51","infreq","img/orange_2bandit_a2.png","68","68","test","1","202","202","10","",""
"null","329330","pSARL_v2","pSARL_v2g9z1u2jb","5b3e2334cdb4ce0001d93c51","infreq_resp","img/orange_2bandit_a.png","68","68","test","","","","10","",""
"null","329487","pSARL_v2","pSARL_v2g9z1u2jb","5b3e2334cdb4ce0001d93c51","fixation","img/fixation.png","null","","test","","","","","",""
"355","329845","pSARL_v2","pSARL_v2g9z1u2jb","5b3e2334cdb4ce0001d93c51","freq","img/green_2bandit_a2.png","70","70","test","1","203","203","10","",""
"null","330306","pSARL_v2","pSARL_v2g9z1u2jb","5b3e2334cdb4ce0001d93c51","freq_resp","img/green_2bandit_a.png","70","70","test","","","","10","",""
"null","330465","pSARL_v2","pSARL_v2g9z1u2jb","5b3e2334cdb4ce0001d93c51","fixation","img/fixation.png","null","","test","","","","","",""
"137.19999999925494","330606","pSARL_v2","pSARL_v2g9z1u2jb","5b3e2334cdb4ce0001d93c51","freq","img/green_2bandit_a2.png","70","70","test","1","204","204","10","",""
"null","331280","pSARL_v2","pSARL_v2g9z1u2jb","5b3e2334cdb4ce0001d93c51","freq_resp","img/green_2bandit_a.png","70","70","test","","","","10","",""
"null","331437","pSARL_v2","pSARL_v2g9z1u2jb","5b3e2334cdb4ce0001d93c51","fixation","img/fixation.png","null","","test","","","","","",""
"112.90000000223517","331554","pSARL_v2","pSARL_v2g9z1u2jb","5b3e2334cdb4ce0001d93c51","freq","img/green_2bandit_a2.png","70","70","test","1","205","205","10","",""
"null","332256","pSARL_v2","pSARL_v2g9z1u2jb","5b3e2334cdb4ce0001d93c51","freq_resp","img/green_2bandit_a.png","70","70","test","","","","10","",""
"null","332415","pSARL_v2","pSARL_v2g9z1u2jb","5b3e2334cdb4ce0001d93c51","fixation","img/fixation.png","null","","test","","","","","",""
