"rt","time_elapsed","expId","subject","prolificID","trialType","stimulus","key_press","corrresp","phase","corr","trialNum","attentionRunNum","blockNum","points","rlNum"
"382209","382212","pSARL_v2","pSARL_v2u3qrvzsu","59296fb2e8a7ff000163f033","","","","","","","","","","",""
"","384203","pSARL_v2","pSARL_v2u3qrvzsu","59296fb2e8a7ff000163f033","fullscreen","","","","","","","","","",""
"16015.699999988079","400223","pSARL_v2","pSARL_v2u3qrvzsu","59296fb2e8a7ff000163f033","","","","","","","","","","",""
"null","401034","pSARL_v2","pSARL_v2u3qrvzsu","59296fb2e8a7ff000163f033","freqPrac","img/orange_2bandit_b2.png","null","70","prac","0","","","","",""
"null","402040","pSARL_v2","pSARL_v2u3qrvzsu","59296fb2e8a7ff000163f033","feedback","img/tooSlow.png","null","na","prac","","","","","",""
"null","402195","pSARL_v2","pSARL_v2u3qrvzsu","59296fb2e8a7ff000163f033","fixation","img/fixation.png","null","","prac","","","","","",""
"617.8000000119209","402817","pSARL_v2","pSARL_v2u3qrvzsu","59296fb2e8a7ff000163f033","infreqPrac","img/green_2bandit_b2.png","70","68","prac","0","","","","",""
"617.8000000119209","403013","pSARL_v2","pSARL_v2u3qrvzsu","59296fb2e8a7ff000163f033","infreqPrac_resp","img/green_2bandit_b.png","70","68","prac","","","","","",""
"null","404028","pSARL_v2","pSARL_v2u3qrvzsu","59296fb2e8a7ff000163f033","feedback","img/wrongKey.png","null","na","prac","","","","","",""
"null","404197","pSARL_v2","pSARL_v2u3qrvzsu","59296fb2e8a7ff000163f033","fixation","img/fixation.png","null","","prac","","","","","",""
"null","405001","pSARL_v2","pSARL_v2u3qrvzsu","59296fb2e8a7ff000163f033","freqPrac","img/orange_2bandit_b2.png","null","70","prac","0","","","","",""
"null","406006","pSARL_v2","pSARL_v2u3qrvzsu","59296fb2e8a7ff000163f033","feedback","img/tooSlow.png","null","na","prac","","","","","",""
"null","406162","pSARL_v2","pSARL_v2u3qrvzsu","59296fb2e8a7ff000163f033","fixation","img/fixation.png","null","","prac","","","","","",""
"584.0999999940395","406749","pSARL_v2","pSARL_v2u3qrvzsu","59296fb2e8a7ff000163f033","infreqPrac","img/green_2bandit_b2.png","70","68","prac","0","","","","",""
"584.0999999940395","406972","pSARL_v2","pSARL_v2u3qrvzsu","59296fb2e8a7ff000163f033","infreqPrac_resp","img/green_2bandit_b.png","70","68","prac","","","","","",""
"null","407989","pSARL_v2","pSARL_v2u3qrvzsu","59296fb2e8a7ff000163f033","feedback","img/wrongKey.png","null","na","prac","","","","","",""
"null","408144","pSARL_v2","pSARL_v2u3qrvzsu","59296fb2e8a7ff000163f033","fixation","img/fixation.png","null","","prac","","","","","",""
"341.90000000596046","408489","pSARL_v2","pSARL_v2u3qrvzsu","59296fb2e8a7ff000163f033","infreqPrac","img/green_2bandit_b2.png","68","68","prac","1","","","","",""
"341.90000000596046","408958","pSARL_v2","pSARL_v2u3qrvzsu","59296fb2e8a7ff000163f033","infreqPrac_resp","img/green_2bandit_b.png","68","68","prac","","","","","",""
"null","409114","pSARL_v2","pSARL_v2u3qrvzsu","59296fb2e8a7ff000163f033","fixation","img/fixation.png","null","","prac","","","","","",""
"707.9000000059605","409825","pSARL_v2","pSARL_v2u3qrvzsu","59296fb2e8a7ff000163f033","infreqPrac","img/green_2bandit_b2.png","68","68","prac","1","","","","",""
"707.9000000059605","409921","pSARL_v2","pSARL_v2u3qrvzsu","59296fb2e8a7ff000163f033","infreqPrac_resp","img/green_2bandit_b.png","68","68","prac","","","","","",""
"null","410088","pSARL_v2","pSARL_v2u3qrvzsu","59296fb2e8a7ff000163f033","fixation","img/fixation.png","null","","prac","","","","","",""
"436.59999999403954","410528","pSARL_v2","pSARL_v2u3qrvzsu","59296fb2e8a7ff000163f033","freqPrac","img/orange_2bandit_b2.png","68","70","prac","0","","","","",""
"436.59999999403954","410907","pSARL_v2","pSARL_v2u3qrvzsu","59296fb2e8a7ff000163f033","freqPrac_resp","img/orange_2bandit_b.png","68","70","prac","","","","","",""
"null","411911","pSARL_v2","pSARL_v2u3qrvzsu","59296fb2e8a7ff000163f033","feedback","img/wrongKey.png","null","na","prac","","","","","",""
"null","412068","pSARL_v2","pSARL_v2u3qrvzsu","59296fb2e8a7ff000163f033","fixation","img/fixation.png","null","","prac","","","","","",""
"741","412812","pSARL_v2","pSARL_v2u3qrvzsu","59296fb2e8a7ff000163f033","infreqPrac","img/green_2bandit_b2.png","68","68","prac","1","","","","",""
"741","412875","pSARL_v2","pSARL_v2u3qrvzsu","59296fb2e8a7ff000163f033","infreqPrac_resp","img/green_2bandit_b.png","68","68","prac","","","","","",""
"null","413040","pSARL_v2","pSARL_v2u3qrvzsu","59296fb2e8a7ff000163f033","fixation","img/fixation.png","null","","prac","","","","","",""
"614.5","413658","pSARL_v2","pSARL_v2u3qrvzsu","59296fb2e8a7ff000163f033","freqPrac","img/orange_2bandit_b2.png","70","70","prac","1","","","","",""
"614.5","413861","pSARL_v2","pSARL_v2u3qrvzsu","59296fb2e8a7ff000163f033","freqPrac_resp","img/orange_2bandit_b.png","70","70","prac","","","","","",""
"null","414015","pSARL_v2","pSARL_v2u3qrvzsu","59296fb2e8a7ff000163f033","fixation","img/fixation.png","null","","prac","","","","","",""
"580.8000000119209","414599","pSARL_v2","pSARL_v2u3qrvzsu","59296fb2e8a7ff000163f033","freqPrac","img/orange_2bandit_b2.png","70","70","prac","1","","","","",""
"580.8000000119209","414833","pSARL_v2","pSARL_v2u3qrvzsu","59296fb2e8a7ff000163f033","freqPrac_resp","img/orange_2bandit_b.png","70","70","prac","","","","","",""
"null","414988","pSARL_v2","pSARL_v2u3qrvzsu","59296fb2e8a7ff000163f033","fixation","img/fixation.png","null","","prac","","","","","",""
"13324.299999982119","428316","pSARL_v2","pSARL_v2u3qrvzsu","59296fb2e8a7ff000163f033","","","","","prac","","","","","",""
"2909","431228","pSARL_v2","pSARL_v2u3qrvzsu","59296fb2e8a7ff000163f033","rewardPractice","img/slot.png","74","","prac","","","","","",""
"null","431982","pSARL_v2","pSARL_v2u3qrvzsu","59296fb2e8a7ff000163f033","feedback","<div class=""veryhighPoints""> +15 </div>","null","na","prac","","","","","",""
"null","432138","pSARL_v2","pSARL_v2u3qrvzsu","59296fb2e8a7ff000163f033","fixation","img/fixation.png","null","","prac","","","","","",""
"13123.199999988079","445264","pSARL_v2","pSARL_v2u3qrvzsu","59296fb2e8a7ff000163f033","","","","","prac","","","","","",""
"null","446071","pSARL_v2","pSARL_v2u3qrvzsu","59296fb2e8a7ff000163f033","freq","img/orange_2bandit_b2.png","null","70","test","0","1","1","1","",""
"null","446227","pSARL_v2","pSARL_v2u3qrvzsu","59296fb2e8a7ff000163f033","fixation","img/fixation.png","null","","test","","","","","",""
"808.3999999761581","447039","pSARL_v2","pSARL_v2u3qrvzsu","59296fb2e8a7ff000163f033","freq","img/orange_2bandit_b2.png","68","70","test","0","2","2","1","",""
"null","447199","pSARL_v2","pSARL_v2u3qrvzsu","59296fb2e8a7ff000163f033","fixation","img/fixation.png","null","","test","","","","","",""
"547.7000000178814","447750","pSARL_v2","pSARL_v2u3qrvzsu","59296fb2e8a7ff000163f033","freq","img/orange_2bandit_b2.png","68","70","test","0","3","3","1","",""
"null","448006","pSARL_v2","pSARL_v2u3qrvzsu","59296fb2e8a7ff000163f033","freq_resp","img/orange_2bandit_b.png","68","70","test","","","","1","",""
"null","448162","pSARL_v2","pSARL_v2u3qrvzsu","59296fb2e8a7ff000163f033","fixation","img/fixation.png","null","","test","","","","","",""
"373.7000000178814","448539","pSARL_v2","pSARL_v2u3qrvzsu","59296fb2e8a7ff000163f033","freq","img/orange_2bandit_b2.png","68","70","test","0","4","4","1","",""
"null","448982","pSARL_v2","pSARL_v2u3qrvzsu","59296fb2e8a7ff000163f033","freq_resp","img/orange_2bandit_b.png","68","70","test","","","","1","",""
"null","449138","pSARL_v2","pSARL_v2u3qrvzsu","59296fb2e8a7ff000163f033","fixation","img/fixation.png","null","","test","","","","","",""
"319.40000000596046","449461","pSARL_v2","pSARL_v2u3qrvzsu","59296fb2e8a7ff000163f033","freq","img/orange_2bandit_b2.png","68","70","test","0","5","5","1","",""
"null","449955","pSARL_v2","pSARL_v2u3qrvzsu","59296fb2e8a7ff000163f033","freq_resp","img/orange_2bandit_b.png","68","70","test","","","","1","",""
"null","450109","pSARL_v2","pSARL_v2u3qrvzsu","59296fb2e8a7ff000163f033","fixation","img/fixation.png","null","","test","","","","","",""
"323.40000000596046","450435","pSARL_v2","pSARL_v2u3qrvzsu","59296fb2e8a7ff000163f033","freq","img/orange_2bandit_b2.png","68","70","test","0","6","6","1","",""
"null","450915","pSARL_v2","pSARL_v2u3qrvzsu","59296fb2e8a7ff000163f033","freq_resp","img/orange_2bandit_b.png","68","70","test","","","","1","",""
"null","451071","pSARL_v2","pSARL_v2u3qrvzsu","59296fb2e8a7ff000163f033","fixation","img/fixation.png","null","","test","","","","","",""
"409.5","451485","pSARL_v2","pSARL_v2u3qrvzsu","59296fb2e8a7ff000163f033","infreq","img/green_2bandit_b2.png","70","68","test","0","7","7","1","",""
"null","451891","pSARL_v2","pSARL_v2u3qrvzsu","59296fb2e8a7ff000163f033","infreq_resp","img/green_2bandit_b.png","70","68","test","","","","1","",""
"null","452046","pSARL_v2","pSARL_v2u3qrvzsu","59296fb2e8a7ff000163f033","fixation","img/fixation.png","null","","test","","","","","",""
"532","452582","pSARL_v2","pSARL_v2u3qrvzsu","59296fb2e8a7ff000163f033","freq","img/orange_2bandit_b2.png","68","70","test","0","8","8","1","",""
"null","452865","pSARL_v2","pSARL_v2u3qrvzsu","59296fb2e8a7ff000163f033","freq_resp","img/orange_2bandit_b.png","68","70","test","","","","1","",""
"null","453019","pSARL_v2","pSARL_v2u3qrvzsu","59296fb2e8a7ff000163f033","fixation","img/fixation.png","null","","test","","","","","",""
"488","453510","pSARL_v2","pSARL_v2u3qrvzsu","59296fb2e8a7ff000163f033","freq","img/orange_2bandit_b2.png","68","70","test","0","9","9","1","",""
"null","453840","pSARL_v2","pSARL_v2u3qrvzsu","59296fb2e8a7ff000163f033","freq_resp","img/orange_2bandit_b.png","68","70","test","","","","1","",""
"null","453994","pSARL_v2","pSARL_v2u3qrvzsu","59296fb2e8a7ff000163f033","fixation","img/fixation.png","null","","test","","","","","",""
"328.7000000178814","454325","pSARL_v2","pSARL_v2u3qrvzsu","59296fb2e8a7ff000163f033","freq","img/orange_2bandit_b2.png","68","70","test","0","10","10","1","",""
"null","454800","pSARL_v2","pSARL_v2u3qrvzsu","59296fb2e8a7ff000163f033","freq_resp","img/orange_2bandit_b.png","68","70","test","","","","1","",""
"null","454954","pSARL_v2","pSARL_v2u3qrvzsu","59296fb2e8a7ff000163f033","fixation","img/fixation.png","null","","test","","","","","",""
"283.5","455241","pSARL_v2","pSARL_v2u3qrvzsu","59296fb2e8a7ff000163f033","freq","img/orange_2bandit_b2.png","68","70","test","0","11","11","1","",""
"null","455771","pSARL_v2","pSARL_v2u3qrvzsu","59296fb2e8a7ff000163f033","freq_resp","img/orange_2bandit_b.png","68","70","test","","","","1","",""
"null","455927","pSARL_v2","pSARL_v2u3qrvzsu","59296fb2e8a7ff000163f033","fixation","img/fixation.png","null","","test","","","","","",""
"238.30000001192093","456168","pSARL_v2","pSARL_v2u3qrvzsu","59296fb2e8a7ff000163f033","freq","img/orange_2bandit_b2.png","68","70","test","0","12","12","1","",""
"null","456746","pSARL_v2","pSARL_v2u3qrvzsu","59296fb2e8a7ff000163f033","freq_resp","img/orange_2bandit_b.png","68","70","test","","","","1","",""
"null","456900","pSARL_v2","pSARL_v2u3qrvzsu","59296fb2e8a7ff000163f033","fixation","img/fixation.png","null","","test","","","","","",""
"202","457105","pSARL_v2","pSARL_v2u3qrvzsu","59296fb2e8a7ff000163f033","freq","img/orange_2bandit_b2.png","68","70","test","0","13","13","1","",""
"null","457718","pSARL_v2","pSARL_v2u3qrvzsu","59296fb2e8a7ff000163f033","freq_resp","img/orange_2bandit_b.png","68","70","test","","","","1","",""
"null","457874","pSARL_v2","pSARL_v2u3qrvzsu","59296fb2e8a7ff000163f033","fixation","img/fixation.png","null","","test","","","","","",""
"375.69999998807907","458253","pSARL_v2","pSARL_v2u3qrvzsu","59296fb2e8a7ff000163f033","infreq","img/green_2bandit_b2.png","70","68","test","0","14","14","1","",""
"null","458691","pSARL_v2","pSARL_v2u3qrvzsu","59296fb2e8a7ff000163f033","infreq_resp","img/green_2bandit_b.png","70","68","test","","","","1","",""
"null","458860","pSARL_v2","pSARL_v2u3qrvzsu","59296fb2e8a7ff000163f033","fixation","img/fixation.png","null","","test","","","","","",""
"462.69999998807907","459326","pSARL_v2","pSARL_v2u3qrvzsu","59296fb2e8a7ff000163f033","freq","img/orange_2bandit_b2.png","68","70","test","0","15","15","1","",""
"null","459681","pSARL_v2","pSARL_v2u3qrvzsu","59296fb2e8a7ff000163f033","freq_resp","img/orange_2bandit_b.png","68","70","test","","","","1","",""
"null","459835","pSARL_v2","pSARL_v2u3qrvzsu","59296fb2e8a7ff000163f033","fixation","img/fixation.png","null","","test","","","","","",""
"372.2999999821186","460210","pSARL_v2","pSARL_v2u3qrvzsu","59296fb2e8a7ff000163f033","freq","img/orange_2bandit_b2.png","68","70","test","0","16","16","1","",""
"null","460640","pSARL_v2","pSARL_v2u3qrvzsu","59296fb2e8a7ff000163f033","freq_resp","img/orange_2bandit_b.png","68","70","test","","","","1","",""
"null","460795","pSARL_v2","pSARL_v2u3qrvzsu","59296fb2e8a7ff000163f033","fixation","img/fixation.png","null","","test","","","","","",""
"362.09999999403954","461160","pSARL_v2","pSARL_v2u3qrvzsu","59296fb2e8a7ff000163f033","freq","img/orange_2bandit_b2.png","68","70","test","0","17","17","1","",""
"null","461615","pSARL_v2","pSARL_v2u3qrvzsu","59296fb2e8a7ff000163f033","freq_resp","img/orange_2bandit_b.png","68","70","test","","","","1","",""
"null","461769","pSARL_v2","pSARL_v2u3qrvzsu","59296fb2e8a7ff000163f033","fixation","img/fixation.png","null","","test","","","","","",""
"387.09999999403954","462158","pSARL_v2","pSARL_v2u3qrvzsu","59296fb2e8a7ff000163f033","infreq","img/green_2bandit_b2.png","70","68","test","0","18","18","1","",""
"null","462575","pSARL_v2","pSARL_v2u3qrvzsu","59296fb2e8a7ff000163f033","infreq_resp","img/green_2bandit_b.png","70","68","test","","","","1","",""
"null","462730","pSARL_v2","pSARL_v2u3qrvzsu","59296fb2e8a7ff000163f033","fixation","img/fixation.png","null","","test","","","","","",""
"391.19999998807907","463126","pSARL_v2","pSARL_v2u3qrvzsu","59296fb2e8a7ff000163f033","freq","img/orange_2bandit_b2.png","68","70","test","0","19","19","1","",""
"null","463549","pSARL_v2","pSARL_v2u3qrvzsu","59296fb2e8a7ff000163f033","freq_resp","img/orange_2bandit_b.png","68","70","test","","","","1","",""
"null","463706","pSARL_v2","pSARL_v2u3qrvzsu","59296fb2e8a7ff000163f033","fixation","img/fixation.png","null","","test","","","","","",""
"291","463999","pSARL_v2","pSARL_v2u3qrvzsu","59296fb2e8a7ff000163f033","freq","img/orange_2bandit_b2.png","68","70","test","0","20","20","1","",""
"null","464527","pSARL_v2","pSARL_v2u3qrvzsu","59296fb2e8a7ff000163f033","freq_resp","img/orange_2bandit_b.png","68","70","test","","","","1","",""
"null","464681","pSARL_v2","pSARL_v2u3qrvzsu","59296fb2e8a7ff000163f033","fixation","img/fixation.png","null","","test","","","","","",""
"305.60000002384186","464990","pSARL_v2","pSARL_v2u3qrvzsu","59296fb2e8a7ff000163f033","freq","img/orange_2bandit_b2.png","68","70","test","0","21","21","1","",""
"null","465500","pSARL_v2","pSARL_v2u3qrvzsu","59296fb2e8a7ff000163f033","freq_resp","img/orange_2bandit_b.png","68","70","test","","","","1","",""
"null","465655","pSARL_v2","pSARL_v2u3qrvzsu","59296fb2e8a7ff000163f033","fixation","img/fixation.png","null","","test","","","","","",""
"298.19999998807907","465956","pSARL_v2","pSARL_v2u3qrvzsu","59296fb2e8a7ff000163f033","freq","img/orange_2bandit_b2.png","68","70","test","0","22","22","1","",""
"null","466463","pSARL_v2","pSARL_v2u3qrvzsu","59296fb2e8a7ff000163f033","freq_resp","img/orange_2bandit_b.png","68","70","test","","","","1","",""
"null","466632","pSARL_v2","pSARL_v2u3qrvzsu","59296fb2e8a7ff000163f033","fixation","img/fixation.png","null","","test","","","","","",""
"256.59999999403954","466892","pSARL_v2","pSARL_v2u3qrvzsu","59296fb2e8a7ff000163f033","freq","img/orange_2bandit_b2.png","68","70","test","0","23","23","1","",""
"null","467448","pSARL_v2","pSARL_v2u3qrvzsu","59296fb2e8a7ff000163f033","freq_resp","img/orange_2bandit_b.png","68","70","test","","","","1","",""
"null","467602","pSARL_v2","pSARL_v2u3qrvzsu","59296fb2e8a7ff000163f033","fixation","img/fixation.png","null","","test","","","","","",""
"298.39999997615814","467904","pSARL_v2","pSARL_v2u3qrvzsu","59296fb2e8a7ff000163f033","freq","img/orange_2bandit_b2.png","68","70","test","0","24","24","1","",""
"null","468419","pSARL_v2","pSARL_v2u3qrvzsu","59296fb2e8a7ff000163f033","freq_resp","img/orange_2bandit_b.png","68","70","test","","","","1","",""
"null","468587","pSARL_v2","pSARL_v2u3qrvzsu","59296fb2e8a7ff000163f033","fixation","img/fixation.png","null","","test","","","","","",""
"584.1999999880791","469174","pSARL_v2","pSARL_v2u3qrvzsu","59296fb2e8a7ff000163f033","reward","img/slot.png","74","","test","","","","","",""
"null","469935","pSARL_v2","pSARL_v2u3qrvzsu","59296fb2e8a7ff000163f033","points","<div class=""verylowPoints""> -6 </div>","null","na","test","","","","1","-6","0"
"null","470752","pSARL_v2","pSARL_v2u3qrvzsu","59296fb2e8a7ff000163f033","freq","img/orange_2bandit_b2.png","null","70","test","0","25","25","2","",""
"null","470908","pSARL_v2","pSARL_v2u3qrvzsu","59296fb2e8a7ff000163f033","fixation","img/fixation.png","null","","test","","","","","",""
"93.5","471004","pSARL_v2","pSARL_v2u3qrvzsu","59296fb2e8a7ff000163f033","freq","img/orange_2bandit_b2.png","68","70","test","0","26","26","2","",""
"null","471715","pSARL_v2","pSARL_v2u3qrvzsu","59296fb2e8a7ff000163f033","freq_resp","img/orange_2bandit_b.png","68","70","test","","","","2","",""
"null","471869","pSARL_v2","pSARL_v2u3qrvzsu","59296fb2e8a7ff000163f033","fixation","img/fixation.png","null","","test","","","","","",""
"347","472219","pSARL_v2","pSARL_v2u3qrvzsu","59296fb2e8a7ff000163f033","freq","img/orange_2bandit_b2.png","68","70","test","0","27","27","2","",""
"null","472688","pSARL_v2","pSARL_v2u3qrvzsu","59296fb2e8a7ff000163f033","freq_resp","img/orange_2bandit_b.png","68","70","test","","","","2","",""
"null","472842","pSARL_v2","pSARL_v2u3qrvzsu","59296fb2e8a7ff000163f033","fixation","img/fixation.png","null","","test","","","","","",""
"305.7999999821186","473151","pSARL_v2","pSARL_v2u3qrvzsu","59296fb2e8a7ff000163f033","freq","img/orange_2bandit_b2.png","68","70","test","0","28","28","2","",""
"null","473658","pSARL_v2","pSARL_v2u3qrvzsu","59296fb2e8a7ff000163f033","freq_resp","img/orange_2bandit_b.png","68","70","test","","","","2","",""
"null","473814","pSARL_v2","pSARL_v2u3qrvzsu","59296fb2e8a7ff000163f033","fixation","img/fixation.png","null","","test","","","","","",""
"436.19999998807907","474253","pSARL_v2","pSARL_v2u3qrvzsu","59296fb2e8a7ff000163f033","infreq","img/green_2bandit_b2.png","70","68","test","0","29","29","2","",""
"null","474631","pSARL_v2","pSARL_v2u3qrvzsu","59296fb2e8a7ff000163f033","infreq_resp","img/green_2bandit_b.png","70","68","test","","","","2","",""
"null","474786","pSARL_v2","pSARL_v2u3qrvzsu","59296fb2e8a7ff000163f033","fixation","img/fixation.png","null","","test","","","","","",""
"415.7999999821186","475206","pSARL_v2","pSARL_v2u3qrvzsu","59296fb2e8a7ff000163f033","freq","img/orange_2bandit_b2.png","68","70","test","0","30","30","2","",""
"null","475603","pSARL_v2","pSARL_v2u3qrvzsu","59296fb2e8a7ff000163f033","freq_resp","img/orange_2bandit_b.png","68","70","test","","","","2","",""
"null","475757","pSARL_v2","pSARL_v2u3qrvzsu","59296fb2e8a7ff000163f033","fixation","img/fixation.png","null","","test","","","","","",""
"401.09999999403954","476161","pSARL_v2","pSARL_v2u3qrvzsu","59296fb2e8a7ff000163f033","infreq","img/green_2bandit_b2.png","70","68","test","0","31","31","2","",""
"null","476564","pSARL_v2","pSARL_v2u3qrvzsu","59296fb2e8a7ff000163f033","infreq_resp","img/green_2bandit_b.png","70","68","test","","","","2","",""
"null","476719","pSARL_v2","pSARL_v2u3qrvzsu","59296fb2e8a7ff000163f033","fixation","img/fixation.png","null","","test","","","","","",""
"417.59999999403954","477139","pSARL_v2","pSARL_v2u3qrvzsu","59296fb2e8a7ff000163f033","freq","img/orange_2bandit_b2.png","68","70","test","0","32","32","2","",""
"null","477538","pSARL_v2","pSARL_v2u3qrvzsu","59296fb2e8a7ff000163f033","freq_resp","img/orange_2bandit_b.png","68","70","test","","","","2","",""
"null","477707","pSARL_v2","pSARL_v2u3qrvzsu","59296fb2e8a7ff000163f033","fixation","img/fixation.png","null","","test","","","","","",""
"318.19999998807907","478028","pSARL_v2","pSARL_v2u3qrvzsu","59296fb2e8a7ff000163f033","freq","img/orange_2bandit_b2.png","68","70","test","0","33","33","2","",""
"null","478514","pSARL_v2","pSARL_v2u3qrvzsu","59296fb2e8a7ff000163f033","freq_resp","img/orange_2bandit_b.png","68","70","test","","","","2","",""
"null","478670","pSARL_v2","pSARL_v2u3qrvzsu","59296fb2e8a7ff000163f033","fixation","img/fixation.png","null","","test","","","","","",""
"377.40000000596046","479050","pSARL_v2","pSARL_v2u3qrvzsu","59296fb2e8a7ff000163f033","freq","img/orange_2bandit_b2.png","68","70","test","0","34","34","2","",""
"null","479475","pSARL_v2","pSARL_v2u3qrvzsu","59296fb2e8a7ff000163f033","freq_resp","img/orange_2bandit_b.png","68","70","test","","","","2","",""
"null","479629","pSARL_v2","pSARL_v2u3qrvzsu","59296fb2e8a7ff000163f033","fixation","img/fixation.png","null","","test","","","","","",""
"402.5","480036","pSARL_v2","pSARL_v2u3qrvzsu","59296fb2e8a7ff000163f033","freq","img/orange_2bandit_b2.png","68","70","test","0","35","35","2","",""
"null","480447","pSARL_v2","pSARL_v2u3qrvzsu","59296fb2e8a7ff000163f033","freq_resp","img/orange_2bandit_b.png","68","70","test","","","","2","",""
"null","480601","pSARL_v2","pSARL_v2u3qrvzsu","59296fb2e8a7ff000163f033","fixation","img/fixation.png","null","","test","","","","","",""
"521","481125","pSARL_v2","pSARL_v2u3qrvzsu","59296fb2e8a7ff000163f033","freq","img/orange_2bandit_b2.png","68","70","test","0","36","36","2","",""
"null","481418","pSARL_v2","pSARL_v2u3qrvzsu","59296fb2e8a7ff000163f033","freq_resp","img/orange_2bandit_b.png","68","70","test","","","","2","",""
"null","481572","pSARL_v2","pSARL_v2u3qrvzsu","59296fb2e8a7ff000163f033","fixation","img/fixation.png","null","","test","","","","","",""
"364.7999999821186","481941","pSARL_v2","pSARL_v2u3qrvzsu","59296fb2e8a7ff000163f033","freq","img/orange_2bandit_b2.png","68","70","test","0","37","37","2","",""
"null","482380","pSARL_v2","pSARL_v2u3qrvzsu","59296fb2e8a7ff000163f033","freq_resp","img/orange_2bandit_b.png","68","70","test","","","","2","",""
"null","482535","pSARL_v2","pSARL_v2u3qrvzsu","59296fb2e8a7ff000163f033","fixation","img/fixation.png","null","","test","","","","","",""
"292.19999998807907","482830","pSARL_v2","pSARL_v2u3qrvzsu","59296fb2e8a7ff000163f033","freq","img/orange_2bandit_b2.png","68","70","test","0","38","38","2","",""
"null","483341","pSARL_v2","pSARL_v2u3qrvzsu","59296fb2e8a7ff000163f033","freq_resp","img/orange_2bandit_b.png","68","70","test","","","","2","",""
"null","483495","pSARL_v2","pSARL_v2u3qrvzsu","59296fb2e8a7ff000163f033","fixation","img/fixation.png","null","","test","","","","","",""
"310.90000000596046","483809","pSARL_v2","pSARL_v2u3qrvzsu","59296fb2e8a7ff000163f033","freq","img/orange_2bandit_b2.png","68","70","test","0","39","39","2","",""
"null","484302","pSARL_v2","pSARL_v2u3qrvzsu","59296fb2e8a7ff000163f033","freq_resp","img/orange_2bandit_b.png","68","70","test","","","","2","",""
"null","484456","pSARL_v2","pSARL_v2u3qrvzsu","59296fb2e8a7ff000163f033","fixation","img/fixation.png","null","","test","","","","","",""
"312.30000001192093","484772","pSARL_v2","pSARL_v2u3qrvzsu","59296fb2e8a7ff000163f033","freq","img/orange_2bandit_b2.png","68","70","test","0","40","40","2","",""
"null","485276","pSARL_v2","pSARL_v2u3qrvzsu","59296fb2e8a7ff000163f033","freq_resp","img/orange_2bandit_b.png","68","70","test","","","","2","",""
"null","485430","pSARL_v2","pSARL_v2u3qrvzsu","59296fb2e8a7ff000163f033","fixation","img/fixation.png","null","","test","","","","","",""
"333.2000000178814","485767","pSARL_v2","pSARL_v2u3qrvzsu","59296fb2e8a7ff000163f033","freq","img/orange_2bandit_b2.png","68","70","test","0","41","41","2","",""
"null","486249","pSARL_v2","pSARL_v2u3qrvzsu","59296fb2e8a7ff000163f033","freq_resp","img/orange_2bandit_b.png","68","70","test","","","","2","",""
"null","486403","pSARL_v2","pSARL_v2u3qrvzsu","59296fb2e8a7ff000163f033","fixation","img/fixation.png","null","","test","","","","","",""
"410","486817","pSARL_v2","pSARL_v2u3qrvzsu","59296fb2e8a7ff000163f033","freq","img/orange_2bandit_b2.png","68","70","test","0","42","42","2","",""
"null","487221","pSARL_v2","pSARL_v2u3qrvzsu","59296fb2e8a7ff000163f033","freq_resp","img/orange_2bandit_b.png","68","70","test","","","","2","",""
"null","487375","pSARL_v2","pSARL_v2u3qrvzsu","59296fb2e8a7ff000163f033","fixation","img/fixation.png","null","","test","","","","","",""
"327.7999999821186","487706","pSARL_v2","pSARL_v2u3qrvzsu","59296fb2e8a7ff000163f033","freq","img/orange_2bandit_b2.png","68","70","test","0","43","43","2","",""
"null","488196","pSARL_v2","pSARL_v2u3qrvzsu","59296fb2e8a7ff000163f033","freq_resp","img/orange_2bandit_b.png","68","70","test","","","","2","",""
"null","488348","pSARL_v2","pSARL_v2u3qrvzsu","59296fb2e8a7ff000163f033","fixation","img/fixation.png","null","","test","","","","","",""
"377.19999998807907","488729","pSARL_v2","pSARL_v2u3qrvzsu","59296fb2e8a7ff000163f033","freq","img/orange_2bandit_b2.png","68","70","test","0","44","44","2","",""
"null","489165","pSARL_v2","pSARL_v2u3qrvzsu","59296fb2e8a7ff000163f033","freq_resp","img/orange_2bandit_b.png","68","70","test","","","","2","",""
"null","489318","pSARL_v2","pSARL_v2u3qrvzsu","59296fb2e8a7ff000163f033","fixation","img/fixation.png","null","","test","","","","","",""
"298.69999998807907","489621","pSARL_v2","pSARL_v2u3qrvzsu","59296fb2e8a7ff000163f033","freq","img/orange_2bandit_b2.png","68","70","test","0","45","45","2","",""
"null","490129","pSARL_v2","pSARL_v2u3qrvzsu","59296fb2e8a7ff000163f033","freq_resp","img/orange_2bandit_b.png","68","70","test","","","","2","",""
"null","490284","pSARL_v2","pSARL_v2u3qrvzsu","59296fb2e8a7ff000163f033","fixation","img/fixation.png","null","","test","","","","","",""
"342","490630","pSARL_v2","pSARL_v2u3qrvzsu","59296fb2e8a7ff000163f033","freq","img/orange_2bandit_b2.png","68","70","test","0","46","46","2","",""
"null","491103","pSARL_v2","pSARL_v2u3qrvzsu","59296fb2e8a7ff000163f033","freq_resp","img/orange_2bandit_b.png","68","70","test","","","","2","",""
"null","491259","pSARL_v2","pSARL_v2u3qrvzsu","59296fb2e8a7ff000163f033","fixation","img/fixation.png","null","","test","","","","","",""
"375.5","491637","pSARL_v2","pSARL_v2u3qrvzsu","59296fb2e8a7ff000163f033","freq","img/orange_2bandit_b2.png","68","70","test","0","47","47","2","",""
"null","492067","pSARL_v2","pSARL_v2u3qrvzsu","59296fb2e8a7ff000163f033","freq_resp","img/orange_2bandit_b.png","68","70","test","","","","2","",""
"null","492221","pSARL_v2","pSARL_v2u3qrvzsu","59296fb2e8a7ff000163f033","fixation","img/fixation.png","null","","test","","","","","",""
"260.80000001192093","492484","pSARL_v2","pSARL_v2u3qrvzsu","59296fb2e8a7ff000163f033","freq","img/orange_2bandit_b2.png","68","70","test","0","48","48","2","",""
"null","493040","pSARL_v2","pSARL_v2u3qrvzsu","59296fb2e8a7ff000163f033","freq_resp","img/orange_2bandit_b.png","68","70","test","","","","2","",""
"null","493194","pSARL_v2","pSARL_v2u3qrvzsu","59296fb2e8a7ff000163f033","fixation","img/fixation.png","null","","test","","","","","",""
"518.7000000178814","493716","pSARL_v2","pSARL_v2u3qrvzsu","59296fb2e8a7ff000163f033","reward","img/slot.png","74","","test","","","","","",""
"null","494484","pSARL_v2","pSARL_v2u3qrvzsu","59296fb2e8a7ff000163f033","points","<div class=""verylowPoints""> -11 </div>","null","na","test","","","","2","-11","1"
"778.7999999821186","495265","pSARL_v2","pSARL_v2u3qrvzsu","59296fb2e8a7ff000163f033","freq","img/orange_2bandit_b2.png","68","70","test","0","49","49","3","",""
"null","495291","pSARL_v2","pSARL_v2u3qrvzsu","59296fb2e8a7ff000163f033","freq_resp","img/orange_2bandit_b.png","68","70","test","","","","3","",""
"null","495456","pSARL_v2","pSARL_v2u3qrvzsu","59296fb2e8a7ff000163f033","fixation","img/fixation.png","null","","test","","","","","",""
"null","496260","pSARL_v2","pSARL_v2u3qrvzsu","59296fb2e8a7ff000163f033","infreq","img/green_2bandit_b2.png","null","68","test","0","50","50","3","",""
"null","496415","pSARL_v2","pSARL_v2u3qrvzsu","59296fb2e8a7ff000163f033","fixation","img/fixation.png","null","","test","","","","","",""
"9.699999988079071","496428","pSARL_v2","pSARL_v2u3qrvzsu","59296fb2e8a7ff000163f033","freq","img/orange_2bandit_b2.png","70","70","test","1","51","51","3","",""
"null","497236","pSARL_v2","pSARL_v2u3qrvzsu","59296fb2e8a7ff000163f033","freq_resp","img/orange_2bandit_b.png","70","70","test","","","","3","",""
"null","497391","pSARL_v2","pSARL_v2u3qrvzsu","59296fb2e8a7ff000163f033","fixation","img/fixation.png","null","","test","","","","","",""
"362.5","497757","pSARL_v2","pSARL_v2u3qrvzsu","59296fb2e8a7ff000163f033","freq","img/orange_2bandit_b2.png","68","70","test","0","52","52","3","",""
"null","498207","pSARL_v2","pSARL_v2u3qrvzsu","59296fb2e8a7ff000163f033","freq_resp","img/orange_2bandit_b.png","68","70","test","","","","3","",""
"null","498364","pSARL_v2","pSARL_v2u3qrvzsu","59296fb2e8a7ff000163f033","fixation","img/fixation.png","null","","test","","","","","",""
"119.90000000596046","498487","pSARL_v2","pSARL_v2u3qrvzsu","59296fb2e8a7ff000163f033","freq","img/orange_2bandit_b2.png","68","70","test","0","53","53","3","",""
"null","499171","pSARL_v2","pSARL_v2u3qrvzsu","59296fb2e8a7ff000163f033","freq_resp","img/orange_2bandit_b.png","68","70","test","","","","3","",""
"null","499326","pSARL_v2","pSARL_v2u3qrvzsu","59296fb2e8a7ff000163f033","fixation","img/fixation.png","null","","test","","","","","",""
"null","500144","pSARL_v2","pSARL_v2u3qrvzsu","59296fb2e8a7ff000163f033","infreq","img/green_2bandit_b2.png","null","68","test","0","54","54","3","",""
"null","500299","pSARL_v2","pSARL_v2u3qrvzsu","59296fb2e8a7ff000163f033","fixation","img/fixation.png","null","","test","","","","","",""
"604","500905","pSARL_v2","pSARL_v2u3qrvzsu","59296fb2e8a7ff000163f033","freq","img/orange_2bandit_b2.png","68","70","test","0","55","55","3","",""
"null","501104","pSARL_v2","pSARL_v2u3qrvzsu","59296fb2e8a7ff000163f033","freq_resp","img/orange_2bandit_b.png","68","70","test","","","","3","",""
"null","501260","pSARL_v2","pSARL_v2u3qrvzsu","59296fb2e8a7ff000163f033","fixation","img/fixation.png","null","","test","","","","","",""
"321.59999999403954","501586","pSARL_v2","pSARL_v2u3qrvzsu","59296fb2e8a7ff000163f033","freq","img/orange_2bandit_b2.png","68","70","test","0","56","56","3","",""
"null","502079","pSARL_v2","pSARL_v2u3qrvzsu","59296fb2e8a7ff000163f033","freq_resp","img/orange_2bandit_b.png","68","70","test","","","","3","",""
"null","502248","pSARL_v2","pSARL_v2u3qrvzsu","59296fb2e8a7ff000163f033","fixation","img/fixation.png","null","","test","","","","","",""
"351.5","502602","pSARL_v2","pSARL_v2u3qrvzsu","59296fb2e8a7ff000163f033","freq","img/orange_2bandit_b2.png","68","70","test","0","57","57","3","",""
"null","503067","pSARL_v2","pSARL_v2u3qrvzsu","59296fb2e8a7ff000163f033","freq_resp","img/orange_2bandit_b.png","68","70","test","","","","3","",""
"null","503225","pSARL_v2","pSARL_v2u3qrvzsu","59296fb2e8a7ff000163f033","fixation","img/fixation.png","null","","test","","","","","",""
"295","503523","pSARL_v2","pSARL_v2u3qrvzsu","59296fb2e8a7ff000163f033","freq","img/orange_2bandit_b2.png","68","70","test","0","58","58","3","",""
"null","504035","pSARL_v2","pSARL_v2u3qrvzsu","59296fb2e8a7ff000163f033","freq_resp","img/orange_2bandit_b.png","68","70","test","","","","3","",""
"null","504194","pSARL_v2","pSARL_v2u3qrvzsu","59296fb2e8a7ff000163f033","fixation","img/fixation.png","null","","test","","","","","",""
"355.59999999403954","504553","pSARL_v2","pSARL_v2u3qrvzsu","59296fb2e8a7ff000163f033","freq","img/orange_2bandit_b2.png","68","70","test","0","59","59","3","",""
"null","505009","pSARL_v2","pSARL_v2u3qrvzsu","59296fb2e8a7ff000163f033","freq_resp","img/orange_2bandit_b.png","68","70","test","","","","3","",""
"null","505165","pSARL_v2","pSARL_v2u3qrvzsu","59296fb2e8a7ff000163f033","fixation","img/fixation.png","null","","test","","","","","",""
"348.5","505517","pSARL_v2","pSARL_v2u3qrvzsu","59296fb2e8a7ff000163f033","freq","img/orange_2bandit_b2.png","68","70","test","0","60","60","3","",""
"null","505973","pSARL_v2","pSARL_v2u3qrvzsu","59296fb2e8a7ff000163f033","freq_resp","img/orange_2bandit_b.png","68","70","test","","","","3","",""
"null","506129","pSARL_v2","pSARL_v2u3qrvzsu","59296fb2e8a7ff000163f033","fixation","img/fixation.png","null","","test","","","","","",""
"327.09999999403954","506460","pSARL_v2","pSARL_v2u3qrvzsu","59296fb2e8a7ff000163f033","freq","img/orange_2bandit_b2.png","68","70","test","0","61","61","3","",""
"null","506938","pSARL_v2","pSARL_v2u3qrvzsu","59296fb2e8a7ff000163f033","freq_resp","img/orange_2bandit_b.png","68","70","test","","","","3","",""
"null","507093","pSARL_v2","pSARL_v2u3qrvzsu","59296fb2e8a7ff000163f033","fixation","img/fixation.png","null","","test","","","","","",""
"257.59999999403954","507353","pSARL_v2","pSARL_v2u3qrvzsu","59296fb2e8a7ff000163f033","freq","img/orange_2bandit_b2.png","68","70","test","0","62","62","3","",""
"null","507913","pSARL_v2","pSARL_v2u3qrvzsu","59296fb2e8a7ff000163f033","freq_resp","img/orange_2bandit_b.png","68","70","test","","","","3","",""
"null","508068","pSARL_v2","pSARL_v2u3qrvzsu","59296fb2e8a7ff000163f033","fixation","img/fixation.png","null","","test","","","","","",""
"353.90000000596046","508425","pSARL_v2","pSARL_v2u3qrvzsu","59296fb2e8a7ff000163f033","freq","img/orange_2bandit_b2.png","68","70","test","0","63","63","3","",""
"null","508889","pSARL_v2","pSARL_v2u3qrvzsu","59296fb2e8a7ff000163f033","freq_resp","img/orange_2bandit_b.png","68","70","test","","","","3","",""
"null","509058","pSARL_v2","pSARL_v2u3qrvzsu","59296fb2e8a7ff000163f033","fixation","img/fixation.png","null","","test","","","","","",""
"302.2999999821186","509363","pSARL_v2","pSARL_v2u3qrvzsu","59296fb2e8a7ff000163f033","freq","img/orange_2bandit_b2.png","68","70","test","0","64","64","3","",""
"null","509876","pSARL_v2","pSARL_v2u3qrvzsu","59296fb2e8a7ff000163f033","freq_resp","img/orange_2bandit_b.png","68","70","test","","","","3","",""
"null","510031","pSARL_v2","pSARL_v2u3qrvzsu","59296fb2e8a7ff000163f033","fixation","img/fixation.png","null","","test","","","","","",""
"233.5","510268","pSARL_v2","pSARL_v2u3qrvzsu","59296fb2e8a7ff000163f033","freq","img/orange_2bandit_b2.png","68","70","test","0","65","65","3","",""
"null","510850","pSARL_v2","pSARL_v2u3qrvzsu","59296fb2e8a7ff000163f033","freq_resp","img/orange_2bandit_b.png","68","70","test","","","","3","",""
"null","511005","pSARL_v2","pSARL_v2u3qrvzsu","59296fb2e8a7ff000163f033","fixation","img/fixation.png","null","","test","","","","","",""
"160.40000000596046","511169","pSARL_v2","pSARL_v2u3qrvzsu","59296fb2e8a7ff000163f033","freq","img/orange_2bandit_b2.png","68","70","test","0","66","66","3","",""
"null","511815","pSARL_v2","pSARL_v2u3qrvzsu","59296fb2e8a7ff000163f033","freq_resp","img/orange_2bandit_b.png","68","70","test","","","","3","",""
"null","511969","pSARL_v2","pSARL_v2u3qrvzsu","59296fb2e8a7ff000163f033","fixation","img/fixation.png","null","","test","","","","","",""
"269.09999999403954","512241","pSARL_v2","pSARL_v2u3qrvzsu","59296fb2e8a7ff000163f033","freq","img/orange_2bandit_b2.png","68","70","test","0","67","67","3","",""
"null","512782","pSARL_v2","pSARL_v2u3qrvzsu","59296fb2e8a7ff000163f033","freq_resp","img/orange_2bandit_b.png","68","70","test","","","","3","",""
"null","512938","pSARL_v2","pSARL_v2u3qrvzsu","59296fb2e8a7ff000163f033","fixation","img/fixation.png","null","","test","","","","","",""
"565.1999999880791","513507","pSARL_v2","pSARL_v2u3qrvzsu","59296fb2e8a7ff000163f033","reward","img/slot.png","74","","test","","","","","",""
"null","514271","pSARL_v2","pSARL_v2u3qrvzsu","59296fb2e8a7ff000163f033","points","<div class=""verylowPoints""> -7 </div>","null","na","test","","","","3","-7","2"
"455.09999999403954","514729","pSARL_v2","pSARL_v2u3qrvzsu","59296fb2e8a7ff000163f033","freq","img/orange_2bandit_b2.png","68","70","test","0","68","68","4","",""
"null","515080","pSARL_v2","pSARL_v2u3qrvzsu","59296fb2e8a7ff000163f033","freq_resp","img/orange_2bandit_b.png","68","70","test","","","","4","",""
"null","515236","pSARL_v2","pSARL_v2u3qrvzsu","59296fb2e8a7ff000163f033","fixation","img/fixation.png","null","","test","","","","","",""
"325","515564","pSARL_v2","pSARL_v2u3qrvzsu","59296fb2e8a7ff000163f033","freq","img/orange_2bandit_b2.png","68","70","test","0","69","69","4","",""
"null","516043","pSARL_v2","pSARL_v2u3qrvzsu","59296fb2e8a7ff000163f033","freq_resp","img/orange_2bandit_b.png","68","70","test","","","","4","",""
"null","516203","pSARL_v2","pSARL_v2u3qrvzsu","59296fb2e8a7ff000163f033","fixation","img/fixation.png","null","","test","","","","","",""
"253.7999999821186","516460","pSARL_v2","pSARL_v2u3qrvzsu","59296fb2e8a7ff000163f033","freq","img/orange_2bandit_b2.png","68","70","test","0","70","70","4","",""
"null","517021","pSARL_v2","pSARL_v2u3qrvzsu","59296fb2e8a7ff000163f033","freq_resp","img/orange_2bandit_b.png","68","70","test","","","","4","",""
"null","517180","pSARL_v2","pSARL_v2u3qrvzsu","59296fb2e8a7ff000163f033","fixation","img/fixation.png","null","","test","","","","","",""
"210.40000000596046","517395","pSARL_v2","pSARL_v2u3qrvzsu","59296fb2e8a7ff000163f033","freq","img/orange_2bandit_b2.png","68","70","test","0","71","71","4","",""
"null","517998","pSARL_v2","pSARL_v2u3qrvzsu","59296fb2e8a7ff000163f033","freq_resp","img/orange_2bandit_b.png","68","70","test","","","","4","",""
"null","518154","pSARL_v2","pSARL_v2u3qrvzsu","59296fb2e8a7ff000163f033","fixation","img/fixation.png","null","","test","","","","","",""
"157.5","518315","pSARL_v2","pSARL_v2u3qrvzsu","59296fb2e8a7ff000163f033","freq","img/orange_2bandit_b2.png","68","70","test","0","72","72","4","",""
"null","518975","pSARL_v2","pSARL_v2u3qrvzsu","59296fb2e8a7ff000163f033","freq_resp","img/orange_2bandit_b.png","68","70","test","","","","4","",""
"null","519130","pSARL_v2","pSARL_v2u3qrvzsu","59296fb2e8a7ff000163f033","fixation","img/fixation.png","null","","test","","","","","",""
"162.40000000596046","519295","pSARL_v2","pSARL_v2u3qrvzsu","59296fb2e8a7ff000163f033","freq","img/orange_2bandit_b2.png","68","70","test","0","73","73","4","",""
"null","519948","pSARL_v2","pSARL_v2u3qrvzsu","59296fb2e8a7ff000163f033","freq_resp","img/orange_2bandit_b.png","68","70","test","","","","4","",""
"null","520101","pSARL_v2","pSARL_v2u3qrvzsu","59296fb2e8a7ff000163f033","fixation","img/fixation.png","null","","test","","","","","",""
"257.7999999821186","520362","pSARL_v2","pSARL_v2u3qrvzsu","59296fb2e8a7ff000163f033","freq","img/orange_2bandit_b2.png","68","70","test","0","74","74","4","",""
"null","520917","pSARL_v2","pSARL_v2u3qrvzsu","59296fb2e8a7ff000163f033","freq_resp","img/orange_2bandit_b.png","68","70","test","","","","4","",""
"null","521070","pSARL_v2","pSARL_v2u3qrvzsu","59296fb2e8a7ff000163f033","fixation","img/fixation.png","null","","test","","","","","",""
"284.09999999403954","521358","pSARL_v2","pSARL_v2u3qrvzsu","59296fb2e8a7ff000163f033","infreq","img/green_2bandit_b2.png","68","68","test","1","75","75","4","",""
"null","521889","pSARL_v2","pSARL_v2u3qrvzsu","59296fb2e8a7ff000163f033","infreq_resp","img/green_2bandit_b.png","68","68","test","","","","4","",""
"null","522045","pSARL_v2","pSARL_v2u3qrvzsu","59296fb2e8a7ff000163f033","fixation","img/fixation.png","null","","test","","","","","",""
"472.30000001192093","522521","pSARL_v2","pSARL_v2u3qrvzsu","59296fb2e8a7ff000163f033","freq","img/orange_2bandit_b2.png","68","70","test","0","76","76","4","",""
"null","522863","pSARL_v2","pSARL_v2u3qrvzsu","59296fb2e8a7ff000163f033","freq_resp","img/orange_2bandit_b.png","68","70","test","","","","4","",""
"null","523017","pSARL_v2","pSARL_v2u3qrvzsu","59296fb2e8a7ff000163f033","fixation","img/fixation.png","null","","test","","","","","",""
"368.39999997615814","523389","pSARL_v2","pSARL_v2u3qrvzsu","59296fb2e8a7ff000163f033","freq","img/orange_2bandit_b2.png","68","70","test","0","77","77","4","",""
"null","523834","pSARL_v2","pSARL_v2u3qrvzsu","59296fb2e8a7ff000163f033","freq_resp","img/orange_2bandit_b.png","68","70","test","","","","4","",""
"null","523988","pSARL_v2","pSARL_v2u3qrvzsu","59296fb2e8a7ff000163f033","fixation","img/fixation.png","null","","test","","","","","",""
"446.09999999403954","524437","pSARL_v2","pSARL_v2u3qrvzsu","59296fb2e8a7ff000163f033","infreq","img/green_2bandit_b2.png","70","68","test","0","78","78","4","",""
"null","524809","pSARL_v2","pSARL_v2u3qrvzsu","59296fb2e8a7ff000163f033","infreq_resp","img/green_2bandit_b.png","70","68","test","","","","4","",""
"null","524962","pSARL_v2","pSARL_v2u3qrvzsu","59296fb2e8a7ff000163f033","fixation","img/fixation.png","null","","test","","","","","",""
"363.69999998807907","525329","pSARL_v2","pSARL_v2u3qrvzsu","59296fb2e8a7ff000163f033","freq","img/orange_2bandit_b2.png","68","70","test","0","79","79","4","",""
"null","525778","pSARL_v2","pSARL_v2u3qrvzsu","59296fb2e8a7ff000163f033","freq_resp","img/orange_2bandit_b.png","68","70","test","","","","4","",""
"null","525932","pSARL_v2","pSARL_v2u3qrvzsu","59296fb2e8a7ff000163f033","fixation","img/fixation.png","null","","test","","","","","",""
"403.5","526340","pSARL_v2","pSARL_v2u3qrvzsu","59296fb2e8a7ff000163f033","freq","img/orange_2bandit_b2.png","68","70","test","0","80","80","4","",""
"null","526739","pSARL_v2","pSARL_v2u3qrvzsu","59296fb2e8a7ff000163f033","freq_resp","img/orange_2bandit_b.png","68","70","test","","","","4","",""
"null","526893","pSARL_v2","pSARL_v2u3qrvzsu","59296fb2e8a7ff000163f033","fixation","img/fixation.png","null","","test","","","","","",""
"302.80000001192093","527198","pSARL_v2","pSARL_v2u3qrvzsu","59296fb2e8a7ff000163f033","freq","img/orange_2bandit_b2.png","68","70","test","0","81","81","4","",""
"null","527710","pSARL_v2","pSARL_v2u3qrvzsu","59296fb2e8a7ff000163f033","freq_resp","img/orange_2bandit_b.png","68","70","test","","","","4","",""
"null","527863","pSARL_v2","pSARL_v2u3qrvzsu","59296fb2e8a7ff000163f033","fixation","img/fixation.png","null","","test","","","","","",""
"312","528178","pSARL_v2","pSARL_v2u3qrvzsu","59296fb2e8a7ff000163f033","freq","img/orange_2bandit_b2.png","68","70","test","0","82","82","4","",""
"null","528680","pSARL_v2","pSARL_v2u3qrvzsu","59296fb2e8a7ff000163f033","freq_resp","img/orange_2bandit_b.png","68","70","test","","","","4","",""
"null","528834","pSARL_v2","pSARL_v2u3qrvzsu","59296fb2e8a7ff000163f033","fixation","img/fixation.png","null","","test","","","","","",""
"273.69999998807907","529113","pSARL_v2","pSARL_v2u3qrvzsu","59296fb2e8a7ff000163f033","freq","img/orange_2bandit_b2.png","68","70","test","0","83","83","4","",""
"null","529649","pSARL_v2","pSARL_v2u3qrvzsu","59296fb2e8a7ff000163f033","freq_resp","img/orange_2bandit_b.png","68","70","test","","","","4","",""
"null","529803","pSARL_v2","pSARL_v2u3qrvzsu","59296fb2e8a7ff000163f033","fixation","img/fixation.png","null","","test","","","","","",""
"247.80000001192093","530055","pSARL_v2","pSARL_v2u3qrvzsu","59296fb2e8a7ff000163f033","freq","img/orange_2bandit_b2.png","68","70","test","0","84","84","4","",""
"null","530610","pSARL_v2","pSARL_v2u3qrvzsu","59296fb2e8a7ff000163f033","freq_resp","img/orange_2bandit_b.png","68","70","test","","","","4","",""
"null","530767","pSARL_v2","pSARL_v2u3qrvzsu","59296fb2e8a7ff000163f033","fixation","img/fixation.png","null","","test","","","","","",""
"250.89999997615814","531021","pSARL_v2","pSARL_v2u3qrvzsu","59296fb2e8a7ff000163f033","freq","img/orange_2bandit_b2.png","68","70","test","0","85","85","4","",""
"null","531575","pSARL_v2","pSARL_v2u3qrvzsu","59296fb2e8a7ff000163f033","freq_resp","img/orange_2bandit_b.png","68","70","test","","","","4","",""
"null","531729","pSARL_v2","pSARL_v2u3qrvzsu","59296fb2e8a7ff000163f033","fixation","img/fixation.png","null","","test","","","","","",""
"275.90000000596046","532007","pSARL_v2","pSARL_v2u3qrvzsu","59296fb2e8a7ff000163f033","freq","img/orange_2bandit_b2.png","68","70","test","0","86","86","4","",""
"null","532548","pSARL_v2","pSARL_v2u3qrvzsu","59296fb2e8a7ff000163f033","freq_resp","img/orange_2bandit_b.png","68","70","test","","","","4","",""
"null","532702","pSARL_v2","pSARL_v2u3qrvzsu","59296fb2e8a7ff000163f033","fixation","img/fixation.png","null","","test","","","","","",""
"287.2999999821186","532993","pSARL_v2","pSARL_v2u3qrvzsu","59296fb2e8a7ff000163f033","freq","img/orange_2bandit_b2.png","68","70","test","0","87","87","4","",""
"null","533520","pSARL_v2","pSARL_v2u3qrvzsu","59296fb2e8a7ff000163f033","freq_resp","img/orange_2bandit_b.png","68","70","test","","","","4","",""
"null","533673","pSARL_v2","pSARL_v2u3qrvzsu","59296fb2e8a7ff000163f033","fixation","img/fixation.png","null","","test","","","","","",""
"307","533984","pSARL_v2","pSARL_v2u3qrvzsu","59296fb2e8a7ff000163f033","freq","img/orange_2bandit_b2.png","68","70","test","0","88","88","4","",""
"null","534494","pSARL_v2","pSARL_v2u3qrvzsu","59296fb2e8a7ff000163f033","freq_resp","img/orange_2bandit_b.png","68","70","test","","","","4","",""
"null","534648","pSARL_v2","pSARL_v2u3qrvzsu","59296fb2e8a7ff000163f033","fixation","img/fixation.png","null","","test","","","","","",""
"301.80000001192093","534953","pSARL_v2","pSARL_v2u3qrvzsu","59296fb2e8a7ff000163f033","freq","img/orange_2bandit_b2.png","68","70","test","0","89","89","4","",""
"null","535459","pSARL_v2","pSARL_v2u3qrvzsu","59296fb2e8a7ff000163f033","freq_resp","img/orange_2bandit_b.png","68","70","test","","","","4","",""
"null","535613","pSARL_v2","pSARL_v2u3qrvzsu","59296fb2e8a7ff000163f033","fixation","img/fixation.png","null","","test","","","","","",""
"322.90000000596046","535939","pSARL_v2","pSARL_v2u3qrvzsu","59296fb2e8a7ff000163f033","freq","img/orange_2bandit_b2.png","68","70","test","0","90","90","4","",""
"null","536432","pSARL_v2","pSARL_v2u3qrvzsu","59296fb2e8a7ff000163f033","freq_resp","img/orange_2bandit_b.png","68","70","test","","","","4","",""
"null","536586","pSARL_v2","pSARL_v2u3qrvzsu","59296fb2e8a7ff000163f033","fixation","img/fixation.png","null","","test","","","","","",""
"500.60000002384186","537092","pSARL_v2","pSARL_v2u3qrvzsu","59296fb2e8a7ff000163f033","reward","img/slot.png","74","","test","","","","","",""
"null","537851","pSARL_v2","pSARL_v2u3qrvzsu","59296fb2e8a7ff000163f033","points","<div class=""verylowPoints""> -3 </div>","null","na","test","","","","4","-3","3"
"561.0999999940395","538415","pSARL_v2","pSARL_v2u3qrvzsu","59296fb2e8a7ff000163f033","freq","img/orange_2bandit_b2.png","68","70","test","0","91","91","5","",""
"null","538658","pSARL_v2","pSARL_v2u3qrvzsu","59296fb2e8a7ff000163f033","freq_resp","img/orange_2bandit_b.png","68","70","test","","","","5","",""
"null","538813","pSARL_v2","pSARL_v2u3qrvzsu","59296fb2e8a7ff000163f033","fixation","img/fixation.png","null","","test","","","","","",""
"712.5999999940395","539529","pSARL_v2","pSARL_v2u3qrvzsu","59296fb2e8a7ff000163f033","freq","img/orange_2bandit_b2.png","68","70","test","0","92","92","5","",""
"null","539631","pSARL_v2","pSARL_v2u3qrvzsu","59296fb2e8a7ff000163f033","freq_resp","img/orange_2bandit_b.png","68","70","test","","","","5","",""
"null","539787","pSARL_v2","pSARL_v2u3qrvzsu","59296fb2e8a7ff000163f033","fixation","img/fixation.png","null","","test","","","","","",""
"468.60000002384186","540259","pSARL_v2","pSARL_v2u3qrvzsu","59296fb2e8a7ff000163f033","freq","img/orange_2bandit_b2.png","68","70","test","0","93","93","5","",""
"null","540607","pSARL_v2","pSARL_v2u3qrvzsu","59296fb2e8a7ff000163f033","freq_resp","img/orange_2bandit_b.png","68","70","test","","","","5","",""
"null","540762","pSARL_v2","pSARL_v2u3qrvzsu","59296fb2e8a7ff000163f033","fixation","img/fixation.png","null","","test","","","","","",""
"356.2999999821186","541122","pSARL_v2","pSARL_v2u3qrvzsu","59296fb2e8a7ff000163f033","freq","img/orange_2bandit_b2.png","68","70","test","0","94","94","5","",""
"null","541582","pSARL_v2","pSARL_v2u3qrvzsu","59296fb2e8a7ff000163f033","freq_resp","img/orange_2bandit_b.png","68","70","test","","","","5","",""
"null","541736","pSARL_v2","pSARL_v2u3qrvzsu","59296fb2e8a7ff000163f033","fixation","img/fixation.png","null","","test","","","","","",""
"294.90000000596046","542034","pSARL_v2","pSARL_v2u3qrvzsu","59296fb2e8a7ff000163f033","freq","img/orange_2bandit_b2.png","68","70","test","0","95","95","5","",""
"null","542554","pSARL_v2","pSARL_v2u3qrvzsu","59296fb2e8a7ff000163f033","freq_resp","img/orange_2bandit_b.png","68","70","test","","","","5","",""
"null","542709","pSARL_v2","pSARL_v2u3qrvzsu","59296fb2e8a7ff000163f033","fixation","img/fixation.png","null","","test","","","","","",""
"253.80000001192093","542967","pSARL_v2","pSARL_v2u3qrvzsu","59296fb2e8a7ff000163f033","freq","img/orange_2bandit_b2.png","68","70","test","0","96","96","5","",""
"null","543527","pSARL_v2","pSARL_v2u3qrvzsu","59296fb2e8a7ff000163f033","freq_resp","img/orange_2bandit_b.png","68","70","test","","","","5","",""
"null","543681","pSARL_v2","pSARL_v2u3qrvzsu","59296fb2e8a7ff000163f033","fixation","img/fixation.png","null","","test","","","","","",""
"277.5","543962","pSARL_v2","pSARL_v2u3qrvzsu","59296fb2e8a7ff000163f033","freq","img/orange_2bandit_b2.png","68","70","test","0","97","97","5","",""
"null","544501","pSARL_v2","pSARL_v2u3qrvzsu","59296fb2e8a7ff000163f033","freq_resp","img/orange_2bandit_b.png","68","70","test","","","","5","",""
"null","544655","pSARL_v2","pSARL_v2u3qrvzsu","59296fb2e8a7ff000163f033","fixation","img/fixation.png","null","","test","","","","","",""
"453.69999998807907","545112","pSARL_v2","pSARL_v2u3qrvzsu","59296fb2e8a7ff000163f033","infreq","img/green_2bandit_b2.png","70","68","test","0","98","98","5","",""
"null","545474","pSARL_v2","pSARL_v2u3qrvzsu","59296fb2e8a7ff000163f033","infreq_resp","img/green_2bandit_b.png","70","68","test","","","","5","",""
"null","545630","pSARL_v2","pSARL_v2u3qrvzsu","59296fb2e8a7ff000163f033","fixation","img/fixation.png","null","","test","","","","","",""
"361","545995","pSARL_v2","pSARL_v2u3qrvzsu","59296fb2e8a7ff000163f033","freq","img/orange_2bandit_b2.png","68","70","test","0","99","99","5","",""
"null","546437","pSARL_v2","pSARL_v2u3qrvzsu","59296fb2e8a7ff000163f033","freq_resp","img/orange_2bandit_b.png","68","70","test","","","","5","",""
"null","546605","pSARL_v2","pSARL_v2u3qrvzsu","59296fb2e8a7ff000163f033","fixation","img/fixation.png","null","","test","","","","","",""
"288.39999997615814","546897","pSARL_v2","pSARL_v2u3qrvzsu","59296fb2e8a7ff000163f033","freq","img/orange_2bandit_b2.png","68","70","test","0","100","100","5","",""
"null","547423","pSARL_v2","pSARL_v2u3qrvzsu","59296fb2e8a7ff000163f033","freq_resp","img/orange_2bandit_b.png","68","70","test","","","","5","",""
"null","547577","pSARL_v2","pSARL_v2u3qrvzsu","59296fb2e8a7ff000163f033","fixation","img/fixation.png","null","","test","","","","","",""
"255.7000000178814","547836","pSARL_v2","pSARL_v2u3qrvzsu","59296fb2e8a7ff000163f033","freq","img/orange_2bandit_b2.png","68","70","test","0","101","101","5","",""
"null","548395","pSARL_v2","pSARL_v2u3qrvzsu","59296fb2e8a7ff000163f033","freq_resp","img/orange_2bandit_b.png","68","70","test","","","","5","",""
"null","548548","pSARL_v2","pSARL_v2u3qrvzsu","59296fb2e8a7ff000163f033","fixation","img/fixation.png","null","","test","","","","","",""
"191","548743","pSARL_v2","pSARL_v2u3qrvzsu","59296fb2e8a7ff000163f033","freq","img/orange_2bandit_b2.png","68","70","test","0","102","102","5","",""
"null","549370","pSARL_v2","pSARL_v2u3qrvzsu","59296fb2e8a7ff000163f033","freq_resp","img/orange_2bandit_b.png","68","70","test","","","","5","",""
"null","549523","pSARL_v2","pSARL_v2u3qrvzsu","59296fb2e8a7ff000163f033","fixation","img/fixation.png","null","","test","","","","","",""
"285.09999999403954","549812","pSARL_v2","pSARL_v2u3qrvzsu","59296fb2e8a7ff000163f033","freq","img/orange_2bandit_b2.png","68","70","test","0","103","103","5","",""
"null","550343","pSARL_v2","pSARL_v2u3qrvzsu","59296fb2e8a7ff000163f033","freq_resp","img/orange_2bandit_b.png","68","70","test","","","","5","",""
"null","550498","pSARL_v2","pSARL_v2u3qrvzsu","59296fb2e8a7ff000163f033","fixation","img/fixation.png","null","","test","","","","","",""
"198.09999999403954","550700","pSARL_v2","pSARL_v2u3qrvzsu","59296fb2e8a7ff000163f033","freq","img/orange_2bandit_b2.png","68","70","test","0","104","104","5","",""
"null","551320","pSARL_v2","pSARL_v2u3qrvzsu","59296fb2e8a7ff000163f033","freq_resp","img/orange_2bandit_b.png","68","70","test","","","","5","",""
"null","551474","pSARL_v2","pSARL_v2u3qrvzsu","59296fb2e8a7ff000163f033","fixation","img/fixation.png","null","","test","","","","","",""
"187.7999999821186","551665","pSARL_v2","pSARL_v2u3qrvzsu","59296fb2e8a7ff000163f033","freq","img/orange_2bandit_b2.png","68","70","test","0","105","105","5","",""
"null","552294","pSARL_v2","pSARL_v2u3qrvzsu","59296fb2e8a7ff000163f033","freq_resp","img/orange_2bandit_b.png","68","70","test","","","","5","",""
"null","552449","pSARL_v2","pSARL_v2u3qrvzsu","59296fb2e8a7ff000163f033","fixation","img/fixation.png","null","","test","","","","","",""
"227.69999998807907","552680","pSARL_v2","pSARL_v2u3qrvzsu","59296fb2e8a7ff000163f033","freq","img/orange_2bandit_b2.png","68","70","test","0","106","106","5","",""
"null","553268","pSARL_v2","pSARL_v2u3qrvzsu","59296fb2e8a7ff000163f033","freq_resp","img/orange_2bandit_b.png","68","70","test","","","","5","",""
"null","553423","pSARL_v2","pSARL_v2u3qrvzsu","59296fb2e8a7ff000163f033","fixation","img/fixation.png","null","","test","","","","","",""
"238.80000001192093","553666","pSARL_v2","pSARL_v2u3qrvzsu","59296fb2e8a7ff000163f033","freq","img/orange_2bandit_b2.png","68","70","test","0","107","107","5","",""
"null","554245","pSARL_v2","pSARL_v2u3qrvzsu","59296fb2e8a7ff000163f033","freq_resp","img/orange_2bandit_b.png","68","70","test","","","","5","",""
"null","554400","pSARL_v2","pSARL_v2u3qrvzsu","59296fb2e8a7ff000163f033","fixation","img/fixation.png","null","","test","","","","","",""
"239.69999998807907","554643","pSARL_v2","pSARL_v2u3qrvzsu","59296fb2e8a7ff000163f033","freq","img/orange_2bandit_b2.png","68","70","test","0","108","108","5","",""
"null","555220","pSARL_v2","pSARL_v2u3qrvzsu","59296fb2e8a7ff000163f033","freq_resp","img/orange_2bandit_b.png","68","70","test","","","","5","",""
"null","555374","pSARL_v2","pSARL_v2u3qrvzsu","59296fb2e8a7ff000163f033","fixation","img/fixation.png","null","","test","","","","","",""
"214.7000000178814","555592","pSARL_v2","pSARL_v2u3qrvzsu","59296fb2e8a7ff000163f033","freq","img/orange_2bandit_b2.png","68","70","test","0","109","109","5","",""
"null","556191","pSARL_v2","pSARL_v2u3qrvzsu","59296fb2e8a7ff000163f033","freq_resp","img/orange_2bandit_b.png","68","70","test","","","","5","",""
"null","556359","pSARL_v2","pSARL_v2u3qrvzsu","59296fb2e8a7ff000163f033","fixation","img/fixation.png","null","","test","","","","","",""
"433.40000000596046","556795","pSARL_v2","pSARL_v2u3qrvzsu","59296fb2e8a7ff000163f033","infreq","img/green_2bandit_b2.png","70","68","test","0","110","110","5","",""
"null","557166","pSARL_v2","pSARL_v2u3qrvzsu","59296fb2e8a7ff000163f033","infreq_resp","img/green_2bandit_b.png","70","68","test","","","","5","",""
"null","557320","pSARL_v2","pSARL_v2u3qrvzsu","59296fb2e8a7ff000163f033","fixation","img/fixation.png","null","","test","","","","","",""
"397.7999999821186","557720","pSARL_v2","pSARL_v2u3qrvzsu","59296fb2e8a7ff000163f033","freq","img/orange_2bandit_b2.png","68","70","test","0","111","111","5","",""
"null","558141","pSARL_v2","pSARL_v2u3qrvzsu","59296fb2e8a7ff000163f033","freq_resp","img/orange_2bandit_b.png","68","70","test","","","","5","",""
"null","558295","pSARL_v2","pSARL_v2u3qrvzsu","59296fb2e8a7ff000163f033","fixation","img/fixation.png","null","","test","","","","","",""
"394.2000000178814","558692","pSARL_v2","pSARL_v2u3qrvzsu","59296fb2e8a7ff000163f033","freq","img/orange_2bandit_b2.png","68","70","test","0","112","112","5","",""
"null","559107","pSARL_v2","pSARL_v2u3qrvzsu","59296fb2e8a7ff000163f033","freq_resp","img/orange_2bandit_b.png","68","70","test","","","","5","",""
"null","559263","pSARL_v2","pSARL_v2u3qrvzsu","59296fb2e8a7ff000163f033","fixation","img/fixation.png","null","","test","","","","","",""
"344.59999999403954","559610","pSARL_v2","pSARL_v2u3qrvzsu","59296fb2e8a7ff000163f033","reward","img/slot.png","74","","test","","","","","",""
"null","560364","pSARL_v2","pSARL_v2u3qrvzsu","59296fb2e8a7ff000163f033","points","<div class=""veryhighPoints""> +1 </div>","null","na","test","","","","5","1","4"
"575","560941","pSARL_v2","pSARL_v2u3qrvzsu","59296fb2e8a7ff000163f033","freq","img/orange_2bandit_b2.png","68","70","test","0","113","113","6","",""
"null","561180","pSARL_v2","pSARL_v2u3qrvzsu","59296fb2e8a7ff000163f033","freq_resp","img/orange_2bandit_b.png","68","70","test","","","","6","",""
"null","561336","pSARL_v2","pSARL_v2u3qrvzsu","59296fb2e8a7ff000163f033","fixation","img/fixation.png","null","","test","","","","","",""
"408.90000000596046","561749","pSARL_v2","pSARL_v2u3qrvzsu","59296fb2e8a7ff000163f033","freq","img/orange_2bandit_b2.png","68","70","test","0","114","114","6","",""
"null","562143","pSARL_v2","pSARL_v2u3qrvzsu","59296fb2e8a7ff000163f033","freq_resp","img/orange_2bandit_b.png","68","70","test","","","","6","",""
"null","562297","pSARL_v2","pSARL_v2u3qrvzsu","59296fb2e8a7ff000163f033","fixation","img/fixation.png","null","","test","","","","","",""
"301.39999997615814","562602","pSARL_v2","pSARL_v2u3qrvzsu","59296fb2e8a7ff000163f033","freq","img/orange_2bandit_b2.png","68","70","test","0","115","115","6","",""
"null","563113","pSARL_v2","pSARL_v2u3qrvzsu","59296fb2e8a7ff000163f033","freq_resp","img/orange_2bandit_b.png","68","70","test","","","","6","",""
"null","563268","pSARL_v2","pSARL_v2u3qrvzsu","59296fb2e8a7ff000163f033","fixation","img/fixation.png","null","","test","","","","","",""
"227.90000000596046","563500","pSARL_v2","pSARL_v2u3qrvzsu","59296fb2e8a7ff000163f033","freq","img/orange_2bandit_b2.png","68","70","test","0","116","116","6","",""
"null","564088","pSARL_v2","pSARL_v2u3qrvzsu","59296fb2e8a7ff000163f033","freq_resp","img/orange_2bandit_b.png","68","70","test","","","","6","",""
"null","564256","pSARL_v2","pSARL_v2u3qrvzsu","59296fb2e8a7ff000163f033","fixation","img/fixation.png","null","","test","","","","","",""
"245.19999998807907","564505","pSARL_v2","pSARL_v2u3qrvzsu","59296fb2e8a7ff000163f033","freq","img/orange_2bandit_b2.png","68","70","test","0","117","117","6","",""
"null","565075","pSARL_v2","pSARL_v2u3qrvzsu","59296fb2e8a7ff000163f033","freq_resp","img/orange_2bandit_b.png","68","70","test","","","","6","",""
"null","565243","pSARL_v2","pSARL_v2u3qrvzsu","59296fb2e8a7ff000163f033","fixation","img/fixation.png","null","","test","","","","","",""
"446.69999998807907","565693","pSARL_v2","pSARL_v2u3qrvzsu","59296fb2e8a7ff000163f033","freq","img/orange_2bandit_b2.png","68","70","test","0","118","118","6","",""
"null","566069","pSARL_v2","pSARL_v2u3qrvzsu","59296fb2e8a7ff000163f033","freq_resp","img/orange_2bandit_b.png","68","70","test","","","","6","",""
"null","566236","pSARL_v2","pSARL_v2u3qrvzsu","59296fb2e8a7ff000163f033","fixation","img/fixation.png","null","","test","","","","","",""
"310.19999998807907","566549","pSARL_v2","pSARL_v2u3qrvzsu","59296fb2e8a7ff000163f033","freq","img/orange_2bandit_b2.png","68","70","test","0","119","119","6","",""
"null","567054","pSARL_v2","pSARL_v2u3qrvzsu","59296fb2e8a7ff000163f033","freq_resp","img/orange_2bandit_b.png","68","70","test","","","","6","",""
"null","567209","pSARL_v2","pSARL_v2u3qrvzsu","59296fb2e8a7ff000163f033","fixation","img/fixation.png","null","","test","","","","","",""
"313.7000000178814","567525","pSARL_v2","pSARL_v2u3qrvzsu","59296fb2e8a7ff000163f033","freq","img/orange_2bandit_b2.png","68","70","test","0","120","120","6","",""
"null","568014","pSARL_v2","pSARL_v2u3qrvzsu","59296fb2e8a7ff000163f033","freq_resp","img/orange_2bandit_b.png","68","70","test","","","","6","",""
"null","568183","pSARL_v2","pSARL_v2u3qrvzsu","59296fb2e8a7ff000163f033","fixation","img/fixation.png","null","","test","","","","","",""
"298.69999998807907","568484","pSARL_v2","pSARL_v2u3qrvzsu","59296fb2e8a7ff000163f033","freq","img/orange_2bandit_b2.png","68","70","test","0","121","121","6","",""
"null","569000","pSARL_v2","pSARL_v2u3qrvzsu","59296fb2e8a7ff000163f033","freq_resp","img/orange_2bandit_b.png","68","70","test","","","","6","",""
"null","569156","pSARL_v2","pSARL_v2u3qrvzsu","59296fb2e8a7ff000163f033","fixation","img/fixation.png","null","","test","","","","","",""
"217.40000000596046","569377","pSARL_v2","pSARL_v2u3qrvzsu","59296fb2e8a7ff000163f033","freq","img/orange_2bandit_b2.png","68","70","test","0","122","122","6","",""
"null","569968","pSARL_v2","pSARL_v2u3qrvzsu","59296fb2e8a7ff000163f033","freq_resp","img/orange_2bandit_b.png","68","70","test","","","","6","",""
"null","570124","pSARL_v2","pSARL_v2u3qrvzsu","59296fb2e8a7ff000163f033","fixation","img/fixation.png","null","","test","","","","","",""
"227.19999998807907","570355","pSARL_v2","pSARL_v2u3qrvzsu","59296fb2e8a7ff000163f033","freq","img/orange_2bandit_b2.png","68","70","test","0","123","123","6","",""
"null","570931","pSARL_v2","pSARL_v2u3qrvzsu","59296fb2e8a7ff000163f033","freq_resp","img/orange_2bandit_b.png","68","70","test","","","","6","",""
"null","571088","pSARL_v2","pSARL_v2u3qrvzsu","59296fb2e8a7ff000163f033","fixation","img/fixation.png","null","","test","","","","","",""
"210.89999997615814","571302","pSARL_v2","pSARL_v2u3qrvzsu","59296fb2e8a7ff000163f033","freq","img/orange_2bandit_b2.png","68","70","test","0","124","124","6","",""
"null","571910","pSARL_v2","pSARL_v2u3qrvzsu","59296fb2e8a7ff000163f033","freq_resp","img/orange_2bandit_b.png","68","70","test","","","","6","",""
"null","572064","pSARL_v2","pSARL_v2u3qrvzsu","59296fb2e8a7ff000163f033","fixation","img/fixation.png","null","","test","","","","","",""
"205.69999998807907","572273","pSARL_v2","pSARL_v2u3qrvzsu","59296fb2e8a7ff000163f033","freq","img/orange_2bandit_b2.png","68","70","test","0","125","125","6","",""
"null","572880","pSARL_v2","pSARL_v2u3qrvzsu","59296fb2e8a7ff000163f033","freq_resp","img/orange_2bandit_b.png","68","70","test","","","","6","",""
"null","573049","pSARL_v2","pSARL_v2u3qrvzsu","59296fb2e8a7ff000163f033","fixation","img/fixation.png","null","","test","","","","","",""
"170.19999998807907","573222","pSARL_v2","pSARL_v2u3qrvzsu","59296fb2e8a7ff000163f033","infreq","img/green_2bandit_b2.png","68","68","test","1","126","126","6","",""
"null","573867","pSARL_v2","pSARL_v2u3qrvzsu","59296fb2e8a7ff000163f033","infreq_resp","img/green_2bandit_b.png","68","68","test","","","","6","",""
"null","574022","pSARL_v2","pSARL_v2u3qrvzsu","59296fb2e8a7ff000163f033","fixation","img/fixation.png","null","","test","","","","","",""
"341.2000000178814","574367","pSARL_v2","pSARL_v2u3qrvzsu","59296fb2e8a7ff000163f033","freq","img/orange_2bandit_b2.png","68","70","test","0","127","127","6","",""
"null","574842","pSARL_v2","pSARL_v2u3qrvzsu","59296fb2e8a7ff000163f033","freq_resp","img/orange_2bandit_b.png","68","70","test","","","","6","",""
"null","574997","pSARL_v2","pSARL_v2u3qrvzsu","59296fb2e8a7ff000163f033","fixation","img/fixation.png","null","","test","","","","","",""
"458.5","575458","pSARL_v2","pSARL_v2u3qrvzsu","59296fb2e8a7ff000163f033","infreq","img/green_2bandit_b2.png","70","68","test","0","128","128","6","",""
"null","575816","pSARL_v2","pSARL_v2u3qrvzsu","59296fb2e8a7ff000163f033","infreq_resp","img/green_2bandit_b.png","70","68","test","","","","6","",""
"null","575970","pSARL_v2","pSARL_v2u3qrvzsu","59296fb2e8a7ff000163f033","fixation","img/fixation.png","null","","test","","","","","",""
"481.30000001192093","576455","pSARL_v2","pSARL_v2u3qrvzsu","59296fb2e8a7ff000163f033","freq","img/orange_2bandit_b2.png","68","70","test","0","129","129","6","",""
"null","576792","pSARL_v2","pSARL_v2u3qrvzsu","59296fb2e8a7ff000163f033","freq_resp","img/orange_2bandit_b.png","68","70","test","","","","6","",""
"null","576950","pSARL_v2","pSARL_v2u3qrvzsu","59296fb2e8a7ff000163f033","fixation","img/fixation.png","null","","test","","","","","",""
"444.2999999821186","577399","pSARL_v2","pSARL_v2u3qrvzsu","59296fb2e8a7ff000163f033","infreq","img/green_2bandit_b2.png","70","68","test","0","130","130","6","",""
"null","577771","pSARL_v2","pSARL_v2u3qrvzsu","59296fb2e8a7ff000163f033","infreq_resp","img/green_2bandit_b.png","70","68","test","","","","6","",""
"null","577939","pSARL_v2","pSARL_v2u3qrvzsu","59296fb2e8a7ff000163f033","fixation","img/fixation.png","null","","test","","","","","",""
"420.2999999821186","578362","pSARL_v2","pSARL_v2u3qrvzsu","59296fb2e8a7ff000163f033","freq","img/orange_2bandit_b2.png","68","70","test","0","131","131","6","",""
"null","578759","pSARL_v2","pSARL_v2u3qrvzsu","59296fb2e8a7ff000163f033","freq_resp","img/orange_2bandit_b.png","68","70","test","","","","6","",""
"null","578915","pSARL_v2","pSARL_v2u3qrvzsu","59296fb2e8a7ff000163f033","fixation","img/fixation.png","null","","test","","","","","",""
"303.39999997615814","579225","pSARL_v2","pSARL_v2u3qrvzsu","59296fb2e8a7ff000163f033","freq","img/orange_2bandit_b2.png","68","70","test","0","132","132","6","",""
"null","579739","pSARL_v2","pSARL_v2u3qrvzsu","59296fb2e8a7ff000163f033","freq_resp","img/orange_2bandit_b.png","68","70","test","","","","6","",""
"null","579907","pSARL_v2","pSARL_v2u3qrvzsu","59296fb2e8a7ff000163f033","fixation","img/fixation.png","null","","test","","","","","",""
"246.19999998807907","580156","pSARL_v2","pSARL_v2u3qrvzsu","59296fb2e8a7ff000163f033","freq","img/orange_2bandit_b2.png","68","70","test","0","133","133","6","",""
"null","580726","pSARL_v2","pSARL_v2u3qrvzsu","59296fb2e8a7ff000163f033","freq_resp","img/orange_2bandit_b.png","68","70","test","","","","6","",""
"null","580881","pSARL_v2","pSARL_v2u3qrvzsu","59296fb2e8a7ff000163f033","fixation","img/fixation.png","null","","test","","","","","",""
"263.7999999821186","581148","pSARL_v2","pSARL_v2u3qrvzsu","59296fb2e8a7ff000163f033","freq","img/orange_2bandit_b2.png","68","70","test","0","134","134","6","",""
"null","581688","pSARL_v2","pSARL_v2u3qrvzsu","59296fb2e8a7ff000163f033","freq_resp","img/orange_2bandit_b.png","68","70","test","","","","6","",""
"null","581843","pSARL_v2","pSARL_v2u3qrvzsu","59296fb2e8a7ff000163f033","fixation","img/fixation.png","null","","test","","","","","",""
"225.09999999403954","582072","pSARL_v2","pSARL_v2u3qrvzsu","59296fb2e8a7ff000163f033","freq","img/orange_2bandit_b2.png","68","70","test","0","135","135","6","",""
"null","582662","pSARL_v2","pSARL_v2u3qrvzsu","59296fb2e8a7ff000163f033","freq_resp","img/orange_2bandit_b.png","68","70","test","","","","6","",""
"null","582817","pSARL_v2","pSARL_v2u3qrvzsu","59296fb2e8a7ff000163f033","fixation","img/fixation.png","null","","test","","","","","",""
"308.69999998807907","583128","pSARL_v2","pSARL_v2u3qrvzsu","59296fb2e8a7ff000163f033","freq","img/orange_2bandit_b2.png","68","70","test","0","136","136","6","",""
"null","583635","pSARL_v2","pSARL_v2u3qrvzsu","59296fb2e8a7ff000163f033","freq_resp","img/orange_2bandit_b.png","68","70","test","","","","6","",""
"null","583789","pSARL_v2","pSARL_v2u3qrvzsu","59296fb2e8a7ff000163f033","fixation","img/fixation.png","null","","test","","","","","",""
"303.59999999403954","584095","pSARL_v2","pSARL_v2u3qrvzsu","59296fb2e8a7ff000163f033","freq","img/orange_2bandit_b2.png","68","70","test","0","137","137","6","",""
"null","584596","pSARL_v2","pSARL_v2u3qrvzsu","59296fb2e8a7ff000163f033","freq_resp","img/orange_2bandit_b.png","68","70","test","","","","6","",""
"null","584749","pSARL_v2","pSARL_v2u3qrvzsu","59296fb2e8a7ff000163f033","fixation","img/fixation.png","null","","test","","","","","",""
"251.90000000596046","585005","pSARL_v2","pSARL_v2u3qrvzsu","59296fb2e8a7ff000163f033","freq","img/orange_2bandit_b2.png","68","70","test","0","138","138","6","",""
"null","585567","pSARL_v2","pSARL_v2u3qrvzsu","59296fb2e8a7ff000163f033","freq_resp","img/orange_2bandit_b.png","68","70","test","","","","6","",""
"null","585722","pSARL_v2","pSARL_v2u3qrvzsu","59296fb2e8a7ff000163f033","fixation","img/fixation.png","null","","test","","","","","",""
"633","586358","pSARL_v2","pSARL_v2u3qrvzsu","59296fb2e8a7ff000163f033","reward","img/slot.png","74","","test","","","","","",""
"null","587116","pSARL_v2","pSARL_v2u3qrvzsu","59296fb2e8a7ff000163f033","points","<div class=""verylowPoints""> -7 </div>","null","na","test","","","","6","-7","5"
"414","587533","pSARL_v2","pSARL_v2u3qrvzsu","59296fb2e8a7ff000163f033","freq","img/orange_2bandit_b2.png","68","70","test","0","139","139","7","",""
"null","587929","pSARL_v2","pSARL_v2u3qrvzsu","59296fb2e8a7ff000163f033","freq_resp","img/orange_2bandit_b.png","68","70","test","","","","7","",""
"null","588084","pSARL_v2","pSARL_v2u3qrvzsu","59296fb2e8a7ff000163f033","fixation","img/fixation.png","null","","test","","","","","",""
"329.40000000596046","588417","pSARL_v2","pSARL_v2u3qrvzsu","59296fb2e8a7ff000163f033","freq","img/orange_2bandit_b2.png","68","70","test","0","140","140","7","",""
"null","588901","pSARL_v2","pSARL_v2u3qrvzsu","59296fb2e8a7ff000163f033","freq_resp","img/orange_2bandit_b.png","68","70","test","","","","7","",""
"null","589056","pSARL_v2","pSARL_v2u3qrvzsu","59296fb2e8a7ff000163f033","fixation","img/fixation.png","null","","test","","","","","",""
"416.40000000596046","589476","pSARL_v2","pSARL_v2u3qrvzsu","59296fb2e8a7ff000163f033","freq","img/orange_2bandit_b2.png","68","70","test","0","141","141","7","",""
"null","589877","pSARL_v2","pSARL_v2u3qrvzsu","59296fb2e8a7ff000163f033","freq_resp","img/orange_2bandit_b.png","68","70","test","","","","7","",""
"null","590032","pSARL_v2","pSARL_v2u3qrvzsu","59296fb2e8a7ff000163f033","fixation","img/fixation.png","null","","test","","","","","",""
"230.69999998807907","590266","pSARL_v2","pSARL_v2u3qrvzsu","59296fb2e8a7ff000163f033","freq","img/orange_2bandit_b2.png","68","70","test","0","142","142","7","",""
"null","590852","pSARL_v2","pSARL_v2u3qrvzsu","59296fb2e8a7ff000163f033","freq_resp","img/orange_2bandit_b.png","68","70","test","","","","7","",""
"null","591006","pSARL_v2","pSARL_v2u3qrvzsu","59296fb2e8a7ff000163f033","fixation","img/fixation.png","null","","test","","","","","",""
"262.5","591272","pSARL_v2","pSARL_v2u3qrvzsu","59296fb2e8a7ff000163f033","freq","img/orange_2bandit_b2.png","68","70","test","0","143","143","7","",""
"null","591824","pSARL_v2","pSARL_v2u3qrvzsu","59296fb2e8a7ff000163f033","freq_resp","img/orange_2bandit_b.png","68","70","test","","","","7","",""
"null","591991","pSARL_v2","pSARL_v2u3qrvzsu","59296fb2e8a7ff000163f033","fixation","img/fixation.png","null","","test","","","","","",""
"221.90000000596046","592217","pSARL_v2","pSARL_v2u3qrvzsu","59296fb2e8a7ff000163f033","freq","img/orange_2bandit_b2.png","68","70","test","0","144","144","7","",""
"null","592810","pSARL_v2","pSARL_v2u3qrvzsu","59296fb2e8a7ff000163f033","freq_resp","img/orange_2bandit_b.png","68","70","test","","","","7","",""
"null","592964","pSARL_v2","pSARL_v2u3qrvzsu","59296fb2e8a7ff000163f033","fixation","img/fixation.png","null","","test","","","","","",""
"182.59999999403954","593150","pSARL_v2","pSARL_v2u3qrvzsu","59296fb2e8a7ff000163f033","freq","img/orange_2bandit_b2.png","68","70","test","0","145","145","7","",""
"null","593783","pSARL_v2","pSARL_v2u3qrvzsu","59296fb2e8a7ff000163f033","freq_resp","img/orange_2bandit_b.png","68","70","test","","","","7","",""
"null","593937","pSARL_v2","pSARL_v2u3qrvzsu","59296fb2e8a7ff000163f033","fixation","img/fixation.png","null","","test","","","","","",""
"409.30000001192093","594349","pSARL_v2","pSARL_v2u3qrvzsu","59296fb2e8a7ff000163f033","freq","img/orange_2bandit_b2.png","68","70","test","0","146","146","7","",""
"null","594756","pSARL_v2","pSARL_v2u3qrvzsu","59296fb2e8a7ff000163f033","freq_resp","img/orange_2bandit_b.png","68","70","test","","","","7","",""
"null","594910","pSARL_v2","pSARL_v2u3qrvzsu","59296fb2e8a7ff000163f033","fixation","img/fixation.png","null","","test","","","","","",""
"304.39999997615814","595218","pSARL_v2","pSARL_v2u3qrvzsu","59296fb2e8a7ff000163f033","freq","img/orange_2bandit_b2.png","68","70","test","0","147","147","7","",""
"null","595729","pSARL_v2","pSARL_v2u3qrvzsu","59296fb2e8a7ff000163f033","freq_resp","img/orange_2bandit_b.png","68","70","test","","","","7","",""
"null","595884","pSARL_v2","pSARL_v2u3qrvzsu","59296fb2e8a7ff000163f033","fixation","img/fixation.png","null","","test","","","","","",""
"245.2000000178814","596133","pSARL_v2","pSARL_v2u3qrvzsu","59296fb2e8a7ff000163f033","freq","img/orange_2bandit_b2.png","68","70","test","0","148","148","7","",""
"null","596703","pSARL_v2","pSARL_v2u3qrvzsu","59296fb2e8a7ff000163f033","freq_resp","img/orange_2bandit_b.png","68","70","test","","","","7","",""
"null","596858","pSARL_v2","pSARL_v2u3qrvzsu","59296fb2e8a7ff000163f033","fixation","img/fixation.png","null","","test","","","","","",""
"238.90000000596046","597099","pSARL_v2","pSARL_v2u3qrvzsu","59296fb2e8a7ff000163f033","freq","img/orange_2bandit_b2.png","68","70","test","0","149","149","7","",""
"null","597674","pSARL_v2","pSARL_v2u3qrvzsu","59296fb2e8a7ff000163f033","freq_resp","img/orange_2bandit_b.png","68","70","test","","","","7","",""
"null","597828","pSARL_v2","pSARL_v2u3qrvzsu","59296fb2e8a7ff000163f033","fixation","img/fixation.png","null","","test","","","","","",""
"162.5","597994","pSARL_v2","pSARL_v2u3qrvzsu","59296fb2e8a7ff000163f033","freq","img/orange_2bandit_b2.png","68","70","test","0","150","150","7","",""
"null","598648","pSARL_v2","pSARL_v2u3qrvzsu","59296fb2e8a7ff000163f033","freq_resp","img/orange_2bandit_b.png","68","70","test","","","","7","",""
"null","598803","pSARL_v2","pSARL_v2u3qrvzsu","59296fb2e8a7ff000163f033","fixation","img/fixation.png","null","","test","","","","","",""
"250.7999999821186","599056","pSARL_v2","pSARL_v2u3qrvzsu","59296fb2e8a7ff000163f033","freq","img/orange_2bandit_b2.png","68","70","test","0","151","151","7","",""
"null","599620","pSARL_v2","pSARL_v2u3qrvzsu","59296fb2e8a7ff000163f033","freq_resp","img/orange_2bandit_b.png","68","70","test","","","","7","",""
"null","599774","pSARL_v2","pSARL_v2u3qrvzsu","59296fb2e8a7ff000163f033","fixation","img/fixation.png","null","","test","","","","","",""
"227","600004","pSARL_v2","pSARL_v2u3qrvzsu","59296fb2e8a7ff000163f033","freq","img/orange_2bandit_b2.png","68","70","test","0","152","152","7","",""
"null","600591","pSARL_v2","pSARL_v2u3qrvzsu","59296fb2e8a7ff000163f033","freq_resp","img/orange_2bandit_b.png","68","70","test","","","","7","",""
"null","600745","pSARL_v2","pSARL_v2u3qrvzsu","59296fb2e8a7ff000163f033","fixation","img/fixation.png","null","","test","","","","","",""
"217.09999999403954","600966","pSARL_v2","pSARL_v2u3qrvzsu","59296fb2e8a7ff000163f033","freq","img/orange_2bandit_b2.png","68","70","test","0","153","153","7","",""
"null","601562","pSARL_v2","pSARL_v2u3qrvzsu","59296fb2e8a7ff000163f033","freq_resp","img/orange_2bandit_b.png","68","70","test","","","","7","",""
"null","601717","pSARL_v2","pSARL_v2u3qrvzsu","59296fb2e8a7ff000163f033","fixation","img/fixation.png","null","","test","","","","","",""
"202.5","601922","pSARL_v2","pSARL_v2u3qrvzsu","59296fb2e8a7ff000163f033","freq","img/orange_2bandit_b2.png","68","70","test","0","154","154","7","",""
"null","602524","pSARL_v2","pSARL_v2u3qrvzsu","59296fb2e8a7ff000163f033","freq_resp","img/orange_2bandit_b.png","68","70","test","","","","7","",""
"null","602679","pSARL_v2","pSARL_v2u3qrvzsu","59296fb2e8a7ff000163f033","fixation","img/fixation.png","null","","test","","","","","",""
"175.59999999403954","602858","pSARL_v2","pSARL_v2u3qrvzsu","59296fb2e8a7ff000163f033","freq","img/orange_2bandit_b2.png","68","70","test","0","155","155","7","",""
"null","603496","pSARL_v2","pSARL_v2u3qrvzsu","59296fb2e8a7ff000163f033","freq_resp","img/orange_2bandit_b.png","68","70","test","","","","7","",""
"null","603663","pSARL_v2","pSARL_v2u3qrvzsu","59296fb2e8a7ff000163f033","fixation","img/fixation.png","null","","test","","","","","",""
"138.2999999821186","603805","pSARL_v2","pSARL_v2u3qrvzsu","59296fb2e8a7ff000163f033","freq","img/orange_2bandit_b2.png","68","70","test","0","156","156","7","",""
"null","604482","pSARL_v2","pSARL_v2u3qrvzsu","59296fb2e8a7ff000163f033","freq_resp","img/orange_2bandit_b.png","68","70","test","","","","7","",""
"null","604640","pSARL_v2","pSARL_v2u3qrvzsu","59296fb2e8a7ff000163f033","fixation","img/fixation.png","null","","test","","","","","",""
"256.69999998807907","604899","pSARL_v2","pSARL_v2u3qrvzsu","59296fb2e8a7ff000163f033","freq","img/orange_2bandit_b2.png","68","70","test","0","157","157","7","",""
"null","605458","pSARL_v2","pSARL_v2u3qrvzsu","59296fb2e8a7ff000163f033","freq_resp","img/orange_2bandit_b.png","68","70","test","","","","7","",""
"null","605611","pSARL_v2","pSARL_v2u3qrvzsu","59296fb2e8a7ff000163f033","fixation","img/fixation.png","null","","test","","","","","",""
"291.80000001192093","605906","pSARL_v2","pSARL_v2u3qrvzsu","59296fb2e8a7ff000163f033","freq","img/orange_2bandit_b2.png","68","70","test","0","158","158","7","",""
"null","606428","pSARL_v2","pSARL_v2u3qrvzsu","59296fb2e8a7ff000163f033","freq_resp","img/orange_2bandit_b.png","68","70","test","","","","7","",""
"null","606581","pSARL_v2","pSARL_v2u3qrvzsu","59296fb2e8a7ff000163f033","fixation","img/fixation.png","null","","test","","","","","",""
"248.90000000596046","606833","pSARL_v2","pSARL_v2u3qrvzsu","59296fb2e8a7ff000163f033","freq","img/orange_2bandit_b2.png","68","70","test","0","159","159","7","",""
"null","607401","pSARL_v2","pSARL_v2u3qrvzsu","59296fb2e8a7ff000163f033","freq_resp","img/orange_2bandit_b.png","68","70","test","","","","7","",""
"null","607556","pSARL_v2","pSARL_v2u3qrvzsu","59296fb2e8a7ff000163f033","fixation","img/fixation.png","null","","test","","","","","",""
"275.60000002384186","607834","pSARL_v2","pSARL_v2u3qrvzsu","59296fb2e8a7ff000163f033","freq","img/orange_2bandit_b2.png","68","70","test","0","160","160","7","",""
"null","608372","pSARL_v2","pSARL_v2u3qrvzsu","59296fb2e8a7ff000163f033","freq_resp","img/orange_2bandit_b.png","68","70","test","","","","7","",""
"null","608540","pSARL_v2","pSARL_v2u3qrvzsu","59296fb2e8a7ff000163f033","fixation","img/fixation.png","null","","test","","","","","",""
"216.90000000596046","608761","pSARL_v2","pSARL_v2u3qrvzsu","59296fb2e8a7ff000163f033","infreq","img/green_2bandit_b2.png","68","68","test","1","161","161","7","",""
"null","609352","pSARL_v2","pSARL_v2u3qrvzsu","59296fb2e8a7ff000163f033","infreq_resp","img/green_2bandit_b.png","68","68","test","","","","7","",""
"null","609518","pSARL_v2","pSARL_v2u3qrvzsu","59296fb2e8a7ff000163f033","fixation","img/fixation.png","null","","test","","","","","",""
"430.59999999403954","609952","pSARL_v2","pSARL_v2u3qrvzsu","59296fb2e8a7ff000163f033","infreq","img/green_2bandit_b2.png","70","68","test","0","162","162","7","",""
"null","610335","pSARL_v2","pSARL_v2u3qrvzsu","59296fb2e8a7ff000163f033","infreq_resp","img/green_2bandit_b.png","70","68","test","","","","7","",""
"null","610503","pSARL_v2","pSARL_v2u3qrvzsu","59296fb2e8a7ff000163f033","fixation","img/fixation.png","null","","test","","","","","",""
"474.19999998807907","610980","pSARL_v2","pSARL_v2u3qrvzsu","59296fb2e8a7ff000163f033","freq","img/orange_2bandit_b2.png","68","70","test","0","163","163","7","",""
"null","611310","pSARL_v2","pSARL_v2u3qrvzsu","59296fb2e8a7ff000163f033","freq_resp","img/orange_2bandit_b.png","68","70","test","","","","7","",""
"null","611464","pSARL_v2","pSARL_v2u3qrvzsu","59296fb2e8a7ff000163f033","fixation","img/fixation.png","null","","test","","","","","",""
"548.6999999880791","612016","pSARL_v2","pSARL_v2u3qrvzsu","59296fb2e8a7ff000163f033","reward","img/slot.png","74","","test","","","","","",""
"null","612779","pSARL_v2","pSARL_v2u3qrvzsu","59296fb2e8a7ff000163f033","points","<div class=""verylowPoints""> -6 </div>","null","na","test","","","","7","-6","6"
"453.89999997615814","613237","pSARL_v2","pSARL_v2u3qrvzsu","59296fb2e8a7ff000163f033","freq","img/orange_2bandit_b2.png","68","70","test","0","164","164","8","",""
"null","613587","pSARL_v2","pSARL_v2u3qrvzsu","59296fb2e8a7ff000163f033","freq_resp","img/orange_2bandit_b.png","68","70","test","","","","8","",""
"null","613741","pSARL_v2","pSARL_v2u3qrvzsu","59296fb2e8a7ff000163f033","fixation","img/fixation.png","null","","test","","","","","",""
"451.39999997615814","614196","pSARL_v2","pSARL_v2u3qrvzsu","59296fb2e8a7ff000163f033","freq","img/orange_2bandit_b2.png","68","70","test","0","165","165","8","",""
"null","614549","pSARL_v2","pSARL_v2u3qrvzsu","59296fb2e8a7ff000163f033","freq_resp","img/orange_2bandit_b.png","68","70","test","","","","8","",""
"null","614705","pSARL_v2","pSARL_v2u3qrvzsu","59296fb2e8a7ff000163f033","fixation","img/fixation.png","null","","test","","","","","",""
"345.2000000178814","615054","pSARL_v2","pSARL_v2u3qrvzsu","59296fb2e8a7ff000163f033","freq","img/orange_2bandit_b2.png","68","70","test","0","166","166","8","",""
"null","615520","pSARL_v2","pSARL_v2u3qrvzsu","59296fb2e8a7ff000163f033","freq_resp","img/orange_2bandit_b.png","68","70","test","","","","8","",""
"null","615675","pSARL_v2","pSARL_v2u3qrvzsu","59296fb2e8a7ff000163f033","fixation","img/fixation.png","null","","test","","","","","",""
"284.39999997615814","615962","pSARL_v2","pSARL_v2u3qrvzsu","59296fb2e8a7ff000163f033","freq","img/orange_2bandit_b2.png","68","70","test","0","167","167","8","",""
"null","616481","pSARL_v2","pSARL_v2u3qrvzsu","59296fb2e8a7ff000163f033","freq_resp","img/orange_2bandit_b.png","68","70","test","","","","8","",""
"null","616636","pSARL_v2","pSARL_v2u3qrvzsu","59296fb2e8a7ff000163f033","fixation","img/fixation.png","null","","test","","","","","",""
"228.30000001192093","616867","pSARL_v2","pSARL_v2u3qrvzsu","59296fb2e8a7ff000163f033","freq","img/orange_2bandit_b2.png","68","70","test","0","168","168","8","",""
"null","617442","pSARL_v2","pSARL_v2u3qrvzsu","59296fb2e8a7ff000163f033","freq_resp","img/orange_2bandit_b.png","68","70","test","","","","8","",""
"null","617597","pSARL_v2","pSARL_v2u3qrvzsu","59296fb2e8a7ff000163f033","fixation","img/fixation.png","null","","test","","","","","",""
"338.10000002384186","617939","pSARL_v2","pSARL_v2u3qrvzsu","59296fb2e8a7ff000163f033","freq","img/orange_2bandit_b2.png","68","70","test","0","169","169","8","",""
"null","618404","pSARL_v2","pSARL_v2u3qrvzsu","59296fb2e8a7ff000163f033","freq_resp","img/orange_2bandit_b.png","68","70","test","","","","8","",""
"null","618557","pSARL_v2","pSARL_v2u3qrvzsu","59296fb2e8a7ff000163f033","fixation","img/fixation.png","null","","test","","","","","",""
"411.89999997615814","618973","pSARL_v2","pSARL_v2u3qrvzsu","59296fb2e8a7ff000163f033","freq","img/orange_2bandit_b2.png","68","70","test","0","170","170","8","",""
"null","619366","pSARL_v2","pSARL_v2u3qrvzsu","59296fb2e8a7ff000163f033","freq_resp","img/orange_2bandit_b.png","68","70","test","","","","8","",""
"null","619520","pSARL_v2","pSARL_v2u3qrvzsu","59296fb2e8a7ff000163f033","fixation","img/fixation.png","null","","test","","","","","",""
"288","619811","pSARL_v2","pSARL_v2u3qrvzsu","59296fb2e8a7ff000163f033","freq","img/orange_2bandit_b2.png","68","70","test","0","171","171","8","",""
"null","620338","pSARL_v2","pSARL_v2u3qrvzsu","59296fb2e8a7ff000163f033","freq_resp","img/orange_2bandit_b.png","68","70","test","","","","8","",""
"null","620493","pSARL_v2","pSARL_v2u3qrvzsu","59296fb2e8a7ff000163f033","fixation","img/fixation.png","null","","test","","","","","",""
"243.39999997615814","620740","pSARL_v2","pSARL_v2u3qrvzsu","59296fb2e8a7ff000163f033","freq","img/orange_2bandit_b2.png","68","70","test","0","172","172","8","",""
"null","621311","pSARL_v2","pSARL_v2u3qrvzsu","59296fb2e8a7ff000163f033","freq_resp","img/orange_2bandit_b.png","68","70","test","","","","8","",""
"null","621465","pSARL_v2","pSARL_v2u3qrvzsu","59296fb2e8a7ff000163f033","fixation","img/fixation.png","null","","test","","","","","",""
"176.59999999403954","621645","pSARL_v2","pSARL_v2u3qrvzsu","59296fb2e8a7ff000163f033","infreq","img/green_2bandit_b2.png","68","68","test","1","173","173","8","",""
"null","622272","pSARL_v2","pSARL_v2u3qrvzsu","59296fb2e8a7ff000163f033","infreq_resp","img/green_2bandit_b.png","68","68","test","","","","8","",""
"null","622428","pSARL_v2","pSARL_v2u3qrvzsu","59296fb2e8a7ff000163f033","fixation","img/fixation.png","null","","test","","","","","",""
"453.59999999403954","622885","pSARL_v2","pSARL_v2u3qrvzsu","59296fb2e8a7ff000163f033","freq","img/orange_2bandit_b2.png","68","70","test","0","174","174","8","",""
"null","623244","pSARL_v2","pSARL_v2u3qrvzsu","59296fb2e8a7ff000163f033","freq_resp","img/orange_2bandit_b.png","68","70","test","","","","8","",""
"null","623398","pSARL_v2","pSARL_v2u3qrvzsu","59296fb2e8a7ff000163f033","fixation","img/fixation.png","null","","test","","","","","",""
"450.5","623852","pSARL_v2","pSARL_v2u3qrvzsu","59296fb2e8a7ff000163f033","infreq","img/green_2bandit_b2.png","70","68","test","0","175","175","8","",""
"null","624218","pSARL_v2","pSARL_v2u3qrvzsu","59296fb2e8a7ff000163f033","infreq_resp","img/green_2bandit_b.png","70","68","test","","","","8","",""
"null","624372","pSARL_v2","pSARL_v2u3qrvzsu","59296fb2e8a7ff000163f033","fixation","img/fixation.png","null","","test","","","","","",""
"374.40000000596046","624750","pSARL_v2","pSARL_v2u3qrvzsu","59296fb2e8a7ff000163f033","freq","img/orange_2bandit_b2.png","68","70","test","0","176","176","8","",""
"null","625188","pSARL_v2","pSARL_v2u3qrvzsu","59296fb2e8a7ff000163f033","freq_resp","img/orange_2bandit_b.png","68","70","test","","","","8","",""
"null","625345","pSARL_v2","pSARL_v2u3qrvzsu","59296fb2e8a7ff000163f033","fixation","img/fixation.png","null","","test","","","","","",""
"272.59999999403954","625621","pSARL_v2","pSARL_v2u3qrvzsu","59296fb2e8a7ff000163f033","freq","img/orange_2bandit_b2.png","68","70","test","0","177","177","8","",""
"null","626164","pSARL_v2","pSARL_v2u3qrvzsu","59296fb2e8a7ff000163f033","freq_resp","img/orange_2bandit_b.png","68","70","test","","","","8","",""
"null","626318","pSARL_v2","pSARL_v2u3qrvzsu","59296fb2e8a7ff000163f033","fixation","img/fixation.png","null","","test","","","","","",""
"297","626619","pSARL_v2","pSARL_v2u3qrvzsu","59296fb2e8a7ff000163f033","freq","img/orange_2bandit_b2.png","68","70","test","0","178","178","8","",""
"null","627137","pSARL_v2","pSARL_v2u3qrvzsu","59296fb2e8a7ff000163f033","freq_resp","img/orange_2bandit_b.png","68","70","test","","","","8","",""
"null","627291","pSARL_v2","pSARL_v2u3qrvzsu","59296fb2e8a7ff000163f033","fixation","img/fixation.png","null","","test","","","","","",""
"351.2000000178814","627646","pSARL_v2","pSARL_v2u3qrvzsu","59296fb2e8a7ff000163f033","freq","img/orange_2bandit_b2.png","68","70","test","0","179","179","8","",""
"null","628109","pSARL_v2","pSARL_v2u3qrvzsu","59296fb2e8a7ff000163f033","freq_resp","img/orange_2bandit_b.png","68","70","test","","","","8","",""
"null","628264","pSARL_v2","pSARL_v2u3qrvzsu","59296fb2e8a7ff000163f033","fixation","img/fixation.png","null","","test","","","","","",""
"436.90000000596046","628704","pSARL_v2","pSARL_v2u3qrvzsu","59296fb2e8a7ff000163f033","freq","img/orange_2bandit_b2.png","68","70","test","0","180","180","8","",""
"null","629081","pSARL_v2","pSARL_v2u3qrvzsu","59296fb2e8a7ff000163f033","freq_resp","img/orange_2bandit_b.png","68","70","test","","","","8","",""
"null","629235","pSARL_v2","pSARL_v2u3qrvzsu","59296fb2e8a7ff000163f033","fixation","img/fixation.png","null","","test","","","","","",""
"290.5","629528","pSARL_v2","pSARL_v2u3qrvzsu","59296fb2e8a7ff000163f033","freq","img/orange_2bandit_b2.png","68","70","test","0","181","181","8","",""
"null","630055","pSARL_v2","pSARL_v2u3qrvzsu","59296fb2e8a7ff000163f033","freq_resp","img/orange_2bandit_b.png","68","70","test","","","","8","",""
"null","630210","pSARL_v2","pSARL_v2u3qrvzsu","59296fb2e8a7ff000163f033","fixation","img/fixation.png","null","","test","","","","","",""
"233.19999998807907","630446","pSARL_v2","pSARL_v2u3qrvzsu","59296fb2e8a7ff000163f033","freq","img/orange_2bandit_b2.png","68","70","test","0","182","182","8","",""
"null","631030","pSARL_v2","pSARL_v2u3qrvzsu","59296fb2e8a7ff000163f033","freq_resp","img/orange_2bandit_b.png","68","70","test","","","","8","",""
"null","631189","pSARL_v2","pSARL_v2u3qrvzsu","59296fb2e8a7ff000163f033","fixation","img/fixation.png","null","","test","","","","","",""
"200.7000000178814","631394","pSARL_v2","pSARL_v2u3qrvzsu","59296fb2e8a7ff000163f033","freq","img/orange_2bandit_b2.png","68","70","test","0","183","183","8","",""
"null","632002","pSARL_v2","pSARL_v2u3qrvzsu","59296fb2e8a7ff000163f033","freq_resp","img/orange_2bandit_b.png","68","70","test","","","","8","",""
"null","632157","pSARL_v2","pSARL_v2u3qrvzsu","59296fb2e8a7ff000163f033","fixation","img/fixation.png","null","","test","","","","","",""
"353.19999998807907","632513","pSARL_v2","pSARL_v2u3qrvzsu","59296fb2e8a7ff000163f033","freq","img/orange_2bandit_b2.png","68","70","test","0","184","184","8","",""
"null","632975","pSARL_v2","pSARL_v2u3qrvzsu","59296fb2e8a7ff000163f033","freq_resp","img/orange_2bandit_b.png","68","70","test","","","","8","",""
"null","633129","pSARL_v2","pSARL_v2u3qrvzsu","59296fb2e8a7ff000163f033","fixation","img/fixation.png","null","","test","","","","","",""
"388.5","633521","pSARL_v2","pSARL_v2u3qrvzsu","59296fb2e8a7ff000163f033","infreq","img/green_2bandit_b2.png","70","68","test","0","185","185","8","",""
"null","633949","pSARL_v2","pSARL_v2u3qrvzsu","59296fb2e8a7ff000163f033","infreq_resp","img/green_2bandit_b.png","70","68","test","","","","8","",""
"null","634105","pSARL_v2","pSARL_v2u3qrvzsu","59296fb2e8a7ff000163f033","fixation","img/fixation.png","null","","test","","","","","",""
"447.59999999403954","634556","pSARL_v2","pSARL_v2u3qrvzsu","59296fb2e8a7ff000163f033","freq","img/orange_2bandit_b2.png","68","70","test","0","186","186","8","",""
"null","634926","pSARL_v2","pSARL_v2u3qrvzsu","59296fb2e8a7ff000163f033","freq_resp","img/orange_2bandit_b.png","68","70","test","","","","8","",""
"null","635081","pSARL_v2","pSARL_v2u3qrvzsu","59296fb2e8a7ff000163f033","fixation","img/fixation.png","null","","test","","","","","",""
"300.40000000596046","635385","pSARL_v2","pSARL_v2u3qrvzsu","59296fb2e8a7ff000163f033","freq","img/orange_2bandit_b2.png","68","70","test","0","187","187","8","",""
"null","635898","pSARL_v2","pSARL_v2u3qrvzsu","59296fb2e8a7ff000163f033","freq_resp","img/orange_2bandit_b.png","68","70","test","","","","8","",""
"null","636054","pSARL_v2","pSARL_v2u3qrvzsu","59296fb2e8a7ff000163f033","fixation","img/fixation.png","null","","test","","","","","",""
"382.39999997615814","636440","pSARL_v2","pSARL_v2u3qrvzsu","59296fb2e8a7ff000163f033","freq","img/orange_2bandit_b2.png","68","70","test","0","188","188","8","",""
"null","636874","pSARL_v2","pSARL_v2u3qrvzsu","59296fb2e8a7ff000163f033","freq_resp","img/orange_2bandit_b.png","68","70","test","","","","8","",""
"null","637028","pSARL_v2","pSARL_v2u3qrvzsu","59296fb2e8a7ff000163f033","fixation","img/fixation.png","null","","test","","","","","",""
"461.69999998807907","637493","pSARL_v2","pSARL_v2u3qrvzsu","59296fb2e8a7ff000163f033","reward","img/slot.png","74","","test","","","","","",""
"null","638253","pSARL_v2","pSARL_v2u3qrvzsu","59296fb2e8a7ff000163f033","points","<div class=""verylowPoints""> -4 </div>","null","na","test","","","","8","-4","7"
"427.5","638684","pSARL_v2","pSARL_v2u3qrvzsu","59296fb2e8a7ff000163f033","freq","img/orange_2bandit_b2.png","68","70","test","0","189","189","9","",""
"null","639072","pSARL_v2","pSARL_v2u3qrvzsu","59296fb2e8a7ff000163f033","freq_resp","img/orange_2bandit_b.png","68","70","test","","","","9","",""
"null","639229","pSARL_v2","pSARL_v2u3qrvzsu","59296fb2e8a7ff000163f033","fixation","img/fixation.png","null","","test","","","","","",""
"349.89999997615814","639581","pSARL_v2","pSARL_v2u3qrvzsu","59296fb2e8a7ff000163f033","freq","img/orange_2bandit_b2.png","68","70","test","0","190","190","9","",""
"null","640047","pSARL_v2","pSARL_v2u3qrvzsu","59296fb2e8a7ff000163f033","freq_resp","img/orange_2bandit_b.png","68","70","test","","","","9","",""
"null","640202","pSARL_v2","pSARL_v2u3qrvzsu","59296fb2e8a7ff000163f033","fixation","img/fixation.png","null","","test","","","","","",""
"400.40000000596046","640606","pSARL_v2","pSARL_v2u3qrvzsu","59296fb2e8a7ff000163f033","freq","img/orange_2bandit_b2.png","68","70","test","0","191","191","9","",""
"null","641020","pSARL_v2","pSARL_v2u3qrvzsu","59296fb2e8a7ff000163f033","freq_resp","img/orange_2bandit_b.png","68","70","test","","","","9","",""
"null","641174","pSARL_v2","pSARL_v2u3qrvzsu","59296fb2e8a7ff000163f033","fixation","img/fixation.png","null","","test","","","","","",""
"288","641465","pSARL_v2","pSARL_v2u3qrvzsu","59296fb2e8a7ff000163f033","freq","img/orange_2bandit_b2.png","68","70","test","0","192","192","9","",""
"null","641995","pSARL_v2","pSARL_v2u3qrvzsu","59296fb2e8a7ff000163f033","freq_resp","img/orange_2bandit_b.png","68","70","test","","","","9","",""
"null","642150","pSARL_v2","pSARL_v2u3qrvzsu","59296fb2e8a7ff000163f033","fixation","img/fixation.png","null","","test","","","","","",""
"264.40000000596046","642418","pSARL_v2","pSARL_v2u3qrvzsu","59296fb2e8a7ff000163f033","freq","img/orange_2bandit_b2.png","68","70","test","0","193","193","9","",""
"null","642968","pSARL_v2","pSARL_v2u3qrvzsu","59296fb2e8a7ff000163f033","freq_resp","img/orange_2bandit_b.png","68","70","test","","","","9","",""
"null","643122","pSARL_v2","pSARL_v2u3qrvzsu","59296fb2e8a7ff000163f033","fixation","img/fixation.png","null","","test","","","","","",""
"239.80000001192093","643365","pSARL_v2","pSARL_v2u3qrvzsu","59296fb2e8a7ff000163f033","freq","img/orange_2bandit_b2.png","68","70","test","0","194","194","9","",""
"null","643935","pSARL_v2","pSARL_v2u3qrvzsu","59296fb2e8a7ff000163f033","freq_resp","img/orange_2bandit_b.png","68","70","test","","","","9","",""
"null","644095","pSARL_v2","pSARL_v2u3qrvzsu","59296fb2e8a7ff000163f033","fixation","img/fixation.png","null","","test","","","","","",""
"215","644313","pSARL_v2","pSARL_v2u3qrvzsu","59296fb2e8a7ff000163f033","infreq","img/green_2bandit_b2.png","68","68","test","1","195","195","9","",""
"null","644911","pSARL_v2","pSARL_v2u3qrvzsu","59296fb2e8a7ff000163f033","infreq_resp","img/green_2bandit_b.png","68","68","test","","","","9","",""
"null","645066","pSARL_v2","pSARL_v2u3qrvzsu","59296fb2e8a7ff000163f033","fixation","img/fixation.png","null","","test","","","","","",""
"295.7000000178814","645365","pSARL_v2","pSARL_v2u3qrvzsu","59296fb2e8a7ff000163f033","freq","img/orange_2bandit_b2.png","68","70","test","0","196","196","9","",""
"null","645886","pSARL_v2","pSARL_v2u3qrvzsu","59296fb2e8a7ff000163f033","freq_resp","img/orange_2bandit_b.png","68","70","test","","","","9","",""
"null","646039","pSARL_v2","pSARL_v2u3qrvzsu","59296fb2e8a7ff000163f033","fixation","img/fixation.png","null","","test","","","","","",""
"248.90000000596046","646292","pSARL_v2","pSARL_v2u3qrvzsu","59296fb2e8a7ff000163f033","freq","img/orange_2bandit_b2.png","68","70","test","0","197","197","9","",""
"null","646846","pSARL_v2","pSARL_v2u3qrvzsu","59296fb2e8a7ff000163f033","freq_resp","img/orange_2bandit_b.png","68","70","test","","","","9","",""
"null","647015","pSARL_v2","pSARL_v2u3qrvzsu","59296fb2e8a7ff000163f033","fixation","img/fixation.png","null","","test","","","","","",""
"259.7000000178814","647278","pSARL_v2","pSARL_v2u3qrvzsu","59296fb2e8a7ff000163f033","freq","img/orange_2bandit_b2.png","68","70","test","0","198","198","9","",""
"null","647835","pSARL_v2","pSARL_v2u3qrvzsu","59296fb2e8a7ff000163f033","freq_resp","img/orange_2bandit_b.png","68","70","test","","","","9","",""
"null","647988","pSARL_v2","pSARL_v2u3qrvzsu","59296fb2e8a7ff000163f033","fixation","img/fixation.png","null","","test","","","","","",""
"170.19999998807907","648162","pSARL_v2","pSARL_v2u3qrvzsu","59296fb2e8a7ff000163f033","freq","img/orange_2bandit_b2.png","68","70","test","0","199","199","9","",""
"null","648810","pSARL_v2","pSARL_v2u3qrvzsu","59296fb2e8a7ff000163f033","freq_resp","img/orange_2bandit_b.png","68","70","test","","","","9","",""
"null","648964","pSARL_v2","pSARL_v2u3qrvzsu","59296fb2e8a7ff000163f033","fixation","img/fixation.png","null","","test","","","","","",""
"210.39999997615814","649178","pSARL_v2","pSARL_v2u3qrvzsu","59296fb2e8a7ff000163f033","freq","img/orange_2bandit_b2.png","68","70","test","0","200","200","9","",""
"null","649781","pSARL_v2","pSARL_v2u3qrvzsu","59296fb2e8a7ff000163f033","freq_resp","img/orange_2bandit_b.png","68","70","test","","","","9","",""
"null","649936","pSARL_v2","pSARL_v2u3qrvzsu","59296fb2e8a7ff000163f033","fixation","img/fixation.png","null","","test","","","","","",""
"192.90000000596046","650132","pSARL_v2","pSARL_v2u3qrvzsu","59296fb2e8a7ff000163f033","freq","img/orange_2bandit_b2.png","68","70","test","0","201","201","9","",""
"null","650743","pSARL_v2","pSARL_v2u3qrvzsu","59296fb2e8a7ff000163f033","freq_resp","img/orange_2bandit_b.png","68","70","test","","","","9","",""
"null","650912","pSARL_v2","pSARL_v2u3qrvzsu","59296fb2e8a7ff000163f033","fixation","img/fixation.png","null","","test","","","","","",""
"131.90000000596046","651046","pSARL_v2","pSARL_v2u3qrvzsu","59296fb2e8a7ff000163f033","freq","img/orange_2bandit_b2.png","68","70","test","0","202","202","9","",""
"null","651721","pSARL_v2","pSARL_v2u3qrvzsu","59296fb2e8a7ff000163f033","freq_resp","img/orange_2bandit_b.png","68","70","test","","","","9","",""
"null","651876","pSARL_v2","pSARL_v2u3qrvzsu","59296fb2e8a7ff000163f033","fixation","img/fixation.png","null","","test","","","","","",""
"152","652032","pSARL_v2","pSARL_v2u3qrvzsu","59296fb2e8a7ff000163f033","infreq","img/green_2bandit_b2.png","68","68","test","1","203","203","9","",""
"null","652692","pSARL_v2","pSARL_v2u3qrvzsu","59296fb2e8a7ff000163f033","infreq_resp","img/green_2bandit_b.png","68","68","test","","","","9","",""
"null","652846","pSARL_v2","pSARL_v2u3qrvzsu","59296fb2e8a7ff000163f033","fixation","img/fixation.png","null","","test","","","","","",""
"267.19999998807907","653117","pSARL_v2","pSARL_v2u3qrvzsu","59296fb2e8a7ff000163f033","freq","img/orange_2bandit_b2.png","68","70","test","0","204","204","9","",""
"null","653667","pSARL_v2","pSARL_v2u3qrvzsu","59296fb2e8a7ff000163f033","freq_resp","img/orange_2bandit_b.png","68","70","test","","","","9","",""
"null","653821","pSARL_v2","pSARL_v2u3qrvzsu","59296fb2e8a7ff000163f033","fixation","img/fixation.png","null","","test","","","","","",""
"292.69999998807907","654117","pSARL_v2","pSARL_v2u3qrvzsu","59296fb2e8a7ff000163f033","freq","img/orange_2bandit_b2.png","68","70","test","0","205","205","9","",""
"null","654639","pSARL_v2","pSARL_v2u3qrvzsu","59296fb2e8a7ff000163f033","freq_resp","img/orange_2bandit_b.png","68","70","test","","","","9","",""
"null","654795","pSARL_v2","pSARL_v2u3qrvzsu","59296fb2e8a7ff000163f033","fixation","img/fixation.png","null","","test","","","","","",""
"278.59999999403954","655078","pSARL_v2","pSARL_v2u3qrvzsu","59296fb2e8a7ff000163f033","freq","img/orange_2bandit_b2.png","68","70","test","0","206","206","9","",""
"null","655612","pSARL_v2","pSARL_v2u3qrvzsu","59296fb2e8a7ff000163f033","freq_resp","img/orange_2bandit_b.png","68","70","test","","","","9","",""
"null","655767","pSARL_v2","pSARL_v2u3qrvzsu","59296fb2e8a7ff000163f033","fixation","img/fixation.png","null","","test","","","","","",""
