"rt","time_elapsed","expId","subject","prolificID","trialType","stimulus","key_press","corrresp","phase","corr","trialNum","attentionRunNum","blockNum","points","rlNum"
"37362.59999999963","37385","pSARL_v2","pSARL_v23lm43epy","6282469ad58ff01f680ab3f8","","","","","","","","","","",""
"","40454","pSARL_v2","pSARL_v23lm43epy","6282469ad58ff01f680ab3f8","fullscreen","","","","","","","","","",""
"35610.700000000186","76074","pSARL_v2","pSARL_v23lm43epy","6282469ad58ff01f680ab3f8","","","","","","","","","","",""
"null","76885","pSARL_v2","pSARL_v23lm43epy","6282469ad58ff01f680ab3f8","freqPrac","img/orange_2bandit_a2.png","null","70","prac","0","","","","",""
"null","77895","pSARL_v2","pSARL_v23lm43epy","6282469ad58ff01f680ab3f8","feedback","img/tooSlow.png","null","na","prac","","","","","",""
"null","78053","pSARL_v2","pSARL_v23lm43epy","6282469ad58ff01f680ab3f8","fixation","img/fixation.png","null","","prac","","","","","",""
"361.40000000037253","78422","pSARL_v2","pSARL_v23lm43epy","6282469ad58ff01f680ab3f8","infreqPrac","img/green_2bandit_a2.png","68","68","prac","1","","","","",""
"361.40000000037253","78869","pSARL_v2","pSARL_v23lm43epy","6282469ad58ff01f680ab3f8","infreqPrac_resp","img/green_2bandit_a.png","68","68","prac","","","","","",""
"null","79029","pSARL_v2","pSARL_v23lm43epy","6282469ad58ff01f680ab3f8","fixation","img/fixation.png","null","","prac","","","","","",""
"418.79999999981374","79456","pSARL_v2","pSARL_v23lm43epy","6282469ad58ff01f680ab3f8","freqPrac","img/orange_2bandit_a2.png","70","70","prac","1","","","","",""
"418.79999999981374","79845","pSARL_v2","pSARL_v23lm43epy","6282469ad58ff01f680ab3f8","freqPrac_resp","img/orange_2bandit_a.png","70","70","prac","","","","","",""
"null","80007","pSARL_v2","pSARL_v23lm43epy","6282469ad58ff01f680ab3f8","fixation","img/fixation.png","null","","prac","","","","","",""
"385.20000000018626","80399","pSARL_v2","pSARL_v23lm43epy","6282469ad58ff01f680ab3f8","infreqPrac","img/green_2bandit_a2.png","68","68","prac","1","","","","",""
"385.20000000018626","80821","pSARL_v2","pSARL_v23lm43epy","6282469ad58ff01f680ab3f8","infreqPrac_resp","img/green_2bandit_a.png","68","68","prac","","","","","",""
"null","80982","pSARL_v2","pSARL_v23lm43epy","6282469ad58ff01f680ab3f8","fixation","img/fixation.png","null","","prac","","","","","",""
"361.6000000005588","81352","pSARL_v2","pSARL_v23lm43epy","6282469ad58ff01f680ab3f8","infreqPrac","img/green_2bandit_a2.png","70","68","prac","0","","","","",""
"361.6000000005588","81805","pSARL_v2","pSARL_v23lm43epy","6282469ad58ff01f680ab3f8","infreqPrac_resp","img/green_2bandit_a.png","70","68","prac","","","","","",""
"null","82812","pSARL_v2","pSARL_v23lm43epy","6282469ad58ff01f680ab3f8","feedback","img/wrongKey.png","null","na","prac","","","","","",""
"null","82973","pSARL_v2","pSARL_v23lm43epy","6282469ad58ff01f680ab3f8","fixation","img/fixation.png","null","","prac","","","","","",""
"513.0999999996275","83493","pSARL_v2","pSARL_v23lm43epy","6282469ad58ff01f680ab3f8","infreqPrac","img/green_2bandit_a2.png","68","68","prac","1","","","","",""
"513.0999999996275","83789","pSARL_v2","pSARL_v23lm43epy","6282469ad58ff01f680ab3f8","infreqPrac_resp","img/green_2bandit_a.png","68","68","prac","","","","","",""
"null","83949","pSARL_v2","pSARL_v23lm43epy","6282469ad58ff01f680ab3f8","fixation","img/fixation.png","null","","prac","","","","","",""
"488.80000000074506","84446","pSARL_v2","pSARL_v23lm43epy","6282469ad58ff01f680ab3f8","freqPrac","img/orange_2bandit_a2.png","70","70","prac","1","","","","",""
"488.80000000074506","84765","pSARL_v2","pSARL_v23lm43epy","6282469ad58ff01f680ab3f8","freqPrac_resp","img/orange_2bandit_a.png","70","70","prac","","","","","",""
"null","84925","pSARL_v2","pSARL_v23lm43epy","6282469ad58ff01f680ab3f8","fixation","img/fixation.png","null","","prac","","","","","",""
"477.5","85410","pSARL_v2","pSARL_v23lm43epy","6282469ad58ff01f680ab3f8","infreqPrac","img/green_2bandit_a2.png","68","68","prac","1","","","","",""
"477.5","85743","pSARL_v2","pSARL_v23lm43epy","6282469ad58ff01f680ab3f8","infreqPrac_resp","img/green_2bandit_a.png","68","68","prac","","","","","",""
"null","85901","pSARL_v2","pSARL_v23lm43epy","6282469ad58ff01f680ab3f8","fixation","img/fixation.png","null","","prac","","","","","",""
"558.3999999994412","86466","pSARL_v2","pSARL_v23lm43epy","6282469ad58ff01f680ab3f8","freqPrac","img/orange_2bandit_a2.png","70","70","prac","1","","","","",""
"558.3999999994412","86718","pSARL_v2","pSARL_v23lm43epy","6282469ad58ff01f680ab3f8","freqPrac_resp","img/orange_2bandit_a.png","70","70","prac","","","","","",""
"null","86877","pSARL_v2","pSARL_v23lm43epy","6282469ad58ff01f680ab3f8","fixation","img/fixation.png","null","","prac","","","","","",""
"382.6000000005588","87268","pSARL_v2","pSARL_v23lm43epy","6282469ad58ff01f680ab3f8","freqPrac","img/orange_2bandit_a2.png","70","70","prac","1","","","","",""
"382.6000000005588","87695","pSARL_v2","pSARL_v23lm43epy","6282469ad58ff01f680ab3f8","freqPrac_resp","img/orange_2bandit_a.png","70","70","prac","","","","","",""
"null","87854","pSARL_v2","pSARL_v23lm43epy","6282469ad58ff01f680ab3f8","fixation","img/fixation.png","null","","prac","","","","","",""
"37607.09999999963","125466","pSARL_v2","pSARL_v23lm43epy","6282469ad58ff01f680ab3f8","","","","","prac","","","","","",""
"241.70000000018626","125715","pSARL_v2","pSARL_v23lm43epy","6282469ad58ff01f680ab3f8","rewardPractice","img/slot.png","74","","prac","","","","","",""
"null","126477","pSARL_v2","pSARL_v23lm43epy","6282469ad58ff01f680ab3f8","feedback","<div class=""veryhighPoints""> +15 </div>","null","na","prac","","","","","",""
"null","126634","pSARL_v2","pSARL_v23lm43epy","6282469ad58ff01f680ab3f8","fixation","img/fixation.png","null","","prac","","","","","",""
"5990.700000000186","132631","pSARL_v2","pSARL_v23lm43epy","6282469ad58ff01f680ab3f8","","","","","prac","","","","","",""
"637.7000000001863","133274","pSARL_v2","pSARL_v23lm43epy","6282469ad58ff01f680ab3f8","freq","img/orange_2bandit_a2.png","70","70","test","1","1","1","1","",""
"null","133445","pSARL_v2","pSARL_v23lm43epy","6282469ad58ff01f680ab3f8","freq_resp","img/orange_2bandit_a.png","70","70","test","","","","1","",""
"null","133605","pSARL_v2","pSARL_v23lm43epy","6282469ad58ff01f680ab3f8","fixation","img/fixation.png","null","","test","","","","","",""
"401.09999999962747","134013","pSARL_v2","pSARL_v23lm43epy","6282469ad58ff01f680ab3f8","freq","img/orange_2bandit_a2.png","70","70","test","1","2","2","1","",""
"null","134422","pSARL_v2","pSARL_v23lm43epy","6282469ad58ff01f680ab3f8","freq_resp","img/orange_2bandit_a.png","70","70","test","","","","1","",""
"null","134581","pSARL_v2","pSARL_v23lm43epy","6282469ad58ff01f680ab3f8","fixation","img/fixation.png","null","","test","","","","","",""
"432.6000000005588","135018","pSARL_v2","pSARL_v23lm43epy","6282469ad58ff01f680ab3f8","infreq","img/green_2bandit_a2.png","68","68","test","1","3","3","1","",""
"null","135396","pSARL_v2","pSARL_v23lm43epy","6282469ad58ff01f680ab3f8","infreq_resp","img/green_2bandit_a.png","68","68","test","","","","1","",""
"null","135557","pSARL_v2","pSARL_v23lm43epy","6282469ad58ff01f680ab3f8","fixation","img/fixation.png","null","","test","","","","","",""
"411.5","135977","pSARL_v2","pSARL_v23lm43epy","6282469ad58ff01f680ab3f8","freq","img/orange_2bandit_a2.png","70","70","test","1","4","4","1","",""
"null","136373","pSARL_v2","pSARL_v23lm43epy","6282469ad58ff01f680ab3f8","freq_resp","img/orange_2bandit_a.png","70","70","test","","","","1","",""
"null","136533","pSARL_v2","pSARL_v23lm43epy","6282469ad58ff01f680ab3f8","fixation","img/fixation.png","null","","test","","","","","",""
"380.09999999962747","136921","pSARL_v2","pSARL_v23lm43epy","6282469ad58ff01f680ab3f8","freq","img/orange_2bandit_a2.png","70","70","test","1","5","5","1","",""
"null","137347","pSARL_v2","pSARL_v23lm43epy","6282469ad58ff01f680ab3f8","freq_resp","img/orange_2bandit_a.png","70","70","test","","","","1","",""
"null","137509","pSARL_v2","pSARL_v23lm43epy","6282469ad58ff01f680ab3f8","fixation","img/fixation.png","null","","test","","","","","",""
"346.20000000018626","137863","pSARL_v2","pSARL_v23lm43epy","6282469ad58ff01f680ab3f8","freq","img/orange_2bandit_a2.png","70","70","test","1","6","6","1","",""
"null","138326","pSARL_v2","pSARL_v23lm43epy","6282469ad58ff01f680ab3f8","freq_resp","img/orange_2bandit_a.png","70","70","test","","","","1","",""
"null","138485","pSARL_v2","pSARL_v23lm43epy","6282469ad58ff01f680ab3f8","fixation","img/fixation.png","null","","test","","","","","",""
"399.29999999981374","138892","pSARL_v2","pSARL_v23lm43epy","6282469ad58ff01f680ab3f8","infreq","img/green_2bandit_a2.png","68","68","test","1","7","7","1","",""
"null","139302","pSARL_v2","pSARL_v23lm43epy","6282469ad58ff01f680ab3f8","infreq_resp","img/green_2bandit_a.png","68","68","test","","","","1","",""
"null","139463","pSARL_v2","pSARL_v23lm43epy","6282469ad58ff01f680ab3f8","fixation","img/fixation.png","null","","test","","","","","",""
"439.20000000018626","139909","pSARL_v2","pSARL_v23lm43epy","6282469ad58ff01f680ab3f8","freq","img/orange_2bandit_a2.png","70","70","test","1","8","8","1","",""
"null","140278","pSARL_v2","pSARL_v23lm43epy","6282469ad58ff01f680ab3f8","freq_resp","img/orange_2bandit_a.png","70","70","test","","","","1","",""
"null","140437","pSARL_v2","pSARL_v23lm43epy","6282469ad58ff01f680ab3f8","fixation","img/fixation.png","null","","test","","","","","",""
"332","140776","pSARL_v2","pSARL_v23lm43epy","6282469ad58ff01f680ab3f8","freq","img/orange_2bandit_a2.png","70","70","test","1","9","9","1","",""
"null","141254","pSARL_v2","pSARL_v23lm43epy","6282469ad58ff01f680ab3f8","freq_resp","img/orange_2bandit_a.png","70","70","test","","","","1","",""
"null","141413","pSARL_v2","pSARL_v23lm43epy","6282469ad58ff01f680ab3f8","fixation","img/fixation.png","null","","test","","","","","",""
"286.70000000018626","141707","pSARL_v2","pSARL_v23lm43epy","6282469ad58ff01f680ab3f8","freq","img/orange_2bandit_a2.png","70","70","test","1","10","10","1","",""
"null","142228","pSARL_v2","pSARL_v23lm43epy","6282469ad58ff01f680ab3f8","freq_resp","img/orange_2bandit_a.png","70","70","test","","","","1","",""
"null","142390","pSARL_v2","pSARL_v23lm43epy","6282469ad58ff01f680ab3f8","fixation","img/fixation.png","null","","test","","","","","",""
"305.79999999981374","142704","pSARL_v2","pSARL_v23lm43epy","6282469ad58ff01f680ab3f8","freq","img/orange_2bandit_a2.png","70","70","test","1","11","11","1","",""
"null","143214","pSARL_v2","pSARL_v23lm43epy","6282469ad58ff01f680ab3f8","freq_resp","img/orange_2bandit_a.png","70","70","test","","","","1","",""
"null","143373","pSARL_v2","pSARL_v23lm43epy","6282469ad58ff01f680ab3f8","fixation","img/fixation.png","null","","test","","","","","",""
"290.40000000037253","143672","pSARL_v2","pSARL_v23lm43epy","6282469ad58ff01f680ab3f8","freq","img/orange_2bandit_a2.png","70","70","test","1","12","12","1","",""
"null","144198","pSARL_v2","pSARL_v23lm43epy","6282469ad58ff01f680ab3f8","freq_resp","img/orange_2bandit_a.png","70","70","test","","","","1","",""
"null","144358","pSARL_v2","pSARL_v23lm43epy","6282469ad58ff01f680ab3f8","fixation","img/fixation.png","null","","test","","","","","",""
"271.09999999962747","144638","pSARL_v2","pSARL_v23lm43epy","6282469ad58ff01f680ab3f8","freq","img/orange_2bandit_a2.png","70","70","test","1","13","13","1","",""
"null","145182","pSARL_v2","pSARL_v23lm43epy","6282469ad58ff01f680ab3f8","freq_resp","img/orange_2bandit_a.png","70","70","test","","","","1","",""
"null","145342","pSARL_v2","pSARL_v23lm43epy","6282469ad58ff01f680ab3f8","fixation","img/fixation.png","null","","test","","","","","",""
"156.29999999981374","145503","pSARL_v2","pSARL_v23lm43epy","6282469ad58ff01f680ab3f8","freq","img/orange_2bandit_a2.png","70","70","test","1","14","14","1","",""
"null","146157","pSARL_v2","pSARL_v23lm43epy","6282469ad58ff01f680ab3f8","freq_resp","img/orange_2bandit_a.png","70","70","test","","","","1","",""
"null","146315","pSARL_v2","pSARL_v23lm43epy","6282469ad58ff01f680ab3f8","fixation","img/fixation.png","null","","test","","","","","",""
"330.29999999981374","146653","pSARL_v2","pSARL_v23lm43epy","6282469ad58ff01f680ab3f8","freq","img/orange_2bandit_a2.png","70","70","test","1","15","15","1","",""
"null","147131","pSARL_v2","pSARL_v23lm43epy","6282469ad58ff01f680ab3f8","freq_resp","img/orange_2bandit_a.png","70","70","test","","","","1","",""
"null","147293","pSARL_v2","pSARL_v23lm43epy","6282469ad58ff01f680ab3f8","fixation","img/fixation.png","null","","test","","","","","",""
"324.5","147626","pSARL_v2","pSARL_v23lm43epy","6282469ad58ff01f680ab3f8","freq","img/orange_2bandit_a2.png","70","70","test","1","16","16","1","",""
"null","148109","pSARL_v2","pSARL_v23lm43epy","6282469ad58ff01f680ab3f8","freq_resp","img/orange_2bandit_a.png","70","70","test","","","","1","",""
"null","148270","pSARL_v2","pSARL_v23lm43epy","6282469ad58ff01f680ab3f8","fixation","img/fixation.png","null","","test","","","","","",""
"455.3999999994412","148733","pSARL_v2","pSARL_v23lm43epy","6282469ad58ff01f680ab3f8","infreq","img/green_2bandit_a2.png","68","68","test","1","17","17","1","",""
"null","149086","pSARL_v2","pSARL_v23lm43epy","6282469ad58ff01f680ab3f8","infreq_resp","img/green_2bandit_a.png","68","68","test","","","","1","",""
"null","149245","pSARL_v2","pSARL_v23lm43epy","6282469ad58ff01f680ab3f8","fixation","img/fixation.png","null","","test","","","","","",""
"326.70000000018626","149579","pSARL_v2","pSARL_v23lm43epy","6282469ad58ff01f680ab3f8","freq","img/orange_2bandit_a2.png","70","70","test","1","18","18","1","",""
"null","150061","pSARL_v2","pSARL_v23lm43epy","6282469ad58ff01f680ab3f8","freq_resp","img/orange_2bandit_a.png","70","70","test","","","","1","",""
"null","150222","pSARL_v2","pSARL_v23lm43epy","6282469ad58ff01f680ab3f8","fixation","img/fixation.png","null","","test","","","","","",""
"316.40000000037253","150547","pSARL_v2","pSARL_v23lm43epy","6282469ad58ff01f680ab3f8","freq","img/orange_2bandit_a2.png","70","70","test","1","19","19","1","",""
"null","151045","pSARL_v2","pSARL_v23lm43epy","6282469ad58ff01f680ab3f8","freq_resp","img/orange_2bandit_a.png","70","70","test","","","","1","",""
"null","151205","pSARL_v2","pSARL_v23lm43epy","6282469ad58ff01f680ab3f8","fixation","img/fixation.png","null","","test","","","","","",""
"320.20000000018626","151533","pSARL_v2","pSARL_v23lm43epy","6282469ad58ff01f680ab3f8","freq","img/orange_2bandit_a2.png","70","70","test","1","20","20","1","",""
"null","152021","pSARL_v2","pSARL_v23lm43epy","6282469ad58ff01f680ab3f8","freq_resp","img/orange_2bandit_a.png","70","70","test","","","","1","",""
"null","152181","pSARL_v2","pSARL_v23lm43epy","6282469ad58ff01f680ab3f8","fixation","img/fixation.png","null","","test","","","","","",""
"598.7999999998137","152785","pSARL_v2","pSARL_v23lm43epy","6282469ad58ff01f680ab3f8","reward","img/slot.png","74","","test","","","","","",""
"null","153548","pSARL_v2","pSARL_v23lm43epy","6282469ad58ff01f680ab3f8","points","<div class=""verylowPoints""> -6 </div>","null","na","test","","","","1","-6","0"
"614","154169","pSARL_v2","pSARL_v23lm43epy","6282469ad58ff01f680ab3f8","freq","img/orange_2bandit_a2.png","70","70","test","1","21","21","2","",""
"null","154365","pSARL_v2","pSARL_v23lm43epy","6282469ad58ff01f680ab3f8","freq_resp","img/orange_2bandit_a.png","70","70","test","","","","2","",""
"null","154525","pSARL_v2","pSARL_v23lm43epy","6282469ad58ff01f680ab3f8","fixation","img/fixation.png","null","","test","","","","","",""
"446.90000000037253","154979","pSARL_v2","pSARL_v23lm43epy","6282469ad58ff01f680ab3f8","freq","img/orange_2bandit_a2.png","70","70","test","1","22","22","2","",""
"null","155341","pSARL_v2","pSARL_v23lm43epy","6282469ad58ff01f680ab3f8","freq_resp","img/orange_2bandit_a.png","70","70","test","","","","2","",""
"null","155502","pSARL_v2","pSARL_v23lm43epy","6282469ad58ff01f680ab3f8","fixation","img/fixation.png","null","","test","","","","","",""
"343.90000000037253","155853","pSARL_v2","pSARL_v23lm43epy","6282469ad58ff01f680ab3f8","freq","img/orange_2bandit_a2.png","70","70","test","1","23","23","2","",""
"null","156317","pSARL_v2","pSARL_v23lm43epy","6282469ad58ff01f680ab3f8","freq_resp","img/orange_2bandit_a.png","70","70","test","","","","2","",""
"null","156476","pSARL_v2","pSARL_v23lm43epy","6282469ad58ff01f680ab3f8","fixation","img/fixation.png","null","","test","","","","","",""
"297.59999999962747","156782","pSARL_v2","pSARL_v23lm43epy","6282469ad58ff01f680ab3f8","freq","img/orange_2bandit_a2.png","70","70","test","1","24","24","2","",""
"null","157294","pSARL_v2","pSARL_v23lm43epy","6282469ad58ff01f680ab3f8","freq_resp","img/orange_2bandit_a.png","70","70","test","","","","2","",""
"null","157453","pSARL_v2","pSARL_v23lm43epy","6282469ad58ff01f680ab3f8","fixation","img/fixation.png","null","","test","","","","","",""
"149.20000000018626","157611","pSARL_v2","pSARL_v23lm43epy","6282469ad58ff01f680ab3f8","freq","img/orange_2bandit_a2.png","70","70","test","1","25","25","2","",""
"null","158269","pSARL_v2","pSARL_v23lm43epy","6282469ad58ff01f680ab3f8","freq_resp","img/orange_2bandit_a.png","70","70","test","","","","2","",""
"null","158430","pSARL_v2","pSARL_v23lm43epy","6282469ad58ff01f680ab3f8","fixation","img/fixation.png","null","","test","","","","","",""
"308.90000000037253","158746","pSARL_v2","pSARL_v23lm43epy","6282469ad58ff01f680ab3f8","freq","img/orange_2bandit_a2.png","70","70","test","1","26","26","2","",""
"null","159245","pSARL_v2","pSARL_v23lm43epy","6282469ad58ff01f680ab3f8","freq_resp","img/orange_2bandit_a.png","70","70","test","","","","2","",""
"null","159405","pSARL_v2","pSARL_v23lm43epy","6282469ad58ff01f680ab3f8","fixation","img/fixation.png","null","","test","","","","","",""
"283.70000000018626","159698","pSARL_v2","pSARL_v23lm43epy","6282469ad58ff01f680ab3f8","freq","img/orange_2bandit_a2.png","70","70","test","1","27","27","2","",""
"null","160228","pSARL_v2","pSARL_v23lm43epy","6282469ad58ff01f680ab3f8","freq_resp","img/orange_2bandit_a.png","70","70","test","","","","2","",""
"null","160389","pSARL_v2","pSARL_v23lm43epy","6282469ad58ff01f680ab3f8","fixation","img/fixation.png","null","","test","","","","","",""
"451.70000000018626","160848","pSARL_v2","pSARL_v23lm43epy","6282469ad58ff01f680ab3f8","infreq","img/green_2bandit_a2.png","68","68","test","1","28","28","2","",""
"null","161205","pSARL_v2","pSARL_v23lm43epy","6282469ad58ff01f680ab3f8","infreq_resp","img/green_2bandit_a.png","68","68","test","","","","2","",""
"null","161366","pSARL_v2","pSARL_v23lm43epy","6282469ad58ff01f680ab3f8","fixation","img/fixation.png","null","","test","","","","","",""
"496.3999999994412","161869","pSARL_v2","pSARL_v23lm43epy","6282469ad58ff01f680ab3f8","infreq","img/green_2bandit_a2.png","68","68","test","1","29","29","2","",""
"null","162182","pSARL_v2","pSARL_v23lm43epy","6282469ad58ff01f680ab3f8","infreq_resp","img/green_2bandit_a.png","68","68","test","","","","2","",""
"null","162340","pSARL_v2","pSARL_v23lm43epy","6282469ad58ff01f680ab3f8","fixation","img/fixation.png","null","","test","","","","","",""
"null","163149","pSARL_v2","pSARL_v23lm43epy","6282469ad58ff01f680ab3f8","freq","img/orange_2bandit_a2.png","null","70","test","0","30","30","2","",""
"null","163308","pSARL_v2","pSARL_v23lm43epy","6282469ad58ff01f680ab3f8","fixation","img/fixation.png","null","","test","","","","","",""
"537.3999999994412","163853","pSARL_v2","pSARL_v23lm43epy","6282469ad58ff01f680ab3f8","infreq","img/green_2bandit_a2.png","68","68","test","1","31","31","2","",""
"null","164126","pSARL_v2","pSARL_v23lm43epy","6282469ad58ff01f680ab3f8","infreq_resp","img/green_2bandit_a.png","68","68","test","","","","2","",""
"null","164284","pSARL_v2","pSARL_v23lm43epy","6282469ad58ff01f680ab3f8","fixation","img/fixation.png","null","","test","","","","","",""
"456.20000000018626","164749","pSARL_v2","pSARL_v23lm43epy","6282469ad58ff01f680ab3f8","freq","img/orange_2bandit_a2.png","70","70","test","1","32","32","2","",""
"null","165102","pSARL_v2","pSARL_v23lm43epy","6282469ad58ff01f680ab3f8","freq_resp","img/orange_2bandit_a.png","70","70","test","","","","2","",""
"null","165260","pSARL_v2","pSARL_v23lm43epy","6282469ad58ff01f680ab3f8","fixation","img/fixation.png","null","","test","","","","","",""
"486.40000000037253","165753","pSARL_v2","pSARL_v23lm43epy","6282469ad58ff01f680ab3f8","freq","img/orange_2bandit_a2.png","70","70","test","1","33","33","2","",""
"null","166077","pSARL_v2","pSARL_v23lm43epy","6282469ad58ff01f680ab3f8","freq_resp","img/orange_2bandit_a.png","70","70","test","","","","2","",""
"null","166235","pSARL_v2","pSARL_v23lm43epy","6282469ad58ff01f680ab3f8","fixation","img/fixation.png","null","","test","","","","","",""
"404.70000000018626","166647","pSARL_v2","pSARL_v23lm43epy","6282469ad58ff01f680ab3f8","freq","img/orange_2bandit_a2.png","70","70","test","1","34","34","2","",""
"null","167054","pSARL_v2","pSARL_v23lm43epy","6282469ad58ff01f680ab3f8","freq_resp","img/orange_2bandit_a.png","70","70","test","","","","2","",""
"null","167212","pSARL_v2","pSARL_v23lm43epy","6282469ad58ff01f680ab3f8","fixation","img/fixation.png","null","","test","","","","","",""
"343.90000000037253","167563","pSARL_v2","pSARL_v23lm43epy","6282469ad58ff01f680ab3f8","freq","img/orange_2bandit_a2.png","70","70","test","1","35","35","2","",""
"null","168029","pSARL_v2","pSARL_v23lm43epy","6282469ad58ff01f680ab3f8","freq_resp","img/orange_2bandit_a.png","70","70","test","","","","2","",""
"null","168189","pSARL_v2","pSARL_v23lm43epy","6282469ad58ff01f680ab3f8","fixation","img/fixation.png","null","","test","","","","","",""
"331.79999999981374","168529","pSARL_v2","pSARL_v23lm43epy","6282469ad58ff01f680ab3f8","freq","img/orange_2bandit_a2.png","70","70","test","1","36","36","2","",""
"null","169002","pSARL_v2","pSARL_v23lm43epy","6282469ad58ff01f680ab3f8","freq_resp","img/orange_2bandit_a.png","70","70","test","","","","2","",""
"null","169165","pSARL_v2","pSARL_v23lm43epy","6282469ad58ff01f680ab3f8","fixation","img/fixation.png","null","","test","","","","","",""
"361.6000000005588","169533","pSARL_v2","pSARL_v23lm43epy","6282469ad58ff01f680ab3f8","freq","img/orange_2bandit_a2.png","70","70","test","1","37","37","2","",""
"null","169981","pSARL_v2","pSARL_v23lm43epy","6282469ad58ff01f680ab3f8","freq_resp","img/orange_2bandit_a.png","70","70","test","","","","2","",""
"null","170141","pSARL_v2","pSARL_v23lm43epy","6282469ad58ff01f680ab3f8","fixation","img/fixation.png","null","","test","","","","","",""
"365.5","170514","pSARL_v2","pSARL_v23lm43epy","6282469ad58ff01f680ab3f8","freq","img/orange_2bandit_a2.png","70","70","test","1","38","38","2","",""
"null","170957","pSARL_v2","pSARL_v23lm43epy","6282469ad58ff01f680ab3f8","freq_resp","img/orange_2bandit_a.png","70","70","test","","","","2","",""
"null","171118","pSARL_v2","pSARL_v23lm43epy","6282469ad58ff01f680ab3f8","fixation","img/fixation.png","null","","test","","","","","",""
"338","171464","pSARL_v2","pSARL_v23lm43epy","6282469ad58ff01f680ab3f8","freq","img/orange_2bandit_a2.png","70","70","test","1","39","39","2","",""
"null","171941","pSARL_v2","pSARL_v23lm43epy","6282469ad58ff01f680ab3f8","freq_resp","img/orange_2bandit_a.png","70","70","test","","","","2","",""
"null","172100","pSARL_v2","pSARL_v23lm43epy","6282469ad58ff01f680ab3f8","fixation","img/fixation.png","null","","test","","","","","",""
"345.40000000037253","172453","pSARL_v2","pSARL_v23lm43epy","6282469ad58ff01f680ab3f8","freq","img/orange_2bandit_a2.png","70","70","test","1","40","40","2","",""
"null","172917","pSARL_v2","pSARL_v23lm43epy","6282469ad58ff01f680ab3f8","freq_resp","img/orange_2bandit_a.png","70","70","test","","","","2","",""
"null","173077","pSARL_v2","pSARL_v23lm43epy","6282469ad58ff01f680ab3f8","fixation","img/fixation.png","null","","test","","","","","",""
"306.70000000018626","173393","pSARL_v2","pSARL_v23lm43epy","6282469ad58ff01f680ab3f8","freq","img/orange_2bandit_a2.png","70","70","test","1","41","41","2","",""
"null","173901","pSARL_v2","pSARL_v23lm43epy","6282469ad58ff01f680ab3f8","freq_resp","img/orange_2bandit_a.png","70","70","test","","","","2","",""
"null","174061","pSARL_v2","pSARL_v23lm43epy","6282469ad58ff01f680ab3f8","fixation","img/fixation.png","null","","test","","","","","",""
"365.5","174434","pSARL_v2","pSARL_v23lm43epy","6282469ad58ff01f680ab3f8","freq","img/orange_2bandit_a2.png","70","70","test","1","42","42","2","",""
"null","174878","pSARL_v2","pSARL_v23lm43epy","6282469ad58ff01f680ab3f8","freq_resp","img/orange_2bandit_a.png","70","70","test","","","","2","",""
"null","175036","pSARL_v2","pSARL_v23lm43epy","6282469ad58ff01f680ab3f8","fixation","img/fixation.png","null","","test","","","","","",""
"1212.2000000001863","176254","pSARL_v2","pSARL_v23lm43epy","6282469ad58ff01f680ab3f8","reward","img/slot.png","74","","test","","","","","",""
"null","177014","pSARL_v2","pSARL_v23lm43epy","6282469ad58ff01f680ab3f8","points","<div class=""verylowPoints""> -11 </div>","null","na","test","","","","2","-11","1"
"null","177820","pSARL_v2","pSARL_v23lm43epy","6282469ad58ff01f680ab3f8","freq","img/orange_2bandit_a2.png","null","70","test","0","43","43","3","",""
"null","177981","pSARL_v2","pSARL_v23lm43epy","6282469ad58ff01f680ab3f8","fixation","img/fixation.png","null","","test","","","","","",""
"29.5","178022","pSARL_v2","pSARL_v23lm43epy","6282469ad58ff01f680ab3f8","freq","img/orange_2bandit_a2.png","70","70","test","1","44","44","3","",""
"null","178806","pSARL_v2","pSARL_v23lm43epy","6282469ad58ff01f680ab3f8","freq_resp","img/orange_2bandit_a.png","70","70","test","","","","3","",""
"null","178965","pSARL_v2","pSARL_v23lm43epy","6282469ad58ff01f680ab3f8","fixation","img/fixation.png","null","","test","","","","","",""
"329.8999999994412","179301","pSARL_v2","pSARL_v23lm43epy","6282469ad58ff01f680ab3f8","freq","img/orange_2bandit_a2.png","70","70","test","1","45","45","3","",""
"null","179782","pSARL_v2","pSARL_v23lm43epy","6282469ad58ff01f680ab3f8","freq_resp","img/orange_2bandit_a.png","70","70","test","","","","3","",""
"null","179941","pSARL_v2","pSARL_v23lm43epy","6282469ad58ff01f680ab3f8","fixation","img/fixation.png","null","","test","","","","","",""
"332.6000000005588","180281","pSARL_v2","pSARL_v23lm43epy","6282469ad58ff01f680ab3f8","freq","img/orange_2bandit_a2.png","70","70","test","1","46","46","3","",""
"null","180757","pSARL_v2","pSARL_v23lm43epy","6282469ad58ff01f680ab3f8","freq_resp","img/orange_2bandit_a.png","70","70","test","","","","3","",""
"null","180917","pSARL_v2","pSARL_v23lm43epy","6282469ad58ff01f680ab3f8","fixation","img/fixation.png","null","","test","","","","","",""
"336.30000000074506","181261","pSARL_v2","pSARL_v23lm43epy","6282469ad58ff01f680ab3f8","freq","img/orange_2bandit_a2.png","70","70","test","1","47","47","3","",""
"null","181732","pSARL_v2","pSARL_v23lm43epy","6282469ad58ff01f680ab3f8","freq_resp","img/orange_2bandit_a.png","70","70","test","","","","3","",""
"null","181894","pSARL_v2","pSARL_v23lm43epy","6282469ad58ff01f680ab3f8","fixation","img/fixation.png","null","","test","","","","","",""
"415.80000000074506","182317","pSARL_v2","pSARL_v23lm43epy","6282469ad58ff01f680ab3f8","infreq","img/green_2bandit_a2.png","68","68","test","1","48","48","3","",""
"null","182710","pSARL_v2","pSARL_v23lm43epy","6282469ad58ff01f680ab3f8","infreq_resp","img/green_2bandit_a.png","68","68","test","","","","3","",""
"null","182869","pSARL_v2","pSARL_v23lm43epy","6282469ad58ff01f680ab3f8","fixation","img/fixation.png","null","","test","","","","","",""
"476.90000000037253","183353","pSARL_v2","pSARL_v23lm43epy","6282469ad58ff01f680ab3f8","freq","img/orange_2bandit_a2.png","70","70","test","1","49","49","3","",""
"null","183685","pSARL_v2","pSARL_v23lm43epy","6282469ad58ff01f680ab3f8","freq_resp","img/orange_2bandit_a.png","70","70","test","","","","3","",""
"null","183845","pSARL_v2","pSARL_v23lm43epy","6282469ad58ff01f680ab3f8","fixation","img/fixation.png","null","","test","","","","","",""
"468.29999999981374","184320","pSARL_v2","pSARL_v23lm43epy","6282469ad58ff01f680ab3f8","infreq","img/green_2bandit_a2.png","68","68","test","1","50","50","3","",""
"null","184662","pSARL_v2","pSARL_v23lm43epy","6282469ad58ff01f680ab3f8","infreq_resp","img/green_2bandit_a.png","68","68","test","","","","3","",""
"null","184823","pSARL_v2","pSARL_v23lm43epy","6282469ad58ff01f680ab3f8","fixation","img/fixation.png","null","","test","","","","","",""
"409.20000000018626","185240","pSARL_v2","pSARL_v23lm43epy","6282469ad58ff01f680ab3f8","freq","img/orange_2bandit_a2.png","70","70","test","1","51","51","3","",""
"null","185645","pSARL_v2","pSARL_v23lm43epy","6282469ad58ff01f680ab3f8","freq_resp","img/orange_2bandit_a.png","70","70","test","","","","3","",""
"null","185806","pSARL_v2","pSARL_v23lm43epy","6282469ad58ff01f680ab3f8","fixation","img/fixation.png","null","","test","","","","","",""
"331.30000000074506","186145","pSARL_v2","pSARL_v23lm43epy","6282469ad58ff01f680ab3f8","freq","img/orange_2bandit_a2.png","70","70","test","1","52","52","3","",""
"null","186621","pSARL_v2","pSARL_v23lm43epy","6282469ad58ff01f680ab3f8","freq_resp","img/orange_2bandit_a.png","70","70","test","","","","3","",""
"null","186781","pSARL_v2","pSARL_v23lm43epy","6282469ad58ff01f680ab3f8","fixation","img/fixation.png","null","","test","","","","","",""
"333.5","187122","pSARL_v2","pSARL_v23lm43epy","6282469ad58ff01f680ab3f8","freq","img/orange_2bandit_a2.png","70","70","test","1","53","53","3","",""
"null","187595","pSARL_v2","pSARL_v23lm43epy","6282469ad58ff01f680ab3f8","freq_resp","img/orange_2bandit_a.png","70","70","test","","","","3","",""
"null","187758","pSARL_v2","pSARL_v23lm43epy","6282469ad58ff01f680ab3f8","fixation","img/fixation.png","null","","test","","","","","",""
"314.59999999962747","188080","pSARL_v2","pSARL_v23lm43epy","6282469ad58ff01f680ab3f8","freq","img/orange_2bandit_a2.png","70","70","test","1","54","54","3","",""
"null","188572","pSARL_v2","pSARL_v23lm43epy","6282469ad58ff01f680ab3f8","freq_resp","img/orange_2bandit_a.png","70","70","test","","","","3","",""
"null","188733","pSARL_v2","pSARL_v23lm43epy","6282469ad58ff01f680ab3f8","fixation","img/fixation.png","null","","test","","","","","",""
"385.19999999925494","189126","pSARL_v2","pSARL_v23lm43epy","6282469ad58ff01f680ab3f8","freq","img/orange_2bandit_a2.png","70","70","test","1","55","55","3","",""
"null","189550","pSARL_v2","pSARL_v23lm43epy","6282469ad58ff01f680ab3f8","freq_resp","img/orange_2bandit_a.png","70","70","test","","","","3","",""
"null","189709","pSARL_v2","pSARL_v23lm43epy","6282469ad58ff01f680ab3f8","fixation","img/fixation.png","null","","test","","","","","",""
"299.90000000037253","190016","pSARL_v2","pSARL_v23lm43epy","6282469ad58ff01f680ab3f8","freq","img/orange_2bandit_a2.png","70","70","test","1","56","56","3","",""
"null","190526","pSARL_v2","pSARL_v23lm43epy","6282469ad58ff01f680ab3f8","freq_resp","img/orange_2bandit_a.png","70","70","test","","","","3","",""
"null","190685","pSARL_v2","pSARL_v23lm43epy","6282469ad58ff01f680ab3f8","fixation","img/fixation.png","null","","test","","","","","",""
"213.59999999962747","190906","pSARL_v2","pSARL_v23lm43epy","6282469ad58ff01f680ab3f8","freq","img/orange_2bandit_a2.png","70","70","test","1","57","57","3","",""
"null","191502","pSARL_v2","pSARL_v23lm43epy","6282469ad58ff01f680ab3f8","freq_resp","img/orange_2bandit_a.png","70","70","test","","","","3","",""
"null","191661","pSARL_v2","pSARL_v23lm43epy","6282469ad58ff01f680ab3f8","fixation","img/fixation.png","null","","test","","","","","",""
"241","191910","pSARL_v2","pSARL_v23lm43epy","6282469ad58ff01f680ab3f8","freq","img/orange_2bandit_a2.png","70","70","test","1","58","58","3","",""
"null","192476","pSARL_v2","pSARL_v23lm43epy","6282469ad58ff01f680ab3f8","freq_resp","img/orange_2bandit_a.png","70","70","test","","","","3","",""
"null","192637","pSARL_v2","pSARL_v23lm43epy","6282469ad58ff01f680ab3f8","fixation","img/fixation.png","null","","test","","","","","",""
"358.90000000037253","193003","pSARL_v2","pSARL_v23lm43epy","6282469ad58ff01f680ab3f8","freq","img/orange_2bandit_a2.png","70","70","test","1","59","59","3","",""
"null","193452","pSARL_v2","pSARL_v23lm43epy","6282469ad58ff01f680ab3f8","freq_resp","img/orange_2bandit_a.png","70","70","test","","","","3","",""
"null","193614","pSARL_v2","pSARL_v23lm43epy","6282469ad58ff01f680ab3f8","fixation","img/fixation.png","null","","test","","","","","",""
"382.79999999981374","194004","pSARL_v2","pSARL_v23lm43epy","6282469ad58ff01f680ab3f8","freq","img/orange_2bandit_a2.png","70","70","test","1","60","60","3","",""
"null","194430","pSARL_v2","pSARL_v23lm43epy","6282469ad58ff01f680ab3f8","freq_resp","img/orange_2bandit_a.png","70","70","test","","","","3","",""
"null","194589","pSARL_v2","pSARL_v23lm43epy","6282469ad58ff01f680ab3f8","fixation","img/fixation.png","null","","test","","","","","",""
"388.90000000037253","194986","pSARL_v2","pSARL_v23lm43epy","6282469ad58ff01f680ab3f8","freq","img/orange_2bandit_a2.png","70","70","test","1","61","61","3","",""
"null","195407","pSARL_v2","pSARL_v23lm43epy","6282469ad58ff01f680ab3f8","freq_resp","img/orange_2bandit_a.png","70","70","test","","","","3","",""
"null","195574","pSARL_v2","pSARL_v23lm43epy","6282469ad58ff01f680ab3f8","fixation","img/fixation.png","null","","test","","","","","",""
"390.30000000074506","195971","pSARL_v2","pSARL_v23lm43epy","6282469ad58ff01f680ab3f8","freq","img/orange_2bandit_a2.png","70","70","test","1","62","62","3","",""
"null","196389","pSARL_v2","pSARL_v23lm43epy","6282469ad58ff01f680ab3f8","freq_resp","img/orange_2bandit_a.png","70","70","test","","","","3","",""
"null","196549","pSARL_v2","pSARL_v23lm43epy","6282469ad58ff01f680ab3f8","fixation","img/fixation.png","null","","test","","","","","",""
"null","197365","pSARL_v2","pSARL_v23lm43epy","6282469ad58ff01f680ab3f8","freq","img/orange_2bandit_a2.png","null","70","test","0","63","63","3","",""
"null","197524","pSARL_v2","pSARL_v23lm43epy","6282469ad58ff01f680ab3f8","fixation","img/fixation.png","null","","test","","","","","",""
"388.70000000018626","197920","pSARL_v2","pSARL_v23lm43epy","6282469ad58ff01f680ab3f8","freq","img/orange_2bandit_a2.png","70","70","test","1","64","64","3","",""
"null","198341","pSARL_v2","pSARL_v23lm43epy","6282469ad58ff01f680ab3f8","freq_resp","img/orange_2bandit_a.png","70","70","test","","","","3","",""
"null","198501","pSARL_v2","pSARL_v23lm43epy","6282469ad58ff01f680ab3f8","fixation","img/fixation.png","null","","test","","","","","",""
"409.69999999925494","198919","pSARL_v2","pSARL_v23lm43epy","6282469ad58ff01f680ab3f8","freq","img/orange_2bandit_a2.png","70","70","test","1","65","65","3","",""
"null","199317","pSARL_v2","pSARL_v23lm43epy","6282469ad58ff01f680ab3f8","freq_resp","img/orange_2bandit_a.png","70","70","test","","","","3","",""
"null","199474","pSARL_v2","pSARL_v23lm43epy","6282469ad58ff01f680ab3f8","fixation","img/fixation.png","null","","test","","","","","",""
"342.20000000018626","199824","pSARL_v2","pSARL_v23lm43epy","6282469ad58ff01f680ab3f8","freq","img/orange_2bandit_a2.png","70","70","test","1","66","66","3","",""
"null","200293","pSARL_v2","pSARL_v23lm43epy","6282469ad58ff01f680ab3f8","freq_resp","img/orange_2bandit_a.png","70","70","test","","","","3","",""
"null","200453","pSARL_v2","pSARL_v23lm43epy","6282469ad58ff01f680ab3f8","fixation","img/fixation.png","null","","test","","","","","",""
"2568.2000000001863","203029","pSARL_v2","pSARL_v23lm43epy","6282469ad58ff01f680ab3f8","reward","img/slot.png","74","","test","","","","","",""
"null","203789","pSARL_v2","pSARL_v23lm43epy","6282469ad58ff01f680ab3f8","points","<div class=""verylowPoints""> -7 </div>","null","na","test","","","","3","-7","2"
"527.7999999998137","204324","pSARL_v2","pSARL_v23lm43epy","6282469ad58ff01f680ab3f8","freq","img/orange_2bandit_a2.png","70","70","test","1","67","67","4","",""
"null","204602","pSARL_v2","pSARL_v23lm43epy","6282469ad58ff01f680ab3f8","freq_resp","img/orange_2bandit_a.png","70","70","test","","","","4","",""
"null","204763","pSARL_v2","pSARL_v23lm43epy","6282469ad58ff01f680ab3f8","fixation","img/fixation.png","null","","test","","","","","",""
"322.5","205092","pSARL_v2","pSARL_v23lm43epy","6282469ad58ff01f680ab3f8","freq","img/orange_2bandit_a2.png","70","70","test","1","68","68","4","",""
"null","205581","pSARL_v2","pSARL_v23lm43epy","6282469ad58ff01f680ab3f8","freq_resp","img/orange_2bandit_a.png","70","70","test","","","","4","",""
"null","205741","pSARL_v2","pSARL_v23lm43epy","6282469ad58ff01f680ab3f8","fixation","img/fixation.png","null","","test","","","","","",""
"344.70000000018626","206093","pSARL_v2","pSARL_v23lm43epy","6282469ad58ff01f680ab3f8","freq","img/orange_2bandit_a2.png","70","70","test","1","69","69","4","",""
"null","206557","pSARL_v2","pSARL_v23lm43epy","6282469ad58ff01f680ab3f8","freq_resp","img/orange_2bandit_a.png","70","70","test","","","","4","",""
"null","206717","pSARL_v2","pSARL_v23lm43epy","6282469ad58ff01f680ab3f8","fixation","img/fixation.png","null","","test","","","","","",""
"402.09999999962747","207127","pSARL_v2","pSARL_v23lm43epy","6282469ad58ff01f680ab3f8","infreq","img/green_2bandit_a2.png","68","68","test","1","70","70","4","",""
"null","207534","pSARL_v2","pSARL_v23lm43epy","6282469ad58ff01f680ab3f8","infreq_resp","img/green_2bandit_a.png","68","68","test","","","","4","",""
"null","207694","pSARL_v2","pSARL_v23lm43epy","6282469ad58ff01f680ab3f8","fixation","img/fixation.png","null","","test","","","","","",""
"423.20000000018626","208124","pSARL_v2","pSARL_v23lm43epy","6282469ad58ff01f680ab3f8","freq","img/orange_2bandit_a2.png","70","70","test","1","71","71","4","",""
"null","208509","pSARL_v2","pSARL_v23lm43epy","6282469ad58ff01f680ab3f8","freq_resp","img/orange_2bandit_a.png","70","70","test","","","","4","",""
"null","208668","pSARL_v2","pSARL_v23lm43epy","6282469ad58ff01f680ab3f8","fixation","img/fixation.png","null","","test","","","","","",""
"371.90000000037253","209047","pSARL_v2","pSARL_v23lm43epy","6282469ad58ff01f680ab3f8","freq","img/orange_2bandit_a2.png","70","70","test","1","72","72","4","",""
"null","209486","pSARL_v2","pSARL_v23lm43epy","6282469ad58ff01f680ab3f8","freq_resp","img/orange_2bandit_a.png","70","70","test","","","","4","",""
"null","209646","pSARL_v2","pSARL_v23lm43epy","6282469ad58ff01f680ab3f8","fixation","img/fixation.png","null","","test","","","","","",""
"325.59999999962747","209980","pSARL_v2","pSARL_v23lm43epy","6282469ad58ff01f680ab3f8","freq","img/orange_2bandit_a2.png","70","70","test","1","73","73","4","",""
"null","210467","pSARL_v2","pSARL_v23lm43epy","6282469ad58ff01f680ab3f8","freq_resp","img/orange_2bandit_a.png","70","70","test","","","","4","",""
"null","210629","pSARL_v2","pSARL_v23lm43epy","6282469ad58ff01f680ab3f8","fixation","img/fixation.png","null","","test","","","","","",""
"345.29999999981374","210981","pSARL_v2","pSARL_v23lm43epy","6282469ad58ff01f680ab3f8","freq","img/orange_2bandit_a2.png","70","70","test","1","74","74","4","",""
"null","211445","pSARL_v2","pSARL_v23lm43epy","6282469ad58ff01f680ab3f8","freq_resp","img/orange_2bandit_a.png","70","70","test","","","","4","",""
"null","211605","pSARL_v2","pSARL_v23lm43epy","6282469ad58ff01f680ab3f8","fixation","img/fixation.png","null","","test","","","","","",""
"275.70000000018626","211888","pSARL_v2","pSARL_v23lm43epy","6282469ad58ff01f680ab3f8","freq","img/orange_2bandit_a2.png","70","70","test","1","75","75","4","",""
"null","212421","pSARL_v2","pSARL_v23lm43epy","6282469ad58ff01f680ab3f8","freq_resp","img/orange_2bandit_a.png","70","70","test","","","","4","",""
"null","212580","pSARL_v2","pSARL_v23lm43epy","6282469ad58ff01f680ab3f8","fixation","img/fixation.png","null","","test","","","","","",""
"138.6000000005588","212726","pSARL_v2","pSARL_v23lm43epy","6282469ad58ff01f680ab3f8","freq","img/orange_2bandit_a2.png","70","70","test","1","76","76","4","",""
"null","213398","pSARL_v2","pSARL_v23lm43epy","6282469ad58ff01f680ab3f8","freq_resp","img/orange_2bandit_a.png","70","70","test","","","","4","",""
"null","213557","pSARL_v2","pSARL_v23lm43epy","6282469ad58ff01f680ab3f8","fixation","img/fixation.png","null","","test","","","","","",""
"166.09999999962747","213731","pSARL_v2","pSARL_v23lm43epy","6282469ad58ff01f680ab3f8","infreq","img/green_2bandit_a2.png","70","68","test","0","77","77","4","",""
"null","214373","pSARL_v2","pSARL_v23lm43epy","6282469ad58ff01f680ab3f8","infreq_resp","img/green_2bandit_a.png","70","68","test","","","","4","",""
"null","214534","pSARL_v2","pSARL_v23lm43epy","6282469ad58ff01f680ab3f8","fixation","img/fixation.png","null","","test","","","","","",""
"545.7000000001863","215087","pSARL_v2","pSARL_v23lm43epy","6282469ad58ff01f680ab3f8","infreq","img/green_2bandit_a2.png","68","68","test","1","78","78","4","",""
"null","215350","pSARL_v2","pSARL_v23lm43epy","6282469ad58ff01f680ab3f8","infreq_resp","img/green_2bandit_a.png","68","68","test","","","","4","",""
"null","215510","pSARL_v2","pSARL_v23lm43epy","6282469ad58ff01f680ab3f8","fixation","img/fixation.png","null","","test","","","","","",""
"461.70000000018626","215979","pSARL_v2","pSARL_v23lm43epy","6282469ad58ff01f680ab3f8","freq","img/orange_2bandit_a2.png","70","70","test","1","79","79","4","",""
"null","216326","pSARL_v2","pSARL_v23lm43epy","6282469ad58ff01f680ab3f8","freq_resp","img/orange_2bandit_a.png","70","70","test","","","","4","",""
"null","216485","pSARL_v2","pSARL_v23lm43epy","6282469ad58ff01f680ab3f8","fixation","img/fixation.png","null","","test","","","","","",""
"366.1000000005588","216859","pSARL_v2","pSARL_v23lm43epy","6282469ad58ff01f680ab3f8","freq","img/orange_2bandit_a2.png","70","70","test","1","80","80","4","",""
"null","217300","pSARL_v2","pSARL_v23lm43epy","6282469ad58ff01f680ab3f8","freq_resp","img/orange_2bandit_a.png","70","70","test","","","","4","",""
"null","217458","pSARL_v2","pSARL_v23lm43epy","6282469ad58ff01f680ab3f8","fixation","img/fixation.png","null","","test","","","","","",""
"351.59999999962747","217816","pSARL_v2","pSARL_v23lm43epy","6282469ad58ff01f680ab3f8","freq","img/orange_2bandit_a2.png","70","70","test","1","81","81","4","",""
"null","218278","pSARL_v2","pSARL_v23lm43epy","6282469ad58ff01f680ab3f8","freq_resp","img/orange_2bandit_a.png","70","70","test","","","","4","",""
"null","218437","pSARL_v2","pSARL_v23lm43epy","6282469ad58ff01f680ab3f8","fixation","img/fixation.png","null","","test","","","","","",""
"354.20000000018626","218798","pSARL_v2","pSARL_v23lm43epy","6282469ad58ff01f680ab3f8","freq","img/orange_2bandit_a2.png","70","70","test","1","82","82","4","",""
"null","219254","pSARL_v2","pSARL_v23lm43epy","6282469ad58ff01f680ab3f8","freq_resp","img/orange_2bandit_a.png","70","70","test","","","","4","",""
"null","219414","pSARL_v2","pSARL_v23lm43epy","6282469ad58ff01f680ab3f8","fixation","img/fixation.png","null","","test","","","","","",""
"407.29999999981374","219829","pSARL_v2","pSARL_v23lm43epy","6282469ad58ff01f680ab3f8","freq","img/orange_2bandit_a2.png","70","70","test","1","83","83","4","",""
"null","220230","pSARL_v2","pSARL_v23lm43epy","6282469ad58ff01f680ab3f8","freq_resp","img/orange_2bandit_a.png","70","70","test","","","","4","",""
"null","220389","pSARL_v2","pSARL_v23lm43epy","6282469ad58ff01f680ab3f8","fixation","img/fixation.png","null","","test","","","","","",""
"333.8999999994412","220730","pSARL_v2","pSARL_v23lm43epy","6282469ad58ff01f680ab3f8","freq","img/orange_2bandit_a2.png","70","70","test","1","84","84","4","",""
"null","221206","pSARL_v2","pSARL_v23lm43epy","6282469ad58ff01f680ab3f8","freq_resp","img/orange_2bandit_a.png","70","70","test","","","","4","",""
"null","221365","pSARL_v2","pSARL_v23lm43epy","6282469ad58ff01f680ab3f8","fixation","img/fixation.png","null","","test","","","","","",""
"393.6000000005588","221765","pSARL_v2","pSARL_v23lm43epy","6282469ad58ff01f680ab3f8","freq","img/orange_2bandit_a2.png","70","70","test","1","85","85","4","",""
"null","222181","pSARL_v2","pSARL_v23lm43epy","6282469ad58ff01f680ab3f8","freq_resp","img/orange_2bandit_a.png","70","70","test","","","","4","",""
"null","222342","pSARL_v2","pSARL_v23lm43epy","6282469ad58ff01f680ab3f8","fixation","img/fixation.png","null","","test","","","","","",""
"307.5","222657","pSARL_v2","pSARL_v23lm43epy","6282469ad58ff01f680ab3f8","freq","img/orange_2bandit_a2.png","70","70","test","1","86","86","4","",""
"null","223165","pSARL_v2","pSARL_v23lm43epy","6282469ad58ff01f680ab3f8","freq_resp","img/orange_2bandit_a.png","70","70","test","","","","4","",""
"null","223325","pSARL_v2","pSARL_v23lm43epy","6282469ad58ff01f680ab3f8","fixation","img/fixation.png","null","","test","","","","","",""
"1477","224810","pSARL_v2","pSARL_v23lm43epy","6282469ad58ff01f680ab3f8","reward","img/slot.png","74","","test","","","","","",""
"null","225573","pSARL_v2","pSARL_v23lm43epy","6282469ad58ff01f680ab3f8","points","<div class=""verylowPoints""> -3 </div>","null","na","test","","","","4","-3","3"
"null","226381","pSARL_v2","pSARL_v23lm43epy","6282469ad58ff01f680ab3f8","freq","img/orange_2bandit_a2.png","null","70","test","0","87","87","5","",""
"null","226541","pSARL_v2","pSARL_v23lm43epy","6282469ad58ff01f680ab3f8","fixation","img/fixation.png","null","","test","","","","","",""
"741.4000000003725","227289","pSARL_v2","pSARL_v23lm43epy","6282469ad58ff01f680ab3f8","freq","img/orange_2bandit_a2.png","70","70","test","1","88","88","5","",""
"null","227357","pSARL_v2","pSARL_v23lm43epy","6282469ad58ff01f680ab3f8","freq_resp","img/orange_2bandit_a.png","70","70","test","","","","5","",""
"null","227517","pSARL_v2","pSARL_v23lm43epy","6282469ad58ff01f680ab3f8","fixation","img/fixation.png","null","","test","","","","","",""
"480.40000000037253","228005","pSARL_v2","pSARL_v23lm43epy","6282469ad58ff01f680ab3f8","infreq","img/green_2bandit_a2.png","68","68","test","1","89","89","5","",""
"null","228335","pSARL_v2","pSARL_v23lm43epy","6282469ad58ff01f680ab3f8","infreq_resp","img/green_2bandit_a.png","68","68","test","","","","5","",""
"null","228493","pSARL_v2","pSARL_v23lm43epy","6282469ad58ff01f680ab3f8","fixation","img/fixation.png","null","","test","","","","","",""
"478","228978","pSARL_v2","pSARL_v23lm43epy","6282469ad58ff01f680ab3f8","freq","img/orange_2bandit_a2.png","70","70","test","1","90","90","5","",""
"null","229309","pSARL_v2","pSARL_v23lm43epy","6282469ad58ff01f680ab3f8","freq_resp","img/orange_2bandit_a.png","70","70","test","","","","5","",""
"null","229469","pSARL_v2","pSARL_v23lm43epy","6282469ad58ff01f680ab3f8","fixation","img/fixation.png","null","","test","","","","","",""
"762.5","230239","pSARL_v2","pSARL_v23lm43epy","6282469ad58ff01f680ab3f8","freq","img/orange_2bandit_a2.png","70","70","test","1","91","91","5","",""
"null","230285","pSARL_v2","pSARL_v23lm43epy","6282469ad58ff01f680ab3f8","freq_resp","img/orange_2bandit_a.png","70","70","test","","","","5","",""
"null","230444","pSARL_v2","pSARL_v23lm43epy","6282469ad58ff01f680ab3f8","fixation","img/fixation.png","null","","test","","","","","",""
"625.5999999996275","231076","pSARL_v2","pSARL_v23lm43epy","6282469ad58ff01f680ab3f8","freq","img/orange_2bandit_a2.png","70","70","test","1","92","92","5","",""
"null","231262","pSARL_v2","pSARL_v23lm43epy","6282469ad58ff01f680ab3f8","freq_resp","img/orange_2bandit_a.png","70","70","test","","","","5","",""
"null","231421","pSARL_v2","pSARL_v23lm43epy","6282469ad58ff01f680ab3f8","fixation","img/fixation.png","null","","test","","","","","",""
"468.1000000005588","231897","pSARL_v2","pSARL_v23lm43epy","6282469ad58ff01f680ab3f8","freq","img/orange_2bandit_a2.png","70","70","test","1","93","93","5","",""
"null","232237","pSARL_v2","pSARL_v23lm43epy","6282469ad58ff01f680ab3f8","freq_resp","img/orange_2bandit_a.png","70","70","test","","","","5","",""
"null","232397","pSARL_v2","pSARL_v23lm43epy","6282469ad58ff01f680ab3f8","fixation","img/fixation.png","null","","test","","","","","",""
"432.40000000037253","232838","pSARL_v2","pSARL_v23lm43epy","6282469ad58ff01f680ab3f8","freq","img/orange_2bandit_a2.png","70","70","test","1","94","94","5","",""
"null","233213","pSARL_v2","pSARL_v23lm43epy","6282469ad58ff01f680ab3f8","freq_resp","img/orange_2bandit_a.png","70","70","test","","","","5","",""
"null","233373","pSARL_v2","pSARL_v23lm43epy","6282469ad58ff01f680ab3f8","fixation","img/fixation.png","null","","test","","","","","",""
"386.09999999962747","233767","pSARL_v2","pSARL_v23lm43epy","6282469ad58ff01f680ab3f8","freq","img/orange_2bandit_a2.png","70","70","test","1","95","95","5","",""
"null","234189","pSARL_v2","pSARL_v23lm43epy","6282469ad58ff01f680ab3f8","freq_resp","img/orange_2bandit_a.png","70","70","test","","","","5","",""
"null","234350","pSARL_v2","pSARL_v23lm43epy","6282469ad58ff01f680ab3f8","fixation","img/fixation.png","null","","test","","","","","",""
"401.90000000037253","234760","pSARL_v2","pSARL_v23lm43epy","6282469ad58ff01f680ab3f8","freq","img/orange_2bandit_a2.png","70","70","test","1","96","96","5","",""
"null","235173","pSARL_v2","pSARL_v23lm43epy","6282469ad58ff01f680ab3f8","freq_resp","img/orange_2bandit_a.png","70","70","test","","","","5","",""
"null","235332","pSARL_v2","pSARL_v23lm43epy","6282469ad58ff01f680ab3f8","fixation","img/fixation.png","null","","test","","","","","",""
"485.09999999962747","235824","pSARL_v2","pSARL_v23lm43epy","6282469ad58ff01f680ab3f8","freq","img/orange_2bandit_a2.png","70","70","test","1","97","97","5","",""
"null","236150","pSARL_v2","pSARL_v23lm43epy","6282469ad58ff01f680ab3f8","freq_resp","img/orange_2bandit_a.png","70","70","test","","","","5","",""
"null","236309","pSARL_v2","pSARL_v23lm43epy","6282469ad58ff01f680ab3f8","fixation","img/fixation.png","null","","test","","","","","",""
"392.09999999962747","236708","pSARL_v2","pSARL_v23lm43epy","6282469ad58ff01f680ab3f8","freq","img/orange_2bandit_a2.png","70","70","test","1","98","98","5","",""
"null","237122","pSARL_v2","pSARL_v23lm43epy","6282469ad58ff01f680ab3f8","freq_resp","img/orange_2bandit_a.png","70","70","test","","","","5","",""
"null","237284","pSARL_v2","pSARL_v23lm43epy","6282469ad58ff01f680ab3f8","fixation","img/fixation.png","null","","test","","","","","",""
"377","237669","pSARL_v2","pSARL_v23lm43epy","6282469ad58ff01f680ab3f8","freq","img/orange_2bandit_a2.png","70","70","test","1","99","99","5","",""
"null","238101","pSARL_v2","pSARL_v23lm43epy","6282469ad58ff01f680ab3f8","freq_resp","img/orange_2bandit_a.png","70","70","test","","","","5","",""
"null","238260","pSARL_v2","pSARL_v23lm43epy","6282469ad58ff01f680ab3f8","fixation","img/fixation.png","null","","test","","","","","",""
"328.19999999925494","238596","pSARL_v2","pSARL_v23lm43epy","6282469ad58ff01f680ab3f8","freq","img/orange_2bandit_a2.png","70","70","test","1","100","100","5","",""
"null","239077","pSARL_v2","pSARL_v23lm43epy","6282469ad58ff01f680ab3f8","freq_resp","img/orange_2bandit_a.png","70","70","test","","","","5","",""
"null","239237","pSARL_v2","pSARL_v23lm43epy","6282469ad58ff01f680ab3f8","fixation","img/fixation.png","null","","test","","","","","",""
"385","239630","pSARL_v2","pSARL_v23lm43epy","6282469ad58ff01f680ab3f8","freq","img/orange_2bandit_a2.png","70","70","test","1","101","101","5","",""
"null","240053","pSARL_v2","pSARL_v23lm43epy","6282469ad58ff01f680ab3f8","freq_resp","img/orange_2bandit_a.png","70","70","test","","","","5","",""
"null","240213","pSARL_v2","pSARL_v23lm43epy","6282469ad58ff01f680ab3f8","fixation","img/fixation.png","null","","test","","","","","",""
"357.90000000037253","240578","pSARL_v2","pSARL_v23lm43epy","6282469ad58ff01f680ab3f8","freq","img/orange_2bandit_a2.png","70","70","test","1","102","102","5","",""
"null","241028","pSARL_v2","pSARL_v23lm43epy","6282469ad58ff01f680ab3f8","freq_resp","img/orange_2bandit_a.png","70","70","test","","","","5","",""
"null","241189","pSARL_v2","pSARL_v23lm43epy","6282469ad58ff01f680ab3f8","fixation","img/fixation.png","null","","test","","","","","",""
"322.5","241518","pSARL_v2","pSARL_v23lm43epy","6282469ad58ff01f680ab3f8","freq","img/orange_2bandit_a2.png","70","70","test","1","103","103","5","",""
"null","242006","pSARL_v2","pSARL_v23lm43epy","6282469ad58ff01f680ab3f8","freq_resp","img/orange_2bandit_a.png","70","70","test","","","","5","",""
"null","242166","pSARL_v2","pSARL_v23lm43epy","6282469ad58ff01f680ab3f8","fixation","img/fixation.png","null","","test","","","","","",""
"434.3999999994412","242606","pSARL_v2","pSARL_v23lm43epy","6282469ad58ff01f680ab3f8","infreq","img/green_2bandit_a2.png","68","68","test","1","104","104","5","",""
"null","242982","pSARL_v2","pSARL_v23lm43epy","6282469ad58ff01f680ab3f8","infreq_resp","img/green_2bandit_a.png","68","68","test","","","","5","",""
"null","243141","pSARL_v2","pSARL_v23lm43epy","6282469ad58ff01f680ab3f8","fixation","img/fixation.png","null","","test","","","","","",""
"424.79999999981374","243573","pSARL_v2","pSARL_v23lm43epy","6282469ad58ff01f680ab3f8","freq","img/orange_2bandit_a2.png","70","70","test","1","105","105","5","",""
"null","243958","pSARL_v2","pSARL_v23lm43epy","6282469ad58ff01f680ab3f8","freq_resp","img/orange_2bandit_a.png","70","70","test","","","","5","",""
"null","244118","pSARL_v2","pSARL_v23lm43epy","6282469ad58ff01f680ab3f8","fixation","img/fixation.png","null","","test","","","","","",""
"285","244411","pSARL_v2","pSARL_v23lm43epy","6282469ad58ff01f680ab3f8","freq","img/orange_2bandit_a2.png","70","70","test","1","106","106","5","",""
"null","244938","pSARL_v2","pSARL_v23lm43epy","6282469ad58ff01f680ab3f8","freq_resp","img/orange_2bandit_a.png","70","70","test","","","","5","",""
"null","245101","pSARL_v2","pSARL_v23lm43epy","6282469ad58ff01f680ab3f8","fixation","img/fixation.png","null","","test","","","","","",""
"279.8999999994412","245388","pSARL_v2","pSARL_v23lm43epy","6282469ad58ff01f680ab3f8","freq","img/orange_2bandit_a2.png","70","70","test","1","107","107","5","",""
"null","245917","pSARL_v2","pSARL_v23lm43epy","6282469ad58ff01f680ab3f8","freq_resp","img/orange_2bandit_a.png","70","70","test","","","","5","",""
"null","246078","pSARL_v2","pSARL_v23lm43epy","6282469ad58ff01f680ab3f8","fixation","img/fixation.png","null","","test","","","","","",""
"155.8999999994412","246243","pSARL_v2","pSARL_v23lm43epy","6282469ad58ff01f680ab3f8","freq","img/orange_2bandit_a2.png","70","70","test","1","108","108","5","",""
"null","246901","pSARL_v2","pSARL_v23lm43epy","6282469ad58ff01f680ab3f8","freq_resp","img/orange_2bandit_a.png","70","70","test","","","","5","",""
"null","247061","pSARL_v2","pSARL_v23lm43epy","6282469ad58ff01f680ab3f8","fixation","img/fixation.png","null","","test","","","","","",""
"942.5999999996275","248011","pSARL_v2","pSARL_v23lm43epy","6282469ad58ff01f680ab3f8","reward","img/slot.png","74","","test","","","","","",""
"null","248772","pSARL_v2","pSARL_v23lm43epy","6282469ad58ff01f680ab3f8","points","<div class=""veryhighPoints""> +1 </div>","null","na","test","","","","5","1","4"
"755.8999999994412","249534","pSARL_v2","pSARL_v23lm43epy","6282469ad58ff01f680ab3f8","freq","img/orange_2bandit_a2.png","70","70","test","1","109","109","6","",""
"null","249589","pSARL_v2","pSARL_v23lm43epy","6282469ad58ff01f680ab3f8","freq_resp","img/orange_2bandit_a.png","70","70","test","","","","6","",""
"null","249749","pSARL_v2","pSARL_v23lm43epy","6282469ad58ff01f680ab3f8","fixation","img/fixation.png","null","","test","","","","","",""
"518","250274","pSARL_v2","pSARL_v23lm43epy","6282469ad58ff01f680ab3f8","freq","img/orange_2bandit_a2.png","70","70","test","1","110","110","6","",""
"null","250563","pSARL_v2","pSARL_v23lm43epy","6282469ad58ff01f680ab3f8","freq_resp","img/orange_2bandit_a.png","70","70","test","","","","6","",""
"null","250725","pSARL_v2","pSARL_v23lm43epy","6282469ad58ff01f680ab3f8","fixation","img/fixation.png","null","","test","","","","","",""
"385.8999999994412","251118","pSARL_v2","pSARL_v23lm43epy","6282469ad58ff01f680ab3f8","freq","img/orange_2bandit_a2.png","70","70","test","1","111","111","6","",""
"null","251542","pSARL_v2","pSARL_v23lm43epy","6282469ad58ff01f680ab3f8","freq_resp","img/orange_2bandit_a.png","70","70","test","","","","6","",""
"null","251701","pSARL_v2","pSARL_v23lm43epy","6282469ad58ff01f680ab3f8","fixation","img/fixation.png","null","","test","","","","","",""
"610.2999999998137","252319","pSARL_v2","pSARL_v23lm43epy","6282469ad58ff01f680ab3f8","infreq","img/green_2bandit_a2.png","68","68","test","1","112","112","6","",""
"null","252518","pSARL_v2","pSARL_v23lm43epy","6282469ad58ff01f680ab3f8","infreq_resp","img/green_2bandit_a.png","68","68","test","","","","6","",""
"null","252677","pSARL_v2","pSARL_v23lm43epy","6282469ad58ff01f680ab3f8","fixation","img/fixation.png","null","","test","","","","","",""
"420.59999999962747","253105","pSARL_v2","pSARL_v23lm43epy","6282469ad58ff01f680ab3f8","freq","img/orange_2bandit_a2.png","70","70","test","1","113","113","6","",""
"null","253494","pSARL_v2","pSARL_v23lm43epy","6282469ad58ff01f680ab3f8","freq_resp","img/orange_2bandit_a.png","70","70","test","","","","6","",""
"null","253654","pSARL_v2","pSARL_v23lm43epy","6282469ad58ff01f680ab3f8","fixation","img/fixation.png","null","","test","","","","","",""
"309.20000000018626","253971","pSARL_v2","pSARL_v23lm43epy","6282469ad58ff01f680ab3f8","freq","img/orange_2bandit_a2.png","70","70","test","1","114","114","6","",""
"null","254466","pSARL_v2","pSARL_v23lm43epy","6282469ad58ff01f680ab3f8","freq_resp","img/orange_2bandit_a.png","70","70","test","","","","6","",""
"null","254629","pSARL_v2","pSARL_v23lm43epy","6282469ad58ff01f680ab3f8","fixation","img/fixation.png","null","","test","","","","","",""
"280.5","254917","pSARL_v2","pSARL_v23lm43epy","6282469ad58ff01f680ab3f8","freq","img/orange_2bandit_a2.png","70","70","test","1","115","115","6","",""
"null","255445","pSARL_v2","pSARL_v23lm43epy","6282469ad58ff01f680ab3f8","freq_resp","img/orange_2bandit_a.png","70","70","test","","","","6","",""
"null","255605","pSARL_v2","pSARL_v23lm43epy","6282469ad58ff01f680ab3f8","fixation","img/fixation.png","null","","test","","","","","",""
"330.29999999981374","255941","pSARL_v2","pSARL_v23lm43epy","6282469ad58ff01f680ab3f8","freq","img/orange_2bandit_a2.png","70","70","test","1","116","116","6","",""
"null","256422","pSARL_v2","pSARL_v23lm43epy","6282469ad58ff01f680ab3f8","freq_resp","img/orange_2bandit_a.png","70","70","test","","","","6","",""
"null","256581","pSARL_v2","pSARL_v23lm43epy","6282469ad58ff01f680ab3f8","fixation","img/fixation.png","null","","test","","","","","",""
"323.5","256912","pSARL_v2","pSARL_v23lm43epy","6282469ad58ff01f680ab3f8","freq","img/orange_2bandit_a2.png","70","70","test","1","117","117","6","",""
"null","257396","pSARL_v2","pSARL_v23lm43epy","6282469ad58ff01f680ab3f8","freq_resp","img/orange_2bandit_a.png","70","70","test","","","","6","",""
"null","257558","pSARL_v2","pSARL_v23lm43epy","6282469ad58ff01f680ab3f8","fixation","img/fixation.png","null","","test","","","","","",""
"336.3999999994412","257901","pSARL_v2","pSARL_v23lm43epy","6282469ad58ff01f680ab3f8","freq","img/orange_2bandit_a2.png","70","70","test","1","118","118","6","",""
"null","258373","pSARL_v2","pSARL_v23lm43epy","6282469ad58ff01f680ab3f8","freq_resp","img/orange_2bandit_a.png","70","70","test","","","","6","",""
"null","258532","pSARL_v2","pSARL_v23lm43epy","6282469ad58ff01f680ab3f8","fixation","img/fixation.png","null","","test","","","","","",""
"426.3999999994412","258965","pSARL_v2","pSARL_v23lm43epy","6282469ad58ff01f680ab3f8","freq","img/orange_2bandit_a2.png","70","70","test","1","119","119","6","",""
"null","259351","pSARL_v2","pSARL_v23lm43epy","6282469ad58ff01f680ab3f8","freq_resp","img/orange_2bandit_a.png","70","70","test","","","","6","",""
"null","259509","pSARL_v2","pSARL_v23lm43epy","6282469ad58ff01f680ab3f8","fixation","img/fixation.png","null","","test","","","","","",""
"402.70000000018626","259920","pSARL_v2","pSARL_v23lm43epy","6282469ad58ff01f680ab3f8","freq","img/orange_2bandit_a2.png","70","70","test","1","120","120","6","",""
"null","260334","pSARL_v2","pSARL_v23lm43epy","6282469ad58ff01f680ab3f8","freq_resp","img/orange_2bandit_a.png","70","70","test","","","","6","",""
"null","260492","pSARL_v2","pSARL_v23lm43epy","6282469ad58ff01f680ab3f8","fixation","img/fixation.png","null","","test","","","","","",""
"343","260842","pSARL_v2","pSARL_v23lm43epy","6282469ad58ff01f680ab3f8","freq","img/orange_2bandit_a2.png","70","70","test","1","121","121","6","",""
"null","261308","pSARL_v2","pSARL_v23lm43epy","6282469ad58ff01f680ab3f8","freq_resp","img/orange_2bandit_a.png","70","70","test","","","","6","",""
"null","261469","pSARL_v2","pSARL_v23lm43epy","6282469ad58ff01f680ab3f8","fixation","img/fixation.png","null","","test","","","","","",""
"343.6000000005588","261821","pSARL_v2","pSARL_v23lm43epy","6282469ad58ff01f680ab3f8","freq","img/orange_2bandit_a2.png","70","70","test","1","122","122","6","",""
"null","262285","pSARL_v2","pSARL_v23lm43epy","6282469ad58ff01f680ab3f8","freq_resp","img/orange_2bandit_a.png","70","70","test","","","","6","",""
"null","262445","pSARL_v2","pSARL_v23lm43epy","6282469ad58ff01f680ab3f8","fixation","img/fixation.png","null","","test","","","","","",""
"538.2999999998137","262991","pSARL_v2","pSARL_v23lm43epy","6282469ad58ff01f680ab3f8","infreq","img/green_2bandit_a2.png","68","68","test","1","123","123","6","",""
"null","263263","pSARL_v2","pSARL_v23lm43epy","6282469ad58ff01f680ab3f8","infreq_resp","img/green_2bandit_a.png","68","68","test","","","","6","",""
"null","263420","pSARL_v2","pSARL_v23lm43epy","6282469ad58ff01f680ab3f8","fixation","img/fixation.png","null","","test","","","","","",""
"326.19999999925494","263754","pSARL_v2","pSARL_v23lm43epy","6282469ad58ff01f680ab3f8","freq","img/orange_2bandit_a2.png","70","70","test","1","124","124","6","",""
"null","264236","pSARL_v2","pSARL_v23lm43epy","6282469ad58ff01f680ab3f8","freq_resp","img/orange_2bandit_a.png","70","70","test","","","","6","",""
"null","264398","pSARL_v2","pSARL_v23lm43epy","6282469ad58ff01f680ab3f8","fixation","img/fixation.png","null","","test","","","","","",""
"348.79999999981374","264754","pSARL_v2","pSARL_v23lm43epy","6282469ad58ff01f680ab3f8","freq","img/orange_2bandit_a2.png","70","70","test","1","125","125","6","",""
"null","265212","pSARL_v2","pSARL_v23lm43epy","6282469ad58ff01f680ab3f8","freq_resp","img/orange_2bandit_a.png","70","70","test","","","","6","",""
"null","265373","pSARL_v2","pSARL_v23lm43epy","6282469ad58ff01f680ab3f8","fixation","img/fixation.png","null","","test","","","","","",""
"405.70000000018626","265788","pSARL_v2","pSARL_v23lm43epy","6282469ad58ff01f680ab3f8","freq","img/orange_2bandit_a2.png","70","70","test","1","126","126","6","",""
"null","266198","pSARL_v2","pSARL_v23lm43epy","6282469ad58ff01f680ab3f8","freq_resp","img/orange_2bandit_a.png","70","70","test","","","","6","",""
"null","266358","pSARL_v2","pSARL_v23lm43epy","6282469ad58ff01f680ab3f8","fixation","img/fixation.png","null","","test","","","","","",""
"389.5","266755","pSARL_v2","pSARL_v23lm43epy","6282469ad58ff01f680ab3f8","freq","img/orange_2bandit_a2.png","70","70","test","1","127","127","6","",""
"null","267174","pSARL_v2","pSARL_v23lm43epy","6282469ad58ff01f680ab3f8","freq_resp","img/orange_2bandit_a.png","70","70","test","","","","6","",""
"null","267333","pSARL_v2","pSARL_v23lm43epy","6282469ad58ff01f680ab3f8","fixation","img/fixation.png","null","","test","","","","","",""
"328.20000000018626","267668","pSARL_v2","pSARL_v23lm43epy","6282469ad58ff01f680ab3f8","freq","img/orange_2bandit_a2.png","70","70","test","1","128","128","6","",""
"null","268149","pSARL_v2","pSARL_v23lm43epy","6282469ad58ff01f680ab3f8","freq_resp","img/orange_2bandit_a.png","70","70","test","","","","6","",""
"null","268309","pSARL_v2","pSARL_v23lm43epy","6282469ad58ff01f680ab3f8","fixation","img/fixation.png","null","","test","","","","","",""
"488.09999999962747","268803","pSARL_v2","pSARL_v23lm43epy","6282469ad58ff01f680ab3f8","reward","img/slot.png","74","","test","","","","","",""
"null","269564","pSARL_v2","pSARL_v23lm43epy","6282469ad58ff01f680ab3f8","points","<div class=""verylowPoints""> -7 </div>","null","na","test","","","","6","-7","5"
"678","270250","pSARL_v2","pSARL_v23lm43epy","6282469ad58ff01f680ab3f8","freq","img/orange_2bandit_a2.png","70","70","test","1","129","129","7","",""
"null","270381","pSARL_v2","pSARL_v23lm43epy","6282469ad58ff01f680ab3f8","freq_resp","img/orange_2bandit_a.png","70","70","test","","","","7","",""
"null","270541","pSARL_v2","pSARL_v23lm43epy","6282469ad58ff01f680ab3f8","fixation","img/fixation.png","null","","test","","","","","",""
"313.59999999962747","270862","pSARL_v2","pSARL_v23lm43epy","6282469ad58ff01f680ab3f8","freq","img/orange_2bandit_a2.png","70","70","test","1","130","130","7","",""
"null","271358","pSARL_v2","pSARL_v23lm43epy","6282469ad58ff01f680ab3f8","freq_resp","img/orange_2bandit_a.png","70","70","test","","","","7","",""
"null","271517","pSARL_v2","pSARL_v23lm43epy","6282469ad58ff01f680ab3f8","fixation","img/fixation.png","null","","test","","","","","",""
"0.20000000018626451","271522","pSARL_v2","pSARL_v23lm43epy","6282469ad58ff01f680ab3f8","freq","img/orange_2bandit_a2.png","70","70","test","1","131","131","7","",""
"null","272334","pSARL_v2","pSARL_v23lm43epy","6282469ad58ff01f680ab3f8","freq_resp","img/orange_2bandit_a.png","70","70","test","","","","7","",""
"null","272493","pSARL_v2","pSARL_v23lm43epy","6282469ad58ff01f680ab3f8","fixation","img/fixation.png","null","","test","","","","","",""
"6.400000000372529","272508","pSARL_v2","pSARL_v23lm43epy","6282469ad58ff01f680ab3f8","freq","img/orange_2bandit_a2.png","70","70","test","1","132","132","7","",""
"null","273316","pSARL_v2","pSARL_v23lm43epy","6282469ad58ff01f680ab3f8","freq_resp","img/orange_2bandit_a.png","70","70","test","","","","7","",""
"null","273478","pSARL_v2","pSARL_v23lm43epy","6282469ad58ff01f680ab3f8","fixation","img/fixation.png","null","","test","","","","","",""
"351.6000000005588","273837","pSARL_v2","pSARL_v23lm43epy","6282469ad58ff01f680ab3f8","freq","img/orange_2bandit_a2.png","70","70","test","1","133","133","7","",""
"null","274293","pSARL_v2","pSARL_v23lm43epy","6282469ad58ff01f680ab3f8","freq_resp","img/orange_2bandit_a.png","70","70","test","","","","7","",""
"null","274453","pSARL_v2","pSARL_v23lm43epy","6282469ad58ff01f680ab3f8","fixation","img/fixation.png","null","","test","","","","","",""
"309.09999999962747","274770","pSARL_v2","pSARL_v23lm43epy","6282469ad58ff01f680ab3f8","freq","img/orange_2bandit_a2.png","70","70","test","1","134","134","7","",""
"null","275270","pSARL_v2","pSARL_v23lm43epy","6282469ad58ff01f680ab3f8","freq_resp","img/orange_2bandit_a.png","70","70","test","","","","7","",""
"null","275429","pSARL_v2","pSARL_v23lm43epy","6282469ad58ff01f680ab3f8","fixation","img/fixation.png","null","","test","","","","","",""
"328.8999999994412","275765","pSARL_v2","pSARL_v23lm43epy","6282469ad58ff01f680ab3f8","freq","img/orange_2bandit_a2.png","70","70","test","1","135","135","7","",""
"null","276246","pSARL_v2","pSARL_v23lm43epy","6282469ad58ff01f680ab3f8","freq_resp","img/orange_2bandit_a.png","70","70","test","","","","7","",""
"null","276405","pSARL_v2","pSARL_v23lm43epy","6282469ad58ff01f680ab3f8","fixation","img/fixation.png","null","","test","","","","","",""
"326.29999999981374","276739","pSARL_v2","pSARL_v23lm43epy","6282469ad58ff01f680ab3f8","freq","img/orange_2bandit_a2.png","70","70","test","1","136","136","7","",""
"null","277222","pSARL_v2","pSARL_v23lm43epy","6282469ad58ff01f680ab3f8","freq_resp","img/orange_2bandit_a.png","70","70","test","","","","7","",""
"null","277381","pSARL_v2","pSARL_v23lm43epy","6282469ad58ff01f680ab3f8","fixation","img/fixation.png","null","","test","","","","","",""
"282.1000000005588","277670","pSARL_v2","pSARL_v23lm43epy","6282469ad58ff01f680ab3f8","freq","img/orange_2bandit_a2.png","70","70","test","1","137","137","7","",""
"null","278198","pSARL_v2","pSARL_v23lm43epy","6282469ad58ff01f680ab3f8","freq_resp","img/orange_2bandit_a.png","70","70","test","","","","7","",""
"null","278357","pSARL_v2","pSARL_v23lm43epy","6282469ad58ff01f680ab3f8","fixation","img/fixation.png","null","","test","","","","","",""
"175.5","278540","pSARL_v2","pSARL_v23lm43epy","6282469ad58ff01f680ab3f8","freq","img/orange_2bandit_a2.png","70","70","test","1","138","138","7","",""
"null","279173","pSARL_v2","pSARL_v23lm43epy","6282469ad58ff01f680ab3f8","freq_resp","img/orange_2bandit_a.png","70","70","test","","","","7","",""
"null","279333","pSARL_v2","pSARL_v23lm43epy","6282469ad58ff01f680ab3f8","fixation","img/fixation.png","null","","test","","","","","",""
"363","279704","pSARL_v2","pSARL_v23lm43epy","6282469ad58ff01f680ab3f8","freq","img/orange_2bandit_a2.png","70","70","test","1","139","139","7","",""
"null","280150","pSARL_v2","pSARL_v23lm43epy","6282469ad58ff01f680ab3f8","freq_resp","img/orange_2bandit_a.png","70","70","test","","","","7","",""
"null","280310","pSARL_v2","pSARL_v23lm43epy","6282469ad58ff01f680ab3f8","fixation","img/fixation.png","null","","test","","","","","",""
"241.3999999994412","280560","pSARL_v2","pSARL_v23lm43epy","6282469ad58ff01f680ab3f8","freq","img/orange_2bandit_a2.png","70","70","test","1","140","140","7","",""
"null","281134","pSARL_v2","pSARL_v23lm43epy","6282469ad58ff01f680ab3f8","freq_resp","img/orange_2bandit_a.png","70","70","test","","","","7","",""
"null","281293","pSARL_v2","pSARL_v23lm43epy","6282469ad58ff01f680ab3f8","fixation","img/fixation.png","null","","test","","","","","",""
"125.30000000074506","281426","pSARL_v2","pSARL_v23lm43epy","6282469ad58ff01f680ab3f8","freq","img/orange_2bandit_a2.png","70","70","test","1","141","141","7","",""
"null","282109","pSARL_v2","pSARL_v23lm43epy","6282469ad58ff01f680ab3f8","freq_resp","img/orange_2bandit_a.png","70","70","test","","","","7","",""
"null","282269","pSARL_v2","pSARL_v23lm43epy","6282469ad58ff01f680ab3f8","fixation","img/fixation.png","null","","test","","","","","",""
"99.5","282377","pSARL_v2","pSARL_v23lm43epy","6282469ad58ff01f680ab3f8","freq","img/orange_2bandit_a2.png","70","70","test","1","142","142","7","",""
"null","283086","pSARL_v2","pSARL_v23lm43epy","6282469ad58ff01f680ab3f8","freq_resp","img/orange_2bandit_a.png","70","70","test","","","","7","",""
"null","283245","pSARL_v2","pSARL_v23lm43epy","6282469ad58ff01f680ab3f8","fixation","img/fixation.png","null","","test","","","","","",""
"198.59999999962747","283451","pSARL_v2","pSARL_v23lm43epy","6282469ad58ff01f680ab3f8","infreq","img/green_2bandit_a2.png","70","68","test","0","143","143","7","",""
"null","284060","pSARL_v2","pSARL_v23lm43epy","6282469ad58ff01f680ab3f8","infreq_resp","img/green_2bandit_a.png","70","68","test","","","","7","",""
"null","284222","pSARL_v2","pSARL_v23lm43epy","6282469ad58ff01f680ab3f8","fixation","img/fixation.png","null","","test","","","","","",""
"413.29999999981374","284644","pSARL_v2","pSARL_v23lm43epy","6282469ad58ff01f680ab3f8","freq","img/orange_2bandit_a2.png","70","70","test","1","144","144","7","",""
"null","285038","pSARL_v2","pSARL_v23lm43epy","6282469ad58ff01f680ab3f8","freq_resp","img/orange_2bandit_a.png","70","70","test","","","","7","",""
"null","285197","pSARL_v2","pSARL_v23lm43epy","6282469ad58ff01f680ab3f8","fixation","img/fixation.png","null","","test","","","","","",""
"438.90000000037253","285643","pSARL_v2","pSARL_v23lm43epy","6282469ad58ff01f680ab3f8","freq","img/orange_2bandit_a2.png","70","70","test","1","145","145","7","",""
"null","286013","pSARL_v2","pSARL_v23lm43epy","6282469ad58ff01f680ab3f8","freq_resp","img/orange_2bandit_a.png","70","70","test","","","","7","",""
"null","286174","pSARL_v2","pSARL_v23lm43epy","6282469ad58ff01f680ab3f8","fixation","img/fixation.png","null","","test","","","","","",""
"321","286501","pSARL_v2","pSARL_v23lm43epy","6282469ad58ff01f680ab3f8","freq","img/orange_2bandit_a2.png","70","70","test","1","146","146","7","",""
"null","286988","pSARL_v2","pSARL_v23lm43epy","6282469ad58ff01f680ab3f8","freq_resp","img/orange_2bandit_a.png","70","70","test","","","","7","",""
"null","287149","pSARL_v2","pSARL_v23lm43epy","6282469ad58ff01f680ab3f8","fixation","img/fixation.png","null","","test","","","","","",""
"246.20000000018626","287403","pSARL_v2","pSARL_v23lm43epy","6282469ad58ff01f680ab3f8","freq","img/orange_2bandit_a2.png","70","70","test","1","147","147","7","",""
"null","287965","pSARL_v2","pSARL_v23lm43epy","6282469ad58ff01f680ab3f8","freq_resp","img/orange_2bandit_a.png","70","70","test","","","","7","",""
"null","288126","pSARL_v2","pSARL_v23lm43epy","6282469ad58ff01f680ab3f8","fixation","img/fixation.png","null","","test","","","","","",""
"285.40000000037253","288420","pSARL_v2","pSARL_v23lm43epy","6282469ad58ff01f680ab3f8","freq","img/orange_2bandit_a2.png","70","70","test","1","148","148","7","",""
"null","288950","pSARL_v2","pSARL_v23lm43epy","6282469ad58ff01f680ab3f8","freq_resp","img/orange_2bandit_a.png","70","70","test","","","","7","",""
"null","289106","pSARL_v2","pSARL_v23lm43epy","6282469ad58ff01f680ab3f8","fixation","img/fixation.png","null","","test","","","","","",""
"215.09999999962747","289327","pSARL_v2","pSARL_v23lm43epy","6282469ad58ff01f680ab3f8","infreq","img/green_2bandit_a2.png","70","68","test","0","149","149","7","",""
"null","289925","pSARL_v2","pSARL_v23lm43epy","6282469ad58ff01f680ab3f8","infreq_resp","img/green_2bandit_a.png","70","68","test","","","","7","",""
"null","290086","pSARL_v2","pSARL_v23lm43epy","6282469ad58ff01f680ab3f8","fixation","img/fixation.png","null","","test","","","","","",""
"511.70000000018626","290605","pSARL_v2","pSARL_v23lm43epy","6282469ad58ff01f680ab3f8","freq","img/orange_2bandit_a2.png","70","70","test","1","150","150","7","",""
"null","290899","pSARL_v2","pSARL_v23lm43epy","6282469ad58ff01f680ab3f8","freq_resp","img/orange_2bandit_a.png","70","70","test","","","","7","",""
"null","291061","pSARL_v2","pSARL_v23lm43epy","6282469ad58ff01f680ab3f8","fixation","img/fixation.png","null","","test","","","","","",""
"309","291377","pSARL_v2","pSARL_v23lm43epy","6282469ad58ff01f680ab3f8","freq","img/orange_2bandit_a2.png","70","70","test","1","151","151","7","",""
"null","291878","pSARL_v2","pSARL_v23lm43epy","6282469ad58ff01f680ab3f8","freq_resp","img/orange_2bandit_a.png","70","70","test","","","","7","",""
"null","292037","pSARL_v2","pSARL_v23lm43epy","6282469ad58ff01f680ab3f8","fixation","img/fixation.png","null","","test","","","","","",""
"291.90000000037253","292336","pSARL_v2","pSARL_v23lm43epy","6282469ad58ff01f680ab3f8","freq","img/orange_2bandit_a2.png","70","70","test","1","152","152","7","",""
"null","292853","pSARL_v2","pSARL_v23lm43epy","6282469ad58ff01f680ab3f8","freq_resp","img/orange_2bandit_a.png","70","70","test","","","","7","",""
"null","293014","pSARL_v2","pSARL_v23lm43epy","6282469ad58ff01f680ab3f8","fixation","img/fixation.png","null","","test","","","","","",""
"307.5","293328","pSARL_v2","pSARL_v23lm43epy","6282469ad58ff01f680ab3f8","freq","img/orange_2bandit_a2.png","70","70","test","1","153","153","7","",""
"null","293829","pSARL_v2","pSARL_v23lm43epy","6282469ad58ff01f680ab3f8","freq_resp","img/orange_2bandit_a.png","70","70","test","","","","7","",""
"null","293990","pSARL_v2","pSARL_v23lm43epy","6282469ad58ff01f680ab3f8","fixation","img/fixation.png","null","","test","","","","","",""
"341","294339","pSARL_v2","pSARL_v23lm43epy","6282469ad58ff01f680ab3f8","freq","img/orange_2bandit_a2.png","70","70","test","1","154","154","7","",""
"null","294814","pSARL_v2","pSARL_v23lm43epy","6282469ad58ff01f680ab3f8","freq_resp","img/orange_2bandit_a.png","70","70","test","","","","7","",""
"null","294974","pSARL_v2","pSARL_v23lm43epy","6282469ad58ff01f680ab3f8","fixation","img/fixation.png","null","","test","","","","","",""
"455.1000000005588","295436","pSARL_v2","pSARL_v23lm43epy","6282469ad58ff01f680ab3f8","reward","img/slot.png","74","","test","","","","","",""
"null","296198","pSARL_v2","pSARL_v23lm43epy","6282469ad58ff01f680ab3f8","points","<div class=""verylowPoints""> -6 </div>","null","na","test","","","","7","-6","6"
"640.7000000001863","296845","pSARL_v2","pSARL_v23lm43epy","6282469ad58ff01f680ab3f8","freq","img/orange_2bandit_a2.png","70","70","test","1","155","155","8","",""
"null","297015","pSARL_v2","pSARL_v23lm43epy","6282469ad58ff01f680ab3f8","freq_resp","img/orange_2bandit_a.png","70","70","test","","","","8","",""
"null","297181","pSARL_v2","pSARL_v23lm43epy","6282469ad58ff01f680ab3f8","fixation","img/fixation.png","null","","test","","","","","",""
"355","297544","pSARL_v2","pSARL_v23lm43epy","6282469ad58ff01f680ab3f8","freq","img/orange_2bandit_a2.png","70","70","test","1","156","156","8","",""
"null","297996","pSARL_v2","pSARL_v23lm43epy","6282469ad58ff01f680ab3f8","freq_resp","img/orange_2bandit_a.png","70","70","test","","","","8","",""
"null","298158","pSARL_v2","pSARL_v23lm43epy","6282469ad58ff01f680ab3f8","fixation","img/fixation.png","null","","test","","","","","",""
"612.7999999998137","298779","pSARL_v2","pSARL_v23lm43epy","6282469ad58ff01f680ab3f8","freq","img/orange_2bandit_a2.png","70","70","test","1","157","157","8","",""
"null","298981","pSARL_v2","pSARL_v23lm43epy","6282469ad58ff01f680ab3f8","freq_resp","img/orange_2bandit_a.png","70","70","test","","","","8","",""
"null","299142","pSARL_v2","pSARL_v23lm43epy","6282469ad58ff01f680ab3f8","fixation","img/fixation.png","null","","test","","","","","",""
"399","299546","pSARL_v2","pSARL_v23lm43epy","6282469ad58ff01f680ab3f8","freq","img/orange_2bandit_a2.png","70","70","test","1","158","158","8","",""
"null","299958","pSARL_v2","pSARL_v23lm43epy","6282469ad58ff01f680ab3f8","freq_resp","img/orange_2bandit_a.png","70","70","test","","","","8","",""
"null","300117","pSARL_v2","pSARL_v23lm43epy","6282469ad58ff01f680ab3f8","fixation","img/fixation.png","null","","test","","","","","",""
"332.69999999925494","300459","pSARL_v2","pSARL_v23lm43epy","6282469ad58ff01f680ab3f8","freq","img/orange_2bandit_a2.png","70","70","test","1","159","159","8","",""
"null","300934","pSARL_v2","pSARL_v23lm43epy","6282469ad58ff01f680ab3f8","freq_resp","img/orange_2bandit_a.png","70","70","test","","","","8","",""
"null","301091","pSARL_v2","pSARL_v23lm43epy","6282469ad58ff01f680ab3f8","fixation","img/fixation.png","null","","test","","","","","",""
"243.8999999994412","301343","pSARL_v2","pSARL_v23lm43epy","6282469ad58ff01f680ab3f8","infreq","img/green_2bandit_a2.png","70","68","test","0","160","160","8","",""
"null","301909","pSARL_v2","pSARL_v23lm43epy","6282469ad58ff01f680ab3f8","infreq_resp","img/green_2bandit_a.png","70","68","test","","","","8","",""
"null","302069","pSARL_v2","pSARL_v23lm43epy","6282469ad58ff01f680ab3f8","fixation","img/fixation.png","null","","test","","","","","",""
"360.20000000018626","302435","pSARL_v2","pSARL_v23lm43epy","6282469ad58ff01f680ab3f8","freq","img/orange_2bandit_a2.png","70","70","test","1","161","161","8","",""
"null","302886","pSARL_v2","pSARL_v23lm43epy","6282469ad58ff01f680ab3f8","freq_resp","img/orange_2bandit_a.png","70","70","test","","","","8","",""
"null","303046","pSARL_v2","pSARL_v23lm43epy","6282469ad58ff01f680ab3f8","fixation","img/fixation.png","null","","test","","","","","",""
"334.09999999962747","303387","pSARL_v2","pSARL_v23lm43epy","6282469ad58ff01f680ab3f8","freq","img/orange_2bandit_a2.png","70","70","test","1","162","162","8","",""
"null","303862","pSARL_v2","pSARL_v23lm43epy","6282469ad58ff01f680ab3f8","freq_resp","img/orange_2bandit_a.png","70","70","test","","","","8","",""
"null","304021","pSARL_v2","pSARL_v23lm43epy","6282469ad58ff01f680ab3f8","fixation","img/fixation.png","null","","test","","","","","",""
"335","304363","pSARL_v2","pSARL_v23lm43epy","6282469ad58ff01f680ab3f8","freq","img/orange_2bandit_a2.png","70","70","test","1","163","163","8","",""
"null","304837","pSARL_v2","pSARL_v23lm43epy","6282469ad58ff01f680ab3f8","freq_resp","img/orange_2bandit_a.png","70","70","test","","","","8","",""
"null","304998","pSARL_v2","pSARL_v23lm43epy","6282469ad58ff01f680ab3f8","fixation","img/fixation.png","null","","test","","","","","",""
"347.79999999981374","305354","pSARL_v2","pSARL_v23lm43epy","6282469ad58ff01f680ab3f8","freq","img/orange_2bandit_a2.png","70","70","test","1","164","164","8","",""
"null","305821","pSARL_v2","pSARL_v23lm43epy","6282469ad58ff01f680ab3f8","freq_resp","img/orange_2bandit_a.png","70","70","test","","","","8","",""
"null","305982","pSARL_v2","pSARL_v23lm43epy","6282469ad58ff01f680ab3f8","fixation","img/fixation.png","null","","test","","","","","",""
"315.30000000074506","306305","pSARL_v2","pSARL_v23lm43epy","6282469ad58ff01f680ab3f8","freq","img/orange_2bandit_a2.png","70","70","test","1","165","165","8","",""
"null","306795","pSARL_v2","pSARL_v23lm43epy","6282469ad58ff01f680ab3f8","freq_resp","img/orange_2bandit_a.png","70","70","test","","","","8","",""
"null","306958","pSARL_v2","pSARL_v23lm43epy","6282469ad58ff01f680ab3f8","fixation","img/fixation.png","null","","test","","","","","",""
"301.8999999994412","307267","pSARL_v2","pSARL_v23lm43epy","6282469ad58ff01f680ab3f8","freq","img/orange_2bandit_a2.png","70","70","test","1","166","166","8","",""
"null","307772","pSARL_v2","pSARL_v23lm43epy","6282469ad58ff01f680ab3f8","freq_resp","img/orange_2bandit_a.png","70","70","test","","","","8","",""
"null","307934","pSARL_v2","pSARL_v23lm43epy","6282469ad58ff01f680ab3f8","fixation","img/fixation.png","null","","test","","","","","",""
"273.59999999962747","308217","pSARL_v2","pSARL_v23lm43epy","6282469ad58ff01f680ab3f8","freq","img/orange_2bandit_a2.png","70","70","test","1","167","167","8","",""
"null","308754","pSARL_v2","pSARL_v23lm43epy","6282469ad58ff01f680ab3f8","freq_resp","img/orange_2bandit_a.png","70","70","test","","","","8","",""
"null","308918","pSARL_v2","pSARL_v23lm43epy","6282469ad58ff01f680ab3f8","fixation","img/fixation.png","null","","test","","","","","",""
"160.69999999925494","309087","pSARL_v2","pSARL_v23lm43epy","6282469ad58ff01f680ab3f8","freq","img/orange_2bandit_a2.png","70","70","test","1","168","168","8","",""
"null","309742","pSARL_v2","pSARL_v23lm43epy","6282469ad58ff01f680ab3f8","freq_resp","img/orange_2bandit_a.png","70","70","test","","","","8","",""
"null","309902","pSARL_v2","pSARL_v23lm43epy","6282469ad58ff01f680ab3f8","fixation","img/fixation.png","null","","test","","","","","",""
"304.40000000037253","310214","pSARL_v2","pSARL_v23lm43epy","6282469ad58ff01f680ab3f8","freq","img/orange_2bandit_a2.png","70","70","test","1","169","169","8","",""
"null","310718","pSARL_v2","pSARL_v23lm43epy","6282469ad58ff01f680ab3f8","freq_resp","img/orange_2bandit_a.png","70","70","test","","","","8","",""
"null","310877","pSARL_v2","pSARL_v23lm43epy","6282469ad58ff01f680ab3f8","fixation","img/fixation.png","null","","test","","","","","",""
"310.30000000074506","311196","pSARL_v2","pSARL_v23lm43epy","6282469ad58ff01f680ab3f8","freq","img/orange_2bandit_a2.png","70","70","test","1","170","170","8","",""
"null","311702","pSARL_v2","pSARL_v23lm43epy","6282469ad58ff01f680ab3f8","freq_resp","img/orange_2bandit_a.png","70","70","test","","","","8","",""
"null","311858","pSARL_v2","pSARL_v23lm43epy","6282469ad58ff01f680ab3f8","fixation","img/fixation.png","null","","test","","","","","",""
"512.7999999998137","312378","pSARL_v2","pSARL_v23lm43epy","6282469ad58ff01f680ab3f8","infreq","img/green_2bandit_a2.png","68","68","test","1","171","171","8","",""
"null","312677","pSARL_v2","pSARL_v23lm43epy","6282469ad58ff01f680ab3f8","infreq_resp","img/green_2bandit_a.png","68","68","test","","","","8","",""
"null","312837","pSARL_v2","pSARL_v23lm43epy","6282469ad58ff01f680ab3f8","fixation","img/fixation.png","null","","test","","","","","",""
"366.29999999981374","313212","pSARL_v2","pSARL_v23lm43epy","6282469ad58ff01f680ab3f8","freq","img/orange_2bandit_a2.png","70","70","test","1","172","172","8","",""
"null","313653","pSARL_v2","pSARL_v23lm43epy","6282469ad58ff01f680ab3f8","freq_resp","img/orange_2bandit_a.png","70","70","test","","","","8","",""
"null","313813","pSARL_v2","pSARL_v23lm43epy","6282469ad58ff01f680ab3f8","fixation","img/fixation.png","null","","test","","","","","",""
"281.5","314102","pSARL_v2","pSARL_v23lm43epy","6282469ad58ff01f680ab3f8","freq","img/orange_2bandit_a2.png","70","70","test","1","173","173","8","",""
"null","314630","pSARL_v2","pSARL_v23lm43epy","6282469ad58ff01f680ab3f8","freq_resp","img/orange_2bandit_a.png","70","70","test","","","","8","",""
"null","314787","pSARL_v2","pSARL_v23lm43epy","6282469ad58ff01f680ab3f8","fixation","img/fixation.png","null","","test","","","","","",""
"286.40000000037253","315082","pSARL_v2","pSARL_v23lm43epy","6282469ad58ff01f680ab3f8","freq","img/orange_2bandit_a2.png","70","70","test","1","174","174","8","",""
"null","315604","pSARL_v2","pSARL_v23lm43epy","6282469ad58ff01f680ab3f8","freq_resp","img/orange_2bandit_a.png","70","70","test","","","","8","",""
"null","315768","pSARL_v2","pSARL_v23lm43epy","6282469ad58ff01f680ab3f8","fixation","img/fixation.png","null","","test","","","","","",""
"299.30000000074506","316075","pSARL_v2","pSARL_v23lm43epy","6282469ad58ff01f680ab3f8","freq","img/orange_2bandit_a2.png","70","70","test","1","175","175","8","",""
"null","316590","pSARL_v2","pSARL_v23lm43epy","6282469ad58ff01f680ab3f8","freq_resp","img/orange_2bandit_a.png","70","70","test","","","","8","",""
"null","316749","pSARL_v2","pSARL_v23lm43epy","6282469ad58ff01f680ab3f8","fixation","img/fixation.png","null","","test","","","","","",""
"303.6000000005588","317061","pSARL_v2","pSARL_v23lm43epy","6282469ad58ff01f680ab3f8","freq","img/orange_2bandit_a2.png","70","70","test","1","176","176","8","",""
"null","317566","pSARL_v2","pSARL_v23lm43epy","6282469ad58ff01f680ab3f8","freq_resp","img/orange_2bandit_a.png","70","70","test","","","","8","",""
"null","317725","pSARL_v2","pSARL_v23lm43epy","6282469ad58ff01f680ab3f8","fixation","img/fixation.png","null","","test","","","","","",""
"532","318264","pSARL_v2","pSARL_v23lm43epy","6282469ad58ff01f680ab3f8","reward","img/slot.png","74","","test","","","","","",""
"null","319022","pSARL_v2","pSARL_v23lm43epy","6282469ad58ff01f680ab3f8","points","<div class=""verylowPoints""> -4 </div>","null","na","test","","","","8","-4","7"
"501.30000000074506","319530","pSARL_v2","pSARL_v23lm43epy","6282469ad58ff01f680ab3f8","freq","img/orange_2bandit_a2.png","70","70","test","1","177","177","9","",""
"null","319837","pSARL_v2","pSARL_v23lm43epy","6282469ad58ff01f680ab3f8","freq_resp","img/orange_2bandit_a.png","70","70","test","","","","9","",""
"null","319998","pSARL_v2","pSARL_v23lm43epy","6282469ad58ff01f680ab3f8","fixation","img/fixation.png","null","","test","","","","","",""
"539.7000000001863","320546","pSARL_v2","pSARL_v23lm43epy","6282469ad58ff01f680ab3f8","infreq","img/green_2bandit_a2.png","68","68","test","1","178","178","9","",""
"null","320820","pSARL_v2","pSARL_v23lm43epy","6282469ad58ff01f680ab3f8","infreq_resp","img/green_2bandit_a.png","68","68","test","","","","9","",""
"null","320982","pSARL_v2","pSARL_v23lm43epy","6282469ad58ff01f680ab3f8","fixation","img/fixation.png","null","","test","","","","","",""
"384.29999999981374","321373","pSARL_v2","pSARL_v23lm43epy","6282469ad58ff01f680ab3f8","freq","img/orange_2bandit_a2.png","70","70","test","1","179","179","9","",""
"null","321798","pSARL_v2","pSARL_v23lm43epy","6282469ad58ff01f680ab3f8","freq_resp","img/orange_2bandit_a.png","70","70","test","","","","9","",""
"null","321957","pSARL_v2","pSARL_v23lm43epy","6282469ad58ff01f680ab3f8","fixation","img/fixation.png","null","","test","","","","","",""
"497.70000000018626","322461","pSARL_v2","pSARL_v23lm43epy","6282469ad58ff01f680ab3f8","freq","img/orange_2bandit_a2.png","70","70","test","1","180","180","9","",""
"null","322774","pSARL_v2","pSARL_v23lm43epy","6282469ad58ff01f680ab3f8","freq_resp","img/orange_2bandit_a.png","70","70","test","","","","9","",""
"null","322933","pSARL_v2","pSARL_v23lm43epy","6282469ad58ff01f680ab3f8","fixation","img/fixation.png","null","","test","","","","","",""
"330.90000000037253","323272","pSARL_v2","pSARL_v23lm43epy","6282469ad58ff01f680ab3f8","freq","img/orange_2bandit_a2.png","70","70","test","1","181","181","9","",""
"null","323750","pSARL_v2","pSARL_v23lm43epy","6282469ad58ff01f680ab3f8","freq_resp","img/orange_2bandit_a.png","70","70","test","","","","9","",""
"null","323910","pSARL_v2","pSARL_v23lm43epy","6282469ad58ff01f680ab3f8","fixation","img/fixation.png","null","","test","","","","","",""
"343.40000000037253","324261","pSARL_v2","pSARL_v23lm43epy","6282469ad58ff01f680ab3f8","freq","img/orange_2bandit_a2.png","70","70","test","1","182","182","9","",""
"null","324725","pSARL_v2","pSARL_v23lm43epy","6282469ad58ff01f680ab3f8","freq_resp","img/orange_2bandit_a.png","70","70","test","","","","9","",""
"null","324885","pSARL_v2","pSARL_v23lm43epy","6282469ad58ff01f680ab3f8","fixation","img/fixation.png","null","","test","","","","","",""
"426.6000000005588","325319","pSARL_v2","pSARL_v23lm43epy","6282469ad58ff01f680ab3f8","infreq","img/green_2bandit_a2.png","68","68","test","1","183","183","9","",""
"null","325702","pSARL_v2","pSARL_v23lm43epy","6282469ad58ff01f680ab3f8","infreq_resp","img/green_2bandit_a.png","68","68","test","","","","9","",""
"null","325861","pSARL_v2","pSARL_v23lm43epy","6282469ad58ff01f680ab3f8","fixation","img/fixation.png","null","","test","","","","","",""
"348.70000000018626","326217","pSARL_v2","pSARL_v23lm43epy","6282469ad58ff01f680ab3f8","freq","img/orange_2bandit_a2.png","70","70","test","1","184","184","9","",""
"null","326678","pSARL_v2","pSARL_v23lm43epy","6282469ad58ff01f680ab3f8","freq_resp","img/orange_2bandit_a.png","70","70","test","","","","9","",""
"null","326837","pSARL_v2","pSARL_v23lm43epy","6282469ad58ff01f680ab3f8","fixation","img/fixation.png","null","","test","","","","","",""
"281.90000000037253","327128","pSARL_v2","pSARL_v23lm43epy","6282469ad58ff01f680ab3f8","freq","img/orange_2bandit_a2.png","70","70","test","1","185","185","9","",""
"null","327662","pSARL_v2","pSARL_v23lm43epy","6282469ad58ff01f680ab3f8","freq_resp","img/orange_2bandit_a.png","70","70","test","","","","9","",""
"null","327825","pSARL_v2","pSARL_v23lm43epy","6282469ad58ff01f680ab3f8","fixation","img/fixation.png","null","","test","","","","","",""
"290.59999999962747","328123","pSARL_v2","pSARL_v23lm43epy","6282469ad58ff01f680ab3f8","freq","img/orange_2bandit_a2.png","70","70","test","1","186","186","9","",""
"null","328646","pSARL_v2","pSARL_v23lm43epy","6282469ad58ff01f680ab3f8","freq_resp","img/orange_2bandit_a.png","70","70","test","","","","9","",""
"null","328806","pSARL_v2","pSARL_v23lm43epy","6282469ad58ff01f680ab3f8","fixation","img/fixation.png","null","","test","","","","","",""
"287.8999999994412","329102","pSARL_v2","pSARL_v23lm43epy","6282469ad58ff01f680ab3f8","freq","img/orange_2bandit_a2.png","70","70","test","1","187","187","9","",""
"null","329629","pSARL_v2","pSARL_v23lm43epy","6282469ad58ff01f680ab3f8","freq_resp","img/orange_2bandit_a.png","70","70","test","","","","9","",""
"null","329790","pSARL_v2","pSARL_v23lm43epy","6282469ad58ff01f680ab3f8","fixation","img/fixation.png","null","","test","","","","","",""
"288.3999999994412","330086","pSARL_v2","pSARL_v23lm43epy","6282469ad58ff01f680ab3f8","freq","img/orange_2bandit_a2.png","70","70","test","1","188","188","9","",""
"null","330605","pSARL_v2","pSARL_v23lm43epy","6282469ad58ff01f680ab3f8","freq_resp","img/orange_2bandit_a.png","70","70","test","","","","9","",""
"null","330765","pSARL_v2","pSARL_v23lm43epy","6282469ad58ff01f680ab3f8","fixation","img/fixation.png","null","","test","","","","","",""
"328.20000000018626","331100","pSARL_v2","pSARL_v23lm43epy","6282469ad58ff01f680ab3f8","freq","img/orange_2bandit_a2.png","70","70","test","1","189","189","9","",""
"null","331581","pSARL_v2","pSARL_v23lm43epy","6282469ad58ff01f680ab3f8","freq_resp","img/orange_2bandit_a.png","70","70","test","","","","9","",""
"null","331742","pSARL_v2","pSARL_v23lm43epy","6282469ad58ff01f680ab3f8","fixation","img/fixation.png","null","","test","","","","","",""
"400.69999999925494","332150","pSARL_v2","pSARL_v23lm43epy","6282469ad58ff01f680ab3f8","freq","img/orange_2bandit_a2.png","70","70","test","1","190","190","9","",""
"null","332558","pSARL_v2","pSARL_v23lm43epy","6282469ad58ff01f680ab3f8","freq_resp","img/orange_2bandit_a.png","70","70","test","","","","9","",""
"null","332717","pSARL_v2","pSARL_v23lm43epy","6282469ad58ff01f680ab3f8","fixation","img/fixation.png","null","","test","","","","","",""
"342.8999999994412","333066","pSARL_v2","pSARL_v23lm43epy","6282469ad58ff01f680ab3f8","freq","img/orange_2bandit_a2.png","70","70","test","1","191","191","9","",""
"null","333533","pSARL_v2","pSARL_v23lm43epy","6282469ad58ff01f680ab3f8","freq_resp","img/orange_2bandit_a.png","70","70","test","","","","9","",""
"null","333694","pSARL_v2","pSARL_v23lm43epy","6282469ad58ff01f680ab3f8","fixation","img/fixation.png","null","","test","","","","","",""
"354.69999999925494","334059","pSARL_v2","pSARL_v23lm43epy","6282469ad58ff01f680ab3f8","freq","img/orange_2bandit_a2.png","70","70","test","1","192","192","9","",""
"null","334519","pSARL_v2","pSARL_v23lm43epy","6282469ad58ff01f680ab3f8","freq_resp","img/orange_2bandit_a.png","70","70","test","","","","9","",""
"null","334677","pSARL_v2","pSARL_v23lm43epy","6282469ad58ff01f680ab3f8","fixation","img/fixation.png","null","","test","","","","","",""
"283.19999999925494","334967","pSARL_v2","pSARL_v23lm43epy","6282469ad58ff01f680ab3f8","freq","img/orange_2bandit_a2.png","70","70","test","1","193","193","9","",""
"null","335493","pSARL_v2","pSARL_v23lm43epy","6282469ad58ff01f680ab3f8","freq_resp","img/orange_2bandit_a.png","70","70","test","","","","9","",""
"null","335654","pSARL_v2","pSARL_v23lm43epy","6282469ad58ff01f680ab3f8","fixation","img/fixation.png","null","","test","","","","","",""
"296.29999999981374","335959","pSARL_v2","pSARL_v23lm43epy","6282469ad58ff01f680ab3f8","freq","img/orange_2bandit_a2.png","70","70","test","1","194","194","9","",""
"null","336478","pSARL_v2","pSARL_v23lm43epy","6282469ad58ff01f680ab3f8","freq_resp","img/orange_2bandit_a.png","70","70","test","","","","9","",""
"null","336638","pSARL_v2","pSARL_v23lm43epy","6282469ad58ff01f680ab3f8","fixation","img/fixation.png","null","","test","","","","","",""
"303.79999999981374","336949","pSARL_v2","pSARL_v23lm43epy","6282469ad58ff01f680ab3f8","freq","img/orange_2bandit_a2.png","70","70","test","1","195","195","9","",""
"null","337452","pSARL_v2","pSARL_v23lm43epy","6282469ad58ff01f680ab3f8","freq_resp","img/orange_2bandit_a.png","70","70","test","","","","9","",""
"null","337610","pSARL_v2","pSARL_v23lm43epy","6282469ad58ff01f680ab3f8","fixation","img/fixation.png","null","","test","","","","","",""
"314.40000000037253","337931","pSARL_v2","pSARL_v23lm43epy","6282469ad58ff01f680ab3f8","freq","img/orange_2bandit_a2.png","70","70","test","1","196","196","9","",""
"null","338430","pSARL_v2","pSARL_v23lm43epy","6282469ad58ff01f680ab3f8","freq_resp","img/orange_2bandit_a.png","70","70","test","","","","9","",""
"null","338590","pSARL_v2","pSARL_v23lm43epy","6282469ad58ff01f680ab3f8","fixation","img/fixation.png","null","","test","","","","","",""
"332","338931","pSARL_v2","pSARL_v23lm43epy","6282469ad58ff01f680ab3f8","freq","img/orange_2bandit_a2.png","70","70","test","1","197","197","9","",""
"null","339413","pSARL_v2","pSARL_v23lm43epy","6282469ad58ff01f680ab3f8","freq_resp","img/orange_2bandit_a.png","70","70","test","","","","9","",""
"null","339572","pSARL_v2","pSARL_v23lm43epy","6282469ad58ff01f680ab3f8","fixation","img/fixation.png","null","","test","","","","","",""
"299.40000000037253","339878","pSARL_v2","pSARL_v23lm43epy","6282469ad58ff01f680ab3f8","freq","img/orange_2bandit_a2.png","70","70","test","1","198","198","9","",""
"null","340389","pSARL_v2","pSARL_v23lm43epy","6282469ad58ff01f680ab3f8","freq_resp","img/orange_2bandit_a.png","70","70","test","","","","9","",""
"null","340548","pSARL_v2","pSARL_v23lm43epy","6282469ad58ff01f680ab3f8","fixation","img/fixation.png","null","","test","","","","","",""
"299.59999999962747","340856","pSARL_v2","pSARL_v23lm43epy","6282469ad58ff01f680ab3f8","freq","img/orange_2bandit_a2.png","70","70","test","1","199","199","9","",""
"null","341364","pSARL_v2","pSARL_v23lm43epy","6282469ad58ff01f680ab3f8","freq_resp","img/orange_2bandit_a.png","70","70","test","","","","9","",""
"null","341525","pSARL_v2","pSARL_v23lm43epy","6282469ad58ff01f680ab3f8","fixation","img/fixation.png","null","","test","","","","","",""
"456.29999999981374","341988","pSARL_v2","pSARL_v23lm43epy","6282469ad58ff01f680ab3f8","infreq","img/green_2bandit_a2.png","68","68","test","1","200","200","9","",""
"null","342342","pSARL_v2","pSARL_v23lm43epy","6282469ad58ff01f680ab3f8","infreq_resp","img/green_2bandit_a.png","68","68","test","","","","9","",""
"null","342502","pSARL_v2","pSARL_v23lm43epy","6282469ad58ff01f680ab3f8","fixation","img/fixation.png","null","","test","","","","","",""
"335.59999999962747","342843","pSARL_v2","pSARL_v23lm43epy","6282469ad58ff01f680ab3f8","freq","img/orange_2bandit_a2.png","70","70","test","1","201","201","9","",""
"null","343317","pSARL_v2","pSARL_v23lm43epy","6282469ad58ff01f680ab3f8","freq_resp","img/orange_2bandit_a.png","70","70","test","","","","9","",""
"null","343477","pSARL_v2","pSARL_v23lm43epy","6282469ad58ff01f680ab3f8","fixation","img/fixation.png","null","","test","","","","","",""
"351.20000000018626","343835","pSARL_v2","pSARL_v23lm43epy","6282469ad58ff01f680ab3f8","freq","img/orange_2bandit_a2.png","70","70","test","1","202","202","9","",""
"null","344294","pSARL_v2","pSARL_v23lm43epy","6282469ad58ff01f680ab3f8","freq_resp","img/orange_2bandit_a.png","70","70","test","","","","9","",""
"null","344453","pSARL_v2","pSARL_v23lm43epy","6282469ad58ff01f680ab3f8","fixation","img/fixation.png","null","","test","","","","","",""
"323.79999999981374","344784","pSARL_v2","pSARL_v23lm43epy","6282469ad58ff01f680ab3f8","freq","img/orange_2bandit_a2.png","70","70","test","1","203","203","9","",""
"null","345270","pSARL_v2","pSARL_v23lm43epy","6282469ad58ff01f680ab3f8","freq_resp","img/orange_2bandit_a.png","70","70","test","","","","9","",""
"null","345430","pSARL_v2","pSARL_v23lm43epy","6282469ad58ff01f680ab3f8","fixation","img/fixation.png","null","","test","","","","","",""
"529.5","345966","pSARL_v2","pSARL_v23lm43epy","6282469ad58ff01f680ab3f8","reward","img/slot.png","74","","test","","","","","",""
"null","346725","pSARL_v2","pSARL_v23lm43epy","6282469ad58ff01f680ab3f8","points","<div class=""verylowPoints""> -3 </div>","null","na","test","","","","9","-3","8"
"502.09999999962747","347234","pSARL_v2","pSARL_v23lm43epy","6282469ad58ff01f680ab3f8","freq","img/orange_2bandit_a2.png","70","70","test","1","204","204","10","",""
"null","347542","pSARL_v2","pSARL_v23lm43epy","6282469ad58ff01f680ab3f8","freq_resp","img/orange_2bandit_a.png","70","70","test","","","","10","",""
"null","347702","pSARL_v2","pSARL_v23lm43epy","6282469ad58ff01f680ab3f8","fixation","img/fixation.png","null","","test","","","","","",""
"360.6000000005588","348070","pSARL_v2","pSARL_v23lm43epy","6282469ad58ff01f680ab3f8","freq","img/orange_2bandit_a2.png","70","70","test","1","205","205","10","",""
"null","348518","pSARL_v2","pSARL_v23lm43epy","6282469ad58ff01f680ab3f8","freq_resp","img/orange_2bandit_a.png","70","70","test","","","","10","",""
"null","348678","pSARL_v2","pSARL_v23lm43epy","6282469ad58ff01f680ab3f8","fixation","img/fixation.png","null","","test","","","","","",""
"483.59999999962747","349166","pSARL_v2","pSARL_v23lm43epy","6282469ad58ff01f680ab3f8","infreq","img/green_2bandit_a2.png","68","68","test","1","206","206","10","",""
