"rt","time_elapsed","expId","subject","prolificID","trialType","stimulus","key_press","corrresp","phase","corr","trialNum","attentionRunNum","blockNum","points","rlNum"
"1753","1764","pSARL_v2","pSARL_v2j2nvy4v4","628d78a2ccf4a41f24c2d2d8","","","","","","","","","","",""
"","11297","pSARL_v2","pSARL_v2j2nvy4v4","628d78a2ccf4a41f24c2d2d8","fullscreen","","","","","","","","","",""
"80282","91587","pSARL_v2","pSARL_v2j2nvy4v4","628d78a2ccf4a41f24c2d2d8","","","","","","","","","","",""
"null","92394","pSARL_v2","pSARL_v2j2nvy4v4","628d78a2ccf4a41f24c2d2d8","freqPrac","img/green_2bandit_b2.png","null","70","prac","0","","","","",""
"null","93400","pSARL_v2","pSARL_v2j2nvy4v4","628d78a2ccf4a41f24c2d2d8","feedback","img/tooSlow.png","null","na","prac","","","","","",""
"null","93557","pSARL_v2","pSARL_v2j2nvy4v4","628d78a2ccf4a41f24c2d2d8","fixation","img/fixation.png","null","","prac","","","","","",""
"586","94151","pSARL_v2","pSARL_v2j2nvy4v4","628d78a2ccf4a41f24c2d2d8","infreqPrac","img/orange_2bandit_b2.png","68","68","prac","1","","","","",""
"586","94370","pSARL_v2","pSARL_v2j2nvy4v4","628d78a2ccf4a41f24c2d2d8","infreqPrac_resp","img/orange_2bandit_b.png","68","68","prac","","","","","",""
"null","94526","pSARL_v2","pSARL_v2j2nvy4v4","628d78a2ccf4a41f24c2d2d8","fixation","img/fixation.png","null","","prac","","","","","",""
"434","94963","pSARL_v2","pSARL_v2j2nvy4v4","628d78a2ccf4a41f24c2d2d8","freqPrac","img/green_2bandit_b2.png","70","70","prac","1","","","","",""
"434","95335","pSARL_v2","pSARL_v2j2nvy4v4","628d78a2ccf4a41f24c2d2d8","freqPrac_resp","img/green_2bandit_b.png","70","70","prac","","","","","",""
"null","95491","pSARL_v2","pSARL_v2j2nvy4v4","628d78a2ccf4a41f24c2d2d8","fixation","img/fixation.png","null","","prac","","","","","",""
"387","95884","pSARL_v2","pSARL_v2j2nvy4v4","628d78a2ccf4a41f24c2d2d8","infreqPrac","img/orange_2bandit_b2.png","68","68","prac","1","","","","",""
"387","96304","pSARL_v2","pSARL_v2j2nvy4v4","628d78a2ccf4a41f24c2d2d8","infreqPrac_resp","img/orange_2bandit_b.png","68","68","prac","","","","","",""
"null","96461","pSARL_v2","pSARL_v2j2nvy4v4","628d78a2ccf4a41f24c2d2d8","fixation","img/fixation.png","null","","prac","","","","","",""
"454","96920","pSARL_v2","pSARL_v2j2nvy4v4","628d78a2ccf4a41f24c2d2d8","infreqPrac","img/orange_2bandit_b2.png","68","68","prac","1","","","","",""
"454","97270","pSARL_v2","pSARL_v2j2nvy4v4","628d78a2ccf4a41f24c2d2d8","infreqPrac_resp","img/orange_2bandit_b.png","68","68","prac","","","","","",""
"null","97425","pSARL_v2","pSARL_v2j2nvy4v4","628d78a2ccf4a41f24c2d2d8","fixation","img/fixation.png","null","","prac","","","","","",""
"374","97803","pSARL_v2","pSARL_v2j2nvy4v4","628d78a2ccf4a41f24c2d2d8","infreqPrac","img/orange_2bandit_b2.png","68","68","prac","1","","","","",""
"374","98235","pSARL_v2","pSARL_v2j2nvy4v4","628d78a2ccf4a41f24c2d2d8","infreqPrac_resp","img/orange_2bandit_b.png","68","68","prac","","","","","",""
"null","98391","pSARL_v2","pSARL_v2j2nvy4v4","628d78a2ccf4a41f24c2d2d8","fixation","img/fixation.png","null","","prac","","","","","",""
"445","98840","pSARL_v2","pSARL_v2j2nvy4v4","628d78a2ccf4a41f24c2d2d8","freqPrac","img/green_2bandit_b2.png","70","70","prac","1","","","","",""
"445","99202","pSARL_v2","pSARL_v2j2nvy4v4","628d78a2ccf4a41f24c2d2d8","freqPrac_resp","img/green_2bandit_b.png","70","70","prac","","","","","",""
"null","99356","pSARL_v2","pSARL_v2j2nvy4v4","628d78a2ccf4a41f24c2d2d8","fixation","img/fixation.png","null","","prac","","","","","",""
"530","99892","pSARL_v2","pSARL_v2j2nvy4v4","628d78a2ccf4a41f24c2d2d8","infreqPrac","img/orange_2bandit_b2.png","68","68","prac","1","","","","",""
"530","100167","pSARL_v2","pSARL_v2j2nvy4v4","628d78a2ccf4a41f24c2d2d8","infreqPrac_resp","img/orange_2bandit_b.png","68","68","prac","","","","","",""
"null","100322","pSARL_v2","pSARL_v2j2nvy4v4","628d78a2ccf4a41f24c2d2d8","fixation","img/fixation.png","null","","prac","","","","","",""
"515","100841","pSARL_v2","pSARL_v2j2nvy4v4","628d78a2ccf4a41f24c2d2d8","freqPrac","img/green_2bandit_b2.png","70","70","prac","1","","","","",""
"515","101131","pSARL_v2","pSARL_v2j2nvy4v4","628d78a2ccf4a41f24c2d2d8","freqPrac_resp","img/green_2bandit_b.png","70","70","prac","","","","","",""
"null","101288","pSARL_v2","pSARL_v2j2nvy4v4","628d78a2ccf4a41f24c2d2d8","fixation","img/fixation.png","null","","prac","","","","","",""
"442","101733","pSARL_v2","pSARL_v2j2nvy4v4","628d78a2ccf4a41f24c2d2d8","freqPrac","img/green_2bandit_b2.png","70","70","prac","1","","","","",""
"442","102098","pSARL_v2","pSARL_v2j2nvy4v4","628d78a2ccf4a41f24c2d2d8","freqPrac_resp","img/green_2bandit_b.png","70","70","prac","","","","","",""
"null","102253","pSARL_v2","pSARL_v2j2nvy4v4","628d78a2ccf4a41f24c2d2d8","fixation","img/fixation.png","null","","prac","","","","","",""
"26258","128517","pSARL_v2","pSARL_v2j2nvy4v4","628d78a2ccf4a41f24c2d2d8","","","","","prac","","","","","",""
"1351","129872","pSARL_v2","pSARL_v2j2nvy4v4","628d78a2ccf4a41f24c2d2d8","rewardPractice","img/slot.png","74","","prac","","","","","",""
"null","130633","pSARL_v2","pSARL_v2j2nvy4v4","628d78a2ccf4a41f24c2d2d8","feedback","<div class=""veryhighPoints""> +15 </div>","null","na","prac","","","","","",""
"null","130790","pSARL_v2","pSARL_v2j2nvy4v4","628d78a2ccf4a41f24c2d2d8","fixation","img/fixation.png","null","","prac","","","","","",""
"22261","153055","pSARL_v2","pSARL_v2j2nvy4v4","628d78a2ccf4a41f24c2d2d8","","","","","prac","","","","","",""
"552","153613","pSARL_v2","pSARL_v2j2nvy4v4","628d78a2ccf4a41f24c2d2d8","freq","img/green_2bandit_b2.png","70","70","test","1","1","1","1","",""
"null","153868","pSARL_v2","pSARL_v2j2nvy4v4","628d78a2ccf4a41f24c2d2d8","freq_resp","img/green_2bandit_b.png","70","70","test","","","","1","",""
"null","154024","pSARL_v2","pSARL_v2j2nvy4v4","628d78a2ccf4a41f24c2d2d8","fixation","img/fixation.png","null","","test","","","","","",""
"428","154456","pSARL_v2","pSARL_v2j2nvy4v4","628d78a2ccf4a41f24c2d2d8","freq","img/green_2bandit_b2.png","70","70","test","1","2","2","1","",""
"null","154834","pSARL_v2","pSARL_v2j2nvy4v4","628d78a2ccf4a41f24c2d2d8","freq_resp","img/green_2bandit_b.png","70","70","test","","","","1","",""
"null","154989","pSARL_v2","pSARL_v2j2nvy4v4","628d78a2ccf4a41f24c2d2d8","fixation","img/fixation.png","null","","test","","","","","",""
"432","155425","pSARL_v2","pSARL_v2j2nvy4v4","628d78a2ccf4a41f24c2d2d8","freq","img/green_2bandit_b2.png","70","70","test","1","3","3","1","",""
"null","155798","pSARL_v2","pSARL_v2j2nvy4v4","628d78a2ccf4a41f24c2d2d8","freq_resp","img/green_2bandit_b.png","70","70","test","","","","1","",""
"null","155953","pSARL_v2","pSARL_v2j2nvy4v4","628d78a2ccf4a41f24c2d2d8","fixation","img/fixation.png","null","","test","","","","","",""
"554","156511","pSARL_v2","pSARL_v2j2nvy4v4","628d78a2ccf4a41f24c2d2d8","freq","img/green_2bandit_b2.png","70","70","test","1","4","4","1","",""
"null","156763","pSARL_v2","pSARL_v2j2nvy4v4","628d78a2ccf4a41f24c2d2d8","freq_resp","img/green_2bandit_b.png","70","70","test","","","","1","",""
"null","156918","pSARL_v2","pSARL_v2j2nvy4v4","628d78a2ccf4a41f24c2d2d8","fixation","img/fixation.png","null","","test","","","","","",""
"587","157510","pSARL_v2","pSARL_v2j2nvy4v4","628d78a2ccf4a41f24c2d2d8","freq","img/green_2bandit_b2.png","70","70","test","1","5","5","1","",""
"null","157729","pSARL_v2","pSARL_v2j2nvy4v4","628d78a2ccf4a41f24c2d2d8","freq_resp","img/green_2bandit_b.png","70","70","test","","","","1","",""
"null","157884","pSARL_v2","pSARL_v2j2nvy4v4","628d78a2ccf4a41f24c2d2d8","fixation","img/fixation.png","null","","test","","","","","",""
"661","158549","pSARL_v2","pSARL_v2j2nvy4v4","628d78a2ccf4a41f24c2d2d8","freq","img/green_2bandit_b2.png","70","70","test","1","6","6","1","",""
"null","158694","pSARL_v2","pSARL_v2j2nvy4v4","628d78a2ccf4a41f24c2d2d8","freq_resp","img/green_2bandit_b.png","70","70","test","","","","1","",""
"null","158852","pSARL_v2","pSARL_v2j2nvy4v4","628d78a2ccf4a41f24c2d2d8","fixation","img/fixation.png","null","","test","","","","","",""
"386","159243","pSARL_v2","pSARL_v2j2nvy4v4","628d78a2ccf4a41f24c2d2d8","freq","img/green_2bandit_b2.png","70","70","test","1","7","7","1","",""
"null","159662","pSARL_v2","pSARL_v2j2nvy4v4","628d78a2ccf4a41f24c2d2d8","freq_resp","img/green_2bandit_b.png","70","70","test","","","","1","",""
"null","159817","pSARL_v2","pSARL_v2j2nvy4v4","628d78a2ccf4a41f24c2d2d8","fixation","img/fixation.png","null","","test","","","","","",""
"389","160212","pSARL_v2","pSARL_v2j2nvy4v4","628d78a2ccf4a41f24c2d2d8","freq","img/green_2bandit_b2.png","70","70","test","1","8","8","1","",""
"null","160632","pSARL_v2","pSARL_v2j2nvy4v4","628d78a2ccf4a41f24c2d2d8","freq_resp","img/green_2bandit_b.png","70","70","test","","","","1","",""
"null","160789","pSARL_v2","pSARL_v2j2nvy4v4","628d78a2ccf4a41f24c2d2d8","fixation","img/fixation.png","null","","test","","","","","",""
"309","161105","pSARL_v2","pSARL_v2j2nvy4v4","628d78a2ccf4a41f24c2d2d8","freq","img/green_2bandit_b2.png","70","70","test","1","9","9","1","",""
"null","161602","pSARL_v2","pSARL_v2j2nvy4v4","628d78a2ccf4a41f24c2d2d8","freq_resp","img/green_2bandit_b.png","70","70","test","","","","1","",""
"null","161757","pSARL_v2","pSARL_v2j2nvy4v4","628d78a2ccf4a41f24c2d2d8","fixation","img/fixation.png","null","","test","","","","","",""
"355","162117","pSARL_v2","pSARL_v2j2nvy4v4","628d78a2ccf4a41f24c2d2d8","freq","img/green_2bandit_b2.png","70","70","test","1","10","10","1","",""
"null","162571","pSARL_v2","pSARL_v2j2nvy4v4","628d78a2ccf4a41f24c2d2d8","freq_resp","img/green_2bandit_b.png","70","70","test","","","","1","",""
"null","162729","pSARL_v2","pSARL_v2j2nvy4v4","628d78a2ccf4a41f24c2d2d8","fixation","img/fixation.png","null","","test","","","","","",""
"361","163094","pSARL_v2","pSARL_v2j2nvy4v4","628d78a2ccf4a41f24c2d2d8","freq","img/green_2bandit_b2.png","70","70","test","1","11","11","1","",""
"null","163539","pSARL_v2","pSARL_v2j2nvy4v4","628d78a2ccf4a41f24c2d2d8","freq_resp","img/green_2bandit_b.png","70","70","test","","","","1","",""
"null","163694","pSARL_v2","pSARL_v2j2nvy4v4","628d78a2ccf4a41f24c2d2d8","fixation","img/fixation.png","null","","test","","","","","",""
"345","164045","pSARL_v2","pSARL_v2j2nvy4v4","628d78a2ccf4a41f24c2d2d8","freq","img/green_2bandit_b2.png","70","70","test","1","12","12","1","",""
"null","164516","pSARL_v2","pSARL_v2j2nvy4v4","628d78a2ccf4a41f24c2d2d8","freq_resp","img/green_2bandit_b.png","70","70","test","","","","1","",""
"null","164684","pSARL_v2","pSARL_v2j2nvy4v4","628d78a2ccf4a41f24c2d2d8","fixation","img/fixation.png","null","","test","","","","","",""
"328","165017","pSARL_v2","pSARL_v2j2nvy4v4","628d78a2ccf4a41f24c2d2d8","freq","img/green_2bandit_b2.png","70","70","test","1","13","13","1","",""
"null","165494","pSARL_v2","pSARL_v2j2nvy4v4","628d78a2ccf4a41f24c2d2d8","freq_resp","img/green_2bandit_b.png","70","70","test","","","","1","",""
"null","165649","pSARL_v2","pSARL_v2j2nvy4v4","628d78a2ccf4a41f24c2d2d8","fixation","img/fixation.png","null","","test","","","","","",""
"320","165972","pSARL_v2","pSARL_v2j2nvy4v4","628d78a2ccf4a41f24c2d2d8","freq","img/green_2bandit_b2.png","70","70","test","1","14","14","1","",""
"null","166458","pSARL_v2","pSARL_v2j2nvy4v4","628d78a2ccf4a41f24c2d2d8","freq_resp","img/green_2bandit_b.png","70","70","test","","","","1","",""
"null","166615","pSARL_v2","pSARL_v2j2nvy4v4","628d78a2ccf4a41f24c2d2d8","fixation","img/fixation.png","null","","test","","","","","",""
"327","166945","pSARL_v2","pSARL_v2j2nvy4v4","628d78a2ccf4a41f24c2d2d8","freq","img/green_2bandit_b2.png","70","70","test","1","15","15","1","",""
"null","167424","pSARL_v2","pSARL_v2j2nvy4v4","628d78a2ccf4a41f24c2d2d8","freq_resp","img/green_2bandit_b.png","70","70","test","","","","1","",""
"null","167579","pSARL_v2","pSARL_v2j2nvy4v4","628d78a2ccf4a41f24c2d2d8","fixation","img/fixation.png","null","","test","","","","","",""
"307","167890","pSARL_v2","pSARL_v2j2nvy4v4","628d78a2ccf4a41f24c2d2d8","freq","img/green_2bandit_b2.png","70","70","test","1","16","16","1","",""
"null","168391","pSARL_v2","pSARL_v2j2nvy4v4","628d78a2ccf4a41f24c2d2d8","freq_resp","img/green_2bandit_b.png","70","70","test","","","","1","",""
"null","168548","pSARL_v2","pSARL_v2j2nvy4v4","628d78a2ccf4a41f24c2d2d8","fixation","img/fixation.png","null","","test","","","","","",""
"518","169070","pSARL_v2","pSARL_v2j2nvy4v4","628d78a2ccf4a41f24c2d2d8","infreq","img/orange_2bandit_b2.png","68","68","test","1","17","17","1","",""
"null","169358","pSARL_v2","pSARL_v2j2nvy4v4","628d78a2ccf4a41f24c2d2d8","infreq_resp","img/orange_2bandit_b.png","68","68","test","","","","1","",""
"null","169514","pSARL_v2","pSARL_v2j2nvy4v4","628d78a2ccf4a41f24c2d2d8","fixation","img/fixation.png","null","","test","","","","","",""
"387","169904","pSARL_v2","pSARL_v2j2nvy4v4","628d78a2ccf4a41f24c2d2d8","infreq","img/orange_2bandit_b2.png","68","68","test","1","18","18","1","",""
"null","170322","pSARL_v2","pSARL_v2j2nvy4v4","628d78a2ccf4a41f24c2d2d8","infreq_resp","img/orange_2bandit_b.png","68","68","test","","","","1","",""
"null","170477","pSARL_v2","pSARL_v2j2nvy4v4","628d78a2ccf4a41f24c2d2d8","fixation","img/fixation.png","null","","test","","","","","",""
"396","170877","pSARL_v2","pSARL_v2j2nvy4v4","628d78a2ccf4a41f24c2d2d8","freq","img/green_2bandit_b2.png","70","70","test","1","19","19","1","",""
"null","171286","pSARL_v2","pSARL_v2j2nvy4v4","628d78a2ccf4a41f24c2d2d8","freq_resp","img/green_2bandit_b.png","70","70","test","","","","1","",""
"null","171454","pSARL_v2","pSARL_v2j2nvy4v4","628d78a2ccf4a41f24c2d2d8","fixation","img/fixation.png","null","","test","","","","","",""
"567","172025","pSARL_v2","pSARL_v2j2nvy4v4","628d78a2ccf4a41f24c2d2d8","reward","img/slot.png","74","","test","","","","","",""
"null","172779","pSARL_v2","pSARL_v2j2nvy4v4","628d78a2ccf4a41f24c2d2d8","points","<div class=""verylowPoints""> -6 </div>","null","na","test","","","","1","-6","0"
"759","173542","pSARL_v2","pSARL_v2j2nvy4v4","628d78a2ccf4a41f24c2d2d8","freq","img/green_2bandit_b2.png","70","70","test","1","20","20","2","",""
"null","173590","pSARL_v2","pSARL_v2j2nvy4v4","628d78a2ccf4a41f24c2d2d8","freq_resp","img/green_2bandit_b.png","70","70","test","","","","2","",""
"null","173748","pSARL_v2","pSARL_v2j2nvy4v4","628d78a2ccf4a41f24c2d2d8","fixation","img/fixation.png","null","","test","","","","","",""
"502","174253","pSARL_v2","pSARL_v2j2nvy4v4","628d78a2ccf4a41f24c2d2d8","freq","img/green_2bandit_b2.png","70","70","test","1","21","21","2","",""
"null","174557","pSARL_v2","pSARL_v2j2nvy4v4","628d78a2ccf4a41f24c2d2d8","freq_resp","img/green_2bandit_b.png","70","70","test","","","","2","",""
"null","174713","pSARL_v2","pSARL_v2j2nvy4v4","628d78a2ccf4a41f24c2d2d8","fixation","img/fixation.png","null","","test","","","","","",""
"492","175210","pSARL_v2","pSARL_v2j2nvy4v4","628d78a2ccf4a41f24c2d2d8","freq","img/green_2bandit_b2.png","70","70","test","1","22","22","2","",""
"null","175526","pSARL_v2","pSARL_v2j2nvy4v4","628d78a2ccf4a41f24c2d2d8","freq_resp","img/green_2bandit_b.png","70","70","test","","","","2","",""
"null","175687","pSARL_v2","pSARL_v2j2nvy4v4","628d78a2ccf4a41f24c2d2d8","fixation","img/fixation.png","null","","test","","","","","",""
"463","176156","pSARL_v2","pSARL_v2j2nvy4v4","628d78a2ccf4a41f24c2d2d8","freq","img/green_2bandit_b2.png","70","70","test","1","23","23","2","",""
"null","176499","pSARL_v2","pSARL_v2j2nvy4v4","628d78a2ccf4a41f24c2d2d8","freq_resp","img/green_2bandit_b.png","70","70","test","","","","2","",""
"null","176653","pSARL_v2","pSARL_v2j2nvy4v4","628d78a2ccf4a41f24c2d2d8","fixation","img/fixation.png","null","","test","","","","","",""
"439","177096","pSARL_v2","pSARL_v2j2nvy4v4","628d78a2ccf4a41f24c2d2d8","freq","img/green_2bandit_b2.png","70","70","test","1","24","24","2","",""
"null","177477","pSARL_v2","pSARL_v2j2nvy4v4","628d78a2ccf4a41f24c2d2d8","freq_resp","img/green_2bandit_b.png","70","70","test","","","","2","",""
"null","177634","pSARL_v2","pSARL_v2j2nvy4v4","628d78a2ccf4a41f24c2d2d8","fixation","img/fixation.png","null","","test","","","","","",""
"517","178157","pSARL_v2","pSARL_v2j2nvy4v4","628d78a2ccf4a41f24c2d2d8","freq","img/green_2bandit_b2.png","70","70","test","1","25","25","2","",""
"null","178446","pSARL_v2","pSARL_v2j2nvy4v4","628d78a2ccf4a41f24c2d2d8","freq_resp","img/green_2bandit_b.png","70","70","test","","","","2","",""
"null","178602","pSARL_v2","pSARL_v2j2nvy4v4","628d78a2ccf4a41f24c2d2d8","fixation","img/fixation.png","null","","test","","","","","",""
"471","179076","pSARL_v2","pSARL_v2j2nvy4v4","628d78a2ccf4a41f24c2d2d8","freq","img/green_2bandit_b2.png","70","70","test","1","26","26","2","",""
"null","179410","pSARL_v2","pSARL_v2j2nvy4v4","628d78a2ccf4a41f24c2d2d8","freq_resp","img/green_2bandit_b.png","70","70","test","","","","2","",""
"null","179565","pSARL_v2","pSARL_v2j2nvy4v4","628d78a2ccf4a41f24c2d2d8","fixation","img/fixation.png","null","","test","","","","","",""
"403","179972","pSARL_v2","pSARL_v2j2nvy4v4","628d78a2ccf4a41f24c2d2d8","freq","img/green_2bandit_b2.png","70","70","test","1","27","27","2","",""
"null","180374","pSARL_v2","pSARL_v2j2nvy4v4","628d78a2ccf4a41f24c2d2d8","freq_resp","img/green_2bandit_b.png","70","70","test","","","","2","",""
"null","180531","pSARL_v2","pSARL_v2j2nvy4v4","628d78a2ccf4a41f24c2d2d8","fixation","img/fixation.png","null","","test","","","","","",""
"539","181074","pSARL_v2","pSARL_v2j2nvy4v4","628d78a2ccf4a41f24c2d2d8","freq","img/green_2bandit_b2.png","70","70","test","1","28","28","2","",""
"null","181340","pSARL_v2","pSARL_v2j2nvy4v4","628d78a2ccf4a41f24c2d2d8","freq_resp","img/green_2bandit_b.png","70","70","test","","","","2","",""
"null","181496","pSARL_v2","pSARL_v2j2nvy4v4","628d78a2ccf4a41f24c2d2d8","fixation","img/fixation.png","null","","test","","","","","",""
"740","182239","pSARL_v2","pSARL_v2j2nvy4v4","628d78a2ccf4a41f24c2d2d8","infreq","img/orange_2bandit_b2.png","68","68","test","1","29","29","2","",""
"null","182304","pSARL_v2","pSARL_v2j2nvy4v4","628d78a2ccf4a41f24c2d2d8","infreq_resp","img/orange_2bandit_b.png","68","68","test","","","","2","",""
"null","182458","pSARL_v2","pSARL_v2j2nvy4v4","628d78a2ccf4a41f24c2d2d8","fixation","img/fixation.png","null","","test","","","","","",""
"655","183118","pSARL_v2","pSARL_v2j2nvy4v4","628d78a2ccf4a41f24c2d2d8","infreq","img/orange_2bandit_b2.png","68","68","test","1","30","30","2","",""
"null","183270","pSARL_v2","pSARL_v2j2nvy4v4","628d78a2ccf4a41f24c2d2d8","infreq_resp","img/orange_2bandit_b.png","68","68","test","","","","2","",""
"null","183426","pSARL_v2","pSARL_v2j2nvy4v4","628d78a2ccf4a41f24c2d2d8","fixation","img/fixation.png","null","","test","","","","","",""
"547","183977","pSARL_v2","pSARL_v2j2nvy4v4","628d78a2ccf4a41f24c2d2d8","freq","img/green_2bandit_b2.png","70","70","test","1","31","31","2","",""
"null","184234","pSARL_v2","pSARL_v2j2nvy4v4","628d78a2ccf4a41f24c2d2d8","freq_resp","img/green_2bandit_b.png","70","70","test","","","","2","",""
"null","184391","pSARL_v2","pSARL_v2j2nvy4v4","628d78a2ccf4a41f24c2d2d8","fixation","img/fixation.png","null","","test","","","","","",""
"546","184940","pSARL_v2","pSARL_v2j2nvy4v4","628d78a2ccf4a41f24c2d2d8","freq","img/green_2bandit_b2.png","70","70","test","1","32","32","2","",""
"null","185199","pSARL_v2","pSARL_v2j2nvy4v4","628d78a2ccf4a41f24c2d2d8","freq_resp","img/green_2bandit_b.png","70","70","test","","","","2","",""
"null","185353","pSARL_v2","pSARL_v2j2nvy4v4","628d78a2ccf4a41f24c2d2d8","fixation","img/fixation.png","null","","test","","","","","",""
"554","185912","pSARL_v2","pSARL_v2j2nvy4v4","628d78a2ccf4a41f24c2d2d8","freq","img/green_2bandit_b2.png","70","70","test","1","33","33","2","",""
"null","186164","pSARL_v2","pSARL_v2j2nvy4v4","628d78a2ccf4a41f24c2d2d8","freq_resp","img/green_2bandit_b.png","70","70","test","","","","2","",""
"null","186320","pSARL_v2","pSARL_v2j2nvy4v4","628d78a2ccf4a41f24c2d2d8","fixation","img/fixation.png","null","","test","","","","","",""
"494","186817","pSARL_v2","pSARL_v2j2nvy4v4","628d78a2ccf4a41f24c2d2d8","infreq","img/orange_2bandit_b2.png","68","68","test","1","34","34","2","",""
"null","187128","pSARL_v2","pSARL_v2j2nvy4v4","628d78a2ccf4a41f24c2d2d8","infreq_resp","img/orange_2bandit_b.png","68","68","test","","","","2","",""
"null","187283","pSARL_v2","pSARL_v2j2nvy4v4","628d78a2ccf4a41f24c2d2d8","fixation","img/fixation.png","null","","test","","","","","",""
"645","187934","pSARL_v2","pSARL_v2j2nvy4v4","628d78a2ccf4a41f24c2d2d8","freq","img/green_2bandit_b2.png","68","70","test","0","35","35","2","",""
"null","188094","pSARL_v2","pSARL_v2j2nvy4v4","628d78a2ccf4a41f24c2d2d8","freq_resp","img/green_2bandit_b.png","68","70","test","","","","2","",""
"null","188250","pSARL_v2","pSARL_v2j2nvy4v4","628d78a2ccf4a41f24c2d2d8","fixation","img/fixation.png","null","","test","","","","","",""
"622","188877","pSARL_v2","pSARL_v2j2nvy4v4","628d78a2ccf4a41f24c2d2d8","freq","img/green_2bandit_b2.png","70","70","test","1","36","36","2","",""
"null","189061","pSARL_v2","pSARL_v2j2nvy4v4","628d78a2ccf4a41f24c2d2d8","freq_resp","img/green_2bandit_b.png","70","70","test","","","","2","",""
"null","189216","pSARL_v2","pSARL_v2j2nvy4v4","628d78a2ccf4a41f24c2d2d8","fixation","img/fixation.png","null","","test","","","","","",""
"583","189803","pSARL_v2","pSARL_v2j2nvy4v4","628d78a2ccf4a41f24c2d2d8","freq","img/green_2bandit_b2.png","70","70","test","1","37","37","2","",""
"null","190025","pSARL_v2","pSARL_v2j2nvy4v4","628d78a2ccf4a41f24c2d2d8","freq_resp","img/green_2bandit_b.png","70","70","test","","","","2","",""
"null","190181","pSARL_v2","pSARL_v2j2nvy4v4","628d78a2ccf4a41f24c2d2d8","fixation","img/fixation.png","null","","test","","","","","",""
"null","190988","pSARL_v2","pSARL_v2j2nvy4v4","628d78a2ccf4a41f24c2d2d8","freq","img/green_2bandit_b2.png","null","70","test","0","38","38","2","",""
"null","191147","pSARL_v2","pSARL_v2j2nvy4v4","628d78a2ccf4a41f24c2d2d8","fixation","img/fixation.png","null","","test","","","","","",""
"619","191770","pSARL_v2","pSARL_v2j2nvy4v4","628d78a2ccf4a41f24c2d2d8","freq","img/green_2bandit_b2.png","70","70","test","1","39","39","2","",""
"null","191957","pSARL_v2","pSARL_v2j2nvy4v4","628d78a2ccf4a41f24c2d2d8","freq_resp","img/green_2bandit_b.png","70","70","test","","","","2","",""
"null","192120","pSARL_v2","pSARL_v2j2nvy4v4","628d78a2ccf4a41f24c2d2d8","fixation","img/fixation.png","null","","test","","","","","",""
"653","192780","pSARL_v2","pSARL_v2j2nvy4v4","628d78a2ccf4a41f24c2d2d8","freq","img/green_2bandit_b2.png","70","70","test","1","40","40","2","",""
"null","192932","pSARL_v2","pSARL_v2j2nvy4v4","628d78a2ccf4a41f24c2d2d8","freq_resp","img/green_2bandit_b.png","70","70","test","","","","2","",""
"null","193089","pSARL_v2","pSARL_v2j2nvy4v4","628d78a2ccf4a41f24c2d2d8","fixation","img/fixation.png","null","","test","","","","","",""
"730","193824","pSARL_v2","pSARL_v2j2nvy4v4","628d78a2ccf4a41f24c2d2d8","freq","img/green_2bandit_b2.png","70","70","test","1","41","41","2","",""
"null","193900","pSARL_v2","pSARL_v2j2nvy4v4","628d78a2ccf4a41f24c2d2d8","freq_resp","img/green_2bandit_b.png","70","70","test","","","","2","",""
"null","194056","pSARL_v2","pSARL_v2j2nvy4v4","628d78a2ccf4a41f24c2d2d8","fixation","img/fixation.png","null","","test","","","","","",""
"592","194652","pSARL_v2","pSARL_v2j2nvy4v4","628d78a2ccf4a41f24c2d2d8","reward","img/slot.png","74","","test","","","","","",""
"null","195409","pSARL_v2","pSARL_v2j2nvy4v4","628d78a2ccf4a41f24c2d2d8","points","<div class=""verylowPoints""> -11 </div>","null","na","test","","","","2","-11","1"
"null","196215","pSARL_v2","pSARL_v2j2nvy4v4","628d78a2ccf4a41f24c2d2d8","freq","img/green_2bandit_b2.png","null","70","test","0","42","42","3","",""
"null","196370","pSARL_v2","pSARL_v2j2nvy4v4","628d78a2ccf4a41f24c2d2d8","fixation","img/fixation.png","null","","test","","","","","",""
"715","197087","pSARL_v2","pSARL_v2j2nvy4v4","628d78a2ccf4a41f24c2d2d8","freq","img/green_2bandit_b2.png","70","70","test","1","43","43","3","",""
"null","197183","pSARL_v2","pSARL_v2j2nvy4v4","628d78a2ccf4a41f24c2d2d8","freq_resp","img/green_2bandit_b.png","70","70","test","","","","3","",""
"null","197342","pSARL_v2","pSARL_v2j2nvy4v4","628d78a2ccf4a41f24c2d2d8","fixation","img/fixation.png","null","","test","","","","","",""
"403","197750","pSARL_v2","pSARL_v2j2nvy4v4","628d78a2ccf4a41f24c2d2d8","freq","img/green_2bandit_b2.png","70","70","test","1","44","44","3","",""
"null","198152","pSARL_v2","pSARL_v2j2nvy4v4","628d78a2ccf4a41f24c2d2d8","freq_resp","img/green_2bandit_b.png","70","70","test","","","","3","",""
"null","198308","pSARL_v2","pSARL_v2j2nvy4v4","628d78a2ccf4a41f24c2d2d8","fixation","img/fixation.png","null","","test","","","","","",""
"395","198710","pSARL_v2","pSARL_v2j2nvy4v4","628d78a2ccf4a41f24c2d2d8","freq","img/green_2bandit_b2.png","70","70","test","1","45","45","3","",""
"null","199120","pSARL_v2","pSARL_v2j2nvy4v4","628d78a2ccf4a41f24c2d2d8","freq_resp","img/green_2bandit_b.png","70","70","test","","","","3","",""
"null","199276","pSARL_v2","pSARL_v2j2nvy4v4","628d78a2ccf4a41f24c2d2d8","fixation","img/fixation.png","null","","test","","","","","",""
"411","199691","pSARL_v2","pSARL_v2j2nvy4v4","628d78a2ccf4a41f24c2d2d8","freq","img/green_2bandit_b2.png","70","70","test","1","46","46","3","",""
"null","200085","pSARL_v2","pSARL_v2j2nvy4v4","628d78a2ccf4a41f24c2d2d8","freq_resp","img/green_2bandit_b.png","70","70","test","","","","3","",""
"null","200244","pSARL_v2","pSARL_v2j2nvy4v4","628d78a2ccf4a41f24c2d2d8","fixation","img/fixation.png","null","","test","","","","","",""
"464","200712","pSARL_v2","pSARL_v2j2nvy4v4","628d78a2ccf4a41f24c2d2d8","freq","img/green_2bandit_b2.png","70","70","test","1","47","47","3","",""
"null","201053","pSARL_v2","pSARL_v2j2nvy4v4","628d78a2ccf4a41f24c2d2d8","freq_resp","img/green_2bandit_b.png","70","70","test","","","","3","",""
"null","201208","pSARL_v2","pSARL_v2j2nvy4v4","628d78a2ccf4a41f24c2d2d8","fixation","img/fixation.png","null","","test","","","","","",""
"406","201619","pSARL_v2","pSARL_v2j2nvy4v4","628d78a2ccf4a41f24c2d2d8","freq","img/green_2bandit_b2.png","70","70","test","1","48","48","3","",""
"null","202019","pSARL_v2","pSARL_v2j2nvy4v4","628d78a2ccf4a41f24c2d2d8","freq_resp","img/green_2bandit_b.png","70","70","test","","","","3","",""
"null","202175","pSARL_v2","pSARL_v2j2nvy4v4","628d78a2ccf4a41f24c2d2d8","fixation","img/fixation.png","null","","test","","","","","",""
"389","202569","pSARL_v2","pSARL_v2j2nvy4v4","628d78a2ccf4a41f24c2d2d8","freq","img/green_2bandit_b2.png","70","70","test","1","49","49","3","",""
"null","202985","pSARL_v2","pSARL_v2j2nvy4v4","628d78a2ccf4a41f24c2d2d8","freq_resp","img/green_2bandit_b.png","70","70","test","","","","3","",""
"null","203141","pSARL_v2","pSARL_v2j2nvy4v4","628d78a2ccf4a41f24c2d2d8","fixation","img/fixation.png","null","","test","","","","","",""
"465","203610","pSARL_v2","pSARL_v2j2nvy4v4","628d78a2ccf4a41f24c2d2d8","freq","img/green_2bandit_b2.png","70","70","test","1","50","50","3","",""
"null","203950","pSARL_v2","pSARL_v2j2nvy4v4","628d78a2ccf4a41f24c2d2d8","freq_resp","img/green_2bandit_b.png","70","70","test","","","","3","",""
"null","204106","pSARL_v2","pSARL_v2j2nvy4v4","628d78a2ccf4a41f24c2d2d8","fixation","img/fixation.png","null","","test","","","","","",""
"520","204629","pSARL_v2","pSARL_v2j2nvy4v4","628d78a2ccf4a41f24c2d2d8","freq","img/green_2bandit_b2.png","70","70","test","1","51","51","3","",""
"null","204914","pSARL_v2","pSARL_v2j2nvy4v4","628d78a2ccf4a41f24c2d2d8","freq_resp","img/green_2bandit_b.png","70","70","test","","","","3","",""
"null","205070","pSARL_v2","pSARL_v2j2nvy4v4","628d78a2ccf4a41f24c2d2d8","fixation","img/fixation.png","null","","test","","","","","",""
"678","205752","pSARL_v2","pSARL_v2j2nvy4v4","628d78a2ccf4a41f24c2d2d8","freq","img/green_2bandit_b2.png","70","70","test","1","52","52","3","",""
"null","205880","pSARL_v2","pSARL_v2j2nvy4v4","628d78a2ccf4a41f24c2d2d8","freq_resp","img/green_2bandit_b.png","70","70","test","","","","3","",""
"null","206035","pSARL_v2","pSARL_v2j2nvy4v4","628d78a2ccf4a41f24c2d2d8","fixation","img/fixation.png","null","","test","","","","","",""
"727","206766","pSARL_v2","pSARL_v2j2nvy4v4","628d78a2ccf4a41f24c2d2d8","freq","img/green_2bandit_b2.png","70","70","test","1","53","53","3","",""
"null","206847","pSARL_v2","pSARL_v2j2nvy4v4","628d78a2ccf4a41f24c2d2d8","freq_resp","img/green_2bandit_b.png","70","70","test","","","","3","",""
"null","207004","pSARL_v2","pSARL_v2j2nvy4v4","628d78a2ccf4a41f24c2d2d8","fixation","img/fixation.png","null","","test","","","","","",""
"523","207532","pSARL_v2","pSARL_v2j2nvy4v4","628d78a2ccf4a41f24c2d2d8","infreq","img/orange_2bandit_b2.png","68","68","test","1","54","54","3","",""
"null","207814","pSARL_v2","pSARL_v2j2nvy4v4","628d78a2ccf4a41f24c2d2d8","infreq_resp","img/orange_2bandit_b.png","68","68","test","","","","3","",""
"null","207969","pSARL_v2","pSARL_v2j2nvy4v4","628d78a2ccf4a41f24c2d2d8","fixation","img/fixation.png","null","","test","","","","","",""
"490","208462","pSARL_v2","pSARL_v2j2nvy4v4","628d78a2ccf4a41f24c2d2d8","infreq","img/orange_2bandit_b2.png","68","68","test","1","55","55","3","",""
"null","208778","pSARL_v2","pSARL_v2j2nvy4v4","628d78a2ccf4a41f24c2d2d8","infreq_resp","img/orange_2bandit_b.png","68","68","test","","","","3","",""
"null","208933","pSARL_v2","pSARL_v2j2nvy4v4","628d78a2ccf4a41f24c2d2d8","fixation","img/fixation.png","null","","test","","","","","",""
"444","209382","pSARL_v2","pSARL_v2j2nvy4v4","628d78a2ccf4a41f24c2d2d8","freq","img/green_2bandit_b2.png","70","70","test","1","56","56","3","",""
"null","209743","pSARL_v2","pSARL_v2j2nvy4v4","628d78a2ccf4a41f24c2d2d8","freq_resp","img/green_2bandit_b.png","70","70","test","","","","3","",""
"null","209899","pSARL_v2","pSARL_v2j2nvy4v4","628d78a2ccf4a41f24c2d2d8","fixation","img/fixation.png","null","","test","","","","","",""
"454","210356","pSARL_v2","pSARL_v2j2nvy4v4","628d78a2ccf4a41f24c2d2d8","freq","img/green_2bandit_b2.png","70","70","test","1","57","57","3","",""
"null","210707","pSARL_v2","pSARL_v2j2nvy4v4","628d78a2ccf4a41f24c2d2d8","freq_resp","img/green_2bandit_b.png","70","70","test","","","","3","",""
"null","210863","pSARL_v2","pSARL_v2j2nvy4v4","628d78a2ccf4a41f24c2d2d8","fixation","img/fixation.png","null","","test","","","","","",""
"502","211369","pSARL_v2","pSARL_v2j2nvy4v4","628d78a2ccf4a41f24c2d2d8","infreq","img/orange_2bandit_b2.png","68","68","test","1","58","58","3","",""
"null","211676","pSARL_v2","pSARL_v2j2nvy4v4","628d78a2ccf4a41f24c2d2d8","infreq_resp","img/orange_2bandit_b.png","68","68","test","","","","3","",""
"null","211836","pSARL_v2","pSARL_v2j2nvy4v4","628d78a2ccf4a41f24c2d2d8","fixation","img/fixation.png","null","","test","","","","","",""
"479","212319","pSARL_v2","pSARL_v2j2nvy4v4","628d78a2ccf4a41f24c2d2d8","freq","img/green_2bandit_b2.png","70","70","test","1","59","59","3","",""
"null","212644","pSARL_v2","pSARL_v2j2nvy4v4","628d78a2ccf4a41f24c2d2d8","freq_resp","img/green_2bandit_b.png","70","70","test","","","","3","",""
"null","212798","pSARL_v2","pSARL_v2j2nvy4v4","628d78a2ccf4a41f24c2d2d8","fixation","img/fixation.png","null","","test","","","","","",""
"386","213189","pSARL_v2","pSARL_v2j2nvy4v4","628d78a2ccf4a41f24c2d2d8","freq","img/green_2bandit_b2.png","70","70","test","1","60","60","3","",""
"null","213608","pSARL_v2","pSARL_v2j2nvy4v4","628d78a2ccf4a41f24c2d2d8","freq_resp","img/green_2bandit_b.png","70","70","test","","","","3","",""
"null","213764","pSARL_v2","pSARL_v2j2nvy4v4","628d78a2ccf4a41f24c2d2d8","fixation","img/fixation.png","null","","test","","","","","",""
"355","214123","pSARL_v2","pSARL_v2j2nvy4v4","628d78a2ccf4a41f24c2d2d8","freq","img/green_2bandit_b2.png","70","70","test","1","61","61","3","",""
"null","214577","pSARL_v2","pSARL_v2j2nvy4v4","628d78a2ccf4a41f24c2d2d8","freq_resp","img/green_2bandit_b.png","70","70","test","","","","3","",""
"null","214741","pSARL_v2","pSARL_v2j2nvy4v4","628d78a2ccf4a41f24c2d2d8","fixation","img/fixation.png","null","","test","","","","","",""
"296","215045","pSARL_v2","pSARL_v2j2nvy4v4","628d78a2ccf4a41f24c2d2d8","freq","img/green_2bandit_b2.png","70","70","test","1","62","62","3","",""
"null","215555","pSARL_v2","pSARL_v2j2nvy4v4","628d78a2ccf4a41f24c2d2d8","freq_resp","img/green_2bandit_b.png","70","70","test","","","","3","",""
"null","215711","pSARL_v2","pSARL_v2j2nvy4v4","628d78a2ccf4a41f24c2d2d8","fixation","img/fixation.png","null","","test","","","","","",""
"468","216183","pSARL_v2","pSARL_v2j2nvy4v4","628d78a2ccf4a41f24c2d2d8","reward","img/slot.png","74","","test","","","","","",""
"null","216940","pSARL_v2","pSARL_v2j2nvy4v4","628d78a2ccf4a41f24c2d2d8","points","<div class=""verylowPoints""> -7 </div>","null","na","test","","","","3","-7","2"
"null","217745","pSARL_v2","pSARL_v2j2nvy4v4","628d78a2ccf4a41f24c2d2d8","freq","img/green_2bandit_b2.png","null","70","test","0","63","63","4","",""
"null","217899","pSARL_v2","pSARL_v2j2nvy4v4","628d78a2ccf4a41f24c2d2d8","fixation","img/fixation.png","null","","test","","","","","",""
"183","218090","pSARL_v2","pSARL_v2j2nvy4v4","628d78a2ccf4a41f24c2d2d8","freq","img/green_2bandit_b2.png","70","70","test","1","64","64","4","",""
"null","218713","pSARL_v2","pSARL_v2j2nvy4v4","628d78a2ccf4a41f24c2d2d8","freq_resp","img/green_2bandit_b.png","70","70","test","","","","4","",""
"null","218868","pSARL_v2","pSARL_v2j2nvy4v4","628d78a2ccf4a41f24c2d2d8","fixation","img/fixation.png","null","","test","","","","","",""
"335","219208","pSARL_v2","pSARL_v2j2nvy4v4","628d78a2ccf4a41f24c2d2d8","freq","img/green_2bandit_b2.png","70","70","test","1","65","65","4","",""
"null","219679","pSARL_v2","pSARL_v2j2nvy4v4","628d78a2ccf4a41f24c2d2d8","freq_resp","img/green_2bandit_b.png","70","70","test","","","","4","",""
"null","219835","pSARL_v2","pSARL_v2j2nvy4v4","628d78a2ccf4a41f24c2d2d8","fixation","img/fixation.png","null","","test","","","","","",""
"261","220098","pSARL_v2","pSARL_v2j2nvy4v4","628d78a2ccf4a41f24c2d2d8","freq","img/green_2bandit_b2.png","70","70","test","1","66","66","4","",""
"null","220643","pSARL_v2","pSARL_v2j2nvy4v4","628d78a2ccf4a41f24c2d2d8","freq_resp","img/green_2bandit_b.png","70","70","test","","","","4","",""
"null","220798","pSARL_v2","pSARL_v2j2nvy4v4","628d78a2ccf4a41f24c2d2d8","fixation","img/fixation.png","null","","test","","","","","",""
"415","221217","pSARL_v2","pSARL_v2j2nvy4v4","628d78a2ccf4a41f24c2d2d8","freq","img/green_2bandit_b2.png","70","70","test","1","67","67","4","",""
"null","221610","pSARL_v2","pSARL_v2j2nvy4v4","628d78a2ccf4a41f24c2d2d8","freq_resp","img/green_2bandit_b.png","70","70","test","","","","4","",""
"null","221769","pSARL_v2","pSARL_v2j2nvy4v4","628d78a2ccf4a41f24c2d2d8","fixation","img/fixation.png","null","","test","","","","","",""
"346","222119","pSARL_v2","pSARL_v2j2nvy4v4","628d78a2ccf4a41f24c2d2d8","freq","img/green_2bandit_b2.png","70","70","test","1","68","68","4","",""
"null","222578","pSARL_v2","pSARL_v2j2nvy4v4","628d78a2ccf4a41f24c2d2d8","freq_resp","img/green_2bandit_b.png","70","70","test","","","","4","",""
"null","222734","pSARL_v2","pSARL_v2j2nvy4v4","628d78a2ccf4a41f24c2d2d8","fixation","img/fixation.png","null","","test","","","","","",""
"418","223155","pSARL_v2","pSARL_v2j2nvy4v4","628d78a2ccf4a41f24c2d2d8","infreq","img/orange_2bandit_b2.png","68","68","test","1","69","69","4","",""
"null","223542","pSARL_v2","pSARL_v2j2nvy4v4","628d78a2ccf4a41f24c2d2d8","infreq_resp","img/orange_2bandit_b.png","68","68","test","","","","4","",""
"null","223697","pSARL_v2","pSARL_v2j2nvy4v4","628d78a2ccf4a41f24c2d2d8","fixation","img/fixation.png","null","","test","","","","","",""
"526","224228","pSARL_v2","pSARL_v2j2nvy4v4","628d78a2ccf4a41f24c2d2d8","freq","img/green_2bandit_b2.png","70","70","test","1","70","70","4","",""
"null","224508","pSARL_v2","pSARL_v2j2nvy4v4","628d78a2ccf4a41f24c2d2d8","freq_resp","img/green_2bandit_b.png","70","70","test","","","","4","",""
"null","224662","pSARL_v2","pSARL_v2j2nvy4v4","628d78a2ccf4a41f24c2d2d8","fixation","img/fixation.png","null","","test","","","","","",""
"415","225082","pSARL_v2","pSARL_v2j2nvy4v4","628d78a2ccf4a41f24c2d2d8","infreq","img/orange_2bandit_b2.png","68","68","test","1","71","71","4","",""
"null","225472","pSARL_v2","pSARL_v2j2nvy4v4","628d78a2ccf4a41f24c2d2d8","infreq_resp","img/orange_2bandit_b.png","68","68","test","","","","4","",""
"null","225629","pSARL_v2","pSARL_v2j2nvy4v4","628d78a2ccf4a41f24c2d2d8","fixation","img/fixation.png","null","","test","","","","","",""
"392","226025","pSARL_v2","pSARL_v2j2nvy4v4","628d78a2ccf4a41f24c2d2d8","freq","img/green_2bandit_b2.png","70","70","test","1","72","72","4","",""
"null","226441","pSARL_v2","pSARL_v2j2nvy4v4","628d78a2ccf4a41f24c2d2d8","freq_resp","img/green_2bandit_b.png","70","70","test","","","","4","",""
"null","226598","pSARL_v2","pSARL_v2j2nvy4v4","628d78a2ccf4a41f24c2d2d8","fixation","img/fixation.png","null","","test","","","","","",""
"395","226998","pSARL_v2","pSARL_v2j2nvy4v4","628d78a2ccf4a41f24c2d2d8","freq","img/green_2bandit_b2.png","70","70","test","1","73","73","4","",""
"null","227407","pSARL_v2","pSARL_v2j2nvy4v4","628d78a2ccf4a41f24c2d2d8","freq_resp","img/green_2bandit_b.png","70","70","test","","","","4","",""
"null","227563","pSARL_v2","pSARL_v2j2nvy4v4","628d78a2ccf4a41f24c2d2d8","fixation","img/fixation.png","null","","test","","","","","",""
"387","227953","pSARL_v2","pSARL_v2j2nvy4v4","628d78a2ccf4a41f24c2d2d8","freq","img/green_2bandit_b2.png","70","70","test","1","74","74","4","",""
"null","228372","pSARL_v2","pSARL_v2j2nvy4v4","628d78a2ccf4a41f24c2d2d8","freq_resp","img/green_2bandit_b.png","70","70","test","","","","4","",""
"null","228527","pSARL_v2","pSARL_v2j2nvy4v4","628d78a2ccf4a41f24c2d2d8","fixation","img/fixation.png","null","","test","","","","","",""
"348","228879","pSARL_v2","pSARL_v2j2nvy4v4","628d78a2ccf4a41f24c2d2d8","freq","img/green_2bandit_b2.png","70","70","test","1","75","75","4","",""
"null","229336","pSARL_v2","pSARL_v2j2nvy4v4","628d78a2ccf4a41f24c2d2d8","freq_resp","img/green_2bandit_b.png","70","70","test","","","","4","",""
"null","229492","pSARL_v2","pSARL_v2j2nvy4v4","628d78a2ccf4a41f24c2d2d8","fixation","img/fixation.png","null","","test","","","","","",""
"382","229878","pSARL_v2","pSARL_v2j2nvy4v4","628d78a2ccf4a41f24c2d2d8","freq","img/green_2bandit_b2.png","70","70","test","1","76","76","4","",""
"null","230301","pSARL_v2","pSARL_v2j2nvy4v4","628d78a2ccf4a41f24c2d2d8","freq_resp","img/green_2bandit_b.png","70","70","test","","","","4","",""
"null","230457","pSARL_v2","pSARL_v2j2nvy4v4","628d78a2ccf4a41f24c2d2d8","fixation","img/fixation.png","null","","test","","","","","",""
"325","230786","pSARL_v2","pSARL_v2j2nvy4v4","628d78a2ccf4a41f24c2d2d8","freq","img/green_2bandit_b2.png","70","70","test","1","77","77","4","",""
"null","231268","pSARL_v2","pSARL_v2j2nvy4v4","628d78a2ccf4a41f24c2d2d8","freq_resp","img/green_2bandit_b.png","70","70","test","","","","4","",""
"null","231426","pSARL_v2","pSARL_v2j2nvy4v4","628d78a2ccf4a41f24c2d2d8","fixation","img/fixation.png","null","","test","","","","","",""
"333","231763","pSARL_v2","pSARL_v2j2nvy4v4","628d78a2ccf4a41f24c2d2d8","freq","img/green_2bandit_b2.png","70","70","test","1","78","78","4","",""
"null","232235","pSARL_v2","pSARL_v2j2nvy4v4","628d78a2ccf4a41f24c2d2d8","freq_resp","img/green_2bandit_b.png","70","70","test","","","","4","",""
"null","232397","pSARL_v2","pSARL_v2j2nvy4v4","628d78a2ccf4a41f24c2d2d8","fixation","img/fixation.png","null","","test","","","","","",""
"319","232720","pSARL_v2","pSARL_v2j2nvy4v4","628d78a2ccf4a41f24c2d2d8","freq","img/green_2bandit_b2.png","70","70","test","1","79","79","4","",""
"null","233208","pSARL_v2","pSARL_v2j2nvy4v4","628d78a2ccf4a41f24c2d2d8","freq_resp","img/green_2bandit_b.png","70","70","test","","","","4","",""
"null","233366","pSARL_v2","pSARL_v2j2nvy4v4","628d78a2ccf4a41f24c2d2d8","fixation","img/fixation.png","null","","test","","","","","",""
"364","233738","pSARL_v2","pSARL_v2j2nvy4v4","628d78a2ccf4a41f24c2d2d8","freq","img/green_2bandit_b2.png","70","70","test","1","80","80","4","",""
"null","234179","pSARL_v2","pSARL_v2j2nvy4v4","628d78a2ccf4a41f24c2d2d8","freq_resp","img/green_2bandit_b.png","70","70","test","","","","4","",""
"null","234334","pSARL_v2","pSARL_v2j2nvy4v4","628d78a2ccf4a41f24c2d2d8","fixation","img/fixation.png","null","","test","","","","","",""
"303","234641","pSARL_v2","pSARL_v2j2nvy4v4","628d78a2ccf4a41f24c2d2d8","freq","img/green_2bandit_b2.png","70","70","test","1","81","81","4","",""
"null","235143","pSARL_v2","pSARL_v2j2nvy4v4","628d78a2ccf4a41f24c2d2d8","freq_resp","img/green_2bandit_b.png","70","70","test","","","","4","",""
"null","235298","pSARL_v2","pSARL_v2j2nvy4v4","628d78a2ccf4a41f24c2d2d8","fixation","img/fixation.png","null","","test","","","","","",""
"309","235612","pSARL_v2","pSARL_v2j2nvy4v4","628d78a2ccf4a41f24c2d2d8","freq","img/green_2bandit_b2.png","70","70","test","1","82","82","4","",""
"null","236117","pSARL_v2","pSARL_v2j2nvy4v4","628d78a2ccf4a41f24c2d2d8","freq_resp","img/green_2bandit_b.png","70","70","test","","","","4","",""
"null","236272","pSARL_v2","pSARL_v2j2nvy4v4","628d78a2ccf4a41f24c2d2d8","fixation","img/fixation.png","null","","test","","","","","",""
"360","236635","pSARL_v2","pSARL_v2j2nvy4v4","628d78a2ccf4a41f24c2d2d8","freq","img/green_2bandit_b2.png","70","70","test","1","83","83","4","",""
"null","237081","pSARL_v2","pSARL_v2j2nvy4v4","628d78a2ccf4a41f24c2d2d8","freq_resp","img/green_2bandit_b.png","70","70","test","","","","4","",""
"null","237237","pSARL_v2","pSARL_v2j2nvy4v4","628d78a2ccf4a41f24c2d2d8","fixation","img/fixation.png","null","","test","","","","","",""
"399","237639","pSARL_v2","pSARL_v2j2nvy4v4","628d78a2ccf4a41f24c2d2d8","infreq","img/orange_2bandit_b2.png","68","68","test","1","84","84","4","",""
"null","238047","pSARL_v2","pSARL_v2j2nvy4v4","628d78a2ccf4a41f24c2d2d8","infreq_resp","img/orange_2bandit_b.png","68","68","test","","","","4","",""
"null","238203","pSARL_v2","pSARL_v2j2nvy4v4","628d78a2ccf4a41f24c2d2d8","fixation","img/fixation.png","null","","test","","","","","",""
"363","238572","pSARL_v2","pSARL_v2j2nvy4v4","628d78a2ccf4a41f24c2d2d8","freq","img/green_2bandit_b2.png","70","70","test","1","85","85","4","",""
"null","239014","pSARL_v2","pSARL_v2j2nvy4v4","628d78a2ccf4a41f24c2d2d8","freq_resp","img/green_2bandit_b.png","70","70","test","","","","4","",""
"null","239169","pSARL_v2","pSARL_v2j2nvy4v4","628d78a2ccf4a41f24c2d2d8","fixation","img/fixation.png","null","","test","","","","","",""
"481","239653","pSARL_v2","pSARL_v2j2nvy4v4","628d78a2ccf4a41f24c2d2d8","freq","img/green_2bandit_b2.png","70","70","test","1","86","86","4","",""
"null","239980","pSARL_v2","pSARL_v2j2nvy4v4","628d78a2ccf4a41f24c2d2d8","freq_resp","img/green_2bandit_b.png","70","70","test","","","","4","",""
"null","240139","pSARL_v2","pSARL_v2j2nvy4v4","628d78a2ccf4a41f24c2d2d8","fixation","img/fixation.png","null","","test","","","","","",""
"348","240490","pSARL_v2","pSARL_v2j2nvy4v4","628d78a2ccf4a41f24c2d2d8","freq","img/green_2bandit_b2.png","70","70","test","1","87","87","4","",""
"null","240947","pSARL_v2","pSARL_v2j2nvy4v4","628d78a2ccf4a41f24c2d2d8","freq_resp","img/green_2bandit_b.png","70","70","test","","","","4","",""
"null","241106","pSARL_v2","pSARL_v2j2nvy4v4","628d78a2ccf4a41f24c2d2d8","fixation","img/fixation.png","null","","test","","","","","",""
"357","241467","pSARL_v2","pSARL_v2j2nvy4v4","628d78a2ccf4a41f24c2d2d8","freq","img/green_2bandit_b2.png","70","70","test","1","88","88","4","",""
"null","241915","pSARL_v2","pSARL_v2j2nvy4v4","628d78a2ccf4a41f24c2d2d8","freq_resp","img/green_2bandit_b.png","70","70","test","","","","4","",""
"null","242079","pSARL_v2","pSARL_v2j2nvy4v4","628d78a2ccf4a41f24c2d2d8","fixation","img/fixation.png","null","","test","","","","","",""
"354","242438","pSARL_v2","pSARL_v2j2nvy4v4","628d78a2ccf4a41f24c2d2d8","freq","img/green_2bandit_b2.png","70","70","test","1","89","89","4","",""
"null","242890","pSARL_v2","pSARL_v2j2nvy4v4","628d78a2ccf4a41f24c2d2d8","freq_resp","img/green_2bandit_b.png","70","70","test","","","","4","",""
"null","243045","pSARL_v2","pSARL_v2j2nvy4v4","628d78a2ccf4a41f24c2d2d8","fixation","img/fixation.png","null","","test","","","","","",""
"488","243537","pSARL_v2","pSARL_v2j2nvy4v4","628d78a2ccf4a41f24c2d2d8","reward","img/slot.png","74","","test","","","","","",""
"null","244292","pSARL_v2","pSARL_v2j2nvy4v4","628d78a2ccf4a41f24c2d2d8","points","<div class=""verylowPoints""> -3 </div>","null","na","test","","","","4","-3","3"
"null","245098","pSARL_v2","pSARL_v2j2nvy4v4","628d78a2ccf4a41f24c2d2d8","freq","img/green_2bandit_b2.png","null","70","test","0","90","90","5","",""
"null","245253","pSARL_v2","pSARL_v2j2nvy4v4","628d78a2ccf4a41f24c2d2d8","fixation","img/fixation.png","null","","test","","","","","",""
"null","246059","pSARL_v2","pSARL_v2j2nvy4v4","628d78a2ccf4a41f24c2d2d8","freq","img/green_2bandit_b2.png","null","70","test","0","91","91","5","",""
"null","246214","pSARL_v2","pSARL_v2j2nvy4v4","628d78a2ccf4a41f24c2d2d8","fixation","img/fixation.png","null","","test","","","","","",""
"null","247020","pSARL_v2","pSARL_v2j2nvy4v4","628d78a2ccf4a41f24c2d2d8","freq","img/green_2bandit_b2.png","null","70","test","0","92","92","5","",""
"null","247177","pSARL_v2","pSARL_v2j2nvy4v4","628d78a2ccf4a41f24c2d2d8","fixation","img/fixation.png","null","","test","","","","","",""
"173","247354","pSARL_v2","pSARL_v2j2nvy4v4","628d78a2ccf4a41f24c2d2d8","freq","img/green_2bandit_b2.png","70","70","test","1","93","93","5","",""
"null","247986","pSARL_v2","pSARL_v2j2nvy4v4","628d78a2ccf4a41f24c2d2d8","freq_resp","img/green_2bandit_b.png","70","70","test","","","","5","",""
"null","248143","pSARL_v2","pSARL_v2j2nvy4v4","628d78a2ccf4a41f24c2d2d8","fixation","img/fixation.png","null","","test","","","","","",""
"118","248266","pSARL_v2","pSARL_v2j2nvy4v4","628d78a2ccf4a41f24c2d2d8","freq","img/green_2bandit_b2.png","70","70","test","1","94","94","5","",""
"null","248965","pSARL_v2","pSARL_v2j2nvy4v4","628d78a2ccf4a41f24c2d2d8","freq_resp","img/green_2bandit_b.png","70","70","test","","","","5","",""
"null","249121","pSARL_v2","pSARL_v2j2nvy4v4","628d78a2ccf4a41f24c2d2d8","fixation","img/fixation.png","null","","test","","","","","",""
"107","249231","pSARL_v2","pSARL_v2j2nvy4v4","628d78a2ccf4a41f24c2d2d8","infreq","img/orange_2bandit_b2.png","70","68","test","0","95","95","5","",""
"null","249931","pSARL_v2","pSARL_v2j2nvy4v4","628d78a2ccf4a41f24c2d2d8","infreq_resp","img/orange_2bandit_b.png","70","68","test","","","","5","",""
"null","250086","pSARL_v2","pSARL_v2j2nvy4v4","628d78a2ccf4a41f24c2d2d8","fixation","img/fixation.png","null","","test","","","","","",""
"315","250405","pSARL_v2","pSARL_v2j2nvy4v4","628d78a2ccf4a41f24c2d2d8","freq","img/green_2bandit_b2.png","70","70","test","1","96","96","5","",""
"null","250898","pSARL_v2","pSARL_v2j2nvy4v4","628d78a2ccf4a41f24c2d2d8","freq_resp","img/green_2bandit_b.png","70","70","test","","","","5","",""
"null","251058","pSARL_v2","pSARL_v2j2nvy4v4","628d78a2ccf4a41f24c2d2d8","fixation","img/fixation.png","null","","test","","","","","",""
"346","251407","pSARL_v2","pSARL_v2j2nvy4v4","628d78a2ccf4a41f24c2d2d8","freq","img/green_2bandit_b2.png","70","70","test","1","97","97","5","",""
"null","251866","pSARL_v2","pSARL_v2j2nvy4v4","628d78a2ccf4a41f24c2d2d8","freq_resp","img/green_2bandit_b.png","70","70","test","","","","5","",""
"null","252022","pSARL_v2","pSARL_v2j2nvy4v4","628d78a2ccf4a41f24c2d2d8","fixation","img/fixation.png","null","","test","","","","","",""
"303","252327","pSARL_v2","pSARL_v2j2nvy4v4","628d78a2ccf4a41f24c2d2d8","freq","img/green_2bandit_b2.png","70","70","test","1","98","98","5","",""
"null","252829","pSARL_v2","pSARL_v2j2nvy4v4","628d78a2ccf4a41f24c2d2d8","freq_resp","img/green_2bandit_b.png","70","70","test","","","","5","",""
"null","252984","pSARL_v2","pSARL_v2j2nvy4v4","628d78a2ccf4a41f24c2d2d8","fixation","img/fixation.png","null","","test","","","","","",""
"304","253292","pSARL_v2","pSARL_v2j2nvy4v4","628d78a2ccf4a41f24c2d2d8","freq","img/green_2bandit_b2.png","70","70","test","1","99","99","5","",""
"null","253793","pSARL_v2","pSARL_v2j2nvy4v4","628d78a2ccf4a41f24c2d2d8","freq_resp","img/green_2bandit_b.png","70","70","test","","","","5","",""
"null","253950","pSARL_v2","pSARL_v2j2nvy4v4","628d78a2ccf4a41f24c2d2d8","fixation","img/fixation.png","null","","test","","","","","",""
"317","254271","pSARL_v2","pSARL_v2j2nvy4v4","628d78a2ccf4a41f24c2d2d8","freq","img/green_2bandit_b2.png","70","70","test","1","100","100","5","",""
"null","254759","pSARL_v2","pSARL_v2j2nvy4v4","628d78a2ccf4a41f24c2d2d8","freq_resp","img/green_2bandit_b.png","70","70","test","","","","5","",""
"null","254915","pSARL_v2","pSARL_v2j2nvy4v4","628d78a2ccf4a41f24c2d2d8","fixation","img/fixation.png","null","","test","","","","","",""
"288","255209","pSARL_v2","pSARL_v2j2nvy4v4","628d78a2ccf4a41f24c2d2d8","freq","img/green_2bandit_b2.png","70","70","test","1","101","101","5","",""
"null","255726","pSARL_v2","pSARL_v2j2nvy4v4","628d78a2ccf4a41f24c2d2d8","freq_resp","img/green_2bandit_b.png","70","70","test","","","","5","",""
"null","255881","pSARL_v2","pSARL_v2j2nvy4v4","628d78a2ccf4a41f24c2d2d8","fixation","img/fixation.png","null","","test","","","","","",""
"304","256189","pSARL_v2","pSARL_v2j2nvy4v4","628d78a2ccf4a41f24c2d2d8","freq","img/green_2bandit_b2.png","70","70","test","1","102","102","5","",""
"null","256690","pSARL_v2","pSARL_v2j2nvy4v4","628d78a2ccf4a41f24c2d2d8","freq_resp","img/green_2bandit_b.png","70","70","test","","","","5","",""
"null","256844","pSARL_v2","pSARL_v2j2nvy4v4","628d78a2ccf4a41f24c2d2d8","fixation","img/fixation.png","null","","test","","","","","",""
"340","257188","pSARL_v2","pSARL_v2j2nvy4v4","628d78a2ccf4a41f24c2d2d8","infreq","img/orange_2bandit_b2.png","68","68","test","1","103","103","5","",""
"null","257653","pSARL_v2","pSARL_v2j2nvy4v4","628d78a2ccf4a41f24c2d2d8","infreq_resp","img/orange_2bandit_b.png","68","68","test","","","","5","",""
"null","257809","pSARL_v2","pSARL_v2j2nvy4v4","628d78a2ccf4a41f24c2d2d8","fixation","img/fixation.png","null","","test","","","","","",""
"463","258276","pSARL_v2","pSARL_v2j2nvy4v4","628d78a2ccf4a41f24c2d2d8","freq","img/green_2bandit_b2.png","70","70","test","1","104","104","5","",""
"null","258621","pSARL_v2","pSARL_v2j2nvy4v4","628d78a2ccf4a41f24c2d2d8","freq_resp","img/green_2bandit_b.png","70","70","test","","","","5","",""
"null","258779","pSARL_v2","pSARL_v2j2nvy4v4","628d78a2ccf4a41f24c2d2d8","fixation","img/fixation.png","null","","test","","","","","",""
"371","259154","pSARL_v2","pSARL_v2j2nvy4v4","628d78a2ccf4a41f24c2d2d8","freq","img/green_2bandit_b2.png","70","70","test","1","105","105","5","",""
"null","259589","pSARL_v2","pSARL_v2j2nvy4v4","628d78a2ccf4a41f24c2d2d8","freq_resp","img/green_2bandit_b.png","70","70","test","","","","5","",""
"null","259745","pSARL_v2","pSARL_v2j2nvy4v4","628d78a2ccf4a41f24c2d2d8","fixation","img/fixation.png","null","","test","","","","","",""
"337","260089","pSARL_v2","pSARL_v2j2nvy4v4","628d78a2ccf4a41f24c2d2d8","freq","img/green_2bandit_b2.png","70","70","test","1","106","106","5","",""
"null","260560","pSARL_v2","pSARL_v2j2nvy4v4","628d78a2ccf4a41f24c2d2d8","freq_resp","img/green_2bandit_b.png","70","70","test","","","","5","",""
"null","260715","pSARL_v2","pSARL_v2j2nvy4v4","628d78a2ccf4a41f24c2d2d8","fixation","img/fixation.png","null","","test","","","","","",""
"380","261101","pSARL_v2","pSARL_v2j2nvy4v4","628d78a2ccf4a41f24c2d2d8","freq","img/green_2bandit_b2.png","70","70","test","1","107","107","5","",""
"null","261526","pSARL_v2","pSARL_v2j2nvy4v4","628d78a2ccf4a41f24c2d2d8","freq_resp","img/green_2bandit_b.png","70","70","test","","","","5","",""
"null","261682","pSARL_v2","pSARL_v2j2nvy4v4","628d78a2ccf4a41f24c2d2d8","fixation","img/fixation.png","null","","test","","","","","",""
"444","262128","pSARL_v2","pSARL_v2j2nvy4v4","628d78a2ccf4a41f24c2d2d8","freq","img/green_2bandit_b2.png","70","70","test","1","108","108","5","",""
"null","262489","pSARL_v2","pSARL_v2j2nvy4v4","628d78a2ccf4a41f24c2d2d8","freq_resp","img/green_2bandit_b.png","70","70","test","","","","5","",""
"null","262644","pSARL_v2","pSARL_v2j2nvy4v4","628d78a2ccf4a41f24c2d2d8","fixation","img/fixation.png","null","","test","","","","","",""
"476","263123","pSARL_v2","pSARL_v2j2nvy4v4","628d78a2ccf4a41f24c2d2d8","freq","img/green_2bandit_b2.png","70","70","test","1","109","109","5","",""
"null","263456","pSARL_v2","pSARL_v2j2nvy4v4","628d78a2ccf4a41f24c2d2d8","freq_resp","img/green_2bandit_b.png","70","70","test","","","","5","",""
"null","263613","pSARL_v2","pSARL_v2j2nvy4v4","628d78a2ccf4a41f24c2d2d8","fixation","img/fixation.png","null","","test","","","","","",""
"519","264140","pSARL_v2","pSARL_v2j2nvy4v4","628d78a2ccf4a41f24c2d2d8","freq","img/green_2bandit_b2.png","70","70","test","1","110","110","5","",""
"null","264426","pSARL_v2","pSARL_v2j2nvy4v4","628d78a2ccf4a41f24c2d2d8","freq_resp","img/green_2bandit_b.png","70","70","test","","","","5","",""
"null","264581","pSARL_v2","pSARL_v2j2nvy4v4","628d78a2ccf4a41f24c2d2d8","fixation","img/fixation.png","null","","test","","","","","",""
"455","265041","pSARL_v2","pSARL_v2j2nvy4v4","628d78a2ccf4a41f24c2d2d8","freq","img/green_2bandit_b2.png","70","70","test","1","111","111","5","",""
"null","265391","pSARL_v2","pSARL_v2j2nvy4v4","628d78a2ccf4a41f24c2d2d8","freq_resp","img/green_2bandit_b.png","70","70","test","","","","5","",""
"null","265547","pSARL_v2","pSARL_v2j2nvy4v4","628d78a2ccf4a41f24c2d2d8","fixation","img/fixation.png","null","","test","","","","","",""
"519","266069","pSARL_v2","pSARL_v2j2nvy4v4","628d78a2ccf4a41f24c2d2d8","freq","img/green_2bandit_b2.png","70","70","test","1","112","112","5","",""
"null","266355","pSARL_v2","pSARL_v2j2nvy4v4","628d78a2ccf4a41f24c2d2d8","freq_resp","img/green_2bandit_b.png","70","70","test","","","","5","",""
"null","266511","pSARL_v2","pSARL_v2j2nvy4v4","628d78a2ccf4a41f24c2d2d8","fixation","img/fixation.png","null","","test","","","","","",""
"338","266853","pSARL_v2","pSARL_v2j2nvy4v4","628d78a2ccf4a41f24c2d2d8","freq","img/green_2bandit_b2.png","70","70","test","1","113","113","5","",""
"null","267322","pSARL_v2","pSARL_v2j2nvy4v4","628d78a2ccf4a41f24c2d2d8","freq_resp","img/green_2bandit_b.png","70","70","test","","","","5","",""
"null","267477","pSARL_v2","pSARL_v2j2nvy4v4","628d78a2ccf4a41f24c2d2d8","fixation","img/fixation.png","null","","test","","","","","",""
"345","267826","pSARL_v2","pSARL_v2j2nvy4v4","628d78a2ccf4a41f24c2d2d8","freq","img/green_2bandit_b2.png","70","70","test","1","114","114","5","",""
"null","268289","pSARL_v2","pSARL_v2j2nvy4v4","628d78a2ccf4a41f24c2d2d8","freq_resp","img/green_2bandit_b.png","70","70","test","","","","5","",""
"null","268447","pSARL_v2","pSARL_v2j2nvy4v4","628d78a2ccf4a41f24c2d2d8","fixation","img/fixation.png","null","","test","","","","","",""
"343","268794","pSARL_v2","pSARL_v2j2nvy4v4","628d78a2ccf4a41f24c2d2d8","freq","img/green_2bandit_b2.png","70","70","test","1","115","115","5","",""
"null","269256","pSARL_v2","pSARL_v2j2nvy4v4","628d78a2ccf4a41f24c2d2d8","freq_resp","img/green_2bandit_b.png","70","70","test","","","","5","",""
"null","269418","pSARL_v2","pSARL_v2j2nvy4v4","628d78a2ccf4a41f24c2d2d8","fixation","img/fixation.png","null","","test","","","","","",""
"528","269950","pSARL_v2","pSARL_v2j2nvy4v4","628d78a2ccf4a41f24c2d2d8","reward","img/slot.png","74","","test","","","","","",""
"null","270707","pSARL_v2","pSARL_v2j2nvy4v4","628d78a2ccf4a41f24c2d2d8","points","<div class=""veryhighPoints""> +1 </div>","null","na","test","","","","5","1","4"
"null","271513","pSARL_v2","pSARL_v2j2nvy4v4","628d78a2ccf4a41f24c2d2d8","freq","img/green_2bandit_b2.png","null","70","test","0","116","116","6","",""
"null","271669","pSARL_v2","pSARL_v2j2nvy4v4","628d78a2ccf4a41f24c2d2d8","fixation","img/fixation.png","null","","test","","","","","",""
"483","272156","pSARL_v2","pSARL_v2j2nvy4v4","628d78a2ccf4a41f24c2d2d8","freq","img/green_2bandit_b2.png","70","70","test","1","117","117","6","",""
"null","272478","pSARL_v2","pSARL_v2j2nvy4v4","628d78a2ccf4a41f24c2d2d8","freq_resp","img/green_2bandit_b.png","70","70","test","","","","6","",""
"null","272633","pSARL_v2","pSARL_v2j2nvy4v4","628d78a2ccf4a41f24c2d2d8","fixation","img/fixation.png","null","","test","","","","","",""
"274","272912","pSARL_v2","pSARL_v2j2nvy4v4","628d78a2ccf4a41f24c2d2d8","infreq","img/orange_2bandit_b2.png","70","68","test","0","118","118","6","",""
"null","273443","pSARL_v2","pSARL_v2j2nvy4v4","628d78a2ccf4a41f24c2d2d8","infreq_resp","img/orange_2bandit_b.png","70","68","test","","","","6","",""
"null","273599","pSARL_v2","pSARL_v2j2nvy4v4","628d78a2ccf4a41f24c2d2d8","fixation","img/fixation.png","null","","test","","","","","",""
"339","273941","pSARL_v2","pSARL_v2j2nvy4v4","628d78a2ccf4a41f24c2d2d8","freq","img/green_2bandit_b2.png","70","70","test","1","119","119","6","",""
"null","274407","pSARL_v2","pSARL_v2j2nvy4v4","628d78a2ccf4a41f24c2d2d8","freq_resp","img/green_2bandit_b.png","70","70","test","","","","6","",""
"null","274562","pSARL_v2","pSARL_v2j2nvy4v4","628d78a2ccf4a41f24c2d2d8","fixation","img/fixation.png","null","","test","","","","","",""
"420","274986","pSARL_v2","pSARL_v2j2nvy4v4","628d78a2ccf4a41f24c2d2d8","freq","img/green_2bandit_b2.png","70","70","test","1","120","120","6","",""
"null","275373","pSARL_v2","pSARL_v2j2nvy4v4","628d78a2ccf4a41f24c2d2d8","freq_resp","img/green_2bandit_b.png","70","70","test","","","","6","",""
"null","275531","pSARL_v2","pSARL_v2j2nvy4v4","628d78a2ccf4a41f24c2d2d8","fixation","img/fixation.png","null","","test","","","","","",""
"400","275936","pSARL_v2","pSARL_v2j2nvy4v4","628d78a2ccf4a41f24c2d2d8","freq","img/green_2bandit_b2.png","70","70","test","1","121","121","6","",""
"null","276341","pSARL_v2","pSARL_v2j2nvy4v4","628d78a2ccf4a41f24c2d2d8","freq_resp","img/green_2bandit_b.png","70","70","test","","","","6","",""
"null","276496","pSARL_v2","pSARL_v2j2nvy4v4","628d78a2ccf4a41f24c2d2d8","fixation","img/fixation.png","null","","test","","","","","",""
"346","276846","pSARL_v2","pSARL_v2j2nvy4v4","628d78a2ccf4a41f24c2d2d8","freq","img/green_2bandit_b2.png","70","70","test","1","122","122","6","",""
"null","277315","pSARL_v2","pSARL_v2j2nvy4v4","628d78a2ccf4a41f24c2d2d8","freq_resp","img/green_2bandit_b.png","70","70","test","","","","6","",""
"null","277472","pSARL_v2","pSARL_v2j2nvy4v4","628d78a2ccf4a41f24c2d2d8","fixation","img/fixation.png","null","","test","","","","","",""
"432","277907","pSARL_v2","pSARL_v2j2nvy4v4","628d78a2ccf4a41f24c2d2d8","freq","img/green_2bandit_b2.png","70","70","test","1","123","123","6","",""
"null","278281","pSARL_v2","pSARL_v2j2nvy4v4","628d78a2ccf4a41f24c2d2d8","freq_resp","img/green_2bandit_b.png","70","70","test","","","","6","",""
"null","278436","pSARL_v2","pSARL_v2j2nvy4v4","628d78a2ccf4a41f24c2d2d8","fixation","img/fixation.png","null","","test","","","","","",""
"468","278908","pSARL_v2","pSARL_v2j2nvy4v4","628d78a2ccf4a41f24c2d2d8","infreq","img/orange_2bandit_b2.png","68","68","test","1","124","124","6","",""
"null","279246","pSARL_v2","pSARL_v2j2nvy4v4","628d78a2ccf4a41f24c2d2d8","infreq_resp","img/orange_2bandit_b.png","68","68","test","","","","6","",""
"null","279402","pSARL_v2","pSARL_v2j2nvy4v4","628d78a2ccf4a41f24c2d2d8","fixation","img/fixation.png","null","","test","","","","","",""
"500","279906","pSARL_v2","pSARL_v2j2nvy4v4","628d78a2ccf4a41f24c2d2d8","freq","img/green_2bandit_b2.png","70","70","test","1","125","125","6","",""
"null","280212","pSARL_v2","pSARL_v2j2nvy4v4","628d78a2ccf4a41f24c2d2d8","freq_resp","img/green_2bandit_b.png","70","70","test","","","","6","",""
"null","280367","pSARL_v2","pSARL_v2j2nvy4v4","628d78a2ccf4a41f24c2d2d8","fixation","img/fixation.png","null","","test","","","","","",""
"411","280786","pSARL_v2","pSARL_v2j2nvy4v4","628d78a2ccf4a41f24c2d2d8","freq","img/green_2bandit_b2.png","70","70","test","1","126","126","6","",""
"null","281180","pSARL_v2","pSARL_v2j2nvy4v4","628d78a2ccf4a41f24c2d2d8","freq_resp","img/green_2bandit_b.png","70","70","test","","","","6","",""
"null","281334","pSARL_v2","pSARL_v2j2nvy4v4","628d78a2ccf4a41f24c2d2d8","fixation","img/fixation.png","null","","test","","","","","",""
"351","281689","pSARL_v2","pSARL_v2j2nvy4v4","628d78a2ccf4a41f24c2d2d8","freq","img/green_2bandit_b2.png","70","70","test","1","127","127","6","",""
"null","282144","pSARL_v2","pSARL_v2j2nvy4v4","628d78a2ccf4a41f24c2d2d8","freq_resp","img/green_2bandit_b.png","70","70","test","","","","6","",""
"null","282310","pSARL_v2","pSARL_v2j2nvy4v4","628d78a2ccf4a41f24c2d2d8","fixation","img/fixation.png","null","","test","","","","","",""
"701","283014","pSARL_v2","pSARL_v2j2nvy4v4","628d78a2ccf4a41f24c2d2d8","freq","img/green_2bandit_b2.png","70","70","test","1","128","128","6","",""
"null","283118","pSARL_v2","pSARL_v2j2nvy4v4","628d78a2ccf4a41f24c2d2d8","freq_resp","img/green_2bandit_b.png","70","70","test","","","","6","",""
"null","283276","pSARL_v2","pSARL_v2j2nvy4v4","628d78a2ccf4a41f24c2d2d8","fixation","img/fixation.png","null","","test","","","","","",""
"566","283845","pSARL_v2","pSARL_v2j2nvy4v4","628d78a2ccf4a41f24c2d2d8","freq","img/green_2bandit_b2.png","70","70","test","1","129","129","6","",""
"null","284086","pSARL_v2","pSARL_v2j2nvy4v4","628d78a2ccf4a41f24c2d2d8","freq_resp","img/green_2bandit_b.png","70","70","test","","","","6","",""
"null","284242","pSARL_v2","pSARL_v2j2nvy4v4","628d78a2ccf4a41f24c2d2d8","fixation","img/fixation.png","null","","test","","","","","",""
"325","284571","pSARL_v2","pSARL_v2j2nvy4v4","628d78a2ccf4a41f24c2d2d8","freq","img/green_2bandit_b2.png","70","70","test","1","130","130","6","",""
"null","285050","pSARL_v2","pSARL_v2j2nvy4v4","628d78a2ccf4a41f24c2d2d8","freq_resp","img/green_2bandit_b.png","70","70","test","","","","6","",""
"null","285206","pSARL_v2","pSARL_v2j2nvy4v4","628d78a2ccf4a41f24c2d2d8","fixation","img/fixation.png","null","","test","","","","","",""
"301","285511","pSARL_v2","pSARL_v2j2nvy4v4","628d78a2ccf4a41f24c2d2d8","freq","img/green_2bandit_b2.png","70","70","test","1","131","131","6","",""
"null","286018","pSARL_v2","pSARL_v2j2nvy4v4","628d78a2ccf4a41f24c2d2d8","freq_resp","img/green_2bandit_b.png","70","70","test","","","","6","",""
"null","286174","pSARL_v2","pSARL_v2j2nvy4v4","628d78a2ccf4a41f24c2d2d8","fixation","img/fixation.png","null","","test","","","","","",""
"311","286489","pSARL_v2","pSARL_v2j2nvy4v4","628d78a2ccf4a41f24c2d2d8","freq","img/green_2bandit_b2.png","70","70","test","1","132","132","6","",""
"null","286982","pSARL_v2","pSARL_v2j2nvy4v4","628d78a2ccf4a41f24c2d2d8","freq_resp","img/green_2bandit_b.png","70","70","test","","","","6","",""
"null","287138","pSARL_v2","pSARL_v2j2nvy4v4","628d78a2ccf4a41f24c2d2d8","fixation","img/fixation.png","null","","test","","","","","",""
"398","287539","pSARL_v2","pSARL_v2j2nvy4v4","628d78a2ccf4a41f24c2d2d8","freq","img/green_2bandit_b2.png","70","70","test","1","133","133","6","",""
"null","287947","pSARL_v2","pSARL_v2j2nvy4v4","628d78a2ccf4a41f24c2d2d8","freq_resp","img/green_2bandit_b.png","70","70","test","","","","6","",""
"null","288106","pSARL_v2","pSARL_v2j2nvy4v4","628d78a2ccf4a41f24c2d2d8","fixation","img/fixation.png","null","","test","","","","","",""
"456","288566","pSARL_v2","pSARL_v2j2nvy4v4","628d78a2ccf4a41f24c2d2d8","freq","img/green_2bandit_b2.png","70","70","test","1","134","134","6","",""
"null","288917","pSARL_v2","pSARL_v2j2nvy4v4","628d78a2ccf4a41f24c2d2d8","freq_resp","img/green_2bandit_b.png","70","70","test","","","","6","",""
"null","289073","pSARL_v2","pSARL_v2j2nvy4v4","628d78a2ccf4a41f24c2d2d8","fixation","img/fixation.png","null","","test","","","","","",""
"473","289549","pSARL_v2","pSARL_v2j2nvy4v4","628d78a2ccf4a41f24c2d2d8","freq","img/green_2bandit_b2.png","70","70","test","1","135","135","6","",""
"null","289881","pSARL_v2","pSARL_v2j2nvy4v4","628d78a2ccf4a41f24c2d2d8","freq_resp","img/green_2bandit_b.png","70","70","test","","","","6","",""
"null","290036","pSARL_v2","pSARL_v2j2nvy4v4","628d78a2ccf4a41f24c2d2d8","fixation","img/fixation.png","null","","test","","","","","",""
"406","290446","pSARL_v2","pSARL_v2j2nvy4v4","628d78a2ccf4a41f24c2d2d8","freq","img/green_2bandit_b2.png","70","70","test","1","136","136","6","",""
"null","290845","pSARL_v2","pSARL_v2j2nvy4v4","628d78a2ccf4a41f24c2d2d8","freq_resp","img/green_2bandit_b.png","70","70","test","","","","6","",""
"null","291001","pSARL_v2","pSARL_v2j2nvy4v4","628d78a2ccf4a41f24c2d2d8","fixation","img/fixation.png","null","","test","","","","","",""
"363","291367","pSARL_v2","pSARL_v2j2nvy4v4","628d78a2ccf4a41f24c2d2d8","freq","img/green_2bandit_b2.png","70","70","test","1","137","137","6","",""
"null","291810","pSARL_v2","pSARL_v2j2nvy4v4","628d78a2ccf4a41f24c2d2d8","freq_resp","img/green_2bandit_b.png","70","70","test","","","","6","",""
"null","291966","pSARL_v2","pSARL_v2j2nvy4v4","628d78a2ccf4a41f24c2d2d8","fixation","img/fixation.png","null","","test","","","","","",""
"632","292602","pSARL_v2","pSARL_v2j2nvy4v4","628d78a2ccf4a41f24c2d2d8","freq","img/green_2bandit_b2.png","70","70","test","1","138","138","6","",""
"null","292776","pSARL_v2","pSARL_v2j2nvy4v4","628d78a2ccf4a41f24c2d2d8","freq_resp","img/green_2bandit_b.png","70","70","test","","","","6","",""
"null","292930","pSARL_v2","pSARL_v2j2nvy4v4","628d78a2ccf4a41f24c2d2d8","fixation","img/fixation.png","null","","test","","","","","",""
"636","293571","pSARL_v2","pSARL_v2j2nvy4v4","628d78a2ccf4a41f24c2d2d8","freq","img/green_2bandit_b2.png","70","70","test","1","139","139","6","",""
"null","293741","pSARL_v2","pSARL_v2j2nvy4v4","628d78a2ccf4a41f24c2d2d8","freq_resp","img/green_2bandit_b.png","70","70","test","","","","6","",""
"null","293898","pSARL_v2","pSARL_v2j2nvy4v4","628d78a2ccf4a41f24c2d2d8","fixation","img/fixation.png","null","","test","","","","","",""
"564","294467","pSARL_v2","pSARL_v2j2nvy4v4","628d78a2ccf4a41f24c2d2d8","reward","img/slot.png","74","","test","","","","","",""
"null","295223","pSARL_v2","pSARL_v2j2nvy4v4","628d78a2ccf4a41f24c2d2d8","points","<div class=""verylowPoints""> -7 </div>","null","na","test","","","","6","-7","5"
"488","295716","pSARL_v2","pSARL_v2j2nvy4v4","628d78a2ccf4a41f24c2d2d8","freq","img/green_2bandit_b2.png","70","70","test","1","140","140","7","",""
"null","296034","pSARL_v2","pSARL_v2j2nvy4v4","628d78a2ccf4a41f24c2d2d8","freq_resp","img/green_2bandit_b.png","70","70","test","","","","7","",""
"null","296190","pSARL_v2","pSARL_v2j2nvy4v4","628d78a2ccf4a41f24c2d2d8","fixation","img/fixation.png","null","","test","","","","","",""
"493","296688","pSARL_v2","pSARL_v2j2nvy4v4","628d78a2ccf4a41f24c2d2d8","freq","img/green_2bandit_b2.png","70","70","test","1","141","141","7","",""
"null","297002","pSARL_v2","pSARL_v2j2nvy4v4","628d78a2ccf4a41f24c2d2d8","freq_resp","img/green_2bandit_b.png","70","70","test","","","","7","",""
"null","297160","pSARL_v2","pSARL_v2j2nvy4v4","628d78a2ccf4a41f24c2d2d8","fixation","img/fixation.png","null","","test","","","","","",""
"544","297707","pSARL_v2","pSARL_v2j2nvy4v4","628d78a2ccf4a41f24c2d2d8","freq","img/green_2bandit_b2.png","70","70","test","1","142","142","7","",""
"null","297968","pSARL_v2","pSARL_v2j2nvy4v4","628d78a2ccf4a41f24c2d2d8","freq_resp","img/green_2bandit_b.png","70","70","test","","","","7","",""
"null","298122","pSARL_v2","pSARL_v2j2nvy4v4","628d78a2ccf4a41f24c2d2d8","fixation","img/fixation.png","null","","test","","","","","",""
"486","298612","pSARL_v2","pSARL_v2j2nvy4v4","628d78a2ccf4a41f24c2d2d8","infreq","img/orange_2bandit_b2.png","68","68","test","1","143","143","7","",""
"null","298931","pSARL_v2","pSARL_v2j2nvy4v4","628d78a2ccf4a41f24c2d2d8","infreq_resp","img/orange_2bandit_b.png","68","68","test","","","","7","",""
"null","299086","pSARL_v2","pSARL_v2j2nvy4v4","628d78a2ccf4a41f24c2d2d8","fixation","img/fixation.png","null","","test","","","","","",""
"399","299489","pSARL_v2","pSARL_v2j2nvy4v4","628d78a2ccf4a41f24c2d2d8","freq","img/green_2bandit_b2.png","70","70","test","1","144","144","7","",""
"null","299894","pSARL_v2","pSARL_v2j2nvy4v4","628d78a2ccf4a41f24c2d2d8","freq_resp","img/green_2bandit_b.png","70","70","test","","","","7","",""
"null","300053","pSARL_v2","pSARL_v2j2nvy4v4","628d78a2ccf4a41f24c2d2d8","fixation","img/fixation.png","null","","test","","","","","",""
"397","300454","pSARL_v2","pSARL_v2j2nvy4v4","628d78a2ccf4a41f24c2d2d8","freq","img/green_2bandit_b2.png","70","70","test","1","145","145","7","",""
"null","300863","pSARL_v2","pSARL_v2j2nvy4v4","628d78a2ccf4a41f24c2d2d8","freq_resp","img/green_2bandit_b.png","70","70","test","","","","7","",""
"null","301019","pSARL_v2","pSARL_v2j2nvy4v4","628d78a2ccf4a41f24c2d2d8","fixation","img/fixation.png","null","","test","","","","","",""
"504","301526","pSARL_v2","pSARL_v2j2nvy4v4","628d78a2ccf4a41f24c2d2d8","freq","img/green_2bandit_b2.png","70","70","test","1","146","146","7","",""
"null","301829","pSARL_v2","pSARL_v2j2nvy4v4","628d78a2ccf4a41f24c2d2d8","freq_resp","img/green_2bandit_b.png","70","70","test","","","","7","",""
"null","301986","pSARL_v2","pSARL_v2j2nvy4v4","628d78a2ccf4a41f24c2d2d8","fixation","img/fixation.png","null","","test","","","","","",""
"483","302473","pSARL_v2","pSARL_v2j2nvy4v4","628d78a2ccf4a41f24c2d2d8","infreq","img/orange_2bandit_b2.png","68","68","test","1","147","147","7","",""
"null","302796","pSARL_v2","pSARL_v2j2nvy4v4","628d78a2ccf4a41f24c2d2d8","infreq_resp","img/orange_2bandit_b.png","68","68","test","","","","7","",""
"null","302952","pSARL_v2","pSARL_v2j2nvy4v4","628d78a2ccf4a41f24c2d2d8","fixation","img/fixation.png","null","","test","","","","","",""
"432","303387","pSARL_v2","pSARL_v2j2nvy4v4","628d78a2ccf4a41f24c2d2d8","freq","img/green_2bandit_b2.png","70","70","test","1","148","148","7","",""
"null","303760","pSARL_v2","pSARL_v2j2nvy4v4","628d78a2ccf4a41f24c2d2d8","freq_resp","img/green_2bandit_b.png","70","70","test","","","","7","",""
"null","303916","pSARL_v2","pSARL_v2j2nvy4v4","628d78a2ccf4a41f24c2d2d8","fixation","img/fixation.png","null","","test","","","","","",""
"384","304304","pSARL_v2","pSARL_v2j2nvy4v4","628d78a2ccf4a41f24c2d2d8","freq","img/green_2bandit_b2.png","70","70","test","1","149","149","7","",""
"null","304726","pSARL_v2","pSARL_v2j2nvy4v4","628d78a2ccf4a41f24c2d2d8","freq_resp","img/green_2bandit_b.png","70","70","test","","","","7","",""
"null","304884","pSARL_v2","pSARL_v2j2nvy4v4","628d78a2ccf4a41f24c2d2d8","fixation","img/fixation.png","null","","test","","","","","",""
"374","305262","pSARL_v2","pSARL_v2j2nvy4v4","628d78a2ccf4a41f24c2d2d8","freq","img/green_2bandit_b2.png","70","70","test","1","150","150","7","",""
"null","305694","pSARL_v2","pSARL_v2j2nvy4v4","628d78a2ccf4a41f24c2d2d8","freq_resp","img/green_2bandit_b.png","70","70","test","","","","7","",""
"null","305849","pSARL_v2","pSARL_v2j2nvy4v4","628d78a2ccf4a41f24c2d2d8","fixation","img/fixation.png","null","","test","","","","","",""
"319","306172","pSARL_v2","pSARL_v2j2nvy4v4","628d78a2ccf4a41f24c2d2d8","freq","img/green_2bandit_b2.png","70","70","test","1","151","151","7","",""
"null","306660","pSARL_v2","pSARL_v2j2nvy4v4","628d78a2ccf4a41f24c2d2d8","freq_resp","img/green_2bandit_b.png","70","70","test","","","","7","",""
"null","306815","pSARL_v2","pSARL_v2j2nvy4v4","628d78a2ccf4a41f24c2d2d8","fixation","img/fixation.png","null","","test","","","","","",""
"363","307182","pSARL_v2","pSARL_v2j2nvy4v4","628d78a2ccf4a41f24c2d2d8","freq","img/green_2bandit_b2.png","70","70","test","1","152","152","7","",""
"null","307625","pSARL_v2","pSARL_v2j2nvy4v4","628d78a2ccf4a41f24c2d2d8","freq_resp","img/green_2bandit_b.png","70","70","test","","","","7","",""
"null","307781","pSARL_v2","pSARL_v2j2nvy4v4","628d78a2ccf4a41f24c2d2d8","fixation","img/fixation.png","null","","test","","","","","",""
"287","308071","pSARL_v2","pSARL_v2j2nvy4v4","628d78a2ccf4a41f24c2d2d8","freq","img/green_2bandit_b2.png","70","70","test","1","153","153","7","",""
"null","308590","pSARL_v2","pSARL_v2j2nvy4v4","628d78a2ccf4a41f24c2d2d8","freq_resp","img/green_2bandit_b.png","70","70","test","","","","7","",""
"null","308746","pSARL_v2","pSARL_v2j2nvy4v4","628d78a2ccf4a41f24c2d2d8","fixation","img/fixation.png","null","","test","","","","","",""
"300","309050","pSARL_v2","pSARL_v2j2nvy4v4","628d78a2ccf4a41f24c2d2d8","freq","img/green_2bandit_b2.png","70","70","test","1","154","154","7","",""
"null","309556","pSARL_v2","pSARL_v2j2nvy4v4","628d78a2ccf4a41f24c2d2d8","freq_resp","img/green_2bandit_b.png","70","70","test","","","","7","",""
"null","309721","pSARL_v2","pSARL_v2j2nvy4v4","628d78a2ccf4a41f24c2d2d8","fixation","img/fixation.png","null","","test","","","","","",""
"317","310041","pSARL_v2","pSARL_v2j2nvy4v4","628d78a2ccf4a41f24c2d2d8","freq","img/green_2bandit_b2.png","70","70","test","1","155","155","7","",""
"null","310529","pSARL_v2","pSARL_v2j2nvy4v4","628d78a2ccf4a41f24c2d2d8","freq_resp","img/green_2bandit_b.png","70","70","test","","","","7","",""
"null","310683","pSARL_v2","pSARL_v2j2nvy4v4","628d78a2ccf4a41f24c2d2d8","fixation","img/fixation.png","null","","test","","","","","",""
"300","310987","pSARL_v2","pSARL_v2j2nvy4v4","628d78a2ccf4a41f24c2d2d8","freq","img/green_2bandit_b2.png","70","70","test","1","156","156","7","",""
"null","311495","pSARL_v2","pSARL_v2j2nvy4v4","628d78a2ccf4a41f24c2d2d8","freq_resp","img/green_2bandit_b.png","70","70","test","","","","7","",""
"null","311653","pSARL_v2","pSARL_v2j2nvy4v4","628d78a2ccf4a41f24c2d2d8","fixation","img/fixation.png","null","","test","","","","","",""
"349","312006","pSARL_v2","pSARL_v2j2nvy4v4","628d78a2ccf4a41f24c2d2d8","freq","img/green_2bandit_b2.png","70","70","test","1","157","157","7","",""
"null","312462","pSARL_v2","pSARL_v2j2nvy4v4","628d78a2ccf4a41f24c2d2d8","freq_resp","img/green_2bandit_b.png","70","70","test","","","","7","",""
"null","312616","pSARL_v2","pSARL_v2j2nvy4v4","628d78a2ccf4a41f24c2d2d8","fixation","img/fixation.png","null","","test","","","","","",""
"553","313174","pSARL_v2","pSARL_v2j2nvy4v4","628d78a2ccf4a41f24c2d2d8","infreq","img/orange_2bandit_b2.png","68","68","test","1","158","158","7","",""
"null","313426","pSARL_v2","pSARL_v2j2nvy4v4","628d78a2ccf4a41f24c2d2d8","infreq_resp","img/orange_2bandit_b.png","68","68","test","","","","7","",""
"null","313593","pSARL_v2","pSARL_v2j2nvy4v4","628d78a2ccf4a41f24c2d2d8","fixation","img/fixation.png","null","","test","","","","","",""
"664","314261","pSARL_v2","pSARL_v2j2nvy4v4","628d78a2ccf4a41f24c2d2d8","freq","img/green_2bandit_b2.png","70","70","test","1","159","159","7","",""
"null","314402","pSARL_v2","pSARL_v2j2nvy4v4","628d78a2ccf4a41f24c2d2d8","freq_resp","img/green_2bandit_b.png","70","70","test","","","","7","",""
"null","314557","pSARL_v2","pSARL_v2j2nvy4v4","628d78a2ccf4a41f24c2d2d8","fixation","img/fixation.png","null","","test","","","","","",""
"590","315151","pSARL_v2","pSARL_v2j2nvy4v4","628d78a2ccf4a41f24c2d2d8","freq","img/green_2bandit_b2.png","70","70","test","1","160","160","7","",""
"null","315366","pSARL_v2","pSARL_v2j2nvy4v4","628d78a2ccf4a41f24c2d2d8","freq_resp","img/green_2bandit_b.png","70","70","test","","","","7","",""
"null","315535","pSARL_v2","pSARL_v2j2nvy4v4","628d78a2ccf4a41f24c2d2d8","fixation","img/fixation.png","null","","test","","","","","",""
"341","315880","pSARL_v2","pSARL_v2j2nvy4v4","628d78a2ccf4a41f24c2d2d8","freq","img/green_2bandit_b2.png","70","70","test","1","161","161","7","",""
"null","316344","pSARL_v2","pSARL_v2j2nvy4v4","628d78a2ccf4a41f24c2d2d8","freq_resp","img/green_2bandit_b.png","70","70","test","","","","7","",""
"null","316498","pSARL_v2","pSARL_v2j2nvy4v4","628d78a2ccf4a41f24c2d2d8","fixation","img/fixation.png","null","","test","","","","","",""
"314","316816","pSARL_v2","pSARL_v2j2nvy4v4","628d78a2ccf4a41f24c2d2d8","freq","img/green_2bandit_b2.png","70","70","test","1","162","162","7","",""
"null","317307","pSARL_v2","pSARL_v2j2nvy4v4","628d78a2ccf4a41f24c2d2d8","freq_resp","img/green_2bandit_b.png","70","70","test","","","","7","",""
"null","317462","pSARL_v2","pSARL_v2j2nvy4v4","628d78a2ccf4a41f24c2d2d8","fixation","img/fixation.png","null","","test","","","","","",""
"525","317990","pSARL_v2","pSARL_v2j2nvy4v4","628d78a2ccf4a41f24c2d2d8","reward","img/slot.png","74","","test","","","","","",""
"null","318746","pSARL_v2","pSARL_v2j2nvy4v4","628d78a2ccf4a41f24c2d2d8","points","<div class=""verylowPoints""> -6 </div>","null","na","test","","","","7","-6","6"
"null","319556","pSARL_v2","pSARL_v2j2nvy4v4","628d78a2ccf4a41f24c2d2d8","freq","img/green_2bandit_b2.png","null","70","test","0","163","163","8","",""
"null","319713","pSARL_v2","pSARL_v2j2nvy4v4","628d78a2ccf4a41f24c2d2d8","fixation","img/fixation.png","null","","test","","","","","",""
"494","320210","pSARL_v2","pSARL_v2j2nvy4v4","628d78a2ccf4a41f24c2d2d8","freq","img/green_2bandit_b2.png","70","70","test","1","164","164","8","",""
"null","320521","pSARL_v2","pSARL_v2j2nvy4v4","628d78a2ccf4a41f24c2d2d8","freq_resp","img/green_2bandit_b.png","70","70","test","","","","8","",""
"null","320681","pSARL_v2","pSARL_v2j2nvy4v4","628d78a2ccf4a41f24c2d2d8","fixation","img/fixation.png","null","","test","","","","","",""
"355","321041","pSARL_v2","pSARL_v2j2nvy4v4","628d78a2ccf4a41f24c2d2d8","freq","img/green_2bandit_b2.png","70","70","test","1","165","165","8","",""
"null","321491","pSARL_v2","pSARL_v2j2nvy4v4","628d78a2ccf4a41f24c2d2d8","freq_resp","img/green_2bandit_b.png","70","70","test","","","","8","",""
"null","321648","pSARL_v2","pSARL_v2j2nvy4v4","628d78a2ccf4a41f24c2d2d8","fixation","img/fixation.png","null","","test","","","","","",""
"261","321912","pSARL_v2","pSARL_v2j2nvy4v4","628d78a2ccf4a41f24c2d2d8","freq","img/green_2bandit_b2.png","70","70","test","1","166","166","8","",""
"null","322455","pSARL_v2","pSARL_v2j2nvy4v4","628d78a2ccf4a41f24c2d2d8","freq_resp","img/green_2bandit_b.png","70","70","test","","","","8","",""
"null","322611","pSARL_v2","pSARL_v2j2nvy4v4","628d78a2ccf4a41f24c2d2d8","fixation","img/fixation.png","null","","test","","","","","",""
"339","322954","pSARL_v2","pSARL_v2j2nvy4v4","628d78a2ccf4a41f24c2d2d8","freq","img/green_2bandit_b2.png","70","70","test","1","167","167","8","",""
"null","323422","pSARL_v2","pSARL_v2j2nvy4v4","628d78a2ccf4a41f24c2d2d8","freq_resp","img/green_2bandit_b.png","70","70","test","","","","8","",""
"null","323578","pSARL_v2","pSARL_v2j2nvy4v4","628d78a2ccf4a41f24c2d2d8","fixation","img/fixation.png","null","","test","","","","","",""
"318","323901","pSARL_v2","pSARL_v2j2nvy4v4","628d78a2ccf4a41f24c2d2d8","freq","img/green_2bandit_b2.png","70","70","test","1","168","168","8","",""
"null","324389","pSARL_v2","pSARL_v2j2nvy4v4","628d78a2ccf4a41f24c2d2d8","freq_resp","img/green_2bandit_b.png","70","70","test","","","","8","",""
"null","324544","pSARL_v2","pSARL_v2j2nvy4v4","628d78a2ccf4a41f24c2d2d8","fixation","img/fixation.png","null","","test","","","","","",""
"108","324655","pSARL_v2","pSARL_v2j2nvy4v4","628d78a2ccf4a41f24c2d2d8","freq","img/green_2bandit_b2.png","70","70","test","1","169","169","8","",""
"null","325354","pSARL_v2","pSARL_v2j2nvy4v4","628d78a2ccf4a41f24c2d2d8","freq_resp","img/green_2bandit_b.png","70","70","test","","","","8","",""
"null","325511","pSARL_v2","pSARL_v2j2nvy4v4","628d78a2ccf4a41f24c2d2d8","fixation","img/fixation.png","null","","test","","","","","",""
"125","325640","pSARL_v2","pSARL_v2j2nvy4v4","628d78a2ccf4a41f24c2d2d8","freq","img/green_2bandit_b2.png","70","70","test","1","170","170","8","",""
"null","326321","pSARL_v2","pSARL_v2j2nvy4v4","628d78a2ccf4a41f24c2d2d8","freq_resp","img/green_2bandit_b.png","70","70","test","","","","8","",""
"null","326476","pSARL_v2","pSARL_v2j2nvy4v4","628d78a2ccf4a41f24c2d2d8","fixation","img/fixation.png","null","","test","","","","","",""
"248","326728","pSARL_v2","pSARL_v2j2nvy4v4","628d78a2ccf4a41f24c2d2d8","freq","img/green_2bandit_b2.png","70","70","test","1","171","171","8","",""
"null","327290","pSARL_v2","pSARL_v2j2nvy4v4","628d78a2ccf4a41f24c2d2d8","freq_resp","img/green_2bandit_b.png","70","70","test","","","","8","",""
"null","327448","pSARL_v2","pSARL_v2j2nvy4v4","628d78a2ccf4a41f24c2d2d8","fixation","img/fixation.png","null","","test","","","","","",""
"300","327753","pSARL_v2","pSARL_v2j2nvy4v4","628d78a2ccf4a41f24c2d2d8","freq","img/green_2bandit_b2.png","70","70","test","1","172","172","8","",""
"null","328258","pSARL_v2","pSARL_v2j2nvy4v4","628d78a2ccf4a41f24c2d2d8","freq_resp","img/green_2bandit_b.png","70","70","test","","","","8","",""
"null","328413","pSARL_v2","pSARL_v2j2nvy4v4","628d78a2ccf4a41f24c2d2d8","fixation","img/fixation.png","null","","test","","","","","",""
"329","328746","pSARL_v2","pSARL_v2j2nvy4v4","628d78a2ccf4a41f24c2d2d8","infreq","img/orange_2bandit_b2.png","68","68","test","1","173","173","8","",""
"null","329222","pSARL_v2","pSARL_v2j2nvy4v4","628d78a2ccf4a41f24c2d2d8","infreq_resp","img/orange_2bandit_b.png","68","68","test","","","","8","",""
"null","329377","pSARL_v2","pSARL_v2j2nvy4v4","628d78a2ccf4a41f24c2d2d8","fixation","img/fixation.png","null","","test","","","","","",""
"296","329676","pSARL_v2","pSARL_v2j2nvy4v4","628d78a2ccf4a41f24c2d2d8","freq","img/green_2bandit_b2.png","70","70","test","1","174","174","8","",""
"null","330186","pSARL_v2","pSARL_v2j2nvy4v4","628d78a2ccf4a41f24c2d2d8","freq_resp","img/green_2bandit_b.png","70","70","test","","","","8","",""
"null","330342","pSARL_v2","pSARL_v2j2nvy4v4","628d78a2ccf4a41f24c2d2d8","fixation","img/fixation.png","null","","test","","","","","",""
"327","330673","pSARL_v2","pSARL_v2j2nvy4v4","628d78a2ccf4a41f24c2d2d8","freq","img/green_2bandit_b2.png","68","70","test","0","175","175","8","",""
"null","331156","pSARL_v2","pSARL_v2j2nvy4v4","628d78a2ccf4a41f24c2d2d8","freq_resp","img/green_2bandit_b.png","68","70","test","","","","8","",""
"null","331312","pSARL_v2","pSARL_v2j2nvy4v4","628d78a2ccf4a41f24c2d2d8","fixation","img/fixation.png","null","","test","","","","","",""
"387","331704","pSARL_v2","pSARL_v2j2nvy4v4","628d78a2ccf4a41f24c2d2d8","freq","img/green_2bandit_b2.png","70","70","test","1","176","176","8","",""
"null","332127","pSARL_v2","pSARL_v2j2nvy4v4","628d78a2ccf4a41f24c2d2d8","freq_resp","img/green_2bandit_b.png","70","70","test","","","","8","",""
"null","332284","pSARL_v2","pSARL_v2j2nvy4v4","628d78a2ccf4a41f24c2d2d8","fixation","img/fixation.png","null","","test","","","","","",""
"350","332639","pSARL_v2","pSARL_v2j2nvy4v4","628d78a2ccf4a41f24c2d2d8","freq","img/green_2bandit_b2.png","70","70","test","1","177","177","8","",""
"null","333095","pSARL_v2","pSARL_v2j2nvy4v4","628d78a2ccf4a41f24c2d2d8","freq_resp","img/green_2bandit_b.png","70","70","test","","","","8","",""
"null","333251","pSARL_v2","pSARL_v2j2nvy4v4","628d78a2ccf4a41f24c2d2d8","fixation","img/fixation.png","null","","test","","","","","",""
"378","333633","pSARL_v2","pSARL_v2j2nvy4v4","628d78a2ccf4a41f24c2d2d8","infreq","img/orange_2bandit_b2.png","68","68","test","1","178","178","8","",""
"null","334060","pSARL_v2","pSARL_v2j2nvy4v4","628d78a2ccf4a41f24c2d2d8","infreq_resp","img/orange_2bandit_b.png","68","68","test","","","","8","",""
"null","334216","pSARL_v2","pSARL_v2j2nvy4v4","628d78a2ccf4a41f24c2d2d8","fixation","img/fixation.png","null","","test","","","","","",""
"362","334582","pSARL_v2","pSARL_v2j2nvy4v4","628d78a2ccf4a41f24c2d2d8","freq","img/green_2bandit_b2.png","70","70","test","1","179","179","8","",""
"null","335027","pSARL_v2","pSARL_v2j2nvy4v4","628d78a2ccf4a41f24c2d2d8","freq_resp","img/green_2bandit_b.png","70","70","test","","","","8","",""
"null","335181","pSARL_v2","pSARL_v2j2nvy4v4","628d78a2ccf4a41f24c2d2d8","fixation","img/fixation.png","null","","test","","","","","",""
"402","335591","pSARL_v2","pSARL_v2j2nvy4v4","628d78a2ccf4a41f24c2d2d8","freq","img/green_2bandit_b2.png","70","70","test","1","180","180","8","",""
"null","335995","pSARL_v2","pSARL_v2j2nvy4v4","628d78a2ccf4a41f24c2d2d8","freq_resp","img/green_2bandit_b.png","70","70","test","","","","8","",""
"null","336151","pSARL_v2","pSARL_v2j2nvy4v4","628d78a2ccf4a41f24c2d2d8","fixation","img/fixation.png","null","","test","","","","","",""
"348","336503","pSARL_v2","pSARL_v2j2nvy4v4","628d78a2ccf4a41f24c2d2d8","freq","img/green_2bandit_b2.png","70","70","test","1","181","181","8","",""
"null","336959","pSARL_v2","pSARL_v2j2nvy4v4","628d78a2ccf4a41f24c2d2d8","freq_resp","img/green_2bandit_b.png","70","70","test","","","","8","",""
"null","337115","pSARL_v2","pSARL_v2j2nvy4v4","628d78a2ccf4a41f24c2d2d8","fixation","img/fixation.png","null","","test","","","","","",""
"320","337440","pSARL_v2","pSARL_v2j2nvy4v4","628d78a2ccf4a41f24c2d2d8","freq","img/green_2bandit_b2.png","70","70","test","1","182","182","8","",""
"null","337924","pSARL_v2","pSARL_v2j2nvy4v4","628d78a2ccf4a41f24c2d2d8","freq_resp","img/green_2bandit_b.png","70","70","test","","","","8","",""
"null","338079","pSARL_v2","pSARL_v2j2nvy4v4","628d78a2ccf4a41f24c2d2d8","fixation","img/fixation.png","null","","test","","","","","",""
"347","338431","pSARL_v2","pSARL_v2j2nvy4v4","628d78a2ccf4a41f24c2d2d8","freq","img/green_2bandit_b2.png","70","70","test","1","183","183","8","",""
"null","338889","pSARL_v2","pSARL_v2j2nvy4v4","628d78a2ccf4a41f24c2d2d8","freq_resp","img/green_2bandit_b.png","70","70","test","","","","8","",""
"null","339043","pSARL_v2","pSARL_v2j2nvy4v4","628d78a2ccf4a41f24c2d2d8","fixation","img/fixation.png","null","","test","","","","","",""
"367","339415","pSARL_v2","pSARL_v2j2nvy4v4","628d78a2ccf4a41f24c2d2d8","freq","img/green_2bandit_b2.png","70","70","test","1","184","184","8","",""
"null","339853","pSARL_v2","pSARL_v2j2nvy4v4","628d78a2ccf4a41f24c2d2d8","freq_resp","img/green_2bandit_b.png","70","70","test","","","","8","",""
"null","340008","pSARL_v2","pSARL_v2j2nvy4v4","628d78a2ccf4a41f24c2d2d8","fixation","img/fixation.png","null","","test","","","","","",""
"358","340373","pSARL_v2","pSARL_v2j2nvy4v4","628d78a2ccf4a41f24c2d2d8","freq","img/green_2bandit_b2.png","70","70","test","1","185","185","8","",""
"null","340820","pSARL_v2","pSARL_v2j2nvy4v4","628d78a2ccf4a41f24c2d2d8","freq_resp","img/green_2bandit_b.png","70","70","test","","","","8","",""
"null","340975","pSARL_v2","pSARL_v2j2nvy4v4","628d78a2ccf4a41f24c2d2d8","fixation","img/fixation.png","null","","test","","","","","",""
"312","341290","pSARL_v2","pSARL_v2j2nvy4v4","628d78a2ccf4a41f24c2d2d8","freq","img/green_2bandit_b2.png","70","70","test","1","186","186","8","",""
"null","341787","pSARL_v2","pSARL_v2j2nvy4v4","628d78a2ccf4a41f24c2d2d8","freq_resp","img/green_2bandit_b.png","70","70","test","","","","8","",""
"null","341946","pSARL_v2","pSARL_v2j2nvy4v4","628d78a2ccf4a41f24c2d2d8","fixation","img/fixation.png","null","","test","","","","","",""
"334","342284","pSARL_v2","pSARL_v2j2nvy4v4","628d78a2ccf4a41f24c2d2d8","freq","img/green_2bandit_b2.png","70","70","test","1","187","187","8","",""
"null","342756","pSARL_v2","pSARL_v2j2nvy4v4","628d78a2ccf4a41f24c2d2d8","freq_resp","img/green_2bandit_b.png","70","70","test","","","","8","",""
"null","342912","pSARL_v2","pSARL_v2j2nvy4v4","628d78a2ccf4a41f24c2d2d8","fixation","img/fixation.png","null","","test","","","","","",""
"685","343600","pSARL_v2","pSARL_v2j2nvy4v4","628d78a2ccf4a41f24c2d2d8","reward","img/slot.png","74","","test","","","","","",""
"null","344358","pSARL_v2","pSARL_v2j2nvy4v4","628d78a2ccf4a41f24c2d2d8","points","<div class=""verylowPoints""> -4 </div>","null","na","test","","","","8","-4","7"
"588","344949","pSARL_v2","pSARL_v2j2nvy4v4","628d78a2ccf4a41f24c2d2d8","freq","img/green_2bandit_b2.png","70","70","test","1","188","188","9","",""
"null","345167","pSARL_v2","pSARL_v2j2nvy4v4","628d78a2ccf4a41f24c2d2d8","freq_resp","img/green_2bandit_b.png","70","70","test","","","","9","",""
"null","345323","pSARL_v2","pSARL_v2j2nvy4v4","628d78a2ccf4a41f24c2d2d8","fixation","img/fixation.png","null","","test","","","","","",""
"580","345907","pSARL_v2","pSARL_v2j2nvy4v4","628d78a2ccf4a41f24c2d2d8","freq","img/green_2bandit_b2.png","70","70","test","1","189","189","9","",""
"null","346132","pSARL_v2","pSARL_v2j2nvy4v4","628d78a2ccf4a41f24c2d2d8","freq_resp","img/green_2bandit_b.png","70","70","test","","","","9","",""
"null","346287","pSARL_v2","pSARL_v2j2nvy4v4","628d78a2ccf4a41f24c2d2d8","fixation","img/fixation.png","null","","test","","","","","",""
"null","347093","pSARL_v2","pSARL_v2j2nvy4v4","628d78a2ccf4a41f24c2d2d8","freq","img/green_2bandit_b2.png","null","70","test","0","190","190","9","",""
"null","347250","pSARL_v2","pSARL_v2j2nvy4v4","628d78a2ccf4a41f24c2d2d8","fixation","img/fixation.png","null","","test","","","","","",""
"462","347719","pSARL_v2","pSARL_v2j2nvy4v4","628d78a2ccf4a41f24c2d2d8","freq","img/green_2bandit_b2.png","70","70","test","1","191","191","9","",""
"null","348063","pSARL_v2","pSARL_v2j2nvy4v4","628d78a2ccf4a41f24c2d2d8","freq_resp","img/green_2bandit_b.png","70","70","test","","","","9","",""
"null","348218","pSARL_v2","pSARL_v2j2nvy4v4","628d78a2ccf4a41f24c2d2d8","fixation","img/fixation.png","null","","test","","","","","",""
"287","348512","pSARL_v2","pSARL_v2j2nvy4v4","628d78a2ccf4a41f24c2d2d8","freq","img/green_2bandit_b2.png","70","70","test","1","192","192","9","",""
"null","349032","pSARL_v2","pSARL_v2j2nvy4v4","628d78a2ccf4a41f24c2d2d8","freq_resp","img/green_2bandit_b.png","70","70","test","","","","9","",""
"null","349191","pSARL_v2","pSARL_v2j2nvy4v4","628d78a2ccf4a41f24c2d2d8","fixation","img/fixation.png","null","","test","","","","","",""
"289","349484","pSARL_v2","pSARL_v2j2nvy4v4","628d78a2ccf4a41f24c2d2d8","freq","img/green_2bandit_b2.png","70","70","test","1","193","193","9","",""
"null","350001","pSARL_v2","pSARL_v2j2nvy4v4","628d78a2ccf4a41f24c2d2d8","freq_resp","img/green_2bandit_b.png","70","70","test","","","","9","",""
"null","350156","pSARL_v2","pSARL_v2j2nvy4v4","628d78a2ccf4a41f24c2d2d8","fixation","img/fixation.png","null","","test","","","","","",""
"264","350424","pSARL_v2","pSARL_v2j2nvy4v4","628d78a2ccf4a41f24c2d2d8","freq","img/green_2bandit_b2.png","70","70","test","1","194","194","9","",""
"null","350975","pSARL_v2","pSARL_v2j2nvy4v4","628d78a2ccf4a41f24c2d2d8","freq_resp","img/green_2bandit_b.png","70","70","test","","","","9","",""
"null","351133","pSARL_v2","pSARL_v2j2nvy4v4","628d78a2ccf4a41f24c2d2d8","fixation","img/fixation.png","null","","test","","","","","",""
"176","351312","pSARL_v2","pSARL_v2j2nvy4v4","628d78a2ccf4a41f24c2d2d8","freq","img/green_2bandit_b2.png","70","70","test","1","195","195","9","",""
"null","351942","pSARL_v2","pSARL_v2j2nvy4v4","628d78a2ccf4a41f24c2d2d8","freq_resp","img/green_2bandit_b.png","70","70","test","","","","9","",""
"null","352095","pSARL_v2","pSARL_v2j2nvy4v4","628d78a2ccf4a41f24c2d2d8","fixation","img/fixation.png","null","","test","","","","","",""
"204","352303","pSARL_v2","pSARL_v2j2nvy4v4","628d78a2ccf4a41f24c2d2d8","freq","img/green_2bandit_b2.png","70","70","test","1","196","196","9","",""
"null","352903","pSARL_v2","pSARL_v2j2nvy4v4","628d78a2ccf4a41f24c2d2d8","freq_resp","img/green_2bandit_b.png","70","70","test","","","","9","",""
"null","353057","pSARL_v2","pSARL_v2j2nvy4v4","628d78a2ccf4a41f24c2d2d8","fixation","img/fixation.png","null","","test","","","","","",""
"314","353376","pSARL_v2","pSARL_v2j2nvy4v4","628d78a2ccf4a41f24c2d2d8","freq","img/green_2bandit_b2.png","70","70","test","1","197","197","9","",""
"null","353867","pSARL_v2","pSARL_v2j2nvy4v4","628d78a2ccf4a41f24c2d2d8","freq_resp","img/green_2bandit_b.png","70","70","test","","","","9","",""
"null","354023","pSARL_v2","pSARL_v2j2nvy4v4","628d78a2ccf4a41f24c2d2d8","fixation","img/fixation.png","null","","test","","","","","",""
"315","354342","pSARL_v2","pSARL_v2j2nvy4v4","628d78a2ccf4a41f24c2d2d8","freq","img/green_2bandit_b2.png","70","70","test","1","198","198","9","",""
"null","354832","pSARL_v2","pSARL_v2j2nvy4v4","628d78a2ccf4a41f24c2d2d8","freq_resp","img/green_2bandit_b.png","70","70","test","","","","9","",""
"null","354987","pSARL_v2","pSARL_v2j2nvy4v4","628d78a2ccf4a41f24c2d2d8","fixation","img/fixation.png","null","","test","","","","","",""
"326","355316","pSARL_v2","pSARL_v2j2nvy4v4","628d78a2ccf4a41f24c2d2d8","infreq","img/orange_2bandit_b2.png","70","68","test","0","199","199","9","",""
"null","355796","pSARL_v2","pSARL_v2j2nvy4v4","628d78a2ccf4a41f24c2d2d8","infreq_resp","img/orange_2bandit_b.png","70","68","test","","","","9","",""
"null","355952","pSARL_v2","pSARL_v2j2nvy4v4","628d78a2ccf4a41f24c2d2d8","fixation","img/fixation.png","null","","test","","","","","",""
"314","356270","pSARL_v2","pSARL_v2j2nvy4v4","628d78a2ccf4a41f24c2d2d8","freq","img/green_2bandit_b2.png","70","70","test","1","200","200","9","",""
"null","356763","pSARL_v2","pSARL_v2j2nvy4v4","628d78a2ccf4a41f24c2d2d8","freq_resp","img/green_2bandit_b.png","70","70","test","","","","9","",""
"null","356917","pSARL_v2","pSARL_v2j2nvy4v4","628d78a2ccf4a41f24c2d2d8","fixation","img/fixation.png","null","","test","","","","","",""
"370","357291","pSARL_v2","pSARL_v2j2nvy4v4","628d78a2ccf4a41f24c2d2d8","freq","img/green_2bandit_b2.png","70","70","test","1","201","201","9","",""
"null","357726","pSARL_v2","pSARL_v2j2nvy4v4","628d78a2ccf4a41f24c2d2d8","freq_resp","img/green_2bandit_b.png","70","70","test","","","","9","",""
"null","357881","pSARL_v2","pSARL_v2j2nvy4v4","628d78a2ccf4a41f24c2d2d8","fixation","img/fixation.png","null","","test","","","","","",""
"362","358245","pSARL_v2","pSARL_v2j2nvy4v4","628d78a2ccf4a41f24c2d2d8","freq","img/green_2bandit_b2.png","70","70","test","1","202","202","9","",""
"null","358691","pSARL_v2","pSARL_v2j2nvy4v4","628d78a2ccf4a41f24c2d2d8","freq_resp","img/green_2bandit_b.png","70","70","test","","","","9","",""
"null","358849","pSARL_v2","pSARL_v2j2nvy4v4","628d78a2ccf4a41f24c2d2d8","fixation","img/fixation.png","null","","test","","","","","",""
"336","359189","pSARL_v2","pSARL_v2j2nvy4v4","628d78a2ccf4a41f24c2d2d8","freq","img/green_2bandit_b2.png","70","70","test","1","203","203","9","",""
"null","359659","pSARL_v2","pSARL_v2j2nvy4v4","628d78a2ccf4a41f24c2d2d8","freq_resp","img/green_2bandit_b.png","70","70","test","","","","9","",""
"null","359815","pSARL_v2","pSARL_v2j2nvy4v4","628d78a2ccf4a41f24c2d2d8","fixation","img/fixation.png","null","","test","","","","","",""
"384","360203","pSARL_v2","pSARL_v2j2nvy4v4","628d78a2ccf4a41f24c2d2d8","freq","img/green_2bandit_b2.png","70","70","test","1","204","204","9","",""
"null","360626","pSARL_v2","pSARL_v2j2nvy4v4","628d78a2ccf4a41f24c2d2d8","freq_resp","img/green_2bandit_b.png","70","70","test","","","","9","",""
"null","360783","pSARL_v2","pSARL_v2j2nvy4v4","628d78a2ccf4a41f24c2d2d8","fixation","img/fixation.png","null","","test","","","","","",""
"509","361296","pSARL_v2","pSARL_v2j2nvy4v4","628d78a2ccf4a41f24c2d2d8","infreq","img/orange_2bandit_b2.png","68","68","test","1","205","205","9","",""
"null","361593","pSARL_v2","pSARL_v2j2nvy4v4","628d78a2ccf4a41f24c2d2d8","infreq_resp","img/orange_2bandit_b.png","68","68","test","","","","9","",""
"null","361749","pSARL_v2","pSARL_v2j2nvy4v4","628d78a2ccf4a41f24c2d2d8","fixation","img/fixation.png","null","","test","","","","","",""
"400","362157","pSARL_v2","pSARL_v2j2nvy4v4","628d78a2ccf4a41f24c2d2d8","freq","img/green_2bandit_b2.png","70","70","test","1","206","206","9","",""
"null","362563","pSARL_v2","pSARL_v2j2nvy4v4","628d78a2ccf4a41f24c2d2d8","freq_resp","img/green_2bandit_b.png","70","70","test","","","","9","",""
"null","362719","pSARL_v2","pSARL_v2j2nvy4v4","628d78a2ccf4a41f24c2d2d8","fixation","img/fixation.png","null","","test","","","","","",""
"393","363117","pSARL_v2","pSARL_v2j2nvy4v4","628d78a2ccf4a41f24c2d2d8","freq","img/green_2bandit_b2.png","70","70","test","1","207","207","9","",""
"null","363530","pSARL_v2","pSARL_v2j2nvy4v4","628d78a2ccf4a41f24c2d2d8","freq_resp","img/green_2bandit_b.png","70","70","test","","","","9","",""
"null","363690","pSARL_v2","pSARL_v2j2nvy4v4","628d78a2ccf4a41f24c2d2d8","fixation","img/fixation.png","null","","test","","","","","",""
"380","364075","pSARL_v2","pSARL_v2j2nvy4v4","628d78a2ccf4a41f24c2d2d8","freq","img/green_2bandit_b2.png","70","70","test","1","208","208","9","",""
"null","364501","pSARL_v2","pSARL_v2j2nvy4v4","628d78a2ccf4a41f24c2d2d8","freq_resp","img/green_2bandit_b.png","70","70","test","","","","9","",""
"null","364656","pSARL_v2","pSARL_v2j2nvy4v4","628d78a2ccf4a41f24c2d2d8","fixation","img/fixation.png","null","","test","","","","","",""
"477","365137","pSARL_v2","pSARL_v2j2nvy4v4","628d78a2ccf4a41f24c2d2d8","freq","img/green_2bandit_b2.png","70","70","test","1","209","209","9","",""
"null","365467","pSARL_v2","pSARL_v2j2nvy4v4","628d78a2ccf4a41f24c2d2d8","freq_resp","img/green_2bandit_b.png","70","70","test","","","","9","",""
"null","365625","pSARL_v2","pSARL_v2j2nvy4v4","628d78a2ccf4a41f24c2d2d8","fixation","img/fixation.png","null","","test","","","","","",""
"527","366158","pSARL_v2","pSARL_v2j2nvy4v4","628d78a2ccf4a41f24c2d2d8","reward","img/slot.png","74","","test","","","","","",""
"null","366913","pSARL_v2","pSARL_v2j2nvy4v4","628d78a2ccf4a41f24c2d2d8","points","<div class=""verylowPoints""> -3 </div>","null","na","test","","","","9","-3","8"
"571","367489","pSARL_v2","pSARL_v2j2nvy4v4","628d78a2ccf4a41f24c2d2d8","freq","img/green_2bandit_b2.png","70","70","test","1","210","210","10","",""
"null","367725","pSARL_v2","pSARL_v2j2nvy4v4","628d78a2ccf4a41f24c2d2d8","freq_resp","img/green_2bandit_b.png","70","70","test","","","","10","",""
"null","367882","pSARL_v2","pSARL_v2j2nvy4v4","628d78a2ccf4a41f24c2d2d8","fixation","img/fixation.png","null","","test","","","","","",""
"502","368388","pSARL_v2","pSARL_v2j2nvy4v4","628d78a2ccf4a41f24c2d2d8","freq","img/green_2bandit_b2.png","70","70","test","1","211","211","10","",""
"null","368693","pSARL_v2","pSARL_v2j2nvy4v4","628d78a2ccf4a41f24c2d2d8","freq_resp","img/green_2bandit_b.png","70","70","test","","","","10","",""
"null","368848","pSARL_v2","pSARL_v2j2nvy4v4","628d78a2ccf4a41f24c2d2d8","fixation","img/fixation.png","null","","test","","","","","",""
"482","369334","pSARL_v2","pSARL_v2j2nvy4v4","628d78a2ccf4a41f24c2d2d8","freq","img/green_2bandit_b2.png","70","70","test","1","212","212","10","",""
"null","369661","pSARL_v2","pSARL_v2j2nvy4v4","628d78a2ccf4a41f24c2d2d8","freq_resp","img/green_2bandit_b.png","70","70","test","","","","10","",""
"null","369819","pSARL_v2","pSARL_v2j2nvy4v4","628d78a2ccf4a41f24c2d2d8","fixation","img/fixation.png","null","","test","","","","","",""
"621","370448","pSARL_v2","pSARL_v2j2nvy4v4","628d78a2ccf4a41f24c2d2d8","infreq","img/orange_2bandit_b2.png","68","68","test","1","213","213","10","",""
"null","370634","pSARL_v2","pSARL_v2j2nvy4v4","628d78a2ccf4a41f24c2d2d8","infreq_resp","img/orange_2bandit_b.png","68","68","test","","","","10","",""
"null","370789","pSARL_v2","pSARL_v2j2nvy4v4","628d78a2ccf4a41f24c2d2d8","fixation","img/fixation.png","null","","test","","","","","",""
"462","371255","pSARL_v2","pSARL_v2j2nvy4v4","628d78a2ccf4a41f24c2d2d8","freq","img/green_2bandit_b2.png","70","70","test","1","214","214","10","",""
"null","371601","pSARL_v2","pSARL_v2j2nvy4v4","628d78a2ccf4a41f24c2d2d8","freq_resp","img/green_2bandit_b.png","70","70","test","","","","10","",""
"null","371759","pSARL_v2","pSARL_v2j2nvy4v4","628d78a2ccf4a41f24c2d2d8","fixation","img/fixation.png","null","","test","","","","","",""
"525","372290","pSARL_v2","pSARL_v2j2nvy4v4","628d78a2ccf4a41f24c2d2d8","freq","img/green_2bandit_b2.png","70","70","test","1","215","215","10","",""
"null","372572","pSARL_v2","pSARL_v2j2nvy4v4","628d78a2ccf4a41f24c2d2d8","freq_resp","img/green_2bandit_b.png","70","70","test","","","","10","",""
