"rt","time_elapsed","expId","subject","prolificID","trialType","stimulus","key_press","corrresp","phase","corr","trialNum","attentionRunNum","blockNum","points","rlNum"
"3188.2999999970198","3192","pSARL_v2","pSARL_v2t5a3w9hh","5a7096746fc3c60001f9598e","","","","","","","","","","",""
"","4938","pSARL_v2","pSARL_v2t5a3w9hh","5a7096746fc3c60001f9598e","fullscreen","","","","","","","","","",""
"54720.60000000894","59672","pSARL_v2","pSARL_v2t5a3w9hh","5a7096746fc3c60001f9598e","","","","","","","","","","",""
"740.7000000029802","60416","pSARL_v2","pSARL_v2t5a3w9hh","5a7096746fc3c60001f9598e","freqPrac","img/green_2bandit_b2.png","70","70","prac","1","","","","",""
"740.7000000029802","60487","pSARL_v2","pSARL_v2t5a3w9hh","5a7096746fc3c60001f9598e","freqPrac_resp","img/green_2bandit_b.png","70","70","prac","","","","","",""
"null","60665","pSARL_v2","pSARL_v2t5a3w9hh","5a7096746fc3c60001f9598e","fixation","img/fixation.png","null","","prac","","","","","",""
"540.5","61208","pSARL_v2","pSARL_v2t5a3w9hh","5a7096746fc3c60001f9598e","infreqPrac","img/orange_2bandit_b2.png","68","68","prac","1","","","","",""
"540.5","61487","pSARL_v2","pSARL_v2t5a3w9hh","5a7096746fc3c60001f9598e","infreqPrac_resp","img/orange_2bandit_b.png","68","68","prac","","","","","",""
"null","61650","pSARL_v2","pSARL_v2t5a3w9hh","5a7096746fc3c60001f9598e","fixation","img/fixation.png","null","","prac","","","","","",""
"467.20000000298023","62120","pSARL_v2","pSARL_v2t5a3w9hh","5a7096746fc3c60001f9598e","freqPrac","img/green_2bandit_b2.png","70","70","prac","1","","","","",""
"467.20000000298023","62469","pSARL_v2","pSARL_v2t5a3w9hh","5a7096746fc3c60001f9598e","freqPrac_resp","img/green_2bandit_b.png","70","70","prac","","","","","",""
"null","62633","pSARL_v2","pSARL_v2t5a3w9hh","5a7096746fc3c60001f9598e","fixation","img/fixation.png","null","","prac","","","","","",""
"396.59999999403954","63032","pSARL_v2","pSARL_v2t5a3w9hh","5a7096746fc3c60001f9598e","infreqPrac","img/orange_2bandit_b2.png","68","68","prac","1","","","","",""
"396.59999999403954","63453","pSARL_v2","pSARL_v2t5a3w9hh","5a7096746fc3c60001f9598e","infreqPrac_resp","img/orange_2bandit_b.png","68","68","prac","","","","","",""
"null","63621","pSARL_v2","pSARL_v2t5a3w9hh","5a7096746fc3c60001f9598e","fixation","img/fixation.png","null","","prac","","","","","",""
"336.29999999701977","63960","pSARL_v2","pSARL_v2t5a3w9hh","5a7096746fc3c60001f9598e","infreqPrac","img/orange_2bandit_b2.png","68","68","prac","1","","","","",""
"336.29999999701977","64437","pSARL_v2","pSARL_v2t5a3w9hh","5a7096746fc3c60001f9598e","infreqPrac_resp","img/orange_2bandit_b.png","68","68","prac","","","","","",""
"null","64610","pSARL_v2","pSARL_v2t5a3w9hh","5a7096746fc3c60001f9598e","fixation","img/fixation.png","null","","prac","","","","","",""
"291.8999999910593","64904","pSARL_v2","pSARL_v2t5a3w9hh","5a7096746fc3c60001f9598e","infreqPrac","img/orange_2bandit_b2.png","68","68","prac","1","","","","",""
"291.8999999910593","65420","pSARL_v2","pSARL_v2t5a3w9hh","5a7096746fc3c60001f9598e","infreqPrac_resp","img/orange_2bandit_b.png","68","68","prac","","","","","",""
"null","65582","pSARL_v2","pSARL_v2t5a3w9hh","5a7096746fc3c60001f9598e","fixation","img/fixation.png","null","","prac","","","","","",""
"480.19999998807907","66065","pSARL_v2","pSARL_v2t5a3w9hh","5a7096746fc3c60001f9598e","freqPrac","img/green_2bandit_b2.png","70","70","prac","1","","","","",""
"480.19999998807907","66405","pSARL_v2","pSARL_v2t5a3w9hh","5a7096746fc3c60001f9598e","freqPrac_resp","img/green_2bandit_b.png","70","70","prac","","","","","",""
"null","66569","pSARL_v2","pSARL_v2t5a3w9hh","5a7096746fc3c60001f9598e","fixation","img/fixation.png","null","","prac","","","","","",""
"692.7999999970198","67264","pSARL_v2","pSARL_v2t5a3w9hh","5a7096746fc3c60001f9598e","infreqPrac","img/orange_2bandit_b2.png","68","68","prac","1","","","","",""
"692.7999999970198","67387","pSARL_v2","pSARL_v2t5a3w9hh","5a7096746fc3c60001f9598e","infreqPrac_resp","img/orange_2bandit_b.png","68","68","prac","","","","","",""
"null","67550","pSARL_v2","pSARL_v2t5a3w9hh","5a7096746fc3c60001f9598e","fixation","img/fixation.png","null","","prac","","","","","",""
"488.19999998807907","68041","pSARL_v2","pSARL_v2t5a3w9hh","5a7096746fc3c60001f9598e","freqPrac","img/green_2bandit_b2.png","70","70","prac","1","","","","",""
"488.19999998807907","68371","pSARL_v2","pSARL_v2t5a3w9hh","5a7096746fc3c60001f9598e","freqPrac_resp","img/green_2bandit_b.png","70","70","prac","","","","","",""
"null","68537","pSARL_v2","pSARL_v2t5a3w9hh","5a7096746fc3c60001f9598e","fixation","img/fixation.png","null","","prac","","","","","",""
"333","68873","pSARL_v2","pSARL_v2t5a3w9hh","5a7096746fc3c60001f9598e","freqPrac","img/green_2bandit_b2.png","70","70","prac","1","","","","",""
"333","69353","pSARL_v2","pSARL_v2t5a3w9hh","5a7096746fc3c60001f9598e","freqPrac_resp","img/green_2bandit_b.png","70","70","prac","","","","","",""
"null","69526","pSARL_v2","pSARL_v2t5a3w9hh","5a7096746fc3c60001f9598e","fixation","img/fixation.png","null","","prac","","","","","",""
"8593.20000000298","78122","pSARL_v2","pSARL_v2t5a3w9hh","5a7096746fc3c60001f9598e","","","","","prac","","","","","",""
"949.3000000119209","79074","pSARL_v2","pSARL_v2t5a3w9hh","5a7096746fc3c60001f9598e","rewardPractice","img/slot.png","74","","prac","","","","","",""
"null","79835","pSARL_v2","pSARL_v2t5a3w9hh","5a7096746fc3c60001f9598e","feedback","<div class=""veryhighPoints""> +15 </div>","null","na","prac","","","","","",""
"null","80003","pSARL_v2","pSARL_v2t5a3w9hh","5a7096746fc3c60001f9598e","fixation","img/fixation.png","null","","prac","","","","","",""
"9757.40000000596","89763","pSARL_v2","pSARL_v2t5a3w9hh","5a7096746fc3c60001f9598e","","","","","prac","","","","","",""
"789.2999999970198","90555","pSARL_v2","pSARL_v2t5a3w9hh","5a7096746fc3c60001f9598e","freq","img/green_2bandit_b2.png","70","70","test","1","1","1","1","",""
"null","90568","pSARL_v2","pSARL_v2t5a3w9hh","5a7096746fc3c60001f9598e","freq_resp","img/green_2bandit_b.png","70","70","test","","","","1","",""
"null","90736","pSARL_v2","pSARL_v2t5a3w9hh","5a7096746fc3c60001f9598e","fixation","img/fixation.png","null","","test","","","","","",""
"496.5","91235","pSARL_v2","pSARL_v2t5a3w9hh","5a7096746fc3c60001f9598e","freq","img/green_2bandit_b2.png","70","70","test","1","2","2","1","",""
"null","91549","pSARL_v2","pSARL_v2t5a3w9hh","5a7096746fc3c60001f9598e","freq_resp","img/green_2bandit_b.png","70","70","test","","","","1","",""
"null","91704","pSARL_v2","pSARL_v2t5a3w9hh","5a7096746fc3c60001f9598e","fixation","img/fixation.png","null","","test","","","","","",""
"312.59999999403954","92019","pSARL_v2","pSARL_v2t5a3w9hh","5a7096746fc3c60001f9598e","freq","img/green_2bandit_b2.png","70","70","test","1","3","3","1","",""
"null","92521","pSARL_v2","pSARL_v2t5a3w9hh","5a7096746fc3c60001f9598e","freq_resp","img/green_2bandit_b.png","70","70","test","","","","1","",""
"null","92686","pSARL_v2","pSARL_v2t5a3w9hh","5a7096746fc3c60001f9598e","fixation","img/fixation.png","null","","test","","","","","",""
"378.70000000298023","93068","pSARL_v2","pSARL_v2t5a3w9hh","5a7096746fc3c60001f9598e","freq","img/green_2bandit_b2.png","70","70","test","1","4","4","1","",""
"null","93508","pSARL_v2","pSARL_v2t5a3w9hh","5a7096746fc3c60001f9598e","freq_resp","img/green_2bandit_b.png","70","70","test","","","","1","",""
"null","93670","pSARL_v2","pSARL_v2t5a3w9hh","5a7096746fc3c60001f9598e","fixation","img/fixation.png","null","","test","","","","","",""
"378.90000000596046","94051","pSARL_v2","pSARL_v2t5a3w9hh","5a7096746fc3c60001f9598e","freq","img/green_2bandit_b2.png","70","70","test","1","5","5","1","",""
"null","94489","pSARL_v2","pSARL_v2t5a3w9hh","5a7096746fc3c60001f9598e","freq_resp","img/green_2bandit_b.png","70","70","test","","","","1","",""
"null","94654","pSARL_v2","pSARL_v2t5a3w9hh","5a7096746fc3c60001f9598e","fixation","img/fixation.png","null","","test","","","","","",""
"339.5","94996","pSARL_v2","pSARL_v2t5a3w9hh","5a7096746fc3c60001f9598e","freq","img/green_2bandit_b2.png","70","70","test","1","6","6","1","",""
"null","95461","pSARL_v2","pSARL_v2t5a3w9hh","5a7096746fc3c60001f9598e","freq_resp","img/green_2bandit_b.png","70","70","test","","","","1","",""
"null","95620","pSARL_v2","pSARL_v2t5a3w9hh","5a7096746fc3c60001f9598e","fixation","img/fixation.png","null","","test","","","","","",""
"341.20000000298023","95963","pSARL_v2","pSARL_v2t5a3w9hh","5a7096746fc3c60001f9598e","freq","img/green_2bandit_b2.png","70","70","test","1","7","7","1","",""
"null","96433","pSARL_v2","pSARL_v2t5a3w9hh","5a7096746fc3c60001f9598e","freq_resp","img/green_2bandit_b.png","70","70","test","","","","1","",""
"null","96586","pSARL_v2","pSARL_v2t5a3w9hh","5a7096746fc3c60001f9598e","fixation","img/fixation.png","null","","test","","","","","",""
"478.5","97068","pSARL_v2","pSARL_v2t5a3w9hh","5a7096746fc3c60001f9598e","infreq","img/orange_2bandit_b2.png","68","68","test","1","8","8","1","",""
"null","97399","pSARL_v2","pSARL_v2t5a3w9hh","5a7096746fc3c60001f9598e","infreq_resp","img/orange_2bandit_b.png","68","68","test","","","","1","",""
"null","97553","pSARL_v2","pSARL_v2t5a3w9hh","5a7096746fc3c60001f9598e","fixation","img/fixation.png","null","","test","","","","","",""
"431.90000000596046","97988","pSARL_v2","pSARL_v2t5a3w9hh","5a7096746fc3c60001f9598e","freq","img/green_2bandit_b2.png","70","70","test","1","9","9","1","",""
"null","98370","pSARL_v2","pSARL_v2t5a3w9hh","5a7096746fc3c60001f9598e","freq_resp","img/green_2bandit_b.png","70","70","test","","","","1","",""
"null","98536","pSARL_v2","pSARL_v2t5a3w9hh","5a7096746fc3c60001f9598e","fixation","img/fixation.png","null","","test","","","","","",""
"441.70000000298023","98980","pSARL_v2","pSARL_v2t5a3w9hh","5a7096746fc3c60001f9598e","freq","img/green_2bandit_b2.png","70","70","test","1","10","10","1","",""
"null","99343","pSARL_v2","pSARL_v2t5a3w9hh","5a7096746fc3c60001f9598e","freq_resp","img/green_2bandit_b.png","70","70","test","","","","1","",""
"null","99503","pSARL_v2","pSARL_v2t5a3w9hh","5a7096746fc3c60001f9598e","fixation","img/fixation.png","null","","test","","","","","",""
"347","99853","pSARL_v2","pSARL_v2t5a3w9hh","5a7096746fc3c60001f9598e","freq","img/green_2bandit_b2.png","70","70","test","1","11","11","1","",""
"null","100331","pSARL_v2","pSARL_v2t5a3w9hh","5a7096746fc3c60001f9598e","freq_resp","img/green_2bandit_b.png","70","70","test","","","","1","",""
"null","100487","pSARL_v2","pSARL_v2t5a3w9hh","5a7096746fc3c60001f9598e","fixation","img/fixation.png","null","","test","","","","","",""
"362.59999999403954","100853","pSARL_v2","pSARL_v2t5a3w9hh","5a7096746fc3c60001f9598e","freq","img/green_2bandit_b2.png","70","70","test","1","12","12","1","",""
"null","101302","pSARL_v2","pSARL_v2t5a3w9hh","5a7096746fc3c60001f9598e","freq_resp","img/green_2bandit_b.png","70","70","test","","","","1","",""
"null","101470","pSARL_v2","pSARL_v2t5a3w9hh","5a7096746fc3c60001f9598e","fixation","img/fixation.png","null","","test","","","","","",""
"515.7000000029802","101988","pSARL_v2","pSARL_v2t5a3w9hh","5a7096746fc3c60001f9598e","freq","img/green_2bandit_b2.png","70","70","test","1","13","13","1","",""
"null","102290","pSARL_v2","pSARL_v2t5a3w9hh","5a7096746fc3c60001f9598e","freq_resp","img/green_2bandit_b.png","70","70","test","","","","1","",""
"null","102454","pSARL_v2","pSARL_v2t5a3w9hh","5a7096746fc3c60001f9598e","fixation","img/fixation.png","null","","test","","","","","",""
"739.5999999940395","103196","pSARL_v2","pSARL_v2t5a3w9hh","5a7096746fc3c60001f9598e","freq","img/green_2bandit_b2.png","70","70","test","1","14","14","1","",""
"null","103261","pSARL_v2","pSARL_v2t5a3w9hh","5a7096746fc3c60001f9598e","freq_resp","img/green_2bandit_b.png","70","70","test","","","","1","",""
"null","103419","pSARL_v2","pSARL_v2t5a3w9hh","5a7096746fc3c60001f9598e","fixation","img/fixation.png","null","","test","","","","","",""
"534.7999999970198","103957","pSARL_v2","pSARL_v2t5a3w9hh","5a7096746fc3c60001f9598e","freq","img/green_2bandit_b2.png","70","70","test","1","15","15","1","",""
"null","104226","pSARL_v2","pSARL_v2t5a3w9hh","5a7096746fc3c60001f9598e","freq_resp","img/green_2bandit_b.png","70","70","test","","","","1","",""
"null","104386","pSARL_v2","pSARL_v2t5a3w9hh","5a7096746fc3c60001f9598e","fixation","img/fixation.png","null","","test","","","","","",""
"584.2999999970198","104973","pSARL_v2","pSARL_v2t5a3w9hh","5a7096746fc3c60001f9598e","freq","img/green_2bandit_b2.png","70","70","test","1","16","16","1","",""
"null","105199","pSARL_v2","pSARL_v2t5a3w9hh","5a7096746fc3c60001f9598e","freq_resp","img/green_2bandit_b.png","70","70","test","","","","1","",""
"null","105370","pSARL_v2","pSARL_v2t5a3w9hh","5a7096746fc3c60001f9598e","fixation","img/fixation.png","null","","test","","","","","",""
"424.8999999910593","105797","pSARL_v2","pSARL_v2t5a3w9hh","5a7096746fc3c60001f9598e","freq","img/green_2bandit_b2.png","70","70","test","1","17","17","1","",""
"null","106187","pSARL_v2","pSARL_v2t5a3w9hh","5a7096746fc3c60001f9598e","freq_resp","img/green_2bandit_b.png","70","70","test","","","","1","",""
"null","106353","pSARL_v2","pSARL_v2t5a3w9hh","5a7096746fc3c60001f9598e","fixation","img/fixation.png","null","","test","","","","","",""
"417.69999998807907","106773","pSARL_v2","pSARL_v2t5a3w9hh","5a7096746fc3c60001f9598e","freq","img/green_2bandit_b2.png","70","70","test","1","18","18","1","",""
"null","107174","pSARL_v2","pSARL_v2t5a3w9hh","5a7096746fc3c60001f9598e","freq_resp","img/green_2bandit_b.png","70","70","test","","","","1","",""
"null","107354","pSARL_v2","pSARL_v2t5a3w9hh","5a7096746fc3c60001f9598e","fixation","img/fixation.png","null","","test","","","","","",""
"400.29999999701977","107757","pSARL_v2","pSARL_v2t5a3w9hh","5a7096746fc3c60001f9598e","freq","img/green_2bandit_b2.png","70","70","test","1","19","19","1","",""
"null","108171","pSARL_v2","pSARL_v2t5a3w9hh","5a7096746fc3c60001f9598e","freq_resp","img/green_2bandit_b.png","70","70","test","","","","1","",""
"null","108337","pSARL_v2","pSARL_v2t5a3w9hh","5a7096746fc3c60001f9598e","fixation","img/fixation.png","null","","test","","","","","",""
"370.20000000298023","108709","pSARL_v2","pSARL_v2t5a3w9hh","5a7096746fc3c60001f9598e","freq","img/green_2bandit_b2.png","70","70","test","1","20","20","1","",""
"null","109153","pSARL_v2","pSARL_v2t5a3w9hh","5a7096746fc3c60001f9598e","freq_resp","img/green_2bandit_b.png","70","70","test","","","","1","",""
"null","109319","pSARL_v2","pSARL_v2t5a3w9hh","5a7096746fc3c60001f9598e","fixation","img/fixation.png","null","","test","","","","","",""
"347.6000000089407","109669","pSARL_v2","pSARL_v2t5a3w9hh","5a7096746fc3c60001f9598e","freq","img/green_2bandit_b2.png","70","70","test","1","21","21","1","",""
"null","110137","pSARL_v2","pSARL_v2t5a3w9hh","5a7096746fc3c60001f9598e","freq_resp","img/green_2bandit_b.png","70","70","test","","","","1","",""
"null","110303","pSARL_v2","pSARL_v2t5a3w9hh","5a7096746fc3c60001f9598e","fixation","img/fixation.png","null","","test","","","","","",""
"252.09999999403954","110558","pSARL_v2","pSARL_v2t5a3w9hh","5a7096746fc3c60001f9598e","freq","img/green_2bandit_b2.png","70","70","test","1","22","22","1","",""
"null","111120","pSARL_v2","pSARL_v2t5a3w9hh","5a7096746fc3c60001f9598e","freq_resp","img/green_2bandit_b.png","70","70","test","","","","1","",""
"null","111288","pSARL_v2","pSARL_v2t5a3w9hh","5a7096746fc3c60001f9598e","fixation","img/fixation.png","null","","test","","","","","",""
"434.79999999701977","111725","pSARL_v2","pSARL_v2t5a3w9hh","5a7096746fc3c60001f9598e","infreq","img/orange_2bandit_b2.png","68","68","test","1","23","23","1","",""
"null","112120","pSARL_v2","pSARL_v2t5a3w9hh","5a7096746fc3c60001f9598e","infreq_resp","img/orange_2bandit_b.png","68","68","test","","","","1","",""
"null","112288","pSARL_v2","pSARL_v2t5a3w9hh","5a7096746fc3c60001f9598e","fixation","img/fixation.png","null","","test","","","","","",""
"466.79999999701977","112757","pSARL_v2","pSARL_v2t5a3w9hh","5a7096746fc3c60001f9598e","freq","img/green_2bandit_b2.png","70","70","test","1","24","24","1","",""
"null","113104","pSARL_v2","pSARL_v2t5a3w9hh","5a7096746fc3c60001f9598e","freq_resp","img/green_2bandit_b.png","70","70","test","","","","1","",""
"null","113270","pSARL_v2","pSARL_v2t5a3w9hh","5a7096746fc3c60001f9598e","fixation","img/fixation.png","null","","test","","","","","",""
"429","113702","pSARL_v2","pSARL_v2t5a3w9hh","5a7096746fc3c60001f9598e","freq","img/green_2bandit_b2.png","70","70","test","1","25","25","1","",""
"null","114088","pSARL_v2","pSARL_v2t5a3w9hh","5a7096746fc3c60001f9598e","freq_resp","img/green_2bandit_b.png","70","70","test","","","","1","",""
"null","114253","pSARL_v2","pSARL_v2t5a3w9hh","5a7096746fc3c60001f9598e","fixation","img/fixation.png","null","","test","","","","","",""
"350.29999999701977","114606","pSARL_v2","pSARL_v2t5a3w9hh","5a7096746fc3c60001f9598e","freq","img/green_2bandit_b2.png","70","70","test","1","26","26","1","",""
"null","115070","pSARL_v2","pSARL_v2t5a3w9hh","5a7096746fc3c60001f9598e","freq_resp","img/green_2bandit_b.png","70","70","test","","","","1","",""
"null","115236","pSARL_v2","pSARL_v2t5a3w9hh","5a7096746fc3c60001f9598e","fixation","img/fixation.png","null","","test","","","","","",""
"624","115862","pSARL_v2","pSARL_v2t5a3w9hh","5a7096746fc3c60001f9598e","reward","img/slot.png","74","","test","","","","","",""
"null","116624","pSARL_v2","pSARL_v2t5a3w9hh","5a7096746fc3c60001f9598e","points","<div class=""verylowPoints""> -6 </div>","null","na","test","","","","1","-6","0"
"531.9000000059605","117158","pSARL_v2","pSARL_v2t5a3w9hh","5a7096746fc3c60001f9598e","freq","img/green_2bandit_b2.png","70","70","test","1","27","27","2","",""
"null","117440","pSARL_v2","pSARL_v2t5a3w9hh","5a7096746fc3c60001f9598e","freq_resp","img/green_2bandit_b.png","70","70","test","","","","2","",""
"null","117612","pSARL_v2","pSARL_v2t5a3w9hh","5a7096746fc3c60001f9598e","fixation","img/fixation.png","null","","test","","","","","",""
"311.09999999403954","117926","pSARL_v2","pSARL_v2t5a3w9hh","5a7096746fc3c60001f9598e","freq","img/green_2bandit_b2.png","70","70","test","1","28","28","2","",""
"null","118421","pSARL_v2","pSARL_v2t5a3w9hh","5a7096746fc3c60001f9598e","freq_resp","img/green_2bandit_b.png","70","70","test","","","","2","",""
"null","118584","pSARL_v2","pSARL_v2t5a3w9hh","5a7096746fc3c60001f9598e","fixation","img/fixation.png","null","","test","","","","","",""
"267.8999999910593","118854","pSARL_v2","pSARL_v2t5a3w9hh","5a7096746fc3c60001f9598e","freq","img/green_2bandit_b2.png","70","70","test","1","29","29","2","",""
"null","119401","pSARL_v2","pSARL_v2t5a3w9hh","5a7096746fc3c60001f9598e","freq_resp","img/green_2bandit_b.png","70","70","test","","","","2","",""
"null","119556","pSARL_v2","pSARL_v2t5a3w9hh","5a7096746fc3c60001f9598e","fixation","img/fixation.png","null","","test","","","","","",""
"423.70000000298023","119981","pSARL_v2","pSARL_v2t5a3w9hh","5a7096746fc3c60001f9598e","infreq","img/orange_2bandit_b2.png","68","68","test","1","30","30","2","",""
"null","120372","pSARL_v2","pSARL_v2t5a3w9hh","5a7096746fc3c60001f9598e","infreq_resp","img/orange_2bandit_b.png","68","68","test","","","","2","",""
"null","120526","pSARL_v2","pSARL_v2t5a3w9hh","5a7096746fc3c60001f9598e","fixation","img/fixation.png","null","","test","","","","","",""
"365.3999999910593","120894","pSARL_v2","pSARL_v2t5a3w9hh","5a7096746fc3c60001f9598e","freq","img/green_2bandit_b2.png","70","70","test","1","31","31","2","",""
"null","121344","pSARL_v2","pSARL_v2t5a3w9hh","5a7096746fc3c60001f9598e","freq_resp","img/green_2bandit_b.png","70","70","test","","","","2","",""
"null","121507","pSARL_v2","pSARL_v2t5a3w9hh","5a7096746fc3c60001f9598e","fixation","img/fixation.png","null","","test","","","","","",""
"335.90000000596046","121846","pSARL_v2","pSARL_v2t5a3w9hh","5a7096746fc3c60001f9598e","freq","img/green_2bandit_b2.png","70","70","test","1","32","32","2","",""
"null","122331","pSARL_v2","pSARL_v2t5a3w9hh","5a7096746fc3c60001f9598e","freq_resp","img/green_2bandit_b.png","70","70","test","","","","2","",""
"null","122495","pSARL_v2","pSARL_v2t5a3w9hh","5a7096746fc3c60001f9598e","fixation","img/fixation.png","null","","test","","","","","",""
"236.29999999701977","122734","pSARL_v2","pSARL_v2t5a3w9hh","5a7096746fc3c60001f9598e","freq","img/green_2bandit_b2.png","70","70","test","1","33","33","2","",""
"null","123303","pSARL_v2","pSARL_v2t5a3w9hh","5a7096746fc3c60001f9598e","freq_resp","img/green_2bandit_b.png","70","70","test","","","","2","",""
"null","123467","pSARL_v2","pSARL_v2t5a3w9hh","5a7096746fc3c60001f9598e","fixation","img/fixation.png","null","","test","","","","","",""
"424.90000000596046","123894","pSARL_v2","pSARL_v2t5a3w9hh","5a7096746fc3c60001f9598e","infreq","img/orange_2bandit_b2.png","68","68","test","1","34","34","2","",""
"null","124274","pSARL_v2","pSARL_v2t5a3w9hh","5a7096746fc3c60001f9598e","infreq_resp","img/orange_2bandit_b.png","68","68","test","","","","2","",""
"null","124438","pSARL_v2","pSARL_v2t5a3w9hh","5a7096746fc3c60001f9598e","fixation","img/fixation.png","null","","test","","","","","",""
"365.40000000596046","124806","pSARL_v2","pSARL_v2t5a3w9hh","5a7096746fc3c60001f9598e","freq","img/green_2bandit_b2.png","70","70","test","1","35","35","2","",""
"null","125257","pSARL_v2","pSARL_v2t5a3w9hh","5a7096746fc3c60001f9598e","freq_resp","img/green_2bandit_b.png","70","70","test","","","","2","",""
"null","125421","pSARL_v2","pSARL_v2t5a3w9hh","5a7096746fc3c60001f9598e","fixation","img/fixation.png","null","","test","","","","","",""
"318.5","125742","pSARL_v2","pSARL_v2t5a3w9hh","5a7096746fc3c60001f9598e","freq","img/green_2bandit_b2.png","70","70","test","1","36","36","2","",""
"null","126241","pSARL_v2","pSARL_v2t5a3w9hh","5a7096746fc3c60001f9598e","freq_resp","img/green_2bandit_b.png","70","70","test","","","","2","",""
"null","126410","pSARL_v2","pSARL_v2t5a3w9hh","5a7096746fc3c60001f9598e","fixation","img/fixation.png","null","","test","","","","","",""
"273.20000000298023","126686","pSARL_v2","pSARL_v2t5a3w9hh","5a7096746fc3c60001f9598e","freq","img/green_2bandit_b2.png","70","70","test","1","37","37","2","",""
"null","127228","pSARL_v2","pSARL_v2t5a3w9hh","5a7096746fc3c60001f9598e","freq_resp","img/green_2bandit_b.png","70","70","test","","","","2","",""
"null","127391","pSARL_v2","pSARL_v2t5a3w9hh","5a7096746fc3c60001f9598e","fixation","img/fixation.png","null","","test","","","","","",""
"332.29999999701977","127726","pSARL_v2","pSARL_v2t5a3w9hh","5a7096746fc3c60001f9598e","freq","img/green_2bandit_b2.png","70","70","test","1","38","38","2","",""
"null","128218","pSARL_v2","pSARL_v2t5a3w9hh","5a7096746fc3c60001f9598e","freq_resp","img/green_2bandit_b.png","70","70","test","","","","2","",""
"null","128381","pSARL_v2","pSARL_v2t5a3w9hh","5a7096746fc3c60001f9598e","fixation","img/fixation.png","null","","test","","","","","",""
"374.5","128758","pSARL_v2","pSARL_v2t5a3w9hh","5a7096746fc3c60001f9598e","freq","img/green_2bandit_b2.png","70","70","test","1","39","39","2","",""
"null","129200","pSARL_v2","pSARL_v2t5a3w9hh","5a7096746fc3c60001f9598e","freq_resp","img/green_2bandit_b.png","70","70","test","","","","2","",""
"null","129353","pSARL_v2","pSARL_v2t5a3w9hh","5a7096746fc3c60001f9598e","fixation","img/fixation.png","null","","test","","","","","",""
"306.69999998807907","129663","pSARL_v2","pSARL_v2t5a3w9hh","5a7096746fc3c60001f9598e","freq","img/green_2bandit_b2.png","70","70","test","1","40","40","2","",""
"null","130171","pSARL_v2","pSARL_v2t5a3w9hh","5a7096746fc3c60001f9598e","freq_resp","img/green_2bandit_b.png","70","70","test","","","","2","",""
"null","130325","pSARL_v2","pSARL_v2t5a3w9hh","5a7096746fc3c60001f9598e","fixation","img/fixation.png","null","","test","","","","","",""
"335.09999999403954","130663","pSARL_v2","pSARL_v2t5a3w9hh","5a7096746fc3c60001f9598e","freq","img/green_2bandit_b2.png","70","70","test","1","41","41","2","",""
"null","131141","pSARL_v2","pSARL_v2t5a3w9hh","5a7096746fc3c60001f9598e","freq_resp","img/green_2bandit_b.png","70","70","test","","","","2","",""
"null","131306","pSARL_v2","pSARL_v2t5a3w9hh","5a7096746fc3c60001f9598e","fixation","img/fixation.png","null","","test","","","","","",""
"290.1000000089407","131599","pSARL_v2","pSARL_v2t5a3w9hh","5a7096746fc3c60001f9598e","freq","img/green_2bandit_b2.png","70","70","test","1","42","42","2","",""
"null","132132","pSARL_v2","pSARL_v2t5a3w9hh","5a7096746fc3c60001f9598e","freq_resp","img/green_2bandit_b.png","70","70","test","","","","2","",""
"null","132290","pSARL_v2","pSARL_v2t5a3w9hh","5a7096746fc3c60001f9598e","fixation","img/fixation.png","null","","test","","","","","",""
"307.09999999403954","132599","pSARL_v2","pSARL_v2t5a3w9hh","5a7096746fc3c60001f9598e","freq","img/green_2bandit_b2.png","70","70","test","1","43","43","2","",""
"null","133098","pSARL_v2","pSARL_v2t5a3w9hh","5a7096746fc3c60001f9598e","freq_resp","img/green_2bandit_b.png","70","70","test","","","","2","",""
"null","133251","pSARL_v2","pSARL_v2t5a3w9hh","5a7096746fc3c60001f9598e","fixation","img/fixation.png","null","","test","","","","","",""
"289.3999999910593","133543","pSARL_v2","pSARL_v2t5a3w9hh","5a7096746fc3c60001f9598e","freq","img/green_2bandit_b2.png","70","70","test","1","44","44","2","",""
"null","134069","pSARL_v2","pSARL_v2t5a3w9hh","5a7096746fc3c60001f9598e","freq_resp","img/green_2bandit_b.png","70","70","test","","","","2","",""
"null","134239","pSARL_v2","pSARL_v2t5a3w9hh","5a7096746fc3c60001f9598e","fixation","img/fixation.png","null","","test","","","","","",""
"277.79999999701977","134520","pSARL_v2","pSARL_v2t5a3w9hh","5a7096746fc3c60001f9598e","freq","img/green_2bandit_b2.png","70","70","test","1","45","45","2","",""
"null","135057","pSARL_v2","pSARL_v2t5a3w9hh","5a7096746fc3c60001f9598e","freq_resp","img/green_2bandit_b.png","70","70","test","","","","2","",""
"null","135220","pSARL_v2","pSARL_v2t5a3w9hh","5a7096746fc3c60001f9598e","fixation","img/fixation.png","null","","test","","","","","",""
"288.79999999701977","135511","pSARL_v2","pSARL_v2t5a3w9hh","5a7096746fc3c60001f9598e","freq","img/green_2bandit_b2.png","70","70","test","1","46","46","2","",""
"null","136046","pSARL_v2","pSARL_v2t5a3w9hh","5a7096746fc3c60001f9598e","freq_resp","img/green_2bandit_b.png","70","70","test","","","","2","",""
"null","136209","pSARL_v2","pSARL_v2t5a3w9hh","5a7096746fc3c60001f9598e","fixation","img/fixation.png","null","","test","","","","","",""
"315.6000000089407","136527","pSARL_v2","pSARL_v2t5a3w9hh","5a7096746fc3c60001f9598e","freq","img/green_2bandit_b2.png","70","70","test","1","47","47","2","",""
"null","137025","pSARL_v2","pSARL_v2t5a3w9hh","5a7096746fc3c60001f9598e","freq_resp","img/green_2bandit_b.png","70","70","test","","","","2","",""
"null","137180","pSARL_v2","pSARL_v2t5a3w9hh","5a7096746fc3c60001f9598e","fixation","img/fixation.png","null","","test","","","","","",""
"296.59999999403954","137479","pSARL_v2","pSARL_v2t5a3w9hh","5a7096746fc3c60001f9598e","freq","img/green_2bandit_b2.png","70","70","test","1","48","48","2","",""
"null","137999","pSARL_v2","pSARL_v2t5a3w9hh","5a7096746fc3c60001f9598e","freq_resp","img/green_2bandit_b.png","70","70","test","","","","2","",""
"null","138152","pSARL_v2","pSARL_v2t5a3w9hh","5a7096746fc3c60001f9598e","fixation","img/fixation.png","null","","test","","","","","",""
"485.1000000089407","138640","pSARL_v2","pSARL_v2t5a3w9hh","5a7096746fc3c60001f9598e","reward","img/slot.png","74","","test","","","","","",""
"null","139403","pSARL_v2","pSARL_v2t5a3w9hh","5a7096746fc3c60001f9598e","points","<div class=""verylowPoints""> -11 </div>","null","na","test","","","","2","-11","1"
"514.7999999970198","139920","pSARL_v2","pSARL_v2t5a3w9hh","5a7096746fc3c60001f9598e","freq","img/green_2bandit_b2.png","70","70","test","1","49","49","3","",""
"null","140224","pSARL_v2","pSARL_v2t5a3w9hh","5a7096746fc3c60001f9598e","freq_resp","img/green_2bandit_b.png","70","70","test","","","","3","",""
"null","140385","pSARL_v2","pSARL_v2t5a3w9hh","5a7096746fc3c60001f9598e","fixation","img/fixation.png","null","","test","","","","","",""
"268.59999999403954","140656","pSARL_v2","pSARL_v2t5a3w9hh","5a7096746fc3c60001f9598e","freq","img/green_2bandit_b2.png","70","70","test","1","50","50","3","",""
"null","141194","pSARL_v2","pSARL_v2t5a3w9hh","5a7096746fc3c60001f9598e","freq_resp","img/green_2bandit_b.png","70","70","test","","","","3","",""
"null","141353","pSARL_v2","pSARL_v2t5a3w9hh","5a7096746fc3c60001f9598e","fixation","img/fixation.png","null","","test","","","","","",""
"292.20000000298023","141648","pSARL_v2","pSARL_v2t5a3w9hh","5a7096746fc3c60001f9598e","freq","img/green_2bandit_b2.png","70","70","test","1","51","51","3","",""
"null","142164","pSARL_v2","pSARL_v2t5a3w9hh","5a7096746fc3c60001f9598e","freq_resp","img/green_2bandit_b.png","70","70","test","","","","3","",""
"null","142336","pSARL_v2","pSARL_v2t5a3w9hh","5a7096746fc3c60001f9598e","fixation","img/fixation.png","null","","test","","","","","",""
"269.79999999701977","142609","pSARL_v2","pSARL_v2t5a3w9hh","5a7096746fc3c60001f9598e","freq","img/green_2bandit_b2.png","70","70","test","1","52","52","3","",""
"null","143152","pSARL_v2","pSARL_v2t5a3w9hh","5a7096746fc3c60001f9598e","freq_resp","img/green_2bandit_b.png","70","70","test","","","","3","",""
"null","143319","pSARL_v2","pSARL_v2t5a3w9hh","5a7096746fc3c60001f9598e","fixation","img/fixation.png","null","","test","","","","","",""
"278.59999999403954","143601","pSARL_v2","pSARL_v2t5a3w9hh","5a7096746fc3c60001f9598e","freq","img/green_2bandit_b2.png","70","70","test","1","53","53","3","",""
"null","144132","pSARL_v2","pSARL_v2t5a3w9hh","5a7096746fc3c60001f9598e","freq_resp","img/green_2bandit_b.png","70","70","test","","","","3","",""
"null","144286","pSARL_v2","pSARL_v2t5a3w9hh","5a7096746fc3c60001f9598e","fixation","img/fixation.png","null","","test","","","","","",""
"311","144600","pSARL_v2","pSARL_v2t5a3w9hh","5a7096746fc3c60001f9598e","freq","img/green_2bandit_b2.png","70","70","test","1","54","54","3","",""
"null","145104","pSARL_v2","pSARL_v2t5a3w9hh","5a7096746fc3c60001f9598e","freq_resp","img/green_2bandit_b.png","70","70","test","","","","3","",""
"null","145270","pSARL_v2","pSARL_v2t5a3w9hh","5a7096746fc3c60001f9598e","fixation","img/fixation.png","null","","test","","","","","",""
"463.90000000596046","145737","pSARL_v2","pSARL_v2t5a3w9hh","5a7096746fc3c60001f9598e","infreq","img/orange_2bandit_b2.png","68","68","test","1","55","55","3","",""
"null","146091","pSARL_v2","pSARL_v2t5a3w9hh","5a7096746fc3c60001f9598e","infreq_resp","img/orange_2bandit_b.png","68","68","test","","","","3","",""
"null","146253","pSARL_v2","pSARL_v2t5a3w9hh","5a7096746fc3c60001f9598e","fixation","img/fixation.png","null","","test","","","","","",""
"377.19999998807907","146632","pSARL_v2","pSARL_v2t5a3w9hh","5a7096746fc3c60001f9598e","freq","img/green_2bandit_b2.png","70","70","test","1","56","56","3","",""
"null","147077","pSARL_v2","pSARL_v2t5a3w9hh","5a7096746fc3c60001f9598e","freq_resp","img/green_2bandit_b.png","70","70","test","","","","3","",""
"null","147235","pSARL_v2","pSARL_v2t5a3w9hh","5a7096746fc3c60001f9598e","fixation","img/fixation.png","null","","test","","","","","",""
"322.5","147560","pSARL_v2","pSARL_v2t5a3w9hh","5a7096746fc3c60001f9598e","freq","img/green_2bandit_b2.png","70","70","test","1","57","57","3","",""
"null","148043","pSARL_v2","pSARL_v2t5a3w9hh","5a7096746fc3c60001f9598e","freq_resp","img/green_2bandit_b.png","70","70","test","","","","3","",""
"null","148202","pSARL_v2","pSARL_v2t5a3w9hh","5a7096746fc3c60001f9598e","fixation","img/fixation.png","null","","test","","","","","",""
"300","148505","pSARL_v2","pSARL_v2t5a3w9hh","5a7096746fc3c60001f9598e","freq","img/green_2bandit_b2.png","70","70","test","1","58","58","3","",""
"null","149015","pSARL_v2","pSARL_v2t5a3w9hh","5a7096746fc3c60001f9598e","freq_resp","img/green_2bandit_b.png","70","70","test","","","","3","",""
"null","149175","pSARL_v2","pSARL_v2t5a3w9hh","5a7096746fc3c60001f9598e","fixation","img/fixation.png","null","","test","","","","","",""
"415.29999999701977","149593","pSARL_v2","pSARL_v2t5a3w9hh","5a7096746fc3c60001f9598e","infreq","img/orange_2bandit_b2.png","68","68","test","1","59","59","3","",""
"null","149989","pSARL_v2","pSARL_v2t5a3w9hh","5a7096746fc3c60001f9598e","infreq_resp","img/orange_2bandit_b.png","68","68","test","","","","3","",""
"null","150152","pSARL_v2","pSARL_v2t5a3w9hh","5a7096746fc3c60001f9598e","fixation","img/fixation.png","null","","test","","","","","",""
"301.70000000298023","150457","pSARL_v2","pSARL_v2t5a3w9hh","5a7096746fc3c60001f9598e","freq","img/green_2bandit_b2.png","70","70","test","1","60","60","3","",""
"null","150971","pSARL_v2","pSARL_v2t5a3w9hh","5a7096746fc3c60001f9598e","freq_resp","img/green_2bandit_b.png","70","70","test","","","","3","",""
"null","151135","pSARL_v2","pSARL_v2t5a3w9hh","5a7096746fc3c60001f9598e","fixation","img/fixation.png","null","","test","","","","","",""
"334.79999999701977","151474","pSARL_v2","pSARL_v2t5a3w9hh","5a7096746fc3c60001f9598e","freq","img/green_2bandit_b2.png","70","70","test","1","61","61","3","",""
"null","151943","pSARL_v2","pSARL_v2t5a3w9hh","5a7096746fc3c60001f9598e","freq_resp","img/green_2bandit_b.png","70","70","test","","","","3","",""
"null","152102","pSARL_v2","pSARL_v2t5a3w9hh","5a7096746fc3c60001f9598e","fixation","img/fixation.png","null","","test","","","","","",""
"312.20000000298023","152417","pSARL_v2","pSARL_v2t5a3w9hh","5a7096746fc3c60001f9598e","freq","img/green_2bandit_b2.png","70","70","test","1","62","62","3","",""
"null","152910","pSARL_v2","pSARL_v2t5a3w9hh","5a7096746fc3c60001f9598e","freq_resp","img/green_2bandit_b.png","70","70","test","","","","3","",""
"null","153069","pSARL_v2","pSARL_v2t5a3w9hh","5a7096746fc3c60001f9598e","fixation","img/fixation.png","null","","test","","","","","",""
"386.59999999403954","153458","pSARL_v2","pSARL_v2t5a3w9hh","5a7096746fc3c60001f9598e","freq","img/green_2bandit_b2.png","70","70","test","1","63","63","3","",""
"null","153879","pSARL_v2","pSARL_v2t5a3w9hh","5a7096746fc3c60001f9598e","freq_resp","img/green_2bandit_b.png","70","70","test","","","","3","",""
"null","154035","pSARL_v2","pSARL_v2t5a3w9hh","5a7096746fc3c60001f9598e","fixation","img/fixation.png","null","","test","","","","","",""
"339.59999999403954","154377","pSARL_v2","pSARL_v2t5a3w9hh","5a7096746fc3c60001f9598e","freq","img/green_2bandit_b2.png","70","70","test","1","64","64","3","",""
"null","154851","pSARL_v2","pSARL_v2t5a3w9hh","5a7096746fc3c60001f9598e","freq_resp","img/green_2bandit_b.png","70","70","test","","","","3","",""
"null","155010","pSARL_v2","pSARL_v2t5a3w9hh","5a7096746fc3c60001f9598e","fixation","img/fixation.png","null","","test","","","","","",""
"308.70000000298023","155321","pSARL_v2","pSARL_v2t5a3w9hh","5a7096746fc3c60001f9598e","freq","img/green_2bandit_b2.png","70","70","test","1","65","65","3","",""
"null","155824","pSARL_v2","pSARL_v2t5a3w9hh","5a7096746fc3c60001f9598e","freq_resp","img/green_2bandit_b.png","70","70","test","","","","3","",""
"null","155985","pSARL_v2","pSARL_v2t5a3w9hh","5a7096746fc3c60001f9598e","fixation","img/fixation.png","null","","test","","","","","",""
"277.79999999701977","156265","pSARL_v2","pSARL_v2t5a3w9hh","5a7096746fc3c60001f9598e","freq","img/green_2bandit_b2.png","70","70","test","1","66","66","3","",""
"null","156811","pSARL_v2","pSARL_v2t5a3w9hh","5a7096746fc3c60001f9598e","freq_resp","img/green_2bandit_b.png","70","70","test","","","","3","",""
"null","156969","pSARL_v2","pSARL_v2t5a3w9hh","5a7096746fc3c60001f9598e","fixation","img/fixation.png","null","","test","","","","","",""
"286.1000000089407","157258","pSARL_v2","pSARL_v2t5a3w9hh","5a7096746fc3c60001f9598e","freq","img/green_2bandit_b2.png","70","70","test","1","67","67","3","",""
"null","157777","pSARL_v2","pSARL_v2t5a3w9hh","5a7096746fc3c60001f9598e","freq_resp","img/green_2bandit_b.png","70","70","test","","","","3","",""
"null","157936","pSARL_v2","pSARL_v2t5a3w9hh","5a7096746fc3c60001f9598e","fixation","img/fixation.png","null","","test","","","","","",""
"271","158210","pSARL_v2","pSARL_v2t5a3w9hh","5a7096746fc3c60001f9598e","freq","img/green_2bandit_b2.png","70","70","test","1","68","68","3","",""
"null","158743","pSARL_v2","pSARL_v2t5a3w9hh","5a7096746fc3c60001f9598e","freq_resp","img/green_2bandit_b.png","70","70","test","","","","3","",""
"null","158903","pSARL_v2","pSARL_v2t5a3w9hh","5a7096746fc3c60001f9598e","fixation","img/fixation.png","null","","test","","","","","",""
"232.6000000089407","159138","pSARL_v2","pSARL_v2t5a3w9hh","5a7096746fc3c60001f9598e","freq","img/green_2bandit_b2.png","70","70","test","1","69","69","3","",""
"null","159721","pSARL_v2","pSARL_v2t5a3w9hh","5a7096746fc3c60001f9598e","freq_resp","img/green_2bandit_b.png","70","70","test","","","","3","",""
"null","159886","pSARL_v2","pSARL_v2t5a3w9hh","5a7096746fc3c60001f9598e","fixation","img/fixation.png","null","","test","","","","","",""
"233.79999999701977","160122","pSARL_v2","pSARL_v2t5a3w9hh","5a7096746fc3c60001f9598e","freq","img/green_2bandit_b2.png","70","70","test","1","70","70","3","",""
"null","160703","pSARL_v2","pSARL_v2t5a3w9hh","5a7096746fc3c60001f9598e","freq_resp","img/green_2bandit_b.png","70","70","test","","","","3","",""
"null","160869","pSARL_v2","pSARL_v2t5a3w9hh","5a7096746fc3c60001f9598e","fixation","img/fixation.png","null","","test","","","","","",""
"114.70000000298023","160987","pSARL_v2","pSARL_v2t5a3w9hh","5a7096746fc3c60001f9598e","freq","img/green_2bandit_b2.png","70","70","test","1","71","71","3","",""
"null","161689","pSARL_v2","pSARL_v2t5a3w9hh","5a7096746fc3c60001f9598e","freq_resp","img/green_2bandit_b.png","70","70","test","","","","3","",""
"null","161852","pSARL_v2","pSARL_v2t5a3w9hh","5a7096746fc3c60001f9598e","fixation","img/fixation.png","null","","test","","","","","",""
"500.1000000089407","162355","pSARL_v2","pSARL_v2t5a3w9hh","5a7096746fc3c60001f9598e","reward","img/slot.png","74","","test","","","","","",""
"null","163130","pSARL_v2","pSARL_v2t5a3w9hh","5a7096746fc3c60001f9598e","points","<div class=""verylowPoints""> -7 </div>","null","na","test","","","","3","-7","2"
"726.1000000089407","163858","pSARL_v2","pSARL_v2t5a3w9hh","5a7096746fc3c60001f9598e","freq","img/green_2bandit_b2.png","70","70","test","1","72","72","4","",""
"null","163937","pSARL_v2","pSARL_v2t5a3w9hh","5a7096746fc3c60001f9598e","freq_resp","img/green_2bandit_b.png","70","70","test","","","","4","",""
"null","164092","pSARL_v2","pSARL_v2t5a3w9hh","5a7096746fc3c60001f9598e","fixation","img/fixation.png","null","","test","","","","","",""
"331.90000000596046","164426","pSARL_v2","pSARL_v2t5a3w9hh","5a7096746fc3c60001f9598e","freq","img/green_2bandit_b2.png","70","70","test","1","73","73","4","",""
"null","164903","pSARL_v2","pSARL_v2t5a3w9hh","5a7096746fc3c60001f9598e","freq_resp","img/green_2bandit_b.png","70","70","test","","","","4","",""
"null","165067","pSARL_v2","pSARL_v2t5a3w9hh","5a7096746fc3c60001f9598e","fixation","img/fixation.png","null","","test","","","","","",""
"284.90000000596046","165354","pSARL_v2","pSARL_v2t5a3w9hh","5a7096746fc3c60001f9598e","freq","img/green_2bandit_b2.png","70","70","test","1","74","74","4","",""
"null","165886","pSARL_v2","pSARL_v2t5a3w9hh","5a7096746fc3c60001f9598e","freq_resp","img/green_2bandit_b.png","70","70","test","","","","4","",""
"null","166053","pSARL_v2","pSARL_v2t5a3w9hh","5a7096746fc3c60001f9598e","fixation","img/fixation.png","null","","test","","","","","",""
"259.20000000298023","166315","pSARL_v2","pSARL_v2t5a3w9hh","5a7096746fc3c60001f9598e","freq","img/green_2bandit_b2.png","70","70","test","1","75","75","4","",""
"null","166869","pSARL_v2","pSARL_v2t5a3w9hh","5a7096746fc3c60001f9598e","freq_resp","img/green_2bandit_b.png","70","70","test","","","","4","",""
"null","167041","pSARL_v2","pSARL_v2t5a3w9hh","5a7096746fc3c60001f9598e","fixation","img/fixation.png","null","","test","","","","","",""
"304","167347","pSARL_v2","pSARL_v2t5a3w9hh","5a7096746fc3c60001f9598e","freq","img/green_2bandit_b2.png","70","70","test","1","76","76","4","",""
"null","167853","pSARL_v2","pSARL_v2t5a3w9hh","5a7096746fc3c60001f9598e","freq_resp","img/green_2bandit_b.png","70","70","test","","","","4","",""
"null","168007","pSARL_v2","pSARL_v2t5a3w9hh","5a7096746fc3c60001f9598e","fixation","img/fixation.png","null","","test","","","","","",""
"289.70000000298023","168299","pSARL_v2","pSARL_v2t5a3w9hh","5a7096746fc3c60001f9598e","freq","img/green_2bandit_b2.png","70","70","test","1","77","77","4","",""
"null","168831","pSARL_v2","pSARL_v2t5a3w9hh","5a7096746fc3c60001f9598e","freq_resp","img/green_2bandit_b.png","70","70","test","","","","4","",""
"null","168994","pSARL_v2","pSARL_v2t5a3w9hh","5a7096746fc3c60001f9598e","fixation","img/fixation.png","null","","test","","","","","",""
"262.40000000596046","169259","pSARL_v2","pSARL_v2t5a3w9hh","5a7096746fc3c60001f9598e","freq","img/green_2bandit_b2.png","70","70","test","1","78","78","4","",""
"null","169803","pSARL_v2","pSARL_v2t5a3w9hh","5a7096746fc3c60001f9598e","freq_resp","img/green_2bandit_b.png","70","70","test","","","","4","",""
"null","169965","pSARL_v2","pSARL_v2t5a3w9hh","5a7096746fc3c60001f9598e","fixation","img/fixation.png","null","","test","","","","","",""
"380.30000001192093","170348","pSARL_v2","pSARL_v2t5a3w9hh","5a7096746fc3c60001f9598e","freq","img/green_2bandit_b2.png","70","70","test","1","79","79","4","",""
"null","170786","pSARL_v2","pSARL_v2t5a3w9hh","5a7096746fc3c60001f9598e","freq_resp","img/green_2bandit_b.png","70","70","test","","","","4","",""
"null","170952","pSARL_v2","pSARL_v2t5a3w9hh","5a7096746fc3c60001f9598e","fixation","img/fixation.png","null","","test","","","","","",""
"441.20000000298023","171396","pSARL_v2","pSARL_v2t5a3w9hh","5a7096746fc3c60001f9598e","infreq","img/orange_2bandit_b2.png","68","68","test","1","80","80","4","",""
"null","171769","pSARL_v2","pSARL_v2t5a3w9hh","5a7096746fc3c60001f9598e","infreq_resp","img/orange_2bandit_b.png","68","68","test","","","","4","",""
"null","171931","pSARL_v2","pSARL_v2t5a3w9hh","5a7096746fc3c60001f9598e","fixation","img/fixation.png","null","","test","","","","","",""
"518.2000000029802","172452","pSARL_v2","pSARL_v2t5a3w9hh","5a7096746fc3c60001f9598e","freq","img/green_2bandit_b2.png","70","70","test","1","81","81","4","",""
"null","172755","pSARL_v2","pSARL_v2t5a3w9hh","5a7096746fc3c60001f9598e","freq_resp","img/green_2bandit_b.png","70","70","test","","","","4","",""
"null","172918","pSARL_v2","pSARL_v2t5a3w9hh","5a7096746fc3c60001f9598e","fixation","img/fixation.png","null","","test","","","","","",""
"298.59999999403954","173219","pSARL_v2","pSARL_v2t5a3w9hh","5a7096746fc3c60001f9598e","freq","img/green_2bandit_b2.png","70","70","test","1","82","82","4","",""
"null","173736","pSARL_v2","pSARL_v2t5a3w9hh","5a7096746fc3c60001f9598e","freq_resp","img/green_2bandit_b.png","70","70","test","","","","4","",""
"null","173891","pSARL_v2","pSARL_v2t5a3w9hh","5a7096746fc3c60001f9598e","fixation","img/fixation.png","null","","test","","","","","",""
"254.20000000298023","174148","pSARL_v2","pSARL_v2t5a3w9hh","5a7096746fc3c60001f9598e","freq","img/green_2bandit_b2.png","70","70","test","1","83","83","4","",""
"null","174702","pSARL_v2","pSARL_v2t5a3w9hh","5a7096746fc3c60001f9598e","freq_resp","img/green_2bandit_b.png","70","70","test","","","","4","",""
"null","174862","pSARL_v2","pSARL_v2t5a3w9hh","5a7096746fc3c60001f9598e","fixation","img/fixation.png","null","","test","","","","","",""
"299.40000000596046","175163","pSARL_v2","pSARL_v2t5a3w9hh","5a7096746fc3c60001f9598e","freq","img/green_2bandit_b2.png","70","70","test","1","84","84","4","",""
"null","175678","pSARL_v2","pSARL_v2t5a3w9hh","5a7096746fc3c60001f9598e","freq_resp","img/green_2bandit_b.png","70","70","test","","","","4","",""
"null","175842","pSARL_v2","pSARL_v2t5a3w9hh","5a7096746fc3c60001f9598e","fixation","img/fixation.png","null","","test","","","","","",""
"342.8999999910593","176187","pSARL_v2","pSARL_v2t5a3w9hh","5a7096746fc3c60001f9598e","freq","img/green_2bandit_b2.png","70","70","test","1","85","85","4","",""
"null","176667","pSARL_v2","pSARL_v2t5a3w9hh","5a7096746fc3c60001f9598e","freq_resp","img/green_2bandit_b.png","70","70","test","","","","4","",""
"null","176826","pSARL_v2","pSARL_v2t5a3w9hh","5a7096746fc3c60001f9598e","fixation","img/fixation.png","null","","test","","","","","",""
"374.80000001192093","177204","pSARL_v2","pSARL_v2t5a3w9hh","5a7096746fc3c60001f9598e","freq","img/green_2bandit_b2.png","70","70","test","1","86","86","4","",""
"null","177636","pSARL_v2","pSARL_v2t5a3w9hh","5a7096746fc3c60001f9598e","freq_resp","img/green_2bandit_b.png","70","70","test","","","","4","",""
"null","177795","pSARL_v2","pSARL_v2t5a3w9hh","5a7096746fc3c60001f9598e","fixation","img/fixation.png","null","","test","","","","","",""
"455","178252","pSARL_v2","pSARL_v2t5a3w9hh","5a7096746fc3c60001f9598e","infreq","img/orange_2bandit_b2.png","68","68","test","1","87","87","4","",""
"null","178603","pSARL_v2","pSARL_v2t5a3w9hh","5a7096746fc3c60001f9598e","infreq_resp","img/orange_2bandit_b.png","68","68","test","","","","4","",""
"null","178774","pSARL_v2","pSARL_v2t5a3w9hh","5a7096746fc3c60001f9598e","fixation","img/fixation.png","null","","test","","","","","",""
"307.3999999910593","179084","pSARL_v2","pSARL_v2t5a3w9hh","5a7096746fc3c60001f9598e","freq","img/green_2bandit_b2.png","70","70","test","1","88","88","4","",""
"null","179586","pSARL_v2","pSARL_v2t5a3w9hh","5a7096746fc3c60001f9598e","freq_resp","img/green_2bandit_b.png","70","70","test","","","","4","",""
"null","179755","pSARL_v2","pSARL_v2t5a3w9hh","5a7096746fc3c60001f9598e","fixation","img/fixation.png","null","","test","","","","","",""
"342.90000000596046","180101","pSARL_v2","pSARL_v2t5a3w9hh","5a7096746fc3c60001f9598e","freq","img/green_2bandit_b2.png","70","70","test","1","89","89","4","",""
"null","180580","pSARL_v2","pSARL_v2t5a3w9hh","5a7096746fc3c60001f9598e","freq_resp","img/green_2bandit_b.png","70","70","test","","","","4","",""
"null","180736","pSARL_v2","pSARL_v2t5a3w9hh","5a7096746fc3c60001f9598e","fixation","img/fixation.png","null","","test","","","","","",""
"290.20000000298023","181029","pSARL_v2","pSARL_v2t5a3w9hh","5a7096746fc3c60001f9598e","freq","img/green_2bandit_b2.png","70","70","test","1","90","90","4","",""
"null","181547","pSARL_v2","pSARL_v2t5a3w9hh","5a7096746fc3c60001f9598e","freq_resp","img/green_2bandit_b.png","70","70","test","","","","4","",""
"null","181714","pSARL_v2","pSARL_v2t5a3w9hh","5a7096746fc3c60001f9598e","fixation","img/fixation.png","null","","test","","","","","",""
"520.7000000029802","182237","pSARL_v2","pSARL_v2t5a3w9hh","5a7096746fc3c60001f9598e","reward","img/slot.png","74","","test","","","","","",""
"null","182997","pSARL_v2","pSARL_v2t5a3w9hh","5a7096746fc3c60001f9598e","points","<div class=""verylowPoints""> -3 </div>","null","na","test","","","","4","-3","3"
"389.59999999403954","183389","pSARL_v2","pSARL_v2t5a3w9hh","5a7096746fc3c60001f9598e","freq","img/green_2bandit_b2.png","70","70","test","1","91","91","5","",""
"null","183813","pSARL_v2","pSARL_v2t5a3w9hh","5a7096746fc3c60001f9598e","freq_resp","img/green_2bandit_b.png","70","70","test","","","","5","",""
"null","183977","pSARL_v2","pSARL_v2t5a3w9hh","5a7096746fc3c60001f9598e","fixation","img/fixation.png","null","","test","","","","","",""
"250.09999999403954","184229","pSARL_v2","pSARL_v2t5a3w9hh","5a7096746fc3c60001f9598e","freq","img/green_2bandit_b2.png","70","70","test","1","92","92","5","",""
"null","184801","pSARL_v2","pSARL_v2t5a3w9hh","5a7096746fc3c60001f9598e","freq_resp","img/green_2bandit_b.png","70","70","test","","","","5","",""
"null","184963","pSARL_v2","pSARL_v2t5a3w9hh","5a7096746fc3c60001f9598e","fixation","img/fixation.png","null","","test","","","","","",""
"295.5","185261","pSARL_v2","pSARL_v2t5a3w9hh","5a7096746fc3c60001f9598e","freq","img/green_2bandit_b2.png","70","70","test","1","93","93","5","",""
"null","185780","pSARL_v2","pSARL_v2t5a3w9hh","5a7096746fc3c60001f9598e","freq_resp","img/green_2bandit_b.png","70","70","test","","","","5","",""
"null","185935","pSARL_v2","pSARL_v2t5a3w9hh","5a7096746fc3c60001f9598e","fixation","img/fixation.png","null","","test","","","","","",""
"267.59999999403954","186205","pSARL_v2","pSARL_v2t5a3w9hh","5a7096746fc3c60001f9598e","freq","img/green_2bandit_b2.png","70","70","test","1","94","94","5","",""
"null","186754","pSARL_v2","pSARL_v2t5a3w9hh","5a7096746fc3c60001f9598e","freq_resp","img/green_2bandit_b.png","70","70","test","","","","5","",""
"null","186908","pSARL_v2","pSARL_v2t5a3w9hh","5a7096746fc3c60001f9598e","fixation","img/fixation.png","null","","test","","","","","",""
"271","187182","pSARL_v2","pSARL_v2t5a3w9hh","5a7096746fc3c60001f9598e","freq","img/green_2bandit_b2.png","70","70","test","1","95","95","5","",""
"null","187726","pSARL_v2","pSARL_v2t5a3w9hh","5a7096746fc3c60001f9598e","freq_resp","img/green_2bandit_b.png","70","70","test","","","","5","",""
"null","187896","pSARL_v2","pSARL_v2t5a3w9hh","5a7096746fc3c60001f9598e","fixation","img/fixation.png","null","","test","","","","","",""
"219.20000000298023","188118","pSARL_v2","pSARL_v2t5a3w9hh","5a7096746fc3c60001f9598e","freq","img/green_2bandit_b2.png","70","70","test","1","96","96","5","",""
"null","188714","pSARL_v2","pSARL_v2t5a3w9hh","5a7096746fc3c60001f9598e","freq_resp","img/green_2bandit_b.png","70","70","test","","","","5","",""
"null","188878","pSARL_v2","pSARL_v2t5a3w9hh","5a7096746fc3c60001f9598e","fixation","img/fixation.png","null","","test","","","","","",""
"317.5","189198","pSARL_v2","pSARL_v2t5a3w9hh","5a7096746fc3c60001f9598e","freq","img/green_2bandit_b2.png","70","70","test","1","97","97","5","",""
"null","189695","pSARL_v2","pSARL_v2t5a3w9hh","5a7096746fc3c60001f9598e","freq_resp","img/green_2bandit_b.png","70","70","test","","","","5","",""
"null","189850","pSARL_v2","pSARL_v2t5a3w9hh","5a7096746fc3c60001f9598e","fixation","img/fixation.png","null","","test","","","","","",""
"281.69999998807907","190134","pSARL_v2","pSARL_v2t5a3w9hh","5a7096746fc3c60001f9598e","freq","img/green_2bandit_b2.png","70","70","test","1","98","98","5","",""
"null","190666","pSARL_v2","pSARL_v2t5a3w9hh","5a7096746fc3c60001f9598e","freq_resp","img/green_2bandit_b.png","70","70","test","","","","5","",""
"null","190829","pSARL_v2","pSARL_v2t5a3w9hh","5a7096746fc3c60001f9598e","fixation","img/fixation.png","null","","test","","","","","",""
"341.80000001192093","191174","pSARL_v2","pSARL_v2t5a3w9hh","5a7096746fc3c60001f9598e","freq","img/green_2bandit_b2.png","70","70","test","1","99","99","5","",""
"null","191646","pSARL_v2","pSARL_v2t5a3w9hh","5a7096746fc3c60001f9598e","freq_resp","img/green_2bandit_b.png","70","70","test","","","","5","",""
"null","191802","pSARL_v2","pSARL_v2t5a3w9hh","5a7096746fc3c60001f9598e","fixation","img/fixation.png","null","","test","","","","","",""
"394.70000000298023","192199","pSARL_v2","pSARL_v2t5a3w9hh","5a7096746fc3c60001f9598e","freq","img/green_2bandit_b2.png","70","70","test","1","100","100","5","",""
"null","192619","pSARL_v2","pSARL_v2t5a3w9hh","5a7096746fc3c60001f9598e","freq_resp","img/green_2bandit_b.png","70","70","test","","","","5","",""
"null","192773","pSARL_v2","pSARL_v2t5a3w9hh","5a7096746fc3c60001f9598e","fixation","img/fixation.png","null","","test","","","","","",""
"278.20000000298023","193055","pSARL_v2","pSARL_v2t5a3w9hh","5a7096746fc3c60001f9598e","freq","img/green_2bandit_b2.png","70","70","test","1","101","101","5","",""
"null","193592","pSARL_v2","pSARL_v2t5a3w9hh","5a7096746fc3c60001f9598e","freq_resp","img/green_2bandit_b.png","70","70","test","","","","5","",""
"null","193747","pSARL_v2","pSARL_v2t5a3w9hh","5a7096746fc3c60001f9598e","fixation","img/fixation.png","null","","test","","","","","",""
"313.29999999701977","194063","pSARL_v2","pSARL_v2t5a3w9hh","5a7096746fc3c60001f9598e","freq","img/green_2bandit_b2.png","70","70","test","1","102","102","5","",""
"null","194558","pSARL_v2","pSARL_v2t5a3w9hh","5a7096746fc3c60001f9598e","freq_resp","img/green_2bandit_b.png","70","70","test","","","","5","",""
"null","194712","pSARL_v2","pSARL_v2t5a3w9hh","5a7096746fc3c60001f9598e","fixation","img/fixation.png","null","","test","","","","","",""
"269.20000000298023","194983","pSARL_v2","pSARL_v2t5a3w9hh","5a7096746fc3c60001f9598e","infreq","img/orange_2bandit_b2.png","70","68","test","0","103","103","5","",""
"null","195528","pSARL_v2","pSARL_v2t5a3w9hh","5a7096746fc3c60001f9598e","infreq_resp","img/orange_2bandit_b.png","70","68","test","","","","5","",""
"null","195697","pSARL_v2","pSARL_v2t5a3w9hh","5a7096746fc3c60001f9598e","fixation","img/fixation.png","null","","test","","","","","",""
"299.29999999701977","195999","pSARL_v2","pSARL_v2t5a3w9hh","5a7096746fc3c60001f9598e","freq","img/green_2bandit_b2.png","70","70","test","1","104","104","5","",""
"null","196516","pSARL_v2","pSARL_v2t5a3w9hh","5a7096746fc3c60001f9598e","freq_resp","img/green_2bandit_b.png","70","70","test","","","","5","",""
"null","196685","pSARL_v2","pSARL_v2t5a3w9hh","5a7096746fc3c60001f9598e","fixation","img/fixation.png","null","","test","","","","","",""
"350.79999999701977","197038","pSARL_v2","pSARL_v2t5a3w9hh","5a7096746fc3c60001f9598e","freq","img/green_2bandit_b2.png","70","70","test","1","105","105","5","",""
"null","197504","pSARL_v2","pSARL_v2t5a3w9hh","5a7096746fc3c60001f9598e","freq_resp","img/green_2bandit_b.png","70","70","test","","","","5","",""
"null","197667","pSARL_v2","pSARL_v2t5a3w9hh","5a7096746fc3c60001f9598e","fixation","img/fixation.png","null","","test","","","","","",""
"296.79999999701977","197967","pSARL_v2","pSARL_v2t5a3w9hh","5a7096746fc3c60001f9598e","freq","img/green_2bandit_b2.png","70","70","test","1","106","106","5","",""
"null","198498","pSARL_v2","pSARL_v2t5a3w9hh","5a7096746fc3c60001f9598e","freq_resp","img/green_2bandit_b.png","70","70","test","","","","5","",""
"null","198654","pSARL_v2","pSARL_v2t5a3w9hh","5a7096746fc3c60001f9598e","fixation","img/fixation.png","null","","test","","","","","",""
"342.09999999403954","198999","pSARL_v2","pSARL_v2t5a3w9hh","5a7096746fc3c60001f9598e","freq","img/green_2bandit_b2.png","70","70","test","1","107","107","5","",""
"null","199473","pSARL_v2","pSARL_v2t5a3w9hh","5a7096746fc3c60001f9598e","freq_resp","img/green_2bandit_b.png","70","70","test","","","","5","",""
"null","199626","pSARL_v2","pSARL_v2t5a3w9hh","5a7096746fc3c60001f9598e","fixation","img/fixation.png","null","","test","","","","","",""
"306","199935","pSARL_v2","pSARL_v2t5a3w9hh","5a7096746fc3c60001f9598e","freq","img/green_2bandit_b2.png","70","70","test","1","108","108","5","",""
"null","200445","pSARL_v2","pSARL_v2t5a3w9hh","5a7096746fc3c60001f9598e","freq_resp","img/green_2bandit_b.png","70","70","test","","","","5","",""
"null","200599","pSARL_v2","pSARL_v2t5a3w9hh","5a7096746fc3c60001f9598e","fixation","img/fixation.png","null","","test","","","","","",""
"261.5","200863","pSARL_v2","pSARL_v2t5a3w9hh","5a7096746fc3c60001f9598e","freq","img/green_2bandit_b2.png","70","70","test","1","109","109","5","",""
"null","201418","pSARL_v2","pSARL_v2t5a3w9hh","5a7096746fc3c60001f9598e","freq_resp","img/green_2bandit_b.png","70","70","test","","","","5","",""
"null","201581","pSARL_v2","pSARL_v2t5a3w9hh","5a7096746fc3c60001f9598e","fixation","img/fixation.png","null","","test","","","","","",""
"351.5","201935","pSARL_v2","pSARL_v2t5a3w9hh","5a7096746fc3c60001f9598e","freq","img/green_2bandit_b2.png","70","70","test","1","110","110","5","",""
"null","202405","pSARL_v2","pSARL_v2t5a3w9hh","5a7096746fc3c60001f9598e","freq_resp","img/green_2bandit_b.png","70","70","test","","","","5","",""
"null","202568","pSARL_v2","pSARL_v2t5a3w9hh","5a7096746fc3c60001f9598e","fixation","img/fixation.png","null","","test","","","","","",""
"276.79999999701977","202848","pSARL_v2","pSARL_v2t5a3w9hh","5a7096746fc3c60001f9598e","infreq","img/orange_2bandit_b2.png","70","68","test","0","111","111","5","",""
"null","203386","pSARL_v2","pSARL_v2t5a3w9hh","5a7096746fc3c60001f9598e","infreq_resp","img/orange_2bandit_b.png","70","68","test","","","","5","",""
"null","203540","pSARL_v2","pSARL_v2t5a3w9hh","5a7096746fc3c60001f9598e","fixation","img/fixation.png","null","","test","","","","","",""
"280.90000000596046","203823","pSARL_v2","pSARL_v2t5a3w9hh","5a7096746fc3c60001f9598e","freq","img/green_2bandit_b2.png","70","70","test","1","112","112","5","",""
"null","204348","pSARL_v2","pSARL_v2t5a3w9hh","5a7096746fc3c60001f9598e","freq_resp","img/green_2bandit_b.png","70","70","test","","","","5","",""
"null","204512","pSARL_v2","pSARL_v2t5a3w9hh","5a7096746fc3c60001f9598e","fixation","img/fixation.png","null","","test","","","","","",""
"300.90000000596046","204816","pSARL_v2","pSARL_v2t5a3w9hh","5a7096746fc3c60001f9598e","freq","img/green_2bandit_b2.png","70","70","test","1","113","113","5","",""
"null","205330","pSARL_v2","pSARL_v2t5a3w9hh","5a7096746fc3c60001f9598e","freq_resp","img/green_2bandit_b.png","70","70","test","","","","5","",""
"null","205493","pSARL_v2","pSARL_v2t5a3w9hh","5a7096746fc3c60001f9598e","fixation","img/fixation.png","null","","test","","","","","",""
"256.1000000089407","205752","pSARL_v2","pSARL_v2t5a3w9hh","5a7096746fc3c60001f9598e","freq","img/green_2bandit_b2.png","70","70","test","1","114","114","5","",""
"null","206310","pSARL_v2","pSARL_v2t5a3w9hh","5a7096746fc3c60001f9598e","freq_resp","img/green_2bandit_b.png","70","70","test","","","","5","",""
"null","206464","pSARL_v2","pSARL_v2t5a3w9hh","5a7096746fc3c60001f9598e","fixation","img/fixation.png","null","","test","","","","","",""
"317","206784","pSARL_v2","pSARL_v2t5a3w9hh","5a7096746fc3c60001f9598e","freq","img/green_2bandit_b2.png","70","70","test","1","115","115","5","",""
"null","207281","pSARL_v2","pSARL_v2t5a3w9hh","5a7096746fc3c60001f9598e","freq_resp","img/green_2bandit_b.png","70","70","test","","","","5","",""
"null","207449","pSARL_v2","pSARL_v2t5a3w9hh","5a7096746fc3c60001f9598e","fixation","img/fixation.png","null","","test","","","","","",""
"452","207904","pSARL_v2","pSARL_v2t5a3w9hh","5a7096746fc3c60001f9598e","reward","img/slot.png","74","","test","","","","","",""
"null","208670","pSARL_v2","pSARL_v2t5a3w9hh","5a7096746fc3c60001f9598e","points","<div class=""veryhighPoints""> +1 </div>","null","na","test","","","","5","1","4"
"375.40000000596046","209048","pSARL_v2","pSARL_v2t5a3w9hh","5a7096746fc3c60001f9598e","freq","img/green_2bandit_b2.png","70","70","test","1","116","116","6","",""
"null","209487","pSARL_v2","pSARL_v2t5a3w9hh","5a7096746fc3c60001f9598e","freq_resp","img/green_2bandit_b.png","70","70","test","","","","6","",""
"null","209654","pSARL_v2","pSARL_v2t5a3w9hh","5a7096746fc3c60001f9598e","fixation","img/fixation.png","null","","test","","","","","",""
"335.90000000596046","209992","pSARL_v2","pSARL_v2t5a3w9hh","5a7096746fc3c60001f9598e","freq","img/green_2bandit_b2.png","70","70","test","1","117","117","6","",""
"null","210460","pSARL_v2","pSARL_v2t5a3w9hh","5a7096746fc3c60001f9598e","freq_resp","img/green_2bandit_b.png","70","70","test","","","","6","",""
"null","210620","pSARL_v2","pSARL_v2t5a3w9hh","5a7096746fc3c60001f9598e","fixation","img/fixation.png","null","","test","","","","","",""
"241.8999999910593","210864","pSARL_v2","pSARL_v2t5a3w9hh","5a7096746fc3c60001f9598e","freq","img/green_2bandit_b2.png","70","70","test","1","118","118","6","",""
"null","211440","pSARL_v2","pSARL_v2t5a3w9hh","5a7096746fc3c60001f9598e","freq_resp","img/green_2bandit_b.png","70","70","test","","","","6","",""
"null","211603","pSARL_v2","pSARL_v2t5a3w9hh","5a7096746fc3c60001f9598e","fixation","img/fixation.png","null","","test","","","","","",""
"282.70000000298023","211888","pSARL_v2","pSARL_v2t5a3w9hh","5a7096746fc3c60001f9598e","freq","img/green_2bandit_b2.png","70","70","test","1","119","119","6","",""
"null","212412","pSARL_v2","pSARL_v2t5a3w9hh","5a7096746fc3c60001f9598e","freq_resp","img/green_2bandit_b.png","70","70","test","","","","6","",""
"null","212570","pSARL_v2","pSARL_v2t5a3w9hh","5a7096746fc3c60001f9598e","fixation","img/fixation.png","null","","test","","","","","",""
"268.20000000298023","212840","pSARL_v2","pSARL_v2t5a3w9hh","5a7096746fc3c60001f9598e","freq","img/green_2bandit_b2.png","70","70","test","1","120","120","6","",""
"null","213383","pSARL_v2","pSARL_v2t5a3w9hh","5a7096746fc3c60001f9598e","freq_resp","img/green_2bandit_b.png","70","70","test","","","","6","",""
"null","213537","pSARL_v2","pSARL_v2t5a3w9hh","5a7096746fc3c60001f9598e","fixation","img/fixation.png","null","","test","","","","","",""
"285.20000000298023","213824","pSARL_v2","pSARL_v2t5a3w9hh","5a7096746fc3c60001f9598e","freq","img/green_2bandit_b2.png","70","70","test","1","121","121","6","",""
"null","214350","pSARL_v2","pSARL_v2t5a3w9hh","5a7096746fc3c60001f9598e","freq_resp","img/green_2bandit_b.png","70","70","test","","","","6","",""
"null","214504","pSARL_v2","pSARL_v2t5a3w9hh","5a7096746fc3c60001f9598e","fixation","img/fixation.png","null","","test","","","","","",""
"230.29999999701977","214737","pSARL_v2","pSARL_v2t5a3w9hh","5a7096746fc3c60001f9598e","freq","img/green_2bandit_b2.png","70","70","test","1","122","122","6","",""
"null","215322","pSARL_v2","pSARL_v2t5a3w9hh","5a7096746fc3c60001f9598e","freq_resp","img/green_2bandit_b.png","70","70","test","","","","6","",""
"null","215487","pSARL_v2","pSARL_v2t5a3w9hh","5a7096746fc3c60001f9598e","fixation","img/fixation.png","null","","test","","","","","",""
"255.40000000596046","215745","pSARL_v2","pSARL_v2t5a3w9hh","5a7096746fc3c60001f9598e","freq","img/green_2bandit_b2.png","70","70","test","1","123","123","6","",""
"null","216294","pSARL_v2","pSARL_v2t5a3w9hh","5a7096746fc3c60001f9598e","freq_resp","img/green_2bandit_b.png","70","70","test","","","","6","",""
"null","216453","pSARL_v2","pSARL_v2t5a3w9hh","5a7096746fc3c60001f9598e","fixation","img/fixation.png","null","","test","","","","","",""
"297.5","216753","pSARL_v2","pSARL_v2t5a3w9hh","5a7096746fc3c60001f9598e","freq","img/green_2bandit_b2.png","70","70","test","1","124","124","6","",""
"null","217260","pSARL_v2","pSARL_v2t5a3w9hh","5a7096746fc3c60001f9598e","freq_resp","img/green_2bandit_b.png","70","70","test","","","","6","",""
"null","217420","pSARL_v2","pSARL_v2t5a3w9hh","5a7096746fc3c60001f9598e","fixation","img/fixation.png","null","","test","","","","","",""
"290.70000000298023","217713","pSARL_v2","pSARL_v2t5a3w9hh","5a7096746fc3c60001f9598e","freq","img/green_2bandit_b2.png","70","70","test","1","125","125","6","",""
"null","218237","pSARL_v2","pSARL_v2t5a3w9hh","5a7096746fc3c60001f9598e","freq_resp","img/green_2bandit_b.png","70","70","test","","","","6","",""
"null","218403","pSARL_v2","pSARL_v2t5a3w9hh","5a7096746fc3c60001f9598e","fixation","img/fixation.png","null","","test","","","","","",""
"324","218729","pSARL_v2","pSARL_v2t5a3w9hh","5a7096746fc3c60001f9598e","freq","img/green_2bandit_b2.png","70","70","test","1","126","126","6","",""
"null","219222","pSARL_v2","pSARL_v2t5a3w9hh","5a7096746fc3c60001f9598e","freq_resp","img/green_2bandit_b.png","70","70","test","","","","6","",""
"null","219388","pSARL_v2","pSARL_v2t5a3w9hh","5a7096746fc3c60001f9598e","fixation","img/fixation.png","null","","test","","","","","",""
"283","219673","pSARL_v2","pSARL_v2t5a3w9hh","5a7096746fc3c60001f9598e","freq","img/green_2bandit_b2.png","70","70","test","1","127","127","6","",""
"null","220198","pSARL_v2","pSARL_v2t5a3w9hh","5a7096746fc3c60001f9598e","freq_resp","img/green_2bandit_b.png","70","70","test","","","","6","",""
"null","220353","pSARL_v2","pSARL_v2t5a3w9hh","5a7096746fc3c60001f9598e","fixation","img/fixation.png","null","","test","","","","","",""
"309.70000000298023","220665","pSARL_v2","pSARL_v2t5a3w9hh","5a7096746fc3c60001f9598e","freq","img/green_2bandit_b2.png","70","70","test","1","128","128","6","",""
"null","221159","pSARL_v2","pSARL_v2t5a3w9hh","5a7096746fc3c60001f9598e","freq_resp","img/green_2bandit_b.png","70","70","test","","","","6","",""
"null","221320","pSARL_v2","pSARL_v2t5a3w9hh","5a7096746fc3c60001f9598e","fixation","img/fixation.png","null","","test","","","","","",""
"303.09999999403954","221625","pSARL_v2","pSARL_v2t5a3w9hh","5a7096746fc3c60001f9598e","freq","img/green_2bandit_b2.png","70","70","test","1","129","129","6","",""
"null","222130","pSARL_v2","pSARL_v2t5a3w9hh","5a7096746fc3c60001f9598e","freq_resp","img/green_2bandit_b.png","70","70","test","","","","6","",""
"null","222288","pSARL_v2","pSARL_v2t5a3w9hh","5a7096746fc3c60001f9598e","fixation","img/fixation.png","null","","test","","","","","",""
"392.09999999403954","222682","pSARL_v2","pSARL_v2t5a3w9hh","5a7096746fc3c60001f9598e","infreq","img/orange_2bandit_b2.png","68","68","test","1","130","130","6","",""
"null","223102","pSARL_v2","pSARL_v2t5a3w9hh","5a7096746fc3c60001f9598e","infreq_resp","img/orange_2bandit_b.png","68","68","test","","","","6","",""
"null","223270","pSARL_v2","pSARL_v2t5a3w9hh","5a7096746fc3c60001f9598e","fixation","img/fixation.png","null","","test","","","","","",""
"330","223603","pSARL_v2","pSARL_v2t5a3w9hh","5a7096746fc3c60001f9598e","freq","img/green_2bandit_b2.png","70","70","test","1","131","131","6","",""
"null","224084","pSARL_v2","pSARL_v2t5a3w9hh","5a7096746fc3c60001f9598e","freq_resp","img/green_2bandit_b.png","70","70","test","","","","6","",""
"null","224245","pSARL_v2","pSARL_v2t5a3w9hh","5a7096746fc3c60001f9598e","fixation","img/fixation.png","null","","test","","","","","",""
"282.59999999403954","224530","pSARL_v2","pSARL_v2t5a3w9hh","5a7096746fc3c60001f9598e","freq","img/green_2bandit_b2.png","70","70","test","1","132","132","6","",""
"null","225057","pSARL_v2","pSARL_v2t5a3w9hh","5a7096746fc3c60001f9598e","freq_resp","img/green_2bandit_b.png","70","70","test","","","","6","",""
"null","225220","pSARL_v2","pSARL_v2t5a3w9hh","5a7096746fc3c60001f9598e","fixation","img/fixation.png","null","","test","","","","","",""
"483.5","225706","pSARL_v2","pSARL_v2t5a3w9hh","5a7096746fc3c60001f9598e","infreq","img/orange_2bandit_b2.png","68","68","test","1","133","133","6","",""
"null","226032","pSARL_v2","pSARL_v2t5a3w9hh","5a7096746fc3c60001f9598e","infreq_resp","img/orange_2bandit_b.png","68","68","test","","","","6","",""
"null","226187","pSARL_v2","pSARL_v2t5a3w9hh","5a7096746fc3c60001f9598e","fixation","img/fixation.png","null","","test","","","","","",""
"276.6000000089407","226466","pSARL_v2","pSARL_v2t5a3w9hh","5a7096746fc3c60001f9598e","freq","img/green_2bandit_b2.png","70","70","test","1","134","134","6","",""
"null","226995","pSARL_v2","pSARL_v2t5a3w9hh","5a7096746fc3c60001f9598e","freq_resp","img/green_2bandit_b.png","70","70","test","","","","6","",""
"null","227153","pSARL_v2","pSARL_v2t5a3w9hh","5a7096746fc3c60001f9598e","fixation","img/fixation.png","null","","test","","","","","",""
"286.40000000596046","227442","pSARL_v2","pSARL_v2t5a3w9hh","5a7096746fc3c60001f9598e","freq","img/green_2bandit_b2.png","70","70","test","1","135","135","6","",""
"null","227968","pSARL_v2","pSARL_v2t5a3w9hh","5a7096746fc3c60001f9598e","freq_resp","img/green_2bandit_b.png","70","70","test","","","","6","",""
"null","228121","pSARL_v2","pSARL_v2t5a3w9hh","5a7096746fc3c60001f9598e","fixation","img/fixation.png","null","","test","","","","","",""
"487.79999999701977","228611","pSARL_v2","pSARL_v2t5a3w9hh","5a7096746fc3c60001f9598e","reward","img/slot.png","74","","test","","","","","",""
"null","229373","pSARL_v2","pSARL_v2t5a3w9hh","5a7096746fc3c60001f9598e","points","<div class=""verylowPoints""> -7 </div>","null","na","test","","","","6","-7","5"
"403.79999999701977","229779","pSARL_v2","pSARL_v2t5a3w9hh","5a7096746fc3c60001f9598e","freq","img/green_2bandit_b2.png","70","70","test","1","136","136","7","",""
"null","230187","pSARL_v2","pSARL_v2t5a3w9hh","5a7096746fc3c60001f9598e","freq_resp","img/green_2bandit_b.png","70","70","test","","","","7","",""
"null","230343","pSARL_v2","pSARL_v2t5a3w9hh","5a7096746fc3c60001f9598e","fixation","img/fixation.png","null","","test","","","","","",""
"520.4000000059605","230866","pSARL_v2","pSARL_v2t5a3w9hh","5a7096746fc3c60001f9598e","infreq","img/orange_2bandit_b2.png","68","68","test","1","137","137","7","",""
"null","231153","pSARL_v2","pSARL_v2t5a3w9hh","5a7096746fc3c60001f9598e","infreq_resp","img/orange_2bandit_b.png","68","68","test","","","","7","",""
"null","231316","pSARL_v2","pSARL_v2t5a3w9hh","5a7096746fc3c60001f9598e","fixation","img/fixation.png","null","","test","","","","","",""
"364.79999999701977","231683","pSARL_v2","pSARL_v2t5a3w9hh","5a7096746fc3c60001f9598e","freq","img/green_2bandit_b2.png","70","70","test","1","138","138","7","",""
"null","232137","pSARL_v2","pSARL_v2t5a3w9hh","5a7096746fc3c60001f9598e","freq_resp","img/green_2bandit_b.png","70","70","test","","","","7","",""
"null","232296","pSARL_v2","pSARL_v2t5a3w9hh","5a7096746fc3c60001f9598e","fixation","img/fixation.png","null","","test","","","","","",""
"519.5","232819","pSARL_v2","pSARL_v2t5a3w9hh","5a7096746fc3c60001f9598e","infreq","img/orange_2bandit_b2.png","68","68","test","1","139","139","7","",""
"null","233103","pSARL_v2","pSARL_v2t5a3w9hh","5a7096746fc3c60001f9598e","infreq_resp","img/orange_2bandit_b.png","68","68","test","","","","7","",""
"null","233269","pSARL_v2","pSARL_v2t5a3w9hh","5a7096746fc3c60001f9598e","fixation","img/fixation.png","null","","test","","","","","",""
"323.6000000089407","233595","pSARL_v2","pSARL_v2t5a3w9hh","5a7096746fc3c60001f9598e","freq","img/green_2bandit_b2.png","70","70","test","1","140","140","7","",""
"null","234087","pSARL_v2","pSARL_v2t5a3w9hh","5a7096746fc3c60001f9598e","freq_resp","img/green_2bandit_b.png","70","70","test","","","","7","",""
"null","234241","pSARL_v2","pSARL_v2t5a3w9hh","5a7096746fc3c60001f9598e","fixation","img/fixation.png","null","","test","","","","","",""
"240.09999999403954","234484","pSARL_v2","pSARL_v2t5a3w9hh","5a7096746fc3c60001f9598e","freq","img/green_2bandit_b2.png","70","70","test","1","141","141","7","",""
"null","235051","pSARL_v2","pSARL_v2t5a3w9hh","5a7096746fc3c60001f9598e","freq_resp","img/green_2bandit_b.png","70","70","test","","","","7","",""
"null","235215","pSARL_v2","pSARL_v2t5a3w9hh","5a7096746fc3c60001f9598e","fixation","img/fixation.png","null","","test","","","","","",""
"321.8999999910593","235539","pSARL_v2","pSARL_v2t5a3w9hh","5a7096746fc3c60001f9598e","freq","img/green_2bandit_b2.png","70","70","test","1","142","142","7","",""
"null","236037","pSARL_v2","pSARL_v2t5a3w9hh","5a7096746fc3c60001f9598e","freq_resp","img/green_2bandit_b.png","70","70","test","","","","7","",""
"null","236198","pSARL_v2","pSARL_v2t5a3w9hh","5a7096746fc3c60001f9598e","fixation","img/fixation.png","null","","test","","","","","",""
"315","236516","pSARL_v2","pSARL_v2t5a3w9hh","5a7096746fc3c60001f9598e","freq","img/green_2bandit_b2.png","70","70","test","1","143","143","7","",""
"null","237019","pSARL_v2","pSARL_v2t5a3w9hh","5a7096746fc3c60001f9598e","freq_resp","img/green_2bandit_b.png","70","70","test","","","","7","",""
"null","237172","pSARL_v2","pSARL_v2t5a3w9hh","5a7096746fc3c60001f9598e","fixation","img/fixation.png","null","","test","","","","","",""
"260.90000000596046","237436","pSARL_v2","pSARL_v2t5a3w9hh","5a7096746fc3c60001f9598e","freq","img/green_2bandit_b2.png","70","70","test","1","144","144","7","",""
"null","237986","pSARL_v2","pSARL_v2t5a3w9hh","5a7096746fc3c60001f9598e","freq_resp","img/green_2bandit_b.png","70","70","test","","","","7","",""
"null","238154","pSARL_v2","pSARL_v2t5a3w9hh","5a7096746fc3c60001f9598e","fixation","img/fixation.png","null","","test","","","","","",""
"302.59999999403954","238460","pSARL_v2","pSARL_v2t5a3w9hh","5a7096746fc3c60001f9598e","freq","img/green_2bandit_b2.png","70","70","test","1","145","145","7","",""
"null","238970","pSARL_v2","pSARL_v2t5a3w9hh","5a7096746fc3c60001f9598e","freq_resp","img/green_2bandit_b.png","70","70","test","","","","7","",""
"null","239135","pSARL_v2","pSARL_v2t5a3w9hh","5a7096746fc3c60001f9598e","fixation","img/fixation.png","null","","test","","","","","",""
"314.1000000089407","239452","pSARL_v2","pSARL_v2t5a3w9hh","5a7096746fc3c60001f9598e","freq","img/green_2bandit_b2.png","70","70","test","1","146","146","7","",""
"null","239955","pSARL_v2","pSARL_v2t5a3w9hh","5a7096746fc3c60001f9598e","freq_resp","img/green_2bandit_b.png","70","70","test","","","","7","",""
"null","240108","pSARL_v2","pSARL_v2t5a3w9hh","5a7096746fc3c60001f9598e","fixation","img/fixation.png","null","","test","","","","","",""
"301.3999999910593","240412","pSARL_v2","pSARL_v2t5a3w9hh","5a7096746fc3c60001f9598e","freq","img/green_2bandit_b2.png","70","70","test","1","147","147","7","",""
"null","240919","pSARL_v2","pSARL_v2t5a3w9hh","5a7096746fc3c60001f9598e","freq_resp","img/green_2bandit_b.png","70","70","test","","","","7","",""
"null","241080","pSARL_v2","pSARL_v2t5a3w9hh","5a7096746fc3c60001f9598e","fixation","img/fixation.png","null","","test","","","","","",""
"336.20000000298023","241419","pSARL_v2","pSARL_v2t5a3w9hh","5a7096746fc3c60001f9598e","freq","img/green_2bandit_b2.png","70","70","test","1","148","148","7","",""
"null","241886","pSARL_v2","pSARL_v2t5a3w9hh","5a7096746fc3c60001f9598e","freq_resp","img/green_2bandit_b.png","70","70","test","","","","7","",""
"null","242048","pSARL_v2","pSARL_v2t5a3w9hh","5a7096746fc3c60001f9598e","fixation","img/fixation.png","null","","test","","","","","",""
"361.79999999701977","242412","pSARL_v2","pSARL_v2t5a3w9hh","5a7096746fc3c60001f9598e","freq","img/green_2bandit_b2.png","70","70","test","1","149","149","7","",""
"null","242870","pSARL_v2","pSARL_v2t5a3w9hh","5a7096746fc3c60001f9598e","freq_resp","img/green_2bandit_b.png","70","70","test","","","","7","",""
"null","243034","pSARL_v2","pSARL_v2t5a3w9hh","5a7096746fc3c60001f9598e","fixation","img/fixation.png","null","","test","","","","","",""
"254.30000001192093","243291","pSARL_v2","pSARL_v2t5a3w9hh","5a7096746fc3c60001f9598e","freq","img/green_2bandit_b2.png","70","70","test","1","150","150","7","",""
"null","243852","pSARL_v2","pSARL_v2t5a3w9hh","5a7096746fc3c60001f9598e","freq_resp","img/green_2bandit_b.png","70","70","test","","","","7","",""
"null","244006","pSARL_v2","pSARL_v2t5a3w9hh","5a7096746fc3c60001f9598e","fixation","img/fixation.png","null","","test","","","","","",""
"339.19999998807907","244347","pSARL_v2","pSARL_v2t5a3w9hh","5a7096746fc3c60001f9598e","freq","img/green_2bandit_b2.png","70","70","test","1","151","151","7","",""
"null","244819","pSARL_v2","pSARL_v2t5a3w9hh","5a7096746fc3c60001f9598e","freq_resp","img/green_2bandit_b.png","70","70","test","","","","7","",""
"null","244978","pSARL_v2","pSARL_v2t5a3w9hh","5a7096746fc3c60001f9598e","fixation","img/fixation.png","null","","test","","","","","",""
"288","245268","pSARL_v2","pSARL_v2t5a3w9hh","5a7096746fc3c60001f9598e","freq","img/green_2bandit_b2.png","70","70","test","1","152","152","7","",""
"null","245786","pSARL_v2","pSARL_v2t5a3w9hh","5a7096746fc3c60001f9598e","freq_resp","img/green_2bandit_b.png","70","70","test","","","","7","",""
"null","245947","pSARL_v2","pSARL_v2t5a3w9hh","5a7096746fc3c60001f9598e","fixation","img/fixation.png","null","","test","","","","","",""
"294.30000001192093","246244","pSARL_v2","pSARL_v2t5a3w9hh","5a7096746fc3c60001f9598e","freq","img/green_2bandit_b2.png","70","70","test","1","153","153","7","",""
"null","246752","pSARL_v2","pSARL_v2t5a3w9hh","5a7096746fc3c60001f9598e","freq_resp","img/green_2bandit_b.png","70","70","test","","","","7","",""
"null","246918","pSARL_v2","pSARL_v2t5a3w9hh","5a7096746fc3c60001f9598e","fixation","img/fixation.png","null","","test","","","","","",""
"282.79999999701977","247204","pSARL_v2","pSARL_v2t5a3w9hh","5a7096746fc3c60001f9598e","freq","img/green_2bandit_b2.png","70","70","test","1","154","154","7","",""
"null","247736","pSARL_v2","pSARL_v2t5a3w9hh","5a7096746fc3c60001f9598e","freq_resp","img/green_2bandit_b.png","70","70","test","","","","7","",""
"null","247891","pSARL_v2","pSARL_v2t5a3w9hh","5a7096746fc3c60001f9598e","fixation","img/fixation.png","null","","test","","","","","",""
"302.79999999701977","248196","pSARL_v2","pSARL_v2t5a3w9hh","5a7096746fc3c60001f9598e","freq","img/green_2bandit_b2.png","70","70","test","1","155","155","7","",""
"null","248702","pSARL_v2","pSARL_v2t5a3w9hh","5a7096746fc3c60001f9598e","freq_resp","img/green_2bandit_b.png","70","70","test","","","","7","",""
"null","248867","pSARL_v2","pSARL_v2t5a3w9hh","5a7096746fc3c60001f9598e","fixation","img/fixation.png","null","","test","","","","","",""
"622.7000000029802","249493","pSARL_v2","pSARL_v2t5a3w9hh","5a7096746fc3c60001f9598e","reward","img/slot.png","74","","test","","","","","",""
"null","250246","pSARL_v2","pSARL_v2t5a3w9hh","5a7096746fc3c60001f9598e","points","<div class=""verylowPoints""> -6 </div>","null","na","test","","","","7","-6","6"
"243.70000000298023","250493","pSARL_v2","pSARL_v2t5a3w9hh","5a7096746fc3c60001f9598e","freq","img/green_2bandit_b2.png","70","70","test","1","156","156","8","",""
"null","251065","pSARL_v2","pSARL_v2t5a3w9hh","5a7096746fc3c60001f9598e","freq_resp","img/green_2bandit_b.png","70","70","test","","","","8","",""
"null","251219","pSARL_v2","pSARL_v2t5a3w9hh","5a7096746fc3c60001f9598e","fixation","img/fixation.png","null","","test","","","","","",""
"334.59999999403954","251556","pSARL_v2","pSARL_v2t5a3w9hh","5a7096746fc3c60001f9598e","freq","img/green_2bandit_b2.png","70","70","test","1","157","157","8","",""
"null","252025","pSARL_v2","pSARL_v2t5a3w9hh","5a7096746fc3c60001f9598e","freq_resp","img/green_2bandit_b.png","70","70","test","","","","8","",""
"null","252186","pSARL_v2","pSARL_v2t5a3w9hh","5a7096746fc3c60001f9598e","fixation","img/fixation.png","null","","test","","","","","",""
"120.20000000298023","252308","pSARL_v2","pSARL_v2t5a3w9hh","5a7096746fc3c60001f9598e","freq","img/green_2bandit_b2.png","70","70","test","1","158","158","8","",""
"null","253010","pSARL_v2","pSARL_v2t5a3w9hh","5a7096746fc3c60001f9598e","freq_resp","img/green_2bandit_b.png","70","70","test","","","","8","",""
"null","253172","pSARL_v2","pSARL_v2t5a3w9hh","5a7096746fc3c60001f9598e","fixation","img/fixation.png","null","","test","","","","","",""
"109.70000000298023","253285","pSARL_v2","pSARL_v2t5a3w9hh","5a7096746fc3c60001f9598e","freq","img/green_2bandit_b2.png","70","70","test","1","159","159","8","",""
"null","253992","pSARL_v2","pSARL_v2t5a3w9hh","5a7096746fc3c60001f9598e","freq_resp","img/green_2bandit_b.png","70","70","test","","","","8","",""
"null","254152","pSARL_v2","pSARL_v2t5a3w9hh","5a7096746fc3c60001f9598e","fixation","img/fixation.png","null","","test","","","","","",""
"210.79999999701977","254365","pSARL_v2","pSARL_v2t5a3w9hh","5a7096746fc3c60001f9598e","freq","img/green_2bandit_b2.png","70","70","test","1","160","160","8","",""
"null","254964","pSARL_v2","pSARL_v2t5a3w9hh","5a7096746fc3c60001f9598e","freq_resp","img/green_2bandit_b.png","70","70","test","","","","8","",""
"null","255135","pSARL_v2","pSARL_v2t5a3w9hh","5a7096746fc3c60001f9598e","fixation","img/fixation.png","null","","test","","","","","",""
"194.79999999701977","255333","pSARL_v2","pSARL_v2t5a3w9hh","5a7096746fc3c60001f9598e","freq","img/green_2bandit_b2.png","70","70","test","1","161","161","8","",""
"null","255951","pSARL_v2","pSARL_v2t5a3w9hh","5a7096746fc3c60001f9598e","freq_resp","img/green_2bandit_b.png","70","70","test","","","","8","",""
"null","256105","pSARL_v2","pSARL_v2t5a3w9hh","5a7096746fc3c60001f9598e","fixation","img/fixation.png","null","","test","","","","","",""
"265.09999999403954","256373","pSARL_v2","pSARL_v2t5a3w9hh","5a7096746fc3c60001f9598e","infreq","img/orange_2bandit_b2.png","70","68","test","0","162","162","8","",""
"null","256924","pSARL_v2","pSARL_v2t5a3w9hh","5a7096746fc3c60001f9598e","infreq_resp","img/orange_2bandit_b.png","70","68","test","","","","8","",""
"null","257093","pSARL_v2","pSARL_v2t5a3w9hh","5a7096746fc3c60001f9598e","fixation","img/fixation.png","null","","test","","","","","",""
"333.09999999403954","257429","pSARL_v2","pSARL_v2t5a3w9hh","5a7096746fc3c60001f9598e","freq","img/green_2bandit_b2.png","70","70","test","1","163","163","8","",""
"null","257912","pSARL_v2","pSARL_v2t5a3w9hh","5a7096746fc3c60001f9598e","freq_resp","img/green_2bandit_b.png","70","70","test","","","","8","",""
"null","258075","pSARL_v2","pSARL_v2t5a3w9hh","5a7096746fc3c60001f9598e","fixation","img/fixation.png","null","","test","","","","","",""
"319.1000000089407","258397","pSARL_v2","pSARL_v2t5a3w9hh","5a7096746fc3c60001f9598e","freq","img/green_2bandit_b2.png","70","70","test","1","164","164","8","",""
"null","258886","pSARL_v2","pSARL_v2t5a3w9hh","5a7096746fc3c60001f9598e","freq_resp","img/green_2bandit_b.png","70","70","test","","","","8","",""
"null","259046","pSARL_v2","pSARL_v2t5a3w9hh","5a7096746fc3c60001f9598e","fixation","img/fixation.png","null","","test","","","","","",""
"324.40000000596046","259374","pSARL_v2","pSARL_v2t5a3w9hh","5a7096746fc3c60001f9598e","freq","img/green_2bandit_b2.png","70","70","test","1","165","165","8","",""
"null","259865","pSARL_v2","pSARL_v2t5a3w9hh","5a7096746fc3c60001f9598e","freq_resp","img/green_2bandit_b.png","70","70","test","","","","8","",""
"null","260033","pSARL_v2","pSARL_v2t5a3w9hh","5a7096746fc3c60001f9598e","fixation","img/fixation.png","null","","test","","","","","",""
"497.90000000596046","260534","pSARL_v2","pSARL_v2t5a3w9hh","5a7096746fc3c60001f9598e","infreq","img/orange_2bandit_b2.png","68","68","test","1","166","166","8","",""
"null","260852","pSARL_v2","pSARL_v2t5a3w9hh","5a7096746fc3c60001f9598e","infreq_resp","img/orange_2bandit_b.png","68","68","test","","","","8","",""
"null","261018","pSARL_v2","pSARL_v2t5a3w9hh","5a7096746fc3c60001f9598e","fixation","img/fixation.png","null","","test","","","","","",""
"208.5","261230","pSARL_v2","pSARL_v2t5a3w9hh","5a7096746fc3c60001f9598e","freq","img/green_2bandit_b2.png","70","70","test","1","167","167","8","",""
"null","261825","pSARL_v2","pSARL_v2t5a3w9hh","5a7096746fc3c60001f9598e","freq_resp","img/green_2bandit_b.png","70","70","test","","","","8","",""
"null","261987","pSARL_v2","pSARL_v2t5a3w9hh","5a7096746fc3c60001f9598e","fixation","img/fixation.png","null","","test","","","","","",""
"231.59999999403954","262221","pSARL_v2","pSARL_v2t5a3w9hh","5a7096746fc3c60001f9598e","freq","img/green_2bandit_b2.png","70","70","test","1","168","168","8","",""
"null","262813","pSARL_v2","pSARL_v2t5a3w9hh","5a7096746fc3c60001f9598e","freq_resp","img/green_2bandit_b.png","70","70","test","","","","8","",""
"null","262976","pSARL_v2","pSARL_v2t5a3w9hh","5a7096746fc3c60001f9598e","fixation","img/fixation.png","null","","test","","","","","",""
"211.20000000298023","263190","pSARL_v2","pSARL_v2t5a3w9hh","5a7096746fc3c60001f9598e","freq","img/green_2bandit_b2.png","70","70","test","1","169","169","8","",""
"null","263793","pSARL_v2","pSARL_v2t5a3w9hh","5a7096746fc3c60001f9598e","freq_resp","img/green_2bandit_b.png","70","70","test","","","","8","",""
"null","263947","pSARL_v2","pSARL_v2t5a3w9hh","5a7096746fc3c60001f9598e","fixation","img/fixation.png","null","","test","","","","","",""
"297.29999999701977","264247","pSARL_v2","pSARL_v2t5a3w9hh","5a7096746fc3c60001f9598e","freq","img/green_2bandit_b2.png","70","70","test","1","170","170","8","",""
"null","264753","pSARL_v2","pSARL_v2t5a3w9hh","5a7096746fc3c60001f9598e","freq_resp","img/green_2bandit_b.png","70","70","test","","","","8","",""
"null","264919","pSARL_v2","pSARL_v2t5a3w9hh","5a7096746fc3c60001f9598e","fixation","img/fixation.png","null","","test","","","","","",""
"324.3999999910593","265246","pSARL_v2","pSARL_v2t5a3w9hh","5a7096746fc3c60001f9598e","freq","img/green_2bandit_b2.png","70","70","test","1","171","171","8","",""
"null","265737","pSARL_v2","pSARL_v2t5a3w9hh","5a7096746fc3c60001f9598e","freq_resp","img/green_2bandit_b.png","70","70","test","","","","8","",""
"null","265900","pSARL_v2","pSARL_v2t5a3w9hh","5a7096746fc3c60001f9598e","fixation","img/fixation.png","null","","test","","","","","",""
"335.5","266238","pSARL_v2","pSARL_v2t5a3w9hh","5a7096746fc3c60001f9598e","freq","img/green_2bandit_b2.png","70","70","test","1","172","172","8","",""
"null","266725","pSARL_v2","pSARL_v2t5a3w9hh","5a7096746fc3c60001f9598e","freq_resp","img/green_2bandit_b.png","70","70","test","","","","8","",""
"null","266887","pSARL_v2","pSARL_v2t5a3w9hh","5a7096746fc3c60001f9598e","fixation","img/fixation.png","null","","test","","","","","",""
"364.29999999701977","267254","pSARL_v2","pSARL_v2t5a3w9hh","5a7096746fc3c60001f9598e","freq","img/green_2bandit_b2.png","70","70","test","1","173","173","8","",""
"null","267705","pSARL_v2","pSARL_v2t5a3w9hh","5a7096746fc3c60001f9598e","freq_resp","img/green_2bandit_b.png","70","70","test","","","","8","",""
"null","267858","pSARL_v2","pSARL_v2t5a3w9hh","5a7096746fc3c60001f9598e","fixation","img/fixation.png","null","","test","","","","","",""
"369.70000000298023","268231","pSARL_v2","pSARL_v2t5a3w9hh","5a7096746fc3c60001f9598e","freq","img/green_2bandit_b2.png","70","70","test","1","174","174","8","",""
"null","268677","pSARL_v2","pSARL_v2t5a3w9hh","5a7096746fc3c60001f9598e","freq_resp","img/green_2bandit_b.png","70","70","test","","","","8","",""
"null","268831","pSARL_v2","pSARL_v2t5a3w9hh","5a7096746fc3c60001f9598e","fixation","img/fixation.png","null","","test","","","","","",""
"436.29999999701977","269270","pSARL_v2","pSARL_v2t5a3w9hh","5a7096746fc3c60001f9598e","reward","img/slot.png","74","","test","","","","","",""
"null","270034","pSARL_v2","pSARL_v2t5a3w9hh","5a7096746fc3c60001f9598e","points","<div class=""verylowPoints""> -4 </div>","null","na","test","","","","8","-4","7"
"282.29999999701977","270320","pSARL_v2","pSARL_v2t5a3w9hh","5a7096746fc3c60001f9598e","freq","img/green_2bandit_b2.png","70","70","test","1","175","175","9","",""
"null","270853","pSARL_v2","pSARL_v2t5a3w9hh","5a7096746fc3c60001f9598e","freq_resp","img/green_2bandit_b.png","70","70","test","","","","9","",""
"null","271019","pSARL_v2","pSARL_v2t5a3w9hh","5a7096746fc3c60001f9598e","fixation","img/fixation.png","null","","test","","","","","",""
"249.20000000298023","271271","pSARL_v2","pSARL_v2t5a3w9hh","5a7096746fc3c60001f9598e","infreq","img/orange_2bandit_b2.png","70","68","test","0","176","176","9","",""
"null","271841","pSARL_v2","pSARL_v2t5a3w9hh","5a7096746fc3c60001f9598e","infreq_resp","img/orange_2bandit_b.png","70","68","test","","","","9","",""
"null","272002","pSARL_v2","pSARL_v2t5a3w9hh","5a7096746fc3c60001f9598e","fixation","img/fixation.png","null","","test","","","","","",""
"217.70000000298023","272223","pSARL_v2","pSARL_v2t5a3w9hh","5a7096746fc3c60001f9598e","freq","img/green_2bandit_b2.png","70","70","test","1","177","177","9","",""
"null","272820","pSARL_v2","pSARL_v2t5a3w9hh","5a7096746fc3c60001f9598e","freq_resp","img/green_2bandit_b.png","70","70","test","","","","9","",""
"null","272986","pSARL_v2","pSARL_v2t5a3w9hh","5a7096746fc3c60001f9598e","fixation","img/fixation.png","null","","test","","","","","",""
"331.20000000298023","273319","pSARL_v2","pSARL_v2t5a3w9hh","5a7096746fc3c60001f9598e","freq","img/green_2bandit_b2.png","70","70","test","1","178","178","9","",""
"null","273802","pSARL_v2","pSARL_v2t5a3w9hh","5a7096746fc3c60001f9598e","freq_resp","img/green_2bandit_b.png","70","70","test","","","","9","",""
"null","273969","pSARL_v2","pSARL_v2t5a3w9hh","5a7096746fc3c60001f9598e","fixation","img/fixation.png","null","","test","","","","","",""
"435","274407","pSARL_v2","pSARL_v2t5a3w9hh","5a7096746fc3c60001f9598e","freq","img/green_2bandit_b2.png","70","70","test","1","179","179","9","",""
"null","274780","pSARL_v2","pSARL_v2t5a3w9hh","5a7096746fc3c60001f9598e","freq_resp","img/green_2bandit_b.png","70","70","test","","","","9","",""
"null","274937","pSARL_v2","pSARL_v2t5a3w9hh","5a7096746fc3c60001f9598e","fixation","img/fixation.png","null","","test","","","","","",""
"763.8999999910593","275703","pSARL_v2","pSARL_v2t5a3w9hh","5a7096746fc3c60001f9598e","freq","img/green_2bandit_b2.png","70","70","test","1","180","180","9","",""
"null","275753","pSARL_v2","pSARL_v2t5a3w9hh","5a7096746fc3c60001f9598e","freq_resp","img/green_2bandit_b.png","70","70","test","","","","9","",""
"null","275919","pSARL_v2","pSARL_v2t5a3w9hh","5a7096746fc3c60001f9598e","fixation","img/fixation.png","null","","test","","","","","",""
"397.3999999910593","276319","pSARL_v2","pSARL_v2t5a3w9hh","5a7096746fc3c60001f9598e","freq","img/green_2bandit_b2.png","70","70","test","1","181","181","9","",""
"null","276735","pSARL_v2","pSARL_v2t5a3w9hh","5a7096746fc3c60001f9598e","freq_resp","img/green_2bandit_b.png","70","70","test","","","","9","",""
"null","276887","pSARL_v2","pSARL_v2t5a3w9hh","5a7096746fc3c60001f9598e","fixation","img/fixation.png","null","","test","","","","","",""
"237","277127","pSARL_v2","pSARL_v2t5a3w9hh","5a7096746fc3c60001f9598e","freq","img/green_2bandit_b2.png","70","70","test","1","182","182","9","",""
"null","277705","pSARL_v2","pSARL_v2t5a3w9hh","5a7096746fc3c60001f9598e","freq_resp","img/green_2bandit_b.png","70","70","test","","","","9","",""
"null","277870","pSARL_v2","pSARL_v2t5a3w9hh","5a7096746fc3c60001f9598e","fixation","img/fixation.png","null","","test","","","","","",""
"255.70000000298023","278128","pSARL_v2","pSARL_v2t5a3w9hh","5a7096746fc3c60001f9598e","freq","img/green_2bandit_b2.png","70","70","test","1","183","183","9","",""
"null","278677","pSARL_v2","pSARL_v2t5a3w9hh","5a7096746fc3c60001f9598e","freq_resp","img/green_2bandit_b.png","70","70","test","","","","9","",""
"null","278837","pSARL_v2","pSARL_v2t5a3w9hh","5a7096746fc3c60001f9598e","fixation","img/fixation.png","null","","test","","","","","",""
"264.20000000298023","279104","pSARL_v2","pSARL_v2t5a3w9hh","5a7096746fc3c60001f9598e","freq","img/green_2bandit_b2.png","70","70","test","1","184","184","9","",""
"null","279664","pSARL_v2","pSARL_v2t5a3w9hh","5a7096746fc3c60001f9598e","freq_resp","img/green_2bandit_b.png","70","70","test","","","","9","",""
"null","279820","pSARL_v2","pSARL_v2t5a3w9hh","5a7096746fc3c60001f9598e","fixation","img/fixation.png","null","","test","","","","","",""
"241.29999999701977","280063","pSARL_v2","pSARL_v2t5a3w9hh","5a7096746fc3c60001f9598e","freq","img/green_2bandit_b2.png","70","70","test","1","185","185","9","",""
"null","280636","pSARL_v2","pSARL_v2t5a3w9hh","5a7096746fc3c60001f9598e","freq_resp","img/green_2bandit_b.png","70","70","test","","","","9","",""
"null","280803","pSARL_v2","pSARL_v2t5a3w9hh","5a7096746fc3c60001f9598e","fixation","img/fixation.png","null","","test","","","","","",""
"298.20000000298023","281104","pSARL_v2","pSARL_v2t5a3w9hh","5a7096746fc3c60001f9598e","freq","img/green_2bandit_b2.png","70","70","test","1","186","186","9","",""
"null","281618","pSARL_v2","pSARL_v2t5a3w9hh","5a7096746fc3c60001f9598e","freq_resp","img/green_2bandit_b.png","70","70","test","","","","9","",""
"null","281786","pSARL_v2","pSARL_v2t5a3w9hh","5a7096746fc3c60001f9598e","fixation","img/fixation.png","null","","test","","","","","",""
"218.59999999403954","282008","pSARL_v2","pSARL_v2t5a3w9hh","5a7096746fc3c60001f9598e","freq","img/green_2bandit_b2.png","70","70","test","1","187","187","9","",""
"null","282606","pSARL_v2","pSARL_v2t5a3w9hh","5a7096746fc3c60001f9598e","freq_resp","img/green_2bandit_b.png","70","70","test","","","","9","",""
"null","282771","pSARL_v2","pSARL_v2t5a3w9hh","5a7096746fc3c60001f9598e","fixation","img/fixation.png","null","","test","","","","","",""
"139.19999998807907","282912","pSARL_v2","pSARL_v2t5a3w9hh","5a7096746fc3c60001f9598e","freq","img/green_2bandit_b2.png","70","70","test","1","188","188","9","",""
"null","283579","pSARL_v2","pSARL_v2t5a3w9hh","5a7096746fc3c60001f9598e","freq_resp","img/green_2bandit_b.png","70","70","test","","","","9","",""
"null","283737","pSARL_v2","pSARL_v2t5a3w9hh","5a7096746fc3c60001f9598e","fixation","img/fixation.png","null","","test","","","","","",""
"229.29999999701977","283969","pSARL_v2","pSARL_v2t5a3w9hh","5a7096746fc3c60001f9598e","infreq","img/orange_2bandit_b2.png","70","68","test","0","189","189","9","",""
"null","284543","pSARL_v2","pSARL_v2t5a3w9hh","5a7096746fc3c60001f9598e","infreq_resp","img/orange_2bandit_b.png","70","68","test","","","","9","",""
"null","284702","pSARL_v2","pSARL_v2t5a3w9hh","5a7096746fc3c60001f9598e","fixation","img/fixation.png","null","","test","","","","","",""
"215.8999999910593","284921","pSARL_v2","pSARL_v2t5a3w9hh","5a7096746fc3c60001f9598e","freq","img/green_2bandit_b2.png","70","70","test","1","190","190","9","",""
"null","285516","pSARL_v2","pSARL_v2t5a3w9hh","5a7096746fc3c60001f9598e","freq_resp","img/green_2bandit_b.png","70","70","test","","","","9","",""
"null","285670","pSARL_v2","pSARL_v2t5a3w9hh","5a7096746fc3c60001f9598e","fixation","img/fixation.png","null","","test","","","","","",""
"303.70000000298023","285976","pSARL_v2","pSARL_v2t5a3w9hh","5a7096746fc3c60001f9598e","freq","img/green_2bandit_b2.png","70","70","test","1","191","191","9","",""
"null","286488","pSARL_v2","pSARL_v2t5a3w9hh","5a7096746fc3c60001f9598e","freq_resp","img/green_2bandit_b.png","70","70","test","","","","9","",""
"null","286653","pSARL_v2","pSARL_v2t5a3w9hh","5a7096746fc3c60001f9598e","fixation","img/fixation.png","null","","test","","","","","",""
"241.69999998807907","286897","pSARL_v2","pSARL_v2t5a3w9hh","5a7096746fc3c60001f9598e","freq","img/green_2bandit_b2.png","70","70","test","1","192","192","9","",""
"null","287468","pSARL_v2","pSARL_v2t5a3w9hh","5a7096746fc3c60001f9598e","freq_resp","img/green_2bandit_b.png","70","70","test","","","","9","",""
"null","287637","pSARL_v2","pSARL_v2t5a3w9hh","5a7096746fc3c60001f9598e","fixation","img/fixation.png","null","","test","","","","","",""
"225.5","287865","pSARL_v2","pSARL_v2t5a3w9hh","5a7096746fc3c60001f9598e","freq","img/green_2bandit_b2.png","70","70","test","1","193","193","9","",""
"null","288455","pSARL_v2","pSARL_v2t5a3w9hh","5a7096746fc3c60001f9598e","freq_resp","img/green_2bandit_b.png","70","70","test","","","","9","",""
"null","288619","pSARL_v2","pSARL_v2t5a3w9hh","5a7096746fc3c60001f9598e","fixation","img/fixation.png","null","","test","","","","","",""
"251.59999999403954","288873","pSARL_v2","pSARL_v2t5a3w9hh","5a7096746fc3c60001f9598e","freq","img/green_2bandit_b2.png","70","70","test","1","194","194","9","",""
"null","289427","pSARL_v2","pSARL_v2t5a3w9hh","5a7096746fc3c60001f9598e","freq_resp","img/green_2bandit_b.png","70","70","test","","","","9","",""
"null","289587","pSARL_v2","pSARL_v2t5a3w9hh","5a7096746fc3c60001f9598e","fixation","img/fixation.png","null","","test","","","","","",""
"275","289865","pSARL_v2","pSARL_v2t5a3w9hh","5a7096746fc3c60001f9598e","freq","img/green_2bandit_b2.png","70","70","test","1","195","195","9","",""
"null","290399","pSARL_v2","pSARL_v2t5a3w9hh","5a7096746fc3c60001f9598e","freq_resp","img/green_2bandit_b.png","70","70","test","","","","9","",""
"null","290553","pSARL_v2","pSARL_v2t5a3w9hh","5a7096746fc3c60001f9598e","fixation","img/fixation.png","null","","test","","","","","",""
"252.8999999910593","290809","pSARL_v2","pSARL_v2t5a3w9hh","5a7096746fc3c60001f9598e","freq","img/green_2bandit_b2.png","70","70","test","1","196","196","9","",""
"null","291366","pSARL_v2","pSARL_v2t5a3w9hh","5a7096746fc3c60001f9598e","freq_resp","img/green_2bandit_b.png","70","70","test","","","","9","",""
"null","291519","pSARL_v2","pSARL_v2t5a3w9hh","5a7096746fc3c60001f9598e","fixation","img/fixation.png","null","","test","","","","","",""
"271.6000000089407","291793","pSARL_v2","pSARL_v2t5a3w9hh","5a7096746fc3c60001f9598e","freq","img/green_2bandit_b2.png","70","70","test","1","197","197","9","",""
"null","292337","pSARL_v2","pSARL_v2t5a3w9hh","5a7096746fc3c60001f9598e","freq_resp","img/green_2bandit_b.png","70","70","test","","","","9","",""
"null","292504","pSARL_v2","pSARL_v2t5a3w9hh","5a7096746fc3c60001f9598e","fixation","img/fixation.png","null","","test","","","","","",""
"278.09999999403954","292785","pSARL_v2","pSARL_v2t5a3w9hh","5a7096746fc3c60001f9598e","freq","img/green_2bandit_b2.png","70","70","test","1","198","198","9","",""
"null","293324","pSARL_v2","pSARL_v2t5a3w9hh","5a7096746fc3c60001f9598e","freq_resp","img/green_2bandit_b.png","70","70","test","","","","9","",""
"null","293486","pSARL_v2","pSARL_v2t5a3w9hh","5a7096746fc3c60001f9598e","fixation","img/fixation.png","null","","test","","","","","",""
"232.79999999701977","293721","pSARL_v2","pSARL_v2t5a3w9hh","5a7096746fc3c60001f9598e","freq","img/green_2bandit_b2.png","70","70","test","1","199","199","9","",""
"null","294311","pSARL_v2","pSARL_v2t5a3w9hh","5a7096746fc3c60001f9598e","freq_resp","img/green_2bandit_b.png","70","70","test","","","","9","",""
"null","294469","pSARL_v2","pSARL_v2t5a3w9hh","5a7096746fc3c60001f9598e","fixation","img/fixation.png","null","","test","","","","","",""
"442.5","294914","pSARL_v2","pSARL_v2t5a3w9hh","5a7096746fc3c60001f9598e","reward","img/slot.png","74","","test","","","","","",""
"null","295677","pSARL_v2","pSARL_v2t5a3w9hh","5a7096746fc3c60001f9598e","points","<div class=""verylowPoints""> -3 </div>","null","na","test","","","","9","-3","8"
"474","296153","pSARL_v2","pSARL_v2t5a3w9hh","5a7096746fc3c60001f9598e","freq","img/green_2bandit_b2.png","70","70","test","1","200","200","10","",""
"null","296486","pSARL_v2","pSARL_v2t5a3w9hh","5a7096746fc3c60001f9598e","freq_resp","img/green_2bandit_b.png","70","70","test","","","","10","",""
"null","296650","pSARL_v2","pSARL_v2t5a3w9hh","5a7096746fc3c60001f9598e","fixation","img/fixation.png","null","","test","","","","","",""
"501.70000000298023","297154","pSARL_v2","pSARL_v2t5a3w9hh","5a7096746fc3c60001f9598e","infreq","img/orange_2bandit_b2.png","68","68","test","1","201","201","10","",""
"null","297470","pSARL_v2","pSARL_v2t5a3w9hh","5a7096746fc3c60001f9598e","infreq_resp","img/orange_2bandit_b.png","68","68","test","","","","10","",""
"null","297637","pSARL_v2","pSARL_v2t5a3w9hh","5a7096746fc3c60001f9598e","fixation","img/fixation.png","null","","test","","","","","",""
"402.70000000298023","298042","pSARL_v2","pSARL_v2t5a3w9hh","5a7096746fc3c60001f9598e","infreq","img/orange_2bandit_b2.png","68","68","test","1","202","202","10","",""
"null","298453","pSARL_v2","pSARL_v2t5a3w9hh","5a7096746fc3c60001f9598e","infreq_resp","img/orange_2bandit_b.png","68","68","test","","","","10","",""
"null","298625","pSARL_v2","pSARL_v2t5a3w9hh","5a7096746fc3c60001f9598e","fixation","img/fixation.png","null","","test","","","","","",""
"501.8999999910593","299130","pSARL_v2","pSARL_v2t5a3w9hh","5a7096746fc3c60001f9598e","freq","img/green_2bandit_b2.png","70","70","test","1","203","203","10","",""
"null","299436","pSARL_v2","pSARL_v2t5a3w9hh","5a7096746fc3c60001f9598e","freq_resp","img/green_2bandit_b.png","70","70","test","","","","10","",""
"null","299606","pSARL_v2","pSARL_v2t5a3w9hh","5a7096746fc3c60001f9598e","fixation","img/fixation.png","null","","test","","","","","",""
"314.29999999701977","299922","pSARL_v2","pSARL_v2t5a3w9hh","5a7096746fc3c60001f9598e","freq","img/green_2bandit_b2.png","70","70","test","1","204","204","10","",""
"null","300421","pSARL_v2","pSARL_v2t5a3w9hh","5a7096746fc3c60001f9598e","freq_resp","img/green_2bandit_b.png","70","70","test","","","","10","",""
"null","300579","pSARL_v2","pSARL_v2t5a3w9hh","5a7096746fc3c60001f9598e","fixation","img/fixation.png","null","","test","","","","","",""
"332.90000000596046","300915","pSARL_v2","pSARL_v2t5a3w9hh","5a7096746fc3c60001f9598e","freq","img/green_2bandit_b2.png","70","70","test","1","205","205","10","",""
"null","301387","pSARL_v2","pSARL_v2t5a3w9hh","5a7096746fc3c60001f9598e","freq_resp","img/green_2bandit_b.png","70","70","test","","","","10","",""
"null","301551","pSARL_v2","pSARL_v2t5a3w9hh","5a7096746fc3c60001f9598e","fixation","img/fixation.png","null","","test","","","","","",""
