"rt","time_elapsed","expId","subject","prolificID","trialType","stimulus","key_press","corrresp","phase","corr","trialNum","attentionRunNum","blockNum","points","rlNum"
"1178","1199","pSARL_v2","pSARL_v2ynvbfqun","6400f74904684aced4782997","","","","","","","","","","",""
"","3239","pSARL_v2","pSARL_v2ynvbfqun","6400f74904684aced4782997","fullscreen","","","","","","","","","",""
"11548","14793","pSARL_v2","pSARL_v2ynvbfqun","6400f74904684aced4782997","","","","","","","","","","",""
"null","15617","pSARL_v2","pSARL_v2ynvbfqun","6400f74904684aced4782997","freqPrac","img/green_2bandit_a2.png","null","70","prac","0","","","","",""
"null","16716","pSARL_v2","pSARL_v2ynvbfqun","6400f74904684aced4782997","feedback","img/tooSlow.png","null","na","prac","","","","","",""
"null","16870","pSARL_v2","pSARL_v2ynvbfqun","6400f74904684aced4782997","fixation","img/fixation.png","null","","prac","","","","","",""
"396","17271","pSARL_v2","pSARL_v2ynvbfqun","6400f74904684aced4782997","infreqPrac","img/orange_2bandit_a2.png","70","68","prac","0","","","","",""
"396","17691","pSARL_v2","pSARL_v2ynvbfqun","6400f74904684aced4782997","infreqPrac_resp","img/orange_2bandit_a.png","70","68","prac","","","","","",""
"null","18728","pSARL_v2","pSARL_v2ynvbfqun","6400f74904684aced4782997","feedback","img/wrongKey.png","null","na","prac","","","","","",""
"null","18883","pSARL_v2","pSARL_v2ynvbfqun","6400f74904684aced4782997","fixation","img/fixation.png","null","","prac","","","","","",""
"430","19320","pSARL_v2","pSARL_v2ynvbfqun","6400f74904684aced4782997","freqPrac","img/green_2bandit_a2.png","68","70","prac","0","","","","",""
"430","19699","pSARL_v2","pSARL_v2ynvbfqun","6400f74904684aced4782997","freqPrac_resp","img/green_2bandit_a.png","68","70","prac","","","","","",""
"null","20757","pSARL_v2","pSARL_v2ynvbfqun","6400f74904684aced4782997","feedback","img/wrongKey.png","null","na","prac","","","","","",""
"62","20931","pSARL_v2","pSARL_v2ynvbfqun","6400f74904684aced4782997","fixation","img/fixation.png","68","","prac","","","","","",""
"437","21378","pSARL_v2","pSARL_v2ynvbfqun","6400f74904684aced4782997","infreqPrac","img/orange_2bandit_a2.png","70","68","prac","0","","","","",""
"437","21760","pSARL_v2","pSARL_v2ynvbfqun","6400f74904684aced4782997","infreqPrac_resp","img/orange_2bandit_a.png","70","68","prac","","","","","",""
"null","22784","pSARL_v2","pSARL_v2ynvbfqun","6400f74904684aced4782997","feedback","img/wrongKey.png","null","na","prac","","","","","",""
"null","22945","pSARL_v2","pSARL_v2ynvbfqun","6400f74904684aced4782997","fixation","img/fixation.png","null","","prac","","","","","",""
"146","23103","pSARL_v2","pSARL_v2ynvbfqun","6400f74904684aced4782997","infreqPrac","img/orange_2bandit_a2.png","68","68","prac","1","","","","",""
"146","23771","pSARL_v2","pSARL_v2ynvbfqun","6400f74904684aced4782997","infreqPrac_resp","img/orange_2bandit_a.png","68","68","prac","","","","","",""
"null","23947","pSARL_v2","pSARL_v2ynvbfqun","6400f74904684aced4782997","fixation","img/fixation.png","null","","prac","","","","","",""
"535","24493","pSARL_v2","pSARL_v2ynvbfqun","6400f74904684aced4782997","infreqPrac","img/orange_2bandit_a2.png","68","68","prac","1","","","","",""
"535","24775","pSARL_v2","pSARL_v2ynvbfqun","6400f74904684aced4782997","infreqPrac_resp","img/orange_2bandit_a.png","68","68","prac","","","","","",""
"null","24937","pSARL_v2","pSARL_v2ynvbfqun","6400f74904684aced4782997","fixation","img/fixation.png","null","","prac","","","","","",""
"761","25702","pSARL_v2","pSARL_v2ynvbfqun","6400f74904684aced4782997","freqPrac","img/green_2bandit_a2.png","68","70","prac","0","","","","",""
"761","25750","pSARL_v2","pSARL_v2ynvbfqun","6400f74904684aced4782997","freqPrac_resp","img/green_2bandit_a.png","68","70","prac","","","","","",""
"null","26759","pSARL_v2","pSARL_v2ynvbfqun","6400f74904684aced4782997","feedback","img/wrongKey.png","null","na","prac","","","","","",""
"null","26916","pSARL_v2","pSARL_v2ynvbfqun","6400f74904684aced4782997","fixation","img/fixation.png","null","","prac","","","","","",""
"100","27022","pSARL_v2","pSARL_v2ynvbfqun","6400f74904684aced4782997","infreqPrac","img/orange_2bandit_a2.png","70","68","prac","0","","","","",""
"100","27739","pSARL_v2","pSARL_v2ynvbfqun","6400f74904684aced4782997","infreqPrac_resp","img/orange_2bandit_a.png","70","68","prac","","","","","",""
"null","28763","pSARL_v2","pSARL_v2ynvbfqun","6400f74904684aced4782997","feedback","img/wrongKey.png","null","na","prac","","","","","",""
"null","28933","pSARL_v2","pSARL_v2ynvbfqun","6400f74904684aced4782997","fixation","img/fixation.png","null","","prac","","","","","",""
"156","29097","pSARL_v2","pSARL_v2ynvbfqun","6400f74904684aced4782997","freqPrac","img/green_2bandit_a2.png","68","70","prac","0","","","","",""
"156","29762","pSARL_v2","pSARL_v2ynvbfqun","6400f74904684aced4782997","freqPrac_resp","img/green_2bandit_a.png","68","70","prac","","","","","",""
"null","30787","pSARL_v2","pSARL_v2ynvbfqun","6400f74904684aced4782997","feedback","img/wrongKey.png","null","na","prac","","","","","",""
"null","30969","pSARL_v2","pSARL_v2ynvbfqun","6400f74904684aced4782997","fixation","img/fixation.png","null","","prac","","","","","",""
"331","31311","pSARL_v2","pSARL_v2ynvbfqun","6400f74904684aced4782997","freqPrac","img/green_2bandit_a2.png","70","70","prac","1","","","","",""
"331","31791","pSARL_v2","pSARL_v2ynvbfqun","6400f74904684aced4782997","freqPrac_resp","img/green_2bandit_a.png","70","70","prac","","","","","",""
"null","31964","pSARL_v2","pSARL_v2ynvbfqun","6400f74904684aced4782997","fixation","img/fixation.png","null","","prac","","","","","",""
"16438","48406","pSARL_v2","pSARL_v2ynvbfqun","6400f74904684aced4782997","","","","","prac","","","","","",""
"2220","50632","pSARL_v2","pSARL_v2ynvbfqun","6400f74904684aced4782997","rewardPractice","img/slot.png","74","","prac","","","","","",""
"null","51406","pSARL_v2","pSARL_v2ynvbfqun","6400f74904684aced4782997","feedback","<div class=""veryhighPoints""> +15 </div>","null","na","prac","","","","","",""
"null","51580","pSARL_v2","pSARL_v2ynvbfqun","6400f74904684aced4782997","fixation","img/fixation.png","null","","prac","","","","","",""
"13788","65374","pSARL_v2","pSARL_v2ynvbfqun","6400f74904684aced4782997","","","","","prac","","","","","",""
"748","66133","pSARL_v2","pSARL_v2ynvbfqun","6400f74904684aced4782997","freq","img/green_2bandit_a2.png","68","70","test","0","1","1","1","",""
"null","66205","pSARL_v2","pSARL_v2ynvbfqun","6400f74904684aced4782997","freq_resp","img/green_2bandit_a.png","68","70","test","","","","1","",""
"null","66366","pSARL_v2","pSARL_v2ynvbfqun","6400f74904684aced4782997","fixation","img/fixation.png","null","","test","","","","","",""
"508","66885","pSARL_v2","pSARL_v2ynvbfqun","6400f74904684aced4782997","freq","img/green_2bandit_a2.png","68","70","test","0","2","2","1","",""
"null","67195","pSARL_v2","pSARL_v2ynvbfqun","6400f74904684aced4782997","freq_resp","img/green_2bandit_a.png","68","70","test","","","","1","",""
"null","67356","pSARL_v2","pSARL_v2ynvbfqun","6400f74904684aced4782997","fixation","img/fixation.png","null","","test","","","","","",""
"343","67707","pSARL_v2","pSARL_v2ynvbfqun","6400f74904684aced4782997","freq","img/green_2bandit_a2.png","68","70","test","0","3","3","1","",""
"null","68173","pSARL_v2","pSARL_v2ynvbfqun","6400f74904684aced4782997","freq_resp","img/green_2bandit_a.png","68","70","test","","","","1","",""
"null","68333","pSARL_v2","pSARL_v2ynvbfqun","6400f74904684aced4782997","fixation","img/fixation.png","null","","test","","","","","",""
"229","68570","pSARL_v2","pSARL_v2ynvbfqun","6400f74904684aced4782997","infreq","img/orange_2bandit_a2.png","68","68","test","1","4","4","1","",""
"null","69162","pSARL_v2","pSARL_v2ynvbfqun","6400f74904684aced4782997","infreq_resp","img/orange_2bandit_a.png","68","68","test","","","","1","",""
"null","69322","pSARL_v2","pSARL_v2ynvbfqun","6400f74904684aced4782997","fixation","img/fixation.png","null","","test","","","","","",""
"455","69784","pSARL_v2","pSARL_v2ynvbfqun","6400f74904684aced4782997","freq","img/green_2bandit_a2.png","68","70","test","0","5","5","1","",""
"null","70144","pSARL_v2","pSARL_v2ynvbfqun","6400f74904684aced4782997","freq_resp","img/green_2bandit_a.png","68","70","test","","","","1","",""
"null","70305","pSARL_v2","pSARL_v2ynvbfqun","6400f74904684aced4782997","fixation","img/fixation.png","null","","test","","","","","",""
"391","70701","pSARL_v2","pSARL_v2ynvbfqun","6400f74904684aced4782997","infreq","img/orange_2bandit_a2.png","70","68","test","0","6","6","1","",""
"null","71133","pSARL_v2","pSARL_v2ynvbfqun","6400f74904684aced4782997","infreq_resp","img/orange_2bandit_a.png","70","68","test","","","","1","",""
"null","71308","pSARL_v2","pSARL_v2ynvbfqun","6400f74904684aced4782997","fixation","img/fixation.png","null","","test","","","","","",""
"567","71884","pSARL_v2","pSARL_v2ynvbfqun","6400f74904684aced4782997","freq","img/green_2bandit_a2.png","68","70","test","0","7","7","1","",""
"null","72134","pSARL_v2","pSARL_v2ynvbfqun","6400f74904684aced4782997","freq_resp","img/green_2bandit_a.png","68","70","test","","","","1","",""
"null","72291","pSARL_v2","pSARL_v2ynvbfqun","6400f74904684aced4782997","fixation","img/fixation.png","null","","test","","","","","",""
"321","72626","pSARL_v2","pSARL_v2ynvbfqun","6400f74904684aced4782997","freq","img/green_2bandit_a2.png","68","70","test","0","8","8","1","",""
"null","73147","pSARL_v2","pSARL_v2ynvbfqun","6400f74904684aced4782997","freq_resp","img/green_2bandit_a.png","68","70","test","","","","1","",""
"null","73317","pSARL_v2","pSARL_v2ynvbfqun","6400f74904684aced4782997","fixation","img/fixation.png","null","","test","","","","","",""
"245","73573","pSARL_v2","pSARL_v2ynvbfqun","6400f74904684aced4782997","freq","img/green_2bandit_a2.png","68","70","test","0","9","9","1","",""
"null","74150","pSARL_v2","pSARL_v2ynvbfqun","6400f74904684aced4782997","freq_resp","img/green_2bandit_a.png","68","70","test","","","","1","",""
"null","74315","pSARL_v2","pSARL_v2ynvbfqun","6400f74904684aced4782997","fixation","img/fixation.png","null","","test","","","","","",""
"310","74636","pSARL_v2","pSARL_v2ynvbfqun","6400f74904684aced4782997","freq","img/green_2bandit_a2.png","68","70","test","0","10","10","1","",""
"null","75170","pSARL_v2","pSARL_v2ynvbfqun","6400f74904684aced4782997","freq_resp","img/green_2bandit_a.png","68","70","test","","","","1","",""
"null","75343","pSARL_v2","pSARL_v2ynvbfqun","6400f74904684aced4782997","fixation","img/fixation.png","null","","test","","","","","",""
"298","75652","pSARL_v2","pSARL_v2ynvbfqun","6400f74904684aced4782997","freq","img/green_2bandit_a2.png","68","70","test","0","11","11","1","",""
"null","76169","pSARL_v2","pSARL_v2ynvbfqun","6400f74904684aced4782997","freq_resp","img/green_2bandit_a.png","68","70","test","","","","1","",""
"null","76341","pSARL_v2","pSARL_v2ynvbfqun","6400f74904684aced4782997","fixation","img/fixation.png","null","","test","","","","","",""
"245","76597","pSARL_v2","pSARL_v2ynvbfqun","6400f74904684aced4782997","freq","img/green_2bandit_a2.png","68","70","test","0","12","12","1","",""
"null","77198","pSARL_v2","pSARL_v2ynvbfqun","6400f74904684aced4782997","freq_resp","img/green_2bandit_a.png","68","70","test","","","","1","",""
"null","77363","pSARL_v2","pSARL_v2ynvbfqun","6400f74904684aced4782997","fixation","img/fixation.png","null","","test","","","","","",""
"240","77610","pSARL_v2","pSARL_v2ynvbfqun","6400f74904684aced4782997","freq","img/green_2bandit_a2.png","68","70","test","0","13","13","1","",""
"null","78178","pSARL_v2","pSARL_v2ynvbfqun","6400f74904684aced4782997","freq_resp","img/green_2bandit_a.png","68","70","test","","","","1","",""
"null","78338","pSARL_v2","pSARL_v2ynvbfqun","6400f74904684aced4782997","fixation","img/fixation.png","null","","test","","","","","",""
"120","78464","pSARL_v2","pSARL_v2ynvbfqun","6400f74904684aced4782997","freq","img/green_2bandit_a2.png","68","70","test","0","14","14","1","",""
"null","79230","pSARL_v2","pSARL_v2ynvbfqun","6400f74904684aced4782997","freq_resp","img/green_2bandit_a.png","68","70","test","","","","1","",""
"null","79405","pSARL_v2","pSARL_v2ynvbfqun","6400f74904684aced4782997","fixation","img/fixation.png","null","","test","","","","","",""
"116","79525","pSARL_v2","pSARL_v2ynvbfqun","6400f74904684aced4782997","freq","img/green_2bandit_a2.png","68","70","test","0","15","15","1","",""
"null","80236","pSARL_v2","pSARL_v2ynvbfqun","6400f74904684aced4782997","freq_resp","img/green_2bandit_a.png","68","70","test","","","","1","",""
"null","80408","pSARL_v2","pSARL_v2ynvbfqun","6400f74904684aced4782997","fixation","img/fixation.png","null","","test","","","","","",""
"114","80533","pSARL_v2","pSARL_v2ynvbfqun","6400f74904684aced4782997","freq","img/green_2bandit_a2.png","68","70","test","0","16","16","1","",""
"null","81247","pSARL_v2","pSARL_v2ynvbfqun","6400f74904684aced4782997","freq_resp","img/green_2bandit_a.png","68","70","test","","","","1","",""
"null","81405","pSARL_v2","pSARL_v2ynvbfqun","6400f74904684aced4782997","fixation","img/fixation.png","null","","test","","","","","",""
"125","81541","pSARL_v2","pSARL_v2ynvbfqun","6400f74904684aced4782997","freq","img/green_2bandit_a2.png","68","70","test","0","17","17","1","",""
"null","82225","pSARL_v2","pSARL_v2ynvbfqun","6400f74904684aced4782997","freq_resp","img/green_2bandit_a.png","68","70","test","","","","1","",""
"null","82387","pSARL_v2","pSARL_v2ynvbfqun","6400f74904684aced4782997","fixation","img/fixation.png","null","","test","","","","","",""
"192","82589","pSARL_v2","pSARL_v2ynvbfqun","6400f74904684aced4782997","freq","img/green_2bandit_a2.png","68","70","test","0","18","18","1","",""
"null","83277","pSARL_v2","pSARL_v2ynvbfqun","6400f74904684aced4782997","freq_resp","img/green_2bandit_a.png","68","70","test","","","","1","",""
"null","83431","pSARL_v2","pSARL_v2ynvbfqun","6400f74904684aced4782997","fixation","img/fixation.png","null","","test","","","","","",""
"92","83530","pSARL_v2","pSARL_v2ynvbfqun","6400f74904684aced4782997","freq","img/green_2bandit_a2.png","68","70","test","0","19","19","1","",""
"null","84259","pSARL_v2","pSARL_v2ynvbfqun","6400f74904684aced4782997","freq_resp","img/green_2bandit_a.png","68","70","test","","","","1","",""
"null","84416","pSARL_v2","pSARL_v2ynvbfqun","6400f74904684aced4782997","fixation","img/fixation.png","null","","test","","","","","",""
"251","84676","pSARL_v2","pSARL_v2ynvbfqun","6400f74904684aced4782997","freq","img/green_2bandit_a2.png","68","70","test","0","20","20","1","",""
"null","85299","pSARL_v2","pSARL_v2ynvbfqun","6400f74904684aced4782997","freq_resp","img/green_2bandit_a.png","68","70","test","","","","1","",""
"null","85455","pSARL_v2","pSARL_v2ynvbfqun","6400f74904684aced4782997","fixation","img/fixation.png","null","","test","","","","","",""
"1068","86533","pSARL_v2","pSARL_v2ynvbfqun","6400f74904684aced4782997","reward","img/slot.png","74","","test","","","","","",""
"null","87330","pSARL_v2","pSARL_v2ynvbfqun","6400f74904684aced4782997","points","<div class=""verylowPoints""> -6 </div>","null","na","test","","","","1","-6","0"
"457","87794","pSARL_v2","pSARL_v2ynvbfqun","6400f74904684aced4782997","freq","img/green_2bandit_a2.png","68","70","test","0","21","21","2","",""
"null","88157","pSARL_v2","pSARL_v2ynvbfqun","6400f74904684aced4782997","freq_resp","img/green_2bandit_a.png","68","70","test","","","","2","",""
"null","88313","pSARL_v2","pSARL_v2ynvbfqun","6400f74904684aced4782997","fixation","img/fixation.png","null","","test","","","","","",""
"335","88656","pSARL_v2","pSARL_v2ynvbfqun","6400f74904684aced4782997","freq","img/green_2bandit_a2.png","68","70","test","0","22","22","2","",""
"null","89142","pSARL_v2","pSARL_v2ynvbfqun","6400f74904684aced4782997","freq_resp","img/green_2bandit_a.png","68","70","test","","","","2","",""
"null","89308","pSARL_v2","pSARL_v2ynvbfqun","6400f74904684aced4782997","fixation","img/fixation.png","null","","test","","","","","",""
"190","89505","pSARL_v2","pSARL_v2ynvbfqun","6400f74904684aced4782997","freq","img/green_2bandit_a2.png","68","70","test","0","23","23","2","",""
"null","90124","pSARL_v2","pSARL_v2ynvbfqun","6400f74904684aced4782997","freq_resp","img/green_2bandit_a.png","68","70","test","","","","2","",""
"null","90285","pSARL_v2","pSARL_v2ynvbfqun","6400f74904684aced4782997","fixation","img/fixation.png","null","","test","","","","","",""
"126","90422","pSARL_v2","pSARL_v2ynvbfqun","6400f74904684aced4782997","freq","img/green_2bandit_a2.png","68","70","test","0","24","24","2","",""
"null","91114","pSARL_v2","pSARL_v2ynvbfqun","6400f74904684aced4782997","freq_resp","img/green_2bandit_a.png","68","70","test","","","","2","",""
"null","91285","pSARL_v2","pSARL_v2ynvbfqun","6400f74904684aced4782997","fixation","img/fixation.png","null","","test","","","","","",""
"21","91316","pSARL_v2","pSARL_v2ynvbfqun","6400f74904684aced4782997","freq","img/green_2bandit_a2.png","68","70","test","0","25","25","2","",""
"null","92112","pSARL_v2","pSARL_v2ynvbfqun","6400f74904684aced4782997","freq_resp","img/green_2bandit_a.png","68","70","test","","","","2","",""
"null","92286","pSARL_v2","pSARL_v2ynvbfqun","6400f74904684aced4782997","fixation","img/fixation.png","null","","test","","","","","",""
"null","93106","pSARL_v2","pSARL_v2ynvbfqun","6400f74904684aced4782997","freq","img/green_2bandit_a2.png","null","70","test","0","26","26","2","",""
"null","93275","pSARL_v2","pSARL_v2ynvbfqun","6400f74904684aced4782997","fixation","img/fixation.png","null","","test","","","","","",""
"423","93702","pSARL_v2","pSARL_v2ynvbfqun","6400f74904684aced4782997","freq","img/green_2bandit_a2.png","68","70","test","0","27","27","2","",""
"null","94133","pSARL_v2","pSARL_v2ynvbfqun","6400f74904684aced4782997","freq_resp","img/green_2bandit_a.png","68","70","test","","","","2","",""
"null","94301","pSARL_v2","pSARL_v2ynvbfqun","6400f74904684aced4782997","fixation","img/fixation.png","null","","test","","","","","",""
"140","94445","pSARL_v2","pSARL_v2ynvbfqun","6400f74904684aced4782997","freq","img/green_2bandit_a2.png","68","70","test","0","28","28","2","",""
"null","95124","pSARL_v2","pSARL_v2ynvbfqun","6400f74904684aced4782997","freq_resp","img/green_2bandit_a.png","68","70","test","","","","2","",""
"null","95284","pSARL_v2","pSARL_v2ynvbfqun","6400f74904684aced4782997","fixation","img/fixation.png","null","","test","","","","","",""
"103","95398","pSARL_v2","pSARL_v2ynvbfqun","6400f74904684aced4782997","freq","img/green_2bandit_a2.png","68","70","test","0","29","29","2","",""
"null","96144","pSARL_v2","pSARL_v2ynvbfqun","6400f74904684aced4782997","freq_resp","img/green_2bandit_a.png","68","70","test","","","","2","",""
"null","96305","pSARL_v2","pSARL_v2ynvbfqun","6400f74904684aced4782997","fixation","img/fixation.png","null","","test","","","","","",""
"64","96375","pSARL_v2","pSARL_v2ynvbfqun","6400f74904684aced4782997","freq","img/green_2bandit_a2.png","68","70","test","0","30","30","2","",""
"null","97118","pSARL_v2","pSARL_v2ynvbfqun","6400f74904684aced4782997","freq_resp","img/green_2bandit_a.png","68","70","test","","","","2","",""
"null","97273","pSARL_v2","pSARL_v2ynvbfqun","6400f74904684aced4782997","fixation","img/fixation.png","null","","test","","","","","",""
"49","97332","pSARL_v2","pSARL_v2ynvbfqun","6400f74904684aced4782997","infreq","img/orange_2bandit_a2.png","68","68","test","1","31","31","2","",""
"null","98171","pSARL_v2","pSARL_v2ynvbfqun","6400f74904684aced4782997","infreq_resp","img/orange_2bandit_a.png","68","68","test","","","","2","",""
"null","98327","pSARL_v2","pSARL_v2ynvbfqun","6400f74904684aced4782997","fixation","img/fixation.png","null","","test","","","","","",""
"364","98698","pSARL_v2","pSARL_v2ynvbfqun","6400f74904684aced4782997","freq","img/green_2bandit_a2.png","68","70","test","0","32","32","2","",""
"null","99149","pSARL_v2","pSARL_v2ynvbfqun","6400f74904684aced4782997","freq_resp","img/green_2bandit_a.png","68","70","test","","","","2","",""
"null","99320","pSARL_v2","pSARL_v2ynvbfqun","6400f74904684aced4782997","fixation","img/fixation.png","null","","test","","","","","",""
"258","99592","pSARL_v2","pSARL_v2ynvbfqun","6400f74904684aced4782997","freq","img/green_2bandit_a2.png","68","70","test","0","33","33","2","",""
"null","100200","pSARL_v2","pSARL_v2ynvbfqun","6400f74904684aced4782997","freq_resp","img/green_2bandit_a.png","68","70","test","","","","2","",""
"null","100372","pSARL_v2","pSARL_v2ynvbfqun","6400f74904684aced4782997","fixation","img/fixation.png","null","","test","","","","","",""
"71","100454","pSARL_v2","pSARL_v2ynvbfqun","6400f74904684aced4782997","freq","img/green_2bandit_a2.png","68","70","test","0","34","34","2","",""
"null","101196","pSARL_v2","pSARL_v2ynvbfqun","6400f74904684aced4782997","freq_resp","img/green_2bandit_a.png","68","70","test","","","","2","",""
"null","101365","pSARL_v2","pSARL_v2ynvbfqun","6400f74904684aced4782997","fixation","img/fixation.png","null","","test","","","","","",""
"421","101796","pSARL_v2","pSARL_v2ynvbfqun","6400f74904684aced4782997","freq","img/green_2bandit_a2.png","68","70","test","0","35","35","2","",""
"null","102231","pSARL_v2","pSARL_v2ynvbfqun","6400f74904684aced4782997","freq_resp","img/green_2bandit_a.png","68","70","test","","","","2","",""
"null","102399","pSARL_v2","pSARL_v2ynvbfqun","6400f74904684aced4782997","fixation","img/fixation.png","null","","test","","","","","",""
"235","102643","pSARL_v2","pSARL_v2ynvbfqun","6400f74904684aced4782997","freq","img/green_2bandit_a2.png","68","70","test","0","36","36","2","",""
"null","103217","pSARL_v2","pSARL_v2ynvbfqun","6400f74904684aced4782997","freq_resp","img/green_2bandit_a.png","68","70","test","","","","2","",""
"null","103377","pSARL_v2","pSARL_v2ynvbfqun","6400f74904684aced4782997","fixation","img/fixation.png","null","","test","","","","","",""
"112","103502","pSARL_v2","pSARL_v2ynvbfqun","6400f74904684aced4782997","freq","img/green_2bandit_a2.png","68","70","test","0","37","37","2","",""
"null","104249","pSARL_v2","pSARL_v2ynvbfqun","6400f74904684aced4782997","freq_resp","img/green_2bandit_a.png","68","70","test","","","","2","",""
"null","104410","pSARL_v2","pSARL_v2ynvbfqun","6400f74904684aced4782997","fixation","img/fixation.png","null","","test","","","","","",""
"72","104491","pSARL_v2","pSARL_v2ynvbfqun","6400f74904684aced4782997","freq","img/green_2bandit_a2.png","68","70","test","0","38","38","2","",""
"null","105243","pSARL_v2","pSARL_v2ynvbfqun","6400f74904684aced4782997","freq_resp","img/green_2bandit_a.png","68","70","test","","","","2","",""
"null","105413","pSARL_v2","pSARL_v2ynvbfqun","6400f74904684aced4782997","fixation","img/fixation.png","null","","test","","","","","",""
"37","105460","pSARL_v2","pSARL_v2ynvbfqun","6400f74904684aced4782997","freq","img/green_2bandit_a2.png","68","70","test","0","39","39","2","",""
"null","106268","pSARL_v2","pSARL_v2ynvbfqun","6400f74904684aced4782997","freq_resp","img/green_2bandit_a.png","68","70","test","","","","2","",""
"null","106429","pSARL_v2","pSARL_v2ynvbfqun","6400f74904684aced4782997","fixation","img/fixation.png","null","","test","","","","","",""
"60","106495","pSARL_v2","pSARL_v2ynvbfqun","6400f74904684aced4782997","freq","img/green_2bandit_a2.png","68","70","test","0","40","40","2","",""
"null","107251","pSARL_v2","pSARL_v2ynvbfqun","6400f74904684aced4782997","freq_resp","img/green_2bandit_a.png","68","70","test","","","","2","",""
"null","107415","pSARL_v2","pSARL_v2ynvbfqun","6400f74904684aced4782997","fixation","img/fixation.png","null","","test","","","","","",""
"67","107485","pSARL_v2","pSARL_v2ynvbfqun","6400f74904684aced4782997","infreq","img/orange_2bandit_a2.png","68","68","test","1","41","41","2","",""
"null","108286","pSARL_v2","pSARL_v2ynvbfqun","6400f74904684aced4782997","infreq_resp","img/orange_2bandit_a.png","68","68","test","","","","2","",""
"null","108440","pSARL_v2","pSARL_v2ynvbfqun","6400f74904684aced4782997","fixation","img/fixation.png","null","","test","","","","","",""
"322","108772","pSARL_v2","pSARL_v2ynvbfqun","6400f74904684aced4782997","freq","img/green_2bandit_a2.png","68","70","test","0","42","42","2","",""
"null","109264","pSARL_v2","pSARL_v2ynvbfqun","6400f74904684aced4782997","freq_resp","img/green_2bandit_a.png","68","70","test","","","","2","",""
"null","109437","pSARL_v2","pSARL_v2ynvbfqun","6400f74904684aced4782997","fixation","img/fixation.png","null","","test","","","","","",""
"1261","110705","pSARL_v2","pSARL_v2ynvbfqun","6400f74904684aced4782997","reward","img/slot.png","74","","test","","","","","",""
"null","111470","pSARL_v2","pSARL_v2ynvbfqun","6400f74904684aced4782997","points","<div class=""verylowPoints""> -11 </div>","null","na","test","","","","2","-11","1"
"580","112059","pSARL_v2","pSARL_v2ynvbfqun","6400f74904684aced4782997","freq","img/green_2bandit_a2.png","68","70","test","0","43","43","3","",""
"null","112287","pSARL_v2","pSARL_v2ynvbfqun","6400f74904684aced4782997","freq_resp","img/green_2bandit_a.png","68","70","test","","","","3","",""
"null","112444","pSARL_v2","pSARL_v2ynvbfqun","6400f74904684aced4782997","fixation","img/fixation.png","null","","test","","","","","",""
"431","112886","pSARL_v2","pSARL_v2ynvbfqun","6400f74904684aced4782997","freq","img/green_2bandit_a2.png","68","70","test","0","44","44","3","",""
"null","113276","pSARL_v2","pSARL_v2ynvbfqun","6400f74904684aced4782997","freq_resp","img/green_2bandit_a.png","68","70","test","","","","3","",""
"null","113436","pSARL_v2","pSARL_v2ynvbfqun","6400f74904684aced4782997","fixation","img/fixation.png","null","","test","","","","","",""
"251","113693","pSARL_v2","pSARL_v2ynvbfqun","6400f74904684aced4782997","freq","img/green_2bandit_a2.png","68","70","test","0","45","45","3","",""
"null","114250","pSARL_v2","pSARL_v2ynvbfqun","6400f74904684aced4782997","freq_resp","img/green_2bandit_a.png","68","70","test","","","","3","",""
"null","114410","pSARL_v2","pSARL_v2ynvbfqun","6400f74904684aced4782997","fixation","img/fixation.png","null","","test","","","","","",""
"264","114682","pSARL_v2","pSARL_v2ynvbfqun","6400f74904684aced4782997","freq","img/green_2bandit_a2.png","70","70","test","1","46","46","3","",""
"null","115227","pSARL_v2","pSARL_v2ynvbfqun","6400f74904684aced4782997","freq_resp","img/green_2bandit_a.png","70","70","test","","","","3","",""
"null","115401","pSARL_v2","pSARL_v2ynvbfqun","6400f74904684aced4782997","fixation","img/fixation.png","null","","test","","","","","",""
"25","115437","pSARL_v2","pSARL_v2ynvbfqun","6400f74904684aced4782997","freq","img/green_2bandit_a2.png","68","70","test","0","47","47","3","",""
"null","116233","pSARL_v2","pSARL_v2ynvbfqun","6400f74904684aced4782997","freq_resp","img/green_2bandit_a.png","68","70","test","","","","3","",""
"null","116402","pSARL_v2","pSARL_v2ynvbfqun","6400f74904684aced4782997","fixation","img/fixation.png","null","","test","","","","","",""
"129","116538","pSARL_v2","pSARL_v2ynvbfqun","6400f74904684aced4782997","freq","img/green_2bandit_a2.png","68","70","test","0","48","48","3","",""
"null","117231","pSARL_v2","pSARL_v2ynvbfqun","6400f74904684aced4782997","freq_resp","img/green_2bandit_a.png","68","70","test","","","","3","",""
"null","117395","pSARL_v2","pSARL_v2ynvbfqun","6400f74904684aced4782997","fixation","img/fixation.png","null","","test","","","","","",""
"189","117591","pSARL_v2","pSARL_v2ynvbfqun","6400f74904684aced4782997","infreq","img/orange_2bandit_a2.png","68","68","test","1","49","49","3","",""
"null","118209","pSARL_v2","pSARL_v2ynvbfqun","6400f74904684aced4782997","infreq_resp","img/orange_2bandit_a.png","68","68","test","","","","3","",""
"null","118385","pSARL_v2","pSARL_v2ynvbfqun","6400f74904684aced4782997","fixation","img/fixation.png","null","","test","","","","","",""
"258","118649","pSARL_v2","pSARL_v2ynvbfqun","6400f74904684aced4782997","freq","img/green_2bandit_a2.png","68","70","test","0","50","50","3","",""
"null","119245","pSARL_v2","pSARL_v2ynvbfqun","6400f74904684aced4782997","freq_resp","img/green_2bandit_a.png","68","70","test","","","","3","",""
"null","119402","pSARL_v2","pSARL_v2ynvbfqun","6400f74904684aced4782997","fixation","img/fixation.png","null","","test","","","","","",""
"294","119703","pSARL_v2","pSARL_v2ynvbfqun","6400f74904684aced4782997","freq","img/green_2bandit_a2.png","68","70","test","0","51","51","3","",""
"null","120219","pSARL_v2","pSARL_v2ynvbfqun","6400f74904684aced4782997","freq_resp","img/green_2bandit_a.png","68","70","test","","","","3","",""
"null","120395","pSARL_v2","pSARL_v2ynvbfqun","6400f74904684aced4782997","fixation","img/fixation.png","null","","test","","","","","",""
"216","120622","pSARL_v2","pSARL_v2ynvbfqun","6400f74904684aced4782997","freq","img/green_2bandit_a2.png","68","70","test","0","52","52","3","",""
"null","121265","pSARL_v2","pSARL_v2ynvbfqun","6400f74904684aced4782997","freq_resp","img/green_2bandit_a.png","68","70","test","","","","3","",""
"null","121434","pSARL_v2","pSARL_v2ynvbfqun","6400f74904684aced4782997","fixation","img/fixation.png","null","","test","","","","","",""
"223","121663","pSARL_v2","pSARL_v2ynvbfqun","6400f74904684aced4782997","freq","img/green_2bandit_a2.png","68","70","test","0","53","53","3","",""
"null","122250","pSARL_v2","pSARL_v2ynvbfqun","6400f74904684aced4782997","freq_resp","img/green_2bandit_a.png","68","70","test","","","","3","",""
"null","122406","pSARL_v2","pSARL_v2ynvbfqun","6400f74904684aced4782997","fixation","img/fixation.png","null","","test","","","","","",""
"347","122765","pSARL_v2","pSARL_v2ynvbfqun","6400f74904684aced4782997","freq","img/green_2bandit_a2.png","68","70","test","0","54","54","3","",""
"null","123239","pSARL_v2","pSARL_v2ynvbfqun","6400f74904684aced4782997","freq_resp","img/green_2bandit_a.png","68","70","test","","","","3","",""
"null","123393","pSARL_v2","pSARL_v2ynvbfqun","6400f74904684aced4782997","fixation","img/fixation.png","null","","test","","","","","",""
"361","123762","pSARL_v2","pSARL_v2ynvbfqun","6400f74904684aced4782997","infreq","img/orange_2bandit_a2.png","70","68","test","0","55","55","3","",""
"null","124218","pSARL_v2","pSARL_v2ynvbfqun","6400f74904684aced4782997","infreq_resp","img/orange_2bandit_a.png","70","68","test","","","","3","",""
"null","124377","pSARL_v2","pSARL_v2ynvbfqun","6400f74904684aced4782997","fixation","img/fixation.png","null","","test","","","","","",""
"159","124550","pSARL_v2","pSARL_v2ynvbfqun","6400f74904684aced4782997","freq","img/green_2bandit_a2.png","68","70","test","0","56","56","3","",""
"null","125210","pSARL_v2","pSARL_v2ynvbfqun","6400f74904684aced4782997","freq_resp","img/green_2bandit_a.png","68","70","test","","","","3","",""
"null","125384","pSARL_v2","pSARL_v2ynvbfqun","6400f74904684aced4782997","fixation","img/fixation.png","null","","test","","","","","",""
"304","125693","pSARL_v2","pSARL_v2ynvbfqun","6400f74904684aced4782997","freq","img/green_2bandit_a2.png","68","70","test","0","57","57","3","",""
"null","126202","pSARL_v2","pSARL_v2ynvbfqun","6400f74904684aced4782997","freq_resp","img/green_2bandit_a.png","68","70","test","","","","3","",""
"null","126366","pSARL_v2","pSARL_v2ynvbfqun","6400f74904684aced4782997","fixation","img/fixation.png","null","","test","","","","","",""
"262","126636","pSARL_v2","pSARL_v2ynvbfqun","6400f74904684aced4782997","freq","img/green_2bandit_a2.png","68","70","test","0","58","58","3","",""
"null","127196","pSARL_v2","pSARL_v2ynvbfqun","6400f74904684aced4782997","freq_resp","img/green_2bandit_a.png","68","70","test","","","","3","",""
"null","127356","pSARL_v2","pSARL_v2ynvbfqun","6400f74904684aced4782997","fixation","img/fixation.png","null","","test","","","","","",""
"143","127509","pSARL_v2","pSARL_v2ynvbfqun","6400f74904684aced4782997","freq","img/green_2bandit_a2.png","68","70","test","0","59","59","3","",""
"null","128177","pSARL_v2","pSARL_v2ynvbfqun","6400f74904684aced4782997","freq_resp","img/green_2bandit_a.png","68","70","test","","","","3","",""
"null","128337","pSARL_v2","pSARL_v2ynvbfqun","6400f74904684aced4782997","fixation","img/fixation.png","null","","test","","","","","",""
"130","128478","pSARL_v2","pSARL_v2ynvbfqun","6400f74904684aced4782997","freq","img/green_2bandit_a2.png","68","70","test","0","60","60","3","",""
"null","129172","pSARL_v2","pSARL_v2ynvbfqun","6400f74904684aced4782997","freq_resp","img/green_2bandit_a.png","68","70","test","","","","3","",""
"null","129344","pSARL_v2","pSARL_v2ynvbfqun","6400f74904684aced4782997","fixation","img/fixation.png","null","","test","","","","","",""
"98","129453","pSARL_v2","pSARL_v2ynvbfqun","6400f74904684aced4782997","freq","img/green_2bandit_a2.png","68","70","test","0","61","61","3","",""
"null","130190","pSARL_v2","pSARL_v2ynvbfqun","6400f74904684aced4782997","freq_resp","img/green_2bandit_a.png","68","70","test","","","","3","",""
"null","130362","pSARL_v2","pSARL_v2ynvbfqun","6400f74904684aced4782997","fixation","img/fixation.png","null","","test","","","","","",""
"63","130429","pSARL_v2","pSARL_v2ynvbfqun","6400f74904684aced4782997","freq","img/green_2bandit_a2.png","68","70","test","0","62","62","3","",""
"null","131190","pSARL_v2","pSARL_v2ynvbfqun","6400f74904684aced4782997","freq_resp","img/green_2bandit_a.png","68","70","test","","","","3","",""
"null","131362","pSARL_v2","pSARL_v2ynvbfqun","6400f74904684aced4782997","fixation","img/fixation.png","null","","test","","","","","",""
"121","131500","pSARL_v2","pSARL_v2ynvbfqun","6400f74904684aced4782997","freq","img/green_2bandit_a2.png","68","70","test","0","63","63","3","",""
"null","132221","pSARL_v2","pSARL_v2ynvbfqun","6400f74904684aced4782997","freq_resp","img/green_2bandit_a.png","68","70","test","","","","3","",""
"null","132388","pSARL_v2","pSARL_v2ynvbfqun","6400f74904684aced4782997","fixation","img/fixation.png","null","","test","","","","","",""
"166","132566","pSARL_v2","pSARL_v2ynvbfqun","6400f74904684aced4782997","freq","img/green_2bandit_a2.png","68","70","test","0","64","64","3","",""
"null","133220","pSARL_v2","pSARL_v2ynvbfqun","6400f74904684aced4782997","freq_resp","img/green_2bandit_a.png","68","70","test","","","","3","",""
"null","133391","pSARL_v2","pSARL_v2ynvbfqun","6400f74904684aced4782997","fixation","img/fixation.png","null","","test","","","","","",""
"956","134362","pSARL_v2","pSARL_v2ynvbfqun","6400f74904684aced4782997","reward","img/slot.png","74","","test","","","","","",""
"null","135179","pSARL_v2","pSARL_v2ynvbfqun","6400f74904684aced4782997","points","<div class=""verylowPoints""> -7 </div>","null","na","test","","","","3","-7","2"
"288","135476","pSARL_v2","pSARL_v2ynvbfqun","6400f74904684aced4782997","freq","img/green_2bandit_a2.png","68","70","test","0","65","65","4","",""
"null","136003","pSARL_v2","pSARL_v2ynvbfqun","6400f74904684aced4782997","freq_resp","img/green_2bandit_a.png","68","70","test","","","","4","",""
"null","136171","pSARL_v2","pSARL_v2ynvbfqun","6400f74904684aced4782997","fixation","img/fixation.png","null","","test","","","","","",""
"217","136398","pSARL_v2","pSARL_v2ynvbfqun","6400f74904684aced4782997","freq","img/green_2bandit_a2.png","68","70","test","0","66","66","4","",""
"null","136992","pSARL_v2","pSARL_v2ynvbfqun","6400f74904684aced4782997","freq_resp","img/green_2bandit_a.png","68","70","test","","","","4","",""
"null","137161","pSARL_v2","pSARL_v2ynvbfqun","6400f74904684aced4782997","fixation","img/fixation.png","null","","test","","","","","",""
"96","137261","pSARL_v2","pSARL_v2ynvbfqun","6400f74904684aced4782997","freq","img/green_2bandit_a2.png","68","70","test","0","67","67","4","",""
"null","137975","pSARL_v2","pSARL_v2ynvbfqun","6400f74904684aced4782997","freq_resp","img/green_2bandit_a.png","68","70","test","","","","4","",""
"null","138137","pSARL_v2","pSARL_v2ynvbfqun","6400f74904684aced4782997","fixation","img/fixation.png","null","","test","","","","","",""
"8","138149","pSARL_v2","pSARL_v2ynvbfqun","6400f74904684aced4782997","freq","img/green_2bandit_a2.png","68","70","test","0","68","68","4","",""
"null","138956","pSARL_v2","pSARL_v2ynvbfqun","6400f74904684aced4782997","freq_resp","img/green_2bandit_a.png","68","70","test","","","","4","",""
"null","139130","pSARL_v2","pSARL_v2ynvbfqun","6400f74904684aced4782997","fixation","img/fixation.png","null","","test","","","","","",""
"424","139561","pSARL_v2","pSARL_v2ynvbfqun","6400f74904684aced4782997","freq","img/green_2bandit_a2.png","68","70","test","0","69","69","4","",""
"null","139958","pSARL_v2","pSARL_v2ynvbfqun","6400f74904684aced4782997","freq_resp","img/green_2bandit_a.png","68","70","test","","","","4","",""
"null","140133","pSARL_v2","pSARL_v2ynvbfqun","6400f74904684aced4782997","fixation","img/fixation.png","null","","test","","","","","",""
"189","140331","pSARL_v2","pSARL_v2ynvbfqun","6400f74904684aced4782997","freq","img/green_2bandit_a2.png","68","70","test","0","70","70","4","",""
"null","140965","pSARL_v2","pSARL_v2ynvbfqun","6400f74904684aced4782997","freq_resp","img/green_2bandit_a.png","68","70","test","","","","4","",""
"null","141128","pSARL_v2","pSARL_v2ynvbfqun","6400f74904684aced4782997","fixation","img/fixation.png","null","","test","","","","","",""
"27","141164","pSARL_v2","pSARL_v2ynvbfqun","6400f74904684aced4782997","freq","img/green_2bandit_a2.png","68","70","test","0","71","71","4","",""
"null","141951","pSARL_v2","pSARL_v2ynvbfqun","6400f74904684aced4782997","freq_resp","img/green_2bandit_a.png","68","70","test","","","","4","",""
"null","142114","pSARL_v2","pSARL_v2ynvbfqun","6400f74904684aced4782997","fixation","img/fixation.png","null","","test","","","","","",""
"111","142230","pSARL_v2","pSARL_v2ynvbfqun","6400f74904684aced4782997","freq","img/green_2bandit_a2.png","68","70","test","0","72","72","4","",""
"null","142995","pSARL_v2","pSARL_v2ynvbfqun","6400f74904684aced4782997","freq_resp","img/green_2bandit_a.png","68","70","test","","","","4","",""
"null","143164","pSARL_v2","pSARL_v2ynvbfqun","6400f74904684aced4782997","fixation","img/fixation.png","null","","test","","","","","",""
"135","143301","pSARL_v2","pSARL_v2ynvbfqun","6400f74904684aced4782997","freq","img/green_2bandit_a2.png","68","70","test","0","73","73","4","",""
"null","143986","pSARL_v2","pSARL_v2ynvbfqun","6400f74904684aced4782997","freq_resp","img/green_2bandit_a.png","68","70","test","","","","4","",""
"null","144145","pSARL_v2","pSARL_v2ynvbfqun","6400f74904684aced4782997","fixation","img/fixation.png","null","","test","","","","","",""
"103","144253","pSARL_v2","pSARL_v2ynvbfqun","6400f74904684aced4782997","freq","img/green_2bandit_a2.png","68","70","test","0","74","74","4","",""
"null","145027","pSARL_v2","pSARL_v2ynvbfqun","6400f74904684aced4782997","freq_resp","img/green_2bandit_a.png","68","70","test","","","","4","",""
"null","145201","pSARL_v2","pSARL_v2ynvbfqun","6400f74904684aced4782997","fixation","img/fixation.png","null","","test","","","","","",""
"696","145908","pSARL_v2","pSARL_v2ynvbfqun","6400f74904684aced4782997","infreq","img/orange_2bandit_a2.png","70","68","test","0","75","75","4","",""
"null","146031","pSARL_v2","pSARL_v2ynvbfqun","6400f74904684aced4782997","infreq_resp","img/orange_2bandit_a.png","70","68","test","","","","4","",""
"null","146202","pSARL_v2","pSARL_v2ynvbfqun","6400f74904684aced4782997","fixation","img/fixation.png","null","","test","","","","","",""
"null","147049","pSARL_v2","pSARL_v2ynvbfqun","6400f74904684aced4782997","freq","img/green_2bandit_a2.png","null","70","test","0","76","76","4","",""
"null","147216","pSARL_v2","pSARL_v2ynvbfqun","6400f74904684aced4782997","fixation","img/fixation.png","null","","test","","","","","",""
"83","147308","pSARL_v2","pSARL_v2ynvbfqun","6400f74904684aced4782997","freq","img/green_2bandit_a2.png","68","70","test","0","77","77","4","",""
"null","148037","pSARL_v2","pSARL_v2ynvbfqun","6400f74904684aced4782997","freq_resp","img/green_2bandit_a.png","68","70","test","","","","4","",""
"null","148198","pSARL_v2","pSARL_v2ynvbfqun","6400f74904684aced4782997","fixation","img/fixation.png","null","","test","","","","","",""
"84","148292","pSARL_v2","pSARL_v2ynvbfqun","6400f74904684aced4782997","freq","img/green_2bandit_a2.png","68","70","test","0","78","78","4","",""
"null","149075","pSARL_v2","pSARL_v2ynvbfqun","6400f74904684aced4782997","freq_resp","img/green_2bandit_a.png","68","70","test","","","","4","",""
"null","149245","pSARL_v2","pSARL_v2ynvbfqun","6400f74904684aced4782997","fixation","img/fixation.png","null","","test","","","","","",""
"604","149854","pSARL_v2","pSARL_v2ynvbfqun","6400f74904684aced4782997","infreq","img/orange_2bandit_a2.png","70","68","test","0","79","79","4","",""
"null","150061","pSARL_v2","pSARL_v2ynvbfqun","6400f74904684aced4782997","infreq_resp","img/orange_2bandit_a.png","70","68","test","","","","4","",""
"null","150220","pSARL_v2","pSARL_v2ynvbfqun","6400f74904684aced4782997","fixation","img/fixation.png","null","","test","","","","","",""
"383","150613","pSARL_v2","pSARL_v2ynvbfqun","6400f74904684aced4782997","freq","img/green_2bandit_a2.png","68","70","test","0","80","80","4","",""
"null","151089","pSARL_v2","pSARL_v2ynvbfqun","6400f74904684aced4782997","freq_resp","img/green_2bandit_a.png","68","70","test","","","","4","",""
"null","151248","pSARL_v2","pSARL_v2ynvbfqun","6400f74904684aced4782997","fixation","img/fixation.png","null","","test","","","","","",""
"307","151564","pSARL_v2","pSARL_v2ynvbfqun","6400f74904684aced4782997","freq","img/green_2bandit_a2.png","68","70","test","0","81","81","4","",""
"null","152067","pSARL_v2","pSARL_v2ynvbfqun","6400f74904684aced4782997","freq_resp","img/green_2bandit_a.png","68","70","test","","","","4","",""
"null","152237","pSARL_v2","pSARL_v2ynvbfqun","6400f74904684aced4782997","fixation","img/fixation.png","null","","test","","","","","",""
"262","152508","pSARL_v2","pSARL_v2ynvbfqun","6400f74904684aced4782997","freq","img/green_2bandit_a2.png","68","70","test","0","82","82","4","",""
"null","153116","pSARL_v2","pSARL_v2ynvbfqun","6400f74904684aced4782997","freq_resp","img/green_2bandit_a.png","68","70","test","","","","4","",""
"null","153278","pSARL_v2","pSARL_v2ynvbfqun","6400f74904684aced4782997","fixation","img/fixation.png","null","","test","","","","","",""
"422","153707","pSARL_v2","pSARL_v2ynvbfqun","6400f74904684aced4782997","freq","img/green_2bandit_a2.png","68","70","test","0","83","83","4","",""
"null","154093","pSARL_v2","pSARL_v2ynvbfqun","6400f74904684aced4782997","freq_resp","img/green_2bandit_a.png","68","70","test","","","","4","",""
"null","154251","pSARL_v2","pSARL_v2ynvbfqun","6400f74904684aced4782997","fixation","img/fixation.png","null","","test","","","","","",""
"252","154511","pSARL_v2","pSARL_v2ynvbfqun","6400f74904684aced4782997","freq","img/green_2bandit_a2.png","68","70","test","0","84","84","4","",""
"null","155083","pSARL_v2","pSARL_v2ynvbfqun","6400f74904684aced4782997","freq_resp","img/green_2bandit_a.png","68","70","test","","","","4","",""
"null","155252","pSARL_v2","pSARL_v2ynvbfqun","6400f74904684aced4782997","fixation","img/fixation.png","null","","test","","","","","",""
"120","155382","pSARL_v2","pSARL_v2ynvbfqun","6400f74904684aced4782997","freq","img/green_2bandit_a2.png","68","70","test","0","85","85","4","",""
"null","156088","pSARL_v2","pSARL_v2ynvbfqun","6400f74904684aced4782997","freq_resp","img/green_2bandit_a.png","68","70","test","","","","4","",""
"null","156250","pSARL_v2","pSARL_v2ynvbfqun","6400f74904684aced4782997","fixation","img/fixation.png","null","","test","","","","","",""
"208","156468","pSARL_v2","pSARL_v2ynvbfqun","6400f74904684aced4782997","freq","img/green_2bandit_a2.png","68","70","test","0","86","86","4","",""
"null","157079","pSARL_v2","pSARL_v2ynvbfqun","6400f74904684aced4782997","freq_resp","img/green_2bandit_a.png","68","70","test","","","","4","",""
"null","157253","pSARL_v2","pSARL_v2ynvbfqun","6400f74904684aced4782997","fixation","img/fixation.png","null","","test","","","","","",""
"212","157471","pSARL_v2","pSARL_v2ynvbfqun","6400f74904684aced4782997","freq","img/green_2bandit_a2.png","68","70","test","0","87","87","4","",""
"null","158067","pSARL_v2","pSARL_v2ynvbfqun","6400f74904684aced4782997","freq_resp","img/green_2bandit_a.png","68","70","test","","","","4","",""
"null","158223","pSARL_v2","pSARL_v2ynvbfqun","6400f74904684aced4782997","fixation","img/fixation.png","null","","test","","","","","",""
"259","158492","pSARL_v2","pSARL_v2ynvbfqun","6400f74904684aced4782997","freq","img/green_2bandit_a2.png","68","70","test","0","88","88","4","",""
"null","159045","pSARL_v2","pSARL_v2ynvbfqun","6400f74904684aced4782997","freq_resp","img/green_2bandit_a.png","68","70","test","","","","4","",""
"null","159214","pSARL_v2","pSARL_v2ynvbfqun","6400f74904684aced4782997","fixation","img/fixation.png","null","","test","","","","","",""
"1133","160357","pSARL_v2","pSARL_v2ynvbfqun","6400f74904684aced4782997","reward","img/slot.png","74","","test","","","","","",""
"null","161121","pSARL_v2","pSARL_v2ynvbfqun","6400f74904684aced4782997","points","<div class=""verylowPoints""> -3 </div>","null","na","test","","","","4","-3","3"
"642","161768","pSARL_v2","pSARL_v2ynvbfqun","6400f74904684aced4782997","freq","img/green_2bandit_a2.png","68","70","test","0","89","89","5","",""
"null","161940","pSARL_v2","pSARL_v2ynvbfqun","6400f74904684aced4782997","freq_resp","img/green_2bandit_a.png","68","70","test","","","","5","",""
"null","162114","pSARL_v2","pSARL_v2ynvbfqun","6400f74904684aced4782997","fixation","img/fixation.png","null","","test","","","","","",""
"296","162419","pSARL_v2","pSARL_v2ynvbfqun","6400f74904684aced4782997","freq","img/green_2bandit_a2.png","68","70","test","0","90","90","5","",""
"null","162938","pSARL_v2","pSARL_v2ynvbfqun","6400f74904684aced4782997","freq_resp","img/green_2bandit_a.png","68","70","test","","","","5","",""
"null","163102","pSARL_v2","pSARL_v2ynvbfqun","6400f74904684aced4782997","fixation","img/fixation.png","null","","test","","","","","",""
"461","163575","pSARL_v2","pSARL_v2ynvbfqun","6400f74904684aced4782997","freq","img/green_2bandit_a2.png","68","70","test","0","91","91","5","",""
"null","163929","pSARL_v2","pSARL_v2ynvbfqun","6400f74904684aced4782997","freq_resp","img/green_2bandit_a.png","68","70","test","","","","5","",""
"null","164101","pSARL_v2","pSARL_v2ynvbfqun","6400f74904684aced4782997","fixation","img/fixation.png","null","","test","","","","","",""
"235","164341","pSARL_v2","pSARL_v2ynvbfqun","6400f74904684aced4782997","freq","img/green_2bandit_a2.png","68","70","test","0","92","92","5","",""
"null","164925","pSARL_v2","pSARL_v2ynvbfqun","6400f74904684aced4782997","freq_resp","img/green_2bandit_a.png","68","70","test","","","","5","",""
"null","165088","pSARL_v2","pSARL_v2ynvbfqun","6400f74904684aced4782997","fixation","img/fixation.png","null","","test","","","","","",""
"90","165189","pSARL_v2","pSARL_v2ynvbfqun","6400f74904684aced4782997","freq","img/green_2bandit_a2.png","68","70","test","0","93","93","5","",""
"null","165949","pSARL_v2","pSARL_v2ynvbfqun","6400f74904684aced4782997","freq_resp","img/green_2bandit_a.png","68","70","test","","","","5","",""
"null","166131","pSARL_v2","pSARL_v2ynvbfqun","6400f74904684aced4782997","fixation","img/fixation.png","null","","test","","","","","",""
"224","166365","pSARL_v2","pSARL_v2ynvbfqun","6400f74904684aced4782997","freq","img/green_2bandit_a2.png","68","70","test","0","94","94","5","",""
"null","166959","pSARL_v2","pSARL_v2ynvbfqun","6400f74904684aced4782997","freq_resp","img/green_2bandit_a.png","68","70","test","","","","5","",""
"null","167133","pSARL_v2","pSARL_v2ynvbfqun","6400f74904684aced4782997","fixation","img/fixation.png","null","","test","","","","","",""
"260","167397","pSARL_v2","pSARL_v2ynvbfqun","6400f74904684aced4782997","freq","img/green_2bandit_a2.png","68","70","test","0","95","95","5","",""
"null","167969","pSARL_v2","pSARL_v2ynvbfqun","6400f74904684aced4782997","freq_resp","img/green_2bandit_a.png","68","70","test","","","","5","",""
"null","168138","pSARL_v2","pSARL_v2ynvbfqun","6400f74904684aced4782997","fixation","img/fixation.png","null","","test","","","","","",""
"216","168365","pSARL_v2","pSARL_v2ynvbfqun","6400f74904684aced4782997","freq","img/green_2bandit_a2.png","68","70","test","0","96","96","5","",""
"null","168964","pSARL_v2","pSARL_v2ynvbfqun","6400f74904684aced4782997","freq_resp","img/green_2bandit_a.png","68","70","test","","","","5","",""
"null","169122","pSARL_v2","pSARL_v2ynvbfqun","6400f74904684aced4782997","fixation","img/fixation.png","null","","test","","","","","",""
"191","169324","pSARL_v2","pSARL_v2ynvbfqun","6400f74904684aced4782997","freq","img/green_2bandit_a2.png","68","70","test","0","97","97","5","",""
"null","169979","pSARL_v2","pSARL_v2ynvbfqun","6400f74904684aced4782997","freq_resp","img/green_2bandit_a.png","68","70","test","","","","5","",""
"null","170140","pSARL_v2","pSARL_v2ynvbfqun","6400f74904684aced4782997","fixation","img/fixation.png","null","","test","","","","","",""
"134","170284","pSARL_v2","pSARL_v2ynvbfqun","6400f74904684aced4782997","freq","img/green_2bandit_a2.png","68","70","test","0","98","98","5","",""
"null","170967","pSARL_v2","pSARL_v2ynvbfqun","6400f74904684aced4782997","freq_resp","img/green_2bandit_a.png","68","70","test","","","","5","",""
"null","171139","pSARL_v2","pSARL_v2ynvbfqun","6400f74904684aced4782997","fixation","img/fixation.png","null","","test","","","","","",""
"184","171329","pSARL_v2","pSARL_v2ynvbfqun","6400f74904684aced4782997","infreq","img/orange_2bandit_a2.png","68","68","test","1","99","99","5","",""
"null","172008","pSARL_v2","pSARL_v2ynvbfqun","6400f74904684aced4782997","infreq_resp","img/orange_2bandit_a.png","68","68","test","","","","5","",""
"null","172164","pSARL_v2","pSARL_v2ynvbfqun","6400f74904684aced4782997","fixation","img/fixation.png","null","","test","","","","","",""
"255","172428","pSARL_v2","pSARL_v2ynvbfqun","6400f74904684aced4782997","infreq","img/orange_2bandit_a2.png","68","68","test","1","100","100","5","",""
"null","172998","pSARL_v2","pSARL_v2ynvbfqun","6400f74904684aced4782997","infreq_resp","img/orange_2bandit_a.png","68","68","test","","","","5","",""
"null","173170","pSARL_v2","pSARL_v2ynvbfqun","6400f74904684aced4782997","fixation","img/fixation.png","null","","test","","","","","",""
"456","173638","pSARL_v2","pSARL_v2ynvbfqun","6400f74904684aced4782997","freq","img/green_2bandit_a2.png","68","70","test","0","101","101","5","",""
"null","174023","pSARL_v2","pSARL_v2ynvbfqun","6400f74904684aced4782997","freq_resp","img/green_2bandit_a.png","68","70","test","","","","5","",""
"null","174188","pSARL_v2","pSARL_v2ynvbfqun","6400f74904684aced4782997","fixation","img/fixation.png","null","","test","","","","","",""
"726","174918","pSARL_v2","pSARL_v2ynvbfqun","6400f74904684aced4782997","freq","img/green_2bandit_a2.png","68","70","test","0","102","102","5","",""
"null","175004","pSARL_v2","pSARL_v2ynvbfqun","6400f74904684aced4782997","freq_resp","img/green_2bandit_a.png","68","70","test","","","","5","",""
"null","175174","pSARL_v2","pSARL_v2ynvbfqun","6400f74904684aced4782997","fixation","img/fixation.png","null","","test","","","","","",""
"386","175566","pSARL_v2","pSARL_v2ynvbfqun","6400f74904684aced4782997","freq","img/green_2bandit_a2.png","68","70","test","0","103","103","5","",""
"null","176052","pSARL_v2","pSARL_v2ynvbfqun","6400f74904684aced4782997","freq_resp","img/green_2bandit_a.png","68","70","test","","","","5","",""
"null","176221","pSARL_v2","pSARL_v2ynvbfqun","6400f74904684aced4782997","fixation","img/fixation.png","null","","test","","","","","",""
"263","176493","pSARL_v2","pSARL_v2ynvbfqun","6400f74904684aced4782997","freq","img/green_2bandit_a2.png","68","70","test","0","104","104","5","",""
"null","177044","pSARL_v2","pSARL_v2ynvbfqun","6400f74904684aced4782997","freq_resp","img/green_2bandit_a.png","68","70","test","","","","5","",""
"null","177215","pSARL_v2","pSARL_v2ynvbfqun","6400f74904684aced4782997","fixation","img/fixation.png","null","","test","","","","","",""
"123","177348","pSARL_v2","pSARL_v2ynvbfqun","6400f74904684aced4782997","freq","img/green_2bandit_a2.png","68","70","test","0","105","105","5","",""
"null","178093","pSARL_v2","pSARL_v2ynvbfqun","6400f74904684aced4782997","freq_resp","img/green_2bandit_a.png","68","70","test","","","","5","",""
"null","178261","pSARL_v2","pSARL_v2ynvbfqun","6400f74904684aced4782997","fixation","img/fixation.png","null","","test","","","","","",""
"285","178559","pSARL_v2","pSARL_v2ynvbfqun","6400f74904684aced4782997","freq","img/green_2bandit_a2.png","68","70","test","0","106","106","5","",""
"null","179086","pSARL_v2","pSARL_v2ynvbfqun","6400f74904684aced4782997","freq_resp","img/green_2bandit_a.png","68","70","test","","","","5","",""
"null","179257","pSARL_v2","pSARL_v2ynvbfqun","6400f74904684aced4782997","fixation","img/fixation.png","null","","test","","","","","",""
"240","179507","pSARL_v2","pSARL_v2ynvbfqun","6400f74904684aced4782997","freq","img/green_2bandit_a2.png","68","70","test","0","107","107","5","",""
"null","180120","pSARL_v2","pSARL_v2ynvbfqun","6400f74904684aced4782997","freq_resp","img/green_2bandit_a.png","68","70","test","","","","5","",""
"null","180291","pSARL_v2","pSARL_v2ynvbfqun","6400f74904684aced4782997","fixation","img/fixation.png","null","","test","","","","","",""
"341","180640","pSARL_v2","pSARL_v2ynvbfqun","6400f74904684aced4782997","freq","img/green_2bandit_a2.png","68","70","test","0","108","108","5","",""
"null","181166","pSARL_v2","pSARL_v2ynvbfqun","6400f74904684aced4782997","freq_resp","img/green_2bandit_a.png","68","70","test","","","","5","",""
"null","181327","pSARL_v2","pSARL_v2ynvbfqun","6400f74904684aced4782997","fixation","img/fixation.png","null","","test","","","","","",""
"493","181829","pSARL_v2","pSARL_v2ynvbfqun","6400f74904684aced4782997","freq","img/green_2bandit_a2.png","68","70","test","0","109","109","5","",""
"null","182153","pSARL_v2","pSARL_v2ynvbfqun","6400f74904684aced4782997","freq_resp","img/green_2bandit_a.png","68","70","test","","","","5","",""
"null","182308","pSARL_v2","pSARL_v2ynvbfqun","6400f74904684aced4782997","fixation","img/fixation.png","null","","test","","","","","",""
"287","182604","pSARL_v2","pSARL_v2ynvbfqun","6400f74904684aced4782997","freq","img/green_2bandit_a2.png","68","70","test","0","110","110","5","",""
"null","183136","pSARL_v2","pSARL_v2ynvbfqun","6400f74904684aced4782997","freq_resp","img/green_2bandit_a.png","68","70","test","","","","5","",""
"null","183297","pSARL_v2","pSARL_v2ynvbfqun","6400f74904684aced4782997","fixation","img/fixation.png","null","","test","","","","","",""
"240","183549","pSARL_v2","pSARL_v2ynvbfqun","6400f74904684aced4782997","freq","img/green_2bandit_a2.png","68","70","test","0","111","111","5","",""
"null","184161","pSARL_v2","pSARL_v2ynvbfqun","6400f74904684aced4782997","freq_resp","img/green_2bandit_a.png","68","70","test","","","","5","",""
"null","184326","pSARL_v2","pSARL_v2ynvbfqun","6400f74904684aced4782997","fixation","img/fixation.png","null","","test","","","","","",""
"428","184758","pSARL_v2","pSARL_v2ynvbfqun","6400f74904684aced4782997","reward","img/slot.png","74","","test","","","","","",""
"null","185526","pSARL_v2","pSARL_v2ynvbfqun","6400f74904684aced4782997","points","<div class=""veryhighPoints""> +1 </div>","null","na","test","","","","5","1","4"
"322","185854","pSARL_v2","pSARL_v2ynvbfqun","6400f74904684aced4782997","freq","img/green_2bandit_a2.png","68","70","test","0","112","112","6","",""
"null","186336","pSARL_v2","pSARL_v2ynvbfqun","6400f74904684aced4782997","freq_resp","img/green_2bandit_a.png","68","70","test","","","","6","",""
"null","186500","pSARL_v2","pSARL_v2ynvbfqun","6400f74904684aced4782997","fixation","img/fixation.png","null","","test","","","","","",""
"334","186842","pSARL_v2","pSARL_v2ynvbfqun","6400f74904684aced4782997","freq","img/green_2bandit_a2.png","68","70","test","0","113","113","6","",""
"null","187333","pSARL_v2","pSARL_v2ynvbfqun","6400f74904684aced4782997","freq_resp","img/green_2bandit_a.png","68","70","test","","","","6","",""
"null","187505","pSARL_v2","pSARL_v2ynvbfqun","6400f74904684aced4782997","fixation","img/fixation.png","null","","test","","","","","",""
"145","187661","pSARL_v2","pSARL_v2ynvbfqun","6400f74904684aced4782997","freq","img/green_2bandit_a2.png","68","70","test","0","114","114","6","",""
"null","188345","pSARL_v2","pSARL_v2ynvbfqun","6400f74904684aced4782997","freq_resp","img/green_2bandit_a.png","68","70","test","","","","6","",""
"null","188520","pSARL_v2","pSARL_v2ynvbfqun","6400f74904684aced4782997","fixation","img/fixation.png","null","","test","","","","","",""
"58","188589","pSARL_v2","pSARL_v2ynvbfqun","6400f74904684aced4782997","freq","img/green_2bandit_a2.png","68","70","test","0","115","115","6","",""
"null","189348","pSARL_v2","pSARL_v2ynvbfqun","6400f74904684aced4782997","freq_resp","img/green_2bandit_a.png","68","70","test","","","","6","",""
"null","189522","pSARL_v2","pSARL_v2ynvbfqun","6400f74904684aced4782997","fixation","img/fixation.png","null","","test","","","","","",""
"null","190366","pSARL_v2","pSARL_v2ynvbfqun","6400f74904684aced4782997","infreq","img/orange_2bandit_a2.png","null","68","test","0","116","116","6","",""
"null","190532","pSARL_v2","pSARL_v2ynvbfqun","6400f74904684aced4782997","fixation","img/fixation.png","null","","test","","","","","",""
"503","191042","pSARL_v2","pSARL_v2ynvbfqun","6400f74904684aced4782997","freq","img/green_2bandit_a2.png","68","70","test","0","117","117","6","",""
"null","191345","pSARL_v2","pSARL_v2ynvbfqun","6400f74904684aced4782997","freq_resp","img/green_2bandit_a.png","68","70","test","","","","6","",""
"null","191502","pSARL_v2","pSARL_v2ynvbfqun","6400f74904684aced4782997","fixation","img/fixation.png","null","","test","","","","","",""
"331","191838","pSARL_v2","pSARL_v2ynvbfqun","6400f74904684aced4782997","freq","img/green_2bandit_a2.png","68","70","test","0","118","118","6","",""
"null","192320","pSARL_v2","pSARL_v2ynvbfqun","6400f74904684aced4782997","freq_resp","img/green_2bandit_a.png","68","70","test","","","","6","",""
"null","192493","pSARL_v2","pSARL_v2ynvbfqun","6400f74904684aced4782997","fixation","img/fixation.png","null","","test","","","","","",""
"286","192791","pSARL_v2","pSARL_v2ynvbfqun","6400f74904684aced4782997","freq","img/green_2bandit_a2.png","68","70","test","0","119","119","6","",""
"null","193321","pSARL_v2","pSARL_v2ynvbfqun","6400f74904684aced4782997","freq_resp","img/green_2bandit_a.png","68","70","test","","","","6","",""
"null","193479","pSARL_v2","pSARL_v2ynvbfqun","6400f74904684aced4782997","fixation","img/fixation.png","null","","test","","","","","",""
"172","193661","pSARL_v2","pSARL_v2ynvbfqun","6400f74904684aced4782997","freq","img/green_2bandit_a2.png","68","70","test","0","120","120","6","",""
"null","194303","pSARL_v2","pSARL_v2ynvbfqun","6400f74904684aced4782997","freq_resp","img/green_2bandit_a.png","68","70","test","","","","6","",""
"null","194463","pSARL_v2","pSARL_v2ynvbfqun","6400f74904684aced4782997","fixation","img/fixation.png","null","","test","","","","","",""
"306","194781","pSARL_v2","pSARL_v2ynvbfqun","6400f74904684aced4782997","freq","img/green_2bandit_a2.png","68","70","test","0","121","121","6","",""
"null","195294","pSARL_v2","pSARL_v2ynvbfqun","6400f74904684aced4782997","freq_resp","img/green_2bandit_a.png","68","70","test","","","","6","",""
"null","195460","pSARL_v2","pSARL_v2ynvbfqun","6400f74904684aced4782997","fixation","img/fixation.png","null","","test","","","","","",""
"293","195757","pSARL_v2","pSARL_v2ynvbfqun","6400f74904684aced4782997","infreq","img/orange_2bandit_a2.png","68","68","test","1","122","122","6","",""
"null","196272","pSARL_v2","pSARL_v2ynvbfqun","6400f74904684aced4782997","infreq_resp","img/orange_2bandit_a.png","68","68","test","","","","6","",""
"null","196435","pSARL_v2","pSARL_v2ynvbfqun","6400f74904684aced4782997","fixation","img/fixation.png","null","","test","","","","","",""
"638","197078","pSARL_v2","pSARL_v2ynvbfqun","6400f74904684aced4782997","freq","img/green_2bandit_a2.png","68","70","test","0","123","123","6","",""
"null","197246","pSARL_v2","pSARL_v2ynvbfqun","6400f74904684aced4782997","freq_resp","img/green_2bandit_a.png","68","70","test","","","","6","",""
"null","197409","pSARL_v2","pSARL_v2ynvbfqun","6400f74904684aced4782997","fixation","img/fixation.png","null","","test","","","","","",""
"664","198078","pSARL_v2","pSARL_v2ynvbfqun","6400f74904684aced4782997","infreq","img/orange_2bandit_a2.png","70","68","test","0","124","124","6","",""
"null","198223","pSARL_v2","pSARL_v2ynvbfqun","6400f74904684aced4782997","infreq_resp","img/orange_2bandit_a.png","70","68","test","","","","6","",""
"null","198384","pSARL_v2","pSARL_v2ynvbfqun","6400f74904684aced4782997","fixation","img/fixation.png","null","","test","","","","","",""
"531","198924","pSARL_v2","pSARL_v2ynvbfqun","6400f74904684aced4782997","freq","img/green_2bandit_a2.png","68","70","test","0","125","125","6","",""
"null","199210","pSARL_v2","pSARL_v2ynvbfqun","6400f74904684aced4782997","freq_resp","img/green_2bandit_a.png","68","70","test","","","","6","",""
"null","199384","pSARL_v2","pSARL_v2ynvbfqun","6400f74904684aced4782997","fixation","img/fixation.png","null","","test","","","","","",""
"441","199829","pSARL_v2","pSARL_v2ynvbfqun","6400f74904684aced4782997","freq","img/green_2bandit_a2.png","68","70","test","0","126","126","6","",""
"null","200202","pSARL_v2","pSARL_v2ynvbfqun","6400f74904684aced4782997","freq_resp","img/green_2bandit_a.png","68","70","test","","","","6","",""
"null","200363","pSARL_v2","pSARL_v2ynvbfqun","6400f74904684aced4782997","fixation","img/fixation.png","null","","test","","","","","",""
"289","200659","pSARL_v2","pSARL_v2ynvbfqun","6400f74904684aced4782997","freq","img/green_2bandit_a2.png","68","70","test","0","127","127","6","",""
"null","201223","pSARL_v2","pSARL_v2ynvbfqun","6400f74904684aced4782997","freq_resp","img/green_2bandit_a.png","68","70","test","","","","6","",""
"null","201385","pSARL_v2","pSARL_v2ynvbfqun","6400f74904684aced4782997","fixation","img/fixation.png","null","","test","","","","","",""
"273","201662","pSARL_v2","pSARL_v2ynvbfqun","6400f74904684aced4782997","freq","img/green_2bandit_a2.png","68","70","test","0","128","128","6","",""
"null","202205","pSARL_v2","pSARL_v2ynvbfqun","6400f74904684aced4782997","freq_resp","img/green_2bandit_a.png","68","70","test","","","","6","",""
"null","202367","pSARL_v2","pSARL_v2ynvbfqun","6400f74904684aced4782997","fixation","img/fixation.png","null","","test","","","","","",""
"148","202527","pSARL_v2","pSARL_v2ynvbfqun","6400f74904684aced4782997","freq","img/green_2bandit_a2.png","68","70","test","0","129","129","6","",""
"null","203245","pSARL_v2","pSARL_v2ynvbfqun","6400f74904684aced4782997","freq_resp","img/green_2bandit_a.png","68","70","test","","","","6","",""
"null","203407","pSARL_v2","pSARL_v2ynvbfqun","6400f74904684aced4782997","fixation","img/fixation.png","null","","test","","","","","",""
"795","204211","pSARL_v2","pSARL_v2ynvbfqun","6400f74904684aced4782997","freq","img/green_2bandit_a2.png","68","70","test","0","130","130","6","",""
"null","204226","pSARL_v2","pSARL_v2ynvbfqun","6400f74904684aced4782997","freq_resp","img/green_2bandit_a.png","68","70","test","","","","6","",""
"null","204400","pSARL_v2","pSARL_v2ynvbfqun","6400f74904684aced4782997","fixation","img/fixation.png","null","","test","","","","","",""
"313","204719","pSARL_v2","pSARL_v2ynvbfqun","6400f74904684aced4782997","freq","img/green_2bandit_a2.png","68","70","test","0","131","131","6","",""
"null","205268","pSARL_v2","pSARL_v2ynvbfqun","6400f74904684aced4782997","freq_resp","img/green_2bandit_a.png","68","70","test","","","","6","",""
"null","205448","pSARL_v2","pSARL_v2ynvbfqun","6400f74904684aced4782997","fixation","img/fixation.png","null","","test","","","","","",""
"129","205588","pSARL_v2","pSARL_v2ynvbfqun","6400f74904684aced4782997","freq","img/green_2bandit_a2.png","68","70","test","0","132","132","6","",""
"null","206270","pSARL_v2","pSARL_v2ynvbfqun","6400f74904684aced4782997","freq_resp","img/green_2bandit_a.png","68","70","test","","","","6","",""
"null","206445","pSARL_v2","pSARL_v2ynvbfqun","6400f74904684aced4782997","fixation","img/fixation.png","null","","test","","","","","",""
"237","206689","pSARL_v2","pSARL_v2ynvbfqun","6400f74904684aced4782997","freq","img/green_2bandit_a2.png","68","70","test","0","133","133","6","",""
"null","207288","pSARL_v2","pSARL_v2ynvbfqun","6400f74904684aced4782997","freq_resp","img/green_2bandit_a.png","68","70","test","","","","6","",""
"null","207453","pSARL_v2","pSARL_v2ynvbfqun","6400f74904684aced4782997","fixation","img/fixation.png","null","","test","","","","","",""
"991","208454","pSARL_v2","pSARL_v2ynvbfqun","6400f74904684aced4782997","reward","img/slot.png","74","","test","","","","","",""
"null","209301","pSARL_v2","pSARL_v2ynvbfqun","6400f74904684aced4782997","points","<div class=""verylowPoints""> -7 </div>","null","na","test","","","","6","-7","5"
"null","210123","pSARL_v2","pSARL_v2ynvbfqun","6400f74904684aced4782997","freq","img/green_2bandit_a2.png","null","70","test","0","134","134","7","",""
"null","210296","pSARL_v2","pSARL_v2ynvbfqun","6400f74904684aced4782997","fixation","img/fixation.png","null","","test","","","","","",""
"435","210741","pSARL_v2","pSARL_v2ynvbfqun","6400f74904684aced4782997","freq","img/green_2bandit_a2.png","68","70","test","0","135","135","7","",""
"null","211117","pSARL_v2","pSARL_v2ynvbfqun","6400f74904684aced4782997","freq_resp","img/green_2bandit_a.png","68","70","test","","","","7","",""
"null","211278","pSARL_v2","pSARL_v2ynvbfqun","6400f74904684aced4782997","fixation","img/fixation.png","null","","test","","","","","",""
"636","211921","pSARL_v2","pSARL_v2ynvbfqun","6400f74904684aced4782997","freq","img/green_2bandit_a2.png","68","70","test","0","136","136","7","",""
"null","212103","pSARL_v2","pSARL_v2ynvbfqun","6400f74904684aced4782997","freq_resp","img/green_2bandit_a.png","68","70","test","","","","7","",""
"null","212267","pSARL_v2","pSARL_v2ynvbfqun","6400f74904684aced4782997","fixation","img/fixation.png","null","","test","","","","","",""
"319","212598","pSARL_v2","pSARL_v2ynvbfqun","6400f74904684aced4782997","freq","img/green_2bandit_a2.png","68","70","test","0","137","137","7","",""
"null","213089","pSARL_v2","pSARL_v2ynvbfqun","6400f74904684aced4782997","freq_resp","img/green_2bandit_a.png","68","70","test","","","","7","",""
"null","213262","pSARL_v2","pSARL_v2ynvbfqun","6400f74904684aced4782997","fixation","img/fixation.png","null","","test","","","","","",""
"140","213413","pSARL_v2","pSARL_v2ynvbfqun","6400f74904684aced4782997","freq","img/green_2bandit_a2.png","68","70","test","0","138","138","7","",""
"null","214091","pSARL_v2","pSARL_v2ynvbfqun","6400f74904684aced4782997","freq_resp","img/green_2bandit_a.png","68","70","test","","","","7","",""
"null","214251","pSARL_v2","pSARL_v2ynvbfqun","6400f74904684aced4782997","fixation","img/fixation.png","null","","test","","","","","",""
"95","214357","pSARL_v2","pSARL_v2ynvbfqun","6400f74904684aced4782997","freq","img/green_2bandit_a2.png","68","70","test","0","139","139","7","",""
"null","215075","pSARL_v2","pSARL_v2ynvbfqun","6400f74904684aced4782997","freq_resp","img/green_2bandit_a.png","68","70","test","","","","7","",""
"null","215237","pSARL_v2","pSARL_v2ynvbfqun","6400f74904684aced4782997","fixation","img/fixation.png","null","","test","","","","","",""
"109","215357","pSARL_v2","pSARL_v2ynvbfqun","6400f74904684aced4782997","freq","img/green_2bandit_a2.png","68","70","test","0","140","140","7","",""
"null","216096","pSARL_v2","pSARL_v2ynvbfqun","6400f74904684aced4782997","freq_resp","img/green_2bandit_a.png","68","70","test","","","","7","",""
"null","216260","pSARL_v2","pSARL_v2ynvbfqun","6400f74904684aced4782997","fixation","img/fixation.png","null","","test","","","","","",""
"102","216375","pSARL_v2","pSARL_v2ynvbfqun","6400f74904684aced4782997","freq","img/green_2bandit_a2.png","68","70","test","0","141","141","7","",""
"null","217092","pSARL_v2","pSARL_v2ynvbfqun","6400f74904684aced4782997","freq_resp","img/green_2bandit_a.png","68","70","test","","","","7","",""
"null","217266","pSARL_v2","pSARL_v2ynvbfqun","6400f74904684aced4782997","fixation","img/fixation.png","null","","test","","","","","",""
"121","217397","pSARL_v2","pSARL_v2ynvbfqun","6400f74904684aced4782997","freq","img/green_2bandit_a2.png","68","70","test","0","142","142","7","",""
"null","218125","pSARL_v2","pSARL_v2ynvbfqun","6400f74904684aced4782997","freq_resp","img/green_2bandit_a.png","68","70","test","","","","7","",""
"null","218298","pSARL_v2","pSARL_v2ynvbfqun","6400f74904684aced4782997","fixation","img/fixation.png","null","","test","","","","","",""
"120","218429","pSARL_v2","pSARL_v2ynvbfqun","6400f74904684aced4782997","freq","img/green_2bandit_a2.png","68","70","test","0","143","143","7","",""
"null","219127","pSARL_v2","pSARL_v2ynvbfqun","6400f74904684aced4782997","freq_resp","img/green_2bandit_a.png","68","70","test","","","","7","",""
"null","219292","pSARL_v2","pSARL_v2ynvbfqun","6400f74904684aced4782997","fixation","img/fixation.png","null","","test","","","","","",""
"109","219405","pSARL_v2","pSARL_v2ynvbfqun","6400f74904684aced4782997","freq","img/green_2bandit_a2.png","68","70","test","0","144","144","7","",""
"null","220161","pSARL_v2","pSARL_v2ynvbfqun","6400f74904684aced4782997","freq_resp","img/green_2bandit_a.png","68","70","test","","","","7","",""
"null","220332","pSARL_v2","pSARL_v2ynvbfqun","6400f74904684aced4782997","fixation","img/fixation.png","null","","test","","","","","",""
"158","220505","pSARL_v2","pSARL_v2ynvbfqun","6400f74904684aced4782997","freq","img/green_2bandit_a2.png","68","70","test","0","145","145","7","",""
"null","221169","pSARL_v2","pSARL_v2ynvbfqun","6400f74904684aced4782997","freq_resp","img/green_2bandit_a.png","68","70","test","","","","7","",""
"null","221342","pSARL_v2","pSARL_v2ynvbfqun","6400f74904684aced4782997","fixation","img/fixation.png","null","","test","","","","","",""
"149","221501","pSARL_v2","pSARL_v2ynvbfqun","6400f74904684aced4782997","freq","img/green_2bandit_a2.png","68","70","test","0","146","146","7","",""
"null","222197","pSARL_v2","pSARL_v2ynvbfqun","6400f74904684aced4782997","freq_resp","img/green_2bandit_a.png","68","70","test","","","","7","",""
"null","222372","pSARL_v2","pSARL_v2ynvbfqun","6400f74904684aced4782997","fixation","img/fixation.png","null","","test","","","","","",""
"159","222541","pSARL_v2","pSARL_v2ynvbfqun","6400f74904684aced4782997","freq","img/green_2bandit_a2.png","68","70","test","0","147","147","7","",""
"null","223197","pSARL_v2","pSARL_v2ynvbfqun","6400f74904684aced4782997","freq_resp","img/green_2bandit_a.png","68","70","test","","","","7","",""
"null","223366","pSARL_v2","pSARL_v2ynvbfqun","6400f74904684aced4782997","fixation","img/fixation.png","null","","test","","","","","",""
"164","223540","pSARL_v2","pSARL_v2ynvbfqun","6400f74904684aced4782997","freq","img/green_2bandit_a2.png","68","70","test","0","148","148","7","",""
"null","224223","pSARL_v2","pSARL_v2ynvbfqun","6400f74904684aced4782997","freq_resp","img/green_2bandit_a.png","68","70","test","","","","7","",""
"null","224384","pSARL_v2","pSARL_v2ynvbfqun","6400f74904684aced4782997","fixation","img/fixation.png","null","","test","","","","","",""
"122","224515","pSARL_v2","pSARL_v2ynvbfqun","6400f74904684aced4782997","infreq","img/orange_2bandit_a2.png","68","68","test","1","149","149","7","",""
"null","225219","pSARL_v2","pSARL_v2ynvbfqun","6400f74904684aced4782997","infreq_resp","img/orange_2bandit_a.png","68","68","test","","","","7","",""
"null","225393","pSARL_v2","pSARL_v2ynvbfqun","6400f74904684aced4782997","fixation","img/fixation.png","null","","test","","","","","",""
"311","225710","pSARL_v2","pSARL_v2ynvbfqun","6400f74904684aced4782997","infreq","img/orange_2bandit_a2.png","70","68","test","0","150","150","7","",""
"null","226240","pSARL_v2","pSARL_v2ynvbfqun","6400f74904684aced4782997","infreq_resp","img/orange_2bandit_a.png","70","68","test","","","","7","",""
"null","226412","pSARL_v2","pSARL_v2ynvbfqun","6400f74904684aced4782997","fixation","img/fixation.png","null","","test","","","","","",""
"399","226822","pSARL_v2","pSARL_v2ynvbfqun","6400f74904684aced4782997","freq","img/green_2bandit_a2.png","68","70","test","0","151","151","7","",""
"null","227239","pSARL_v2","pSARL_v2ynvbfqun","6400f74904684aced4782997","freq_resp","img/green_2bandit_a.png","68","70","test","","","","7","",""
"null","227414","pSARL_v2","pSARL_v2ynvbfqun","6400f74904684aced4782997","fixation","img/fixation.png","null","","test","","","","","",""
"219","227644","pSARL_v2","pSARL_v2ynvbfqun","6400f74904684aced4782997","freq","img/green_2bandit_a2.png","68","70","test","0","152","152","7","",""
"null","228257","pSARL_v2","pSARL_v2ynvbfqun","6400f74904684aced4782997","freq_resp","img/green_2bandit_a.png","68","70","test","","","","7","",""
"null","228414","pSARL_v2","pSARL_v2ynvbfqun","6400f74904684aced4782997","fixation","img/fixation.png","null","","test","","","","","",""
"125","228550","pSARL_v2","pSARL_v2ynvbfqun","6400f74904684aced4782997","freq","img/green_2bandit_a2.png","68","70","test","0","153","153","7","",""
"null","229234","pSARL_v2","pSARL_v2ynvbfqun","6400f74904684aced4782997","freq_resp","img/green_2bandit_a.png","68","70","test","","","","7","",""
"null","229395","pSARL_v2","pSARL_v2ynvbfqun","6400f74904684aced4782997","fixation","img/fixation.png","null","","test","","","","","",""
"215","229615","pSARL_v2","pSARL_v2ynvbfqun","6400f74904684aced4782997","freq","img/green_2bandit_a2.png","68","70","test","0","154","154","7","",""
"null","230293","pSARL_v2","pSARL_v2ynvbfqun","6400f74904684aced4782997","freq_resp","img/green_2bandit_a.png","68","70","test","","","","7","",""
"null","230464","pSARL_v2","pSARL_v2ynvbfqun","6400f74904684aced4782997","fixation","img/fixation.png","null","","test","","","","","",""
"106","230581","pSARL_v2","pSARL_v2ynvbfqun","6400f74904684aced4782997","freq","img/green_2bandit_a2.png","68","70","test","0","155","155","7","",""
"null","231289","pSARL_v2","pSARL_v2ynvbfqun","6400f74904684aced4782997","freq_resp","img/green_2bandit_a.png","68","70","test","","","","7","",""
"null","231462","pSARL_v2","pSARL_v2ynvbfqun","6400f74904684aced4782997","fixation","img/fixation.png","null","","test","","","","","",""
"156","231630","pSARL_v2","pSARL_v2ynvbfqun","6400f74904684aced4782997","freq","img/green_2bandit_a2.png","68","70","test","0","156","156","7","",""
"null","232319","pSARL_v2","pSARL_v2ynvbfqun","6400f74904684aced4782997","freq_resp","img/green_2bandit_a.png","68","70","test","","","","7","",""
"null","232481","pSARL_v2","pSARL_v2ynvbfqun","6400f74904684aced4782997","fixation","img/fixation.png","null","","test","","","","","",""
"162","232653","pSARL_v2","pSARL_v2ynvbfqun","6400f74904684aced4782997","freq","img/green_2bandit_a2.png","68","70","test","0","157","157","7","",""
"null","233308","pSARL_v2","pSARL_v2ynvbfqun","6400f74904684aced4782997","freq_resp","img/green_2bandit_a.png","68","70","test","","","","7","",""
"null","233468","pSARL_v2","pSARL_v2ynvbfqun","6400f74904684aced4782997","fixation","img/fixation.png","null","","test","","","","","",""
"435","233910","pSARL_v2","pSARL_v2ynvbfqun","6400f74904684aced4782997","reward","img/slot.png","74","","test","","","","","",""
"null","234674","pSARL_v2","pSARL_v2ynvbfqun","6400f74904684aced4782997","points","<div class=""verylowPoints""> -6 </div>","null","na","test","","","","7","-6","6"
"352","235037","pSARL_v2","pSARL_v2ynvbfqun","6400f74904684aced4782997","freq","img/green_2bandit_a2.png","68","70","test","0","158","158","8","",""
"null","235503","pSARL_v2","pSARL_v2ynvbfqun","6400f74904684aced4782997","freq_resp","img/green_2bandit_a.png","68","70","test","","","","8","",""
"null","235672","pSARL_v2","pSARL_v2ynvbfqun","6400f74904684aced4782997","fixation","img/fixation.png","null","","test","","","","","",""
"105","235783","pSARL_v2","pSARL_v2ynvbfqun","6400f74904684aced4782997","freq","img/green_2bandit_a2.png","68","70","test","0","159","159","8","",""
"null","236487","pSARL_v2","pSARL_v2ynvbfqun","6400f74904684aced4782997","freq_resp","img/green_2bandit_a.png","68","70","test","","","","8","",""
"null","236649","pSARL_v2","pSARL_v2ynvbfqun","6400f74904684aced4782997","fixation","img/fixation.png","null","","test","","","","","",""
"768","237429","pSARL_v2","pSARL_v2ynvbfqun","6400f74904684aced4782997","freq","img/green_2bandit_a2.png","68","70","test","0","160","160","8","",""
"null","237476","pSARL_v2","pSARL_v2ynvbfqun","6400f74904684aced4782997","freq_resp","img/green_2bandit_a.png","68","70","test","","","","8","",""
"null","237631","pSARL_v2","pSARL_v2ynvbfqun","6400f74904684aced4782997","fixation","img/fixation.png","null","","test","","","","","",""
"390","238026","pSARL_v2","pSARL_v2ynvbfqun","6400f74904684aced4782997","freq","img/green_2bandit_a2.png","68","70","test","0","161","161","8","",""
"null","238447","pSARL_v2","pSARL_v2ynvbfqun","6400f74904684aced4782997","freq_resp","img/green_2bandit_a.png","68","70","test","","","","8","",""
"null","238623","pSARL_v2","pSARL_v2ynvbfqun","6400f74904684aced4782997","fixation","img/fixation.png","null","","test","","","","","",""
"258","238892","pSARL_v2","pSARL_v2ynvbfqun","6400f74904684aced4782997","infreq","img/orange_2bandit_a2.png","68","68","test","1","162","162","8","",""
"null","239455","pSARL_v2","pSARL_v2ynvbfqun","6400f74904684aced4782997","infreq_resp","img/orange_2bandit_a.png","68","68","test","","","","8","",""
"null","239627","pSARL_v2","pSARL_v2ynvbfqun","6400f74904684aced4782997","fixation","img/fixation.png","null","","test","","","","","",""
"279","239917","pSARL_v2","pSARL_v2ynvbfqun","6400f74904684aced4782997","freq","img/green_2bandit_a2.png","68","70","test","0","163","163","8","",""
"null","240450","pSARL_v2","pSARL_v2ynvbfqun","6400f74904684aced4782997","freq_resp","img/green_2bandit_a.png","68","70","test","","","","8","",""
"null","240627","pSARL_v2","pSARL_v2ynvbfqun","6400f74904684aced4782997","fixation","img/fixation.png","null","","test","","","","","",""
"455","241089","pSARL_v2","pSARL_v2ynvbfqun","6400f74904684aced4782997","freq","img/green_2bandit_a2.png","68","70","test","0","164","164","8","",""
"null","241448","pSARL_v2","pSARL_v2ynvbfqun","6400f74904684aced4782997","freq_resp","img/green_2bandit_a.png","68","70","test","","","","8","",""
"null","241612","pSARL_v2","pSARL_v2ynvbfqun","6400f74904684aced4782997","fixation","img/fixation.png","null","","test","","","","","",""
"383","242004","pSARL_v2","pSARL_v2ynvbfqun","6400f74904684aced4782997","freq","img/green_2bandit_a2.png","68","70","test","0","165","165","8","",""
"null","242473","pSARL_v2","pSARL_v2ynvbfqun","6400f74904684aced4782997","freq_resp","img/green_2bandit_a.png","68","70","test","","","","8","",""
"null","242641","pSARL_v2","pSARL_v2ynvbfqun","6400f74904684aced4782997","fixation","img/fixation.png","null","","test","","","","","",""
"144","242796","pSARL_v2","pSARL_v2ynvbfqun","6400f74904684aced4782997","freq","img/green_2bandit_a2.png","68","70","test","0","166","166","8","",""
"null","243468","pSARL_v2","pSARL_v2ynvbfqun","6400f74904684aced4782997","freq_resp","img/green_2bandit_a.png","68","70","test","","","","8","",""
"null","243630","pSARL_v2","pSARL_v2ynvbfqun","6400f74904684aced4782997","fixation","img/fixation.png","null","","test","","","","","",""
"92","243733","pSARL_v2","pSARL_v2ynvbfqun","6400f74904684aced4782997","freq","img/green_2bandit_a2.png","68","70","test","0","167","167","8","",""
"null","244452","pSARL_v2","pSARL_v2ynvbfqun","6400f74904684aced4782997","freq_resp","img/green_2bandit_a.png","68","70","test","","","","8","",""
"null","244614","pSARL_v2","pSARL_v2ynvbfqun","6400f74904684aced4782997","fixation","img/fixation.png","null","","test","","","","","",""
"524","245146","pSARL_v2","pSARL_v2ynvbfqun","6400f74904684aced4782997","freq","img/green_2bandit_a2.png","68","70","test","0","168","168","8","",""
"null","245440","pSARL_v2","pSARL_v2ynvbfqun","6400f74904684aced4782997","freq_resp","img/green_2bandit_a.png","68","70","test","","","","8","",""
"null","245614","pSARL_v2","pSARL_v2ynvbfqun","6400f74904684aced4782997","fixation","img/fixation.png","null","","test","","","","","",""
"499","246121","pSARL_v2","pSARL_v2ynvbfqun","6400f74904684aced4782997","freq","img/green_2bandit_a2.png","68","70","test","0","169","169","8","",""
"null","246446","pSARL_v2","pSARL_v2ynvbfqun","6400f74904684aced4782997","freq_resp","img/green_2bandit_a.png","68","70","test","","","","8","",""
"null","246613","pSARL_v2","pSARL_v2ynvbfqun","6400f74904684aced4782997","fixation","img/fixation.png","null","","test","","","","","",""
"277","246898","pSARL_v2","pSARL_v2ynvbfqun","6400f74904684aced4782997","freq","img/green_2bandit_a2.png","68","70","test","0","170","170","8","",""
"null","247486","pSARL_v2","pSARL_v2ynvbfqun","6400f74904684aced4782997","freq_resp","img/green_2bandit_a.png","68","70","test","","","","8","",""
"null","247659","pSARL_v2","pSARL_v2ynvbfqun","6400f74904684aced4782997","fixation","img/fixation.png","null","","test","","","","","",""
"279","247949","pSARL_v2","pSARL_v2ynvbfqun","6400f74904684aced4782997","infreq","img/orange_2bandit_a2.png","68","68","test","1","171","171","8","",""
"null","248491","pSARL_v2","pSARL_v2ynvbfqun","6400f74904684aced4782997","infreq_resp","img/orange_2bandit_a.png","68","68","test","","","","8","",""
"null","248661","pSARL_v2","pSARL_v2ynvbfqun","6400f74904684aced4782997","fixation","img/fixation.png","null","","test","","","","","",""
"413","249083","pSARL_v2","pSARL_v2ynvbfqun","6400f74904684aced4782997","freq","img/green_2bandit_a2.png","68","70","test","0","172","172","8","",""
"null","249491","pSARL_v2","pSARL_v2ynvbfqun","6400f74904684aced4782997","freq_resp","img/green_2bandit_a.png","68","70","test","","","","8","",""
"null","249678","pSARL_v2","pSARL_v2ynvbfqun","6400f74904684aced4782997","fixation","img/fixation.png","null","","test","","","","","",""
"252","249942","pSARL_v2","pSARL_v2ynvbfqun","6400f74904684aced4782997","freq","img/green_2bandit_a2.png","68","70","test","0","173","173","8","",""
"null","250506","pSARL_v2","pSARL_v2ynvbfqun","6400f74904684aced4782997","freq_resp","img/green_2bandit_a.png","68","70","test","","","","8","",""
"null","250678","pSARL_v2","pSARL_v2ynvbfqun","6400f74904684aced4782997","fixation","img/fixation.png","null","","test","","","","","",""
"204","250895","pSARL_v2","pSARL_v2ynvbfqun","6400f74904684aced4782997","freq","img/green_2bandit_a2.png","68","70","test","0","174","174","8","",""
"null","251502","pSARL_v2","pSARL_v2ynvbfqun","6400f74904684aced4782997","freq_resp","img/green_2bandit_a.png","68","70","test","","","","8","",""
"null","251666","pSARL_v2","pSARL_v2ynvbfqun","6400f74904684aced4782997","fixation","img/fixation.png","null","","test","","","","","",""
"349","252022","pSARL_v2","pSARL_v2ynvbfqun","6400f74904684aced4782997","freq","img/green_2bandit_a2.png","68","70","test","0","175","175","8","",""
"null","252499","pSARL_v2","pSARL_v2ynvbfqun","6400f74904684aced4782997","freq_resp","img/green_2bandit_a.png","68","70","test","","","","8","",""
"null","252677","pSARL_v2","pSARL_v2ynvbfqun","6400f74904684aced4782997","fixation","img/fixation.png","null","","test","","","","","",""
"451","253136","pSARL_v2","pSARL_v2ynvbfqun","6400f74904684aced4782997","freq","img/green_2bandit_a2.png","68","70","test","0","176","176","8","",""
"null","253505","pSARL_v2","pSARL_v2ynvbfqun","6400f74904684aced4782997","freq_resp","img/green_2bandit_a.png","68","70","test","","","","8","",""
"null","253677","pSARL_v2","pSARL_v2ynvbfqun","6400f74904684aced4782997","fixation","img/fixation.png","null","","test","","","","","",""
"277","253965","pSARL_v2","pSARL_v2ynvbfqun","6400f74904684aced4782997","freq","img/green_2bandit_a2.png","68","70","test","0","177","177","8","",""
"null","254502","pSARL_v2","pSARL_v2ynvbfqun","6400f74904684aced4782997","freq_resp","img/green_2bandit_a.png","68","70","test","","","","8","",""
"null","254661","pSARL_v2","pSARL_v2ynvbfqun","6400f74904684aced4782997","fixation","img/fixation.png","null","","test","","","","","",""
"334","255005","pSARL_v2","pSARL_v2ynvbfqun","6400f74904684aced4782997","freq","img/green_2bandit_a2.png","68","70","test","0","178","178","8","",""
"null","255486","pSARL_v2","pSARL_v2ynvbfqun","6400f74904684aced4782997","freq_resp","img/green_2bandit_a.png","68","70","test","","","","8","",""
"null","255647","pSARL_v2","pSARL_v2ynvbfqun","6400f74904684aced4782997","fixation","img/fixation.png","null","","test","","","","","",""
"328","255981","pSARL_v2","pSARL_v2ynvbfqun","6400f74904684aced4782997","freq","img/green_2bandit_a2.png","68","70","test","0","179","179","8","",""
"null","256475","pSARL_v2","pSARL_v2ynvbfqun","6400f74904684aced4782997","freq_resp","img/green_2bandit_a.png","68","70","test","","","","8","",""
"null","256641","pSARL_v2","pSARL_v2ynvbfqun","6400f74904684aced4782997","fixation","img/fixation.png","null","","test","","","","","",""
"241","256892","pSARL_v2","pSARL_v2ynvbfqun","6400f74904684aced4782997","freq","img/green_2bandit_a2.png","68","70","test","0","180","180","8","",""
"null","257519","pSARL_v2","pSARL_v2ynvbfqun","6400f74904684aced4782997","freq_resp","img/green_2bandit_a.png","68","70","test","","","","8","",""
"null","257694","pSARL_v2","pSARL_v2ynvbfqun","6400f74904684aced4782997","fixation","img/fixation.png","null","","test","","","","","",""
"196","257899","pSARL_v2","pSARL_v2ynvbfqun","6400f74904684aced4782997","freq","img/green_2bandit_a2.png","68","70","test","0","181","181","8","",""
"null","258527","pSARL_v2","pSARL_v2ynvbfqun","6400f74904684aced4782997","freq_resp","img/green_2bandit_a.png","68","70","test","","","","8","",""
"null","258700","pSARL_v2","pSARL_v2ynvbfqun","6400f74904684aced4782997","fixation","img/fixation.png","null","","test","","","","","",""
"383","259090","pSARL_v2","pSARL_v2ynvbfqun","6400f74904684aced4782997","freq","img/green_2bandit_a2.png","68","70","test","0","182","182","8","",""
"null","259529","pSARL_v2","pSARL_v2ynvbfqun","6400f74904684aced4782997","freq_resp","img/green_2bandit_a.png","68","70","test","","","","8","",""
"null","259689","pSARL_v2","pSARL_v2ynvbfqun","6400f74904684aced4782997","fixation","img/fixation.png","null","","test","","","","","",""
"328","260021","pSARL_v2","pSARL_v2ynvbfqun","6400f74904684aced4782997","freq","img/green_2bandit_a2.png","68","70","test","0","183","183","8","",""
"null","260542","pSARL_v2","pSARL_v2ynvbfqun","6400f74904684aced4782997","freq_resp","img/green_2bandit_a.png","68","70","test","","","","8","",""
"null","260706","pSARL_v2","pSARL_v2ynvbfqun","6400f74904684aced4782997","fixation","img/fixation.png","null","","test","","","","","",""
"767","261482","pSARL_v2","pSARL_v2ynvbfqun","6400f74904684aced4782997","reward","img/slot.png","74","","test","","","","","",""
"null","262257","pSARL_v2","pSARL_v2ynvbfqun","6400f74904684aced4782997","points","<div class=""verylowPoints""> -4 </div>","null","na","test","","","","8","-4","7"
"216","262477","pSARL_v2","pSARL_v2ynvbfqun","6400f74904684aced4782997","freq","img/green_2bandit_a2.png","68","70","test","0","184","184","9","",""
"null","263074","pSARL_v2","pSARL_v2ynvbfqun","6400f74904684aced4782997","freq_resp","img/green_2bandit_a.png","68","70","test","","","","9","",""
"null","263243","pSARL_v2","pSARL_v2ynvbfqun","6400f74904684aced4782997","fixation","img/fixation.png","null","","test","","","","","",""
"80","263332","pSARL_v2","pSARL_v2ynvbfqun","6400f74904684aced4782997","freq","img/green_2bandit_a2.png","68","70","test","0","185","185","9","",""
"null","264069","pSARL_v2","pSARL_v2ynvbfqun","6400f74904684aced4782997","freq_resp","img/green_2bandit_a.png","68","70","test","","","","9","",""
"null","264225","pSARL_v2","pSARL_v2ynvbfqun","6400f74904684aced4782997","fixation","img/fixation.png","null","","test","","","","","",""
"473","264707","pSARL_v2","pSARL_v2ynvbfqun","6400f74904684aced4782997","freq","img/green_2bandit_a2.png","68","70","test","0","186","186","9","",""
"null","265052","pSARL_v2","pSARL_v2ynvbfqun","6400f74904684aced4782997","freq_resp","img/green_2bandit_a.png","68","70","test","","","","9","",""
"null","265222","pSARL_v2","pSARL_v2ynvbfqun","6400f74904684aced4782997","fixation","img/fixation.png","null","","test","","","","","",""
"244","265473","pSARL_v2","pSARL_v2ynvbfqun","6400f74904684aced4782997","freq","img/green_2bandit_a2.png","68","70","test","0","187","187","9","",""
"null","266049","pSARL_v2","pSARL_v2ynvbfqun","6400f74904684aced4782997","freq_resp","img/green_2bandit_a.png","68","70","test","","","","9","",""
"null","266224","pSARL_v2","pSARL_v2ynvbfqun","6400f74904684aced4782997","fixation","img/fixation.png","null","","test","","","","","",""
"49","266277","pSARL_v2","pSARL_v2ynvbfqun","6400f74904684aced4782997","infreq","img/orange_2bandit_a2.png","68","68","test","1","188","188","9","",""
"null","267050","pSARL_v2","pSARL_v2ynvbfqun","6400f74904684aced4782997","infreq_resp","img/orange_2bandit_a.png","68","68","test","","","","9","",""
"null","267208","pSARL_v2","pSARL_v2ynvbfqun","6400f74904684aced4782997","fixation","img/fixation.png","null","","test","","","","","",""
"456","267672","pSARL_v2","pSARL_v2ynvbfqun","6400f74904684aced4782997","freq","img/green_2bandit_a2.png","68","70","test","0","189","189","9","",""
"null","268025","pSARL_v2","pSARL_v2ynvbfqun","6400f74904684aced4782997","freq_resp","img/green_2bandit_a.png","68","70","test","","","","9","",""
"null","268181","pSARL_v2","pSARL_v2ynvbfqun","6400f74904684aced4782997","fixation","img/fixation.png","null","","test","","","","","",""
"398","268585","pSARL_v2","pSARL_v2ynvbfqun","6400f74904684aced4782997","infreq","img/orange_2bandit_a2.png","70","68","test","0","190","190","9","",""
"null","269004","pSARL_v2","pSARL_v2ynvbfqun","6400f74904684aced4782997","infreq_resp","img/orange_2bandit_a.png","70","68","test","","","","9","",""
"null","269176","pSARL_v2","pSARL_v2ynvbfqun","6400f74904684aced4782997","fixation","img/fixation.png","null","","test","","","","","",""
"385","269567","pSARL_v2","pSARL_v2ynvbfqun","6400f74904684aced4782997","freq","img/green_2bandit_a2.png","68","70","test","0","191","191","9","",""
"null","269995","pSARL_v2","pSARL_v2ynvbfqun","6400f74904684aced4782997","freq_resp","img/green_2bandit_a.png","68","70","test","","","","9","",""
"null","270171","pSARL_v2","pSARL_v2ynvbfqun","6400f74904684aced4782997","fixation","img/fixation.png","null","","test","","","","","",""
"422","270597","pSARL_v2","pSARL_v2ynvbfqun","6400f74904684aced4782997","freq","img/green_2bandit_a2.png","68","70","test","0","192","192","9","",""
"null","270982","pSARL_v2","pSARL_v2ynvbfqun","6400f74904684aced4782997","freq_resp","img/green_2bandit_a.png","68","70","test","","","","9","",""
"null","271143","pSARL_v2","pSARL_v2ynvbfqun","6400f74904684aced4782997","fixation","img/fixation.png","null","","test","","","","","",""
"234","271390","pSARL_v2","pSARL_v2ynvbfqun","6400f74904684aced4782997","freq","img/green_2bandit_a2.png","68","70","test","0","193","193","9","",""
"null","271977","pSARL_v2","pSARL_v2ynvbfqun","6400f74904684aced4782997","freq_resp","img/green_2bandit_a.png","68","70","test","","","","9","",""
"null","272151","pSARL_v2","pSARL_v2ynvbfqun","6400f74904684aced4782997","fixation","img/fixation.png","null","","test","","","","","",""
"291","272449","pSARL_v2","pSARL_v2ynvbfqun","6400f74904684aced4782997","freq","img/green_2bandit_a2.png","68","70","test","0","194","194","9","",""
"null","273029","pSARL_v2","pSARL_v2ynvbfqun","6400f74904684aced4782997","freq_resp","img/green_2bandit_a.png","68","70","test","","","","9","",""
"null","273190","pSARL_v2","pSARL_v2ynvbfqun","6400f74904684aced4782997","fixation","img/fixation.png","null","","test","","","","","",""
"204","273405","pSARL_v2","pSARL_v2ynvbfqun","6400f74904684aced4782997","freq","img/green_2bandit_a2.png","68","70","test","0","195","195","9","",""
"null","274016","pSARL_v2","pSARL_v2ynvbfqun","6400f74904684aced4782997","freq_resp","img/green_2bandit_a.png","68","70","test","","","","9","",""
"null","274191","pSARL_v2","pSARL_v2ynvbfqun","6400f74904684aced4782997","fixation","img/fixation.png","null","","test","","","","","",""
"115","274316","pSARL_v2","pSARL_v2ynvbfqun","6400f74904684aced4782997","freq","img/green_2bandit_a2.png","68","70","test","0","196","196","9","",""
"null","275015","pSARL_v2","pSARL_v2ynvbfqun","6400f74904684aced4782997","freq_resp","img/green_2bandit_a.png","68","70","test","","","","9","",""
"null","275179","pSARL_v2","pSARL_v2ynvbfqun","6400f74904684aced4782997","fixation","img/fixation.png","null","","test","","","","","",""
"86","275270","pSARL_v2","pSARL_v2ynvbfqun","6400f74904684aced4782997","freq","img/green_2bandit_a2.png","68","70","test","0","197","197","9","",""
"null","275992","pSARL_v2","pSARL_v2ynvbfqun","6400f74904684aced4782997","freq_resp","img/green_2bandit_a.png","68","70","test","","","","9","",""
"null","276166","pSARL_v2","pSARL_v2ynvbfqun","6400f74904684aced4782997","fixation","img/fixation.png","null","","test","","","","","",""
"68","276245","pSARL_v2","pSARL_v2ynvbfqun","6400f74904684aced4782997","freq","img/green_2bandit_a2.png","68","70","test","0","198","198","9","",""
"null","276994","pSARL_v2","pSARL_v2ynvbfqun","6400f74904684aced4782997","freq_resp","img/green_2bandit_a.png","68","70","test","","","","9","",""
"null","277155","pSARL_v2","pSARL_v2ynvbfqun","6400f74904684aced4782997","fixation","img/fixation.png","null","","test","","","","","",""
"15","277174","pSARL_v2","pSARL_v2ynvbfqun","6400f74904684aced4782997","freq","img/green_2bandit_a2.png","68","70","test","0","199","199","9","",""
"null","278053","pSARL_v2","pSARL_v2ynvbfqun","6400f74904684aced4782997","freq_resp","img/green_2bandit_a.png","68","70","test","","","","9","",""
"null","278226","pSARL_v2","pSARL_v2ynvbfqun","6400f74904684aced4782997","fixation","img/fixation.png","null","","test","","","","","",""
"422","278653","pSARL_v2","pSARL_v2ynvbfqun","6400f74904684aced4782997","freq","img/green_2bandit_a2.png","68","70","test","0","200","200","9","",""
"null","279042","pSARL_v2","pSARL_v2ynvbfqun","6400f74904684aced4782997","freq_resp","img/green_2bandit_a.png","68","70","test","","","","9","",""
"null","279200","pSARL_v2","pSARL_v2ynvbfqun","6400f74904684aced4782997","fixation","img/fixation.png","null","","test","","","","","",""
"264","279469","pSARL_v2","pSARL_v2ynvbfqun","6400f74904684aced4782997","freq","img/green_2bandit_a2.png","68","70","test","0","201","201","9","",""
"null","280063","pSARL_v2","pSARL_v2ynvbfqun","6400f74904684aced4782997","freq_resp","img/green_2bandit_a.png","68","70","test","","","","9","",""
"null","280225","pSARL_v2","pSARL_v2ynvbfqun","6400f74904684aced4782997","fixation","img/fixation.png","null","","test","","","","","",""
"71","280309","pSARL_v2","pSARL_v2ynvbfqun","6400f74904684aced4782997","freq","img/green_2bandit_a2.png","68","70","test","0","202","202","9","",""
"null","281051","pSARL_v2","pSARL_v2ynvbfqun","6400f74904684aced4782997","freq_resp","img/green_2bandit_a.png","68","70","test","","","","9","",""
"null","281223","pSARL_v2","pSARL_v2ynvbfqun","6400f74904684aced4782997","fixation","img/fixation.png","null","","test","","","","","",""
"114","281350","pSARL_v2","pSARL_v2ynvbfqun","6400f74904684aced4782997","freq","img/green_2bandit_a2.png","68","70","test","0","203","203","9","",""
"null","282083","pSARL_v2","pSARL_v2ynvbfqun","6400f74904684aced4782997","freq_resp","img/green_2bandit_a.png","68","70","test","","","","9","",""
"null","282249","pSARL_v2","pSARL_v2ynvbfqun","6400f74904684aced4782997","fixation","img/fixation.png","null","","test","","","","","",""
"99","282357","pSARL_v2","pSARL_v2ynvbfqun","6400f74904684aced4782997","infreq","img/orange_2bandit_a2.png","68","68","test","1","204","204","9","",""
"null","283075","pSARL_v2","pSARL_v2ynvbfqun","6400f74904684aced4782997","infreq_resp","img/orange_2bandit_a.png","68","68","test","","","","9","",""
"null","283240","pSARL_v2","pSARL_v2ynvbfqun","6400f74904684aced4782997","fixation","img/fixation.png","null","","test","","","","","",""
"411","283656","pSARL_v2","pSARL_v2ynvbfqun","6400f74904684aced4782997","freq","img/green_2bandit_a2.png","68","70","test","0","205","205","9","",""
"null","284053","pSARL_v2","pSARL_v2ynvbfqun","6400f74904684aced4782997","freq_resp","img/green_2bandit_a.png","68","70","test","","","","9","",""
"null","284212","pSARL_v2","pSARL_v2ynvbfqun","6400f74904684aced4782997","fixation","img/fixation.png","null","","test","","","","","",""
"302","284523","pSARL_v2","pSARL_v2ynvbfqun","6400f74904684aced4782997","freq","img/green_2bandit_a2.png","68","70","test","0","206","206","9","",""
"null","285041","pSARL_v2","pSARL_v2ynvbfqun","6400f74904684aced4782997","freq_resp","img/green_2bandit_a.png","68","70","test","","","","9","",""
"null","285215","pSARL_v2","pSARL_v2ynvbfqun","6400f74904684aced4782997","fixation","img/fixation.png","null","","test","","","","","",""
"867","286095","pSARL_v2","pSARL_v2ynvbfqun","6400f74904684aced4782997","reward","img/slot.png","74","","test","","","","","",""
"null","286856","pSARL_v2","pSARL_v2ynvbfqun","6400f74904684aced4782997","points","<div class=""verylowPoints""> -3 </div>","null","na","test","","","","9","-3","8"
"364","287229","pSARL_v2","pSARL_v2ynvbfqun","6400f74904684aced4782997","freq","img/green_2bandit_a2.png","68","70","test","0","207","207","10","",""
"null","287673","pSARL_v2","pSARL_v2ynvbfqun","6400f74904684aced4782997","freq_resp","img/green_2bandit_a.png","68","70","test","","","","10","",""
"null","287848","pSARL_v2","pSARL_v2ynvbfqun","6400f74904684aced4782997","fixation","img/fixation.png","null","","test","","","","","",""
"258","288116","pSARL_v2","pSARL_v2ynvbfqun","6400f74904684aced4782997","freq","img/green_2bandit_a2.png","68","70","test","0","208","208","10","",""
"null","288681","pSARL_v2","pSARL_v2ynvbfqun","6400f74904684aced4782997","freq_resp","img/green_2bandit_a.png","68","70","test","","","","10","",""
"null","288856","pSARL_v2","pSARL_v2ynvbfqun","6400f74904684aced4782997","fixation","img/fixation.png","null","","test","","","","","",""
"194","289060","pSARL_v2","pSARL_v2ynvbfqun","6400f74904684aced4782997","freq","img/green_2bandit_a2.png","68","70","test","0","209","209","10","",""
"null","289687","pSARL_v2","pSARL_v2ynvbfqun","6400f74904684aced4782997","freq_resp","img/green_2bandit_a.png","68","70","test","","","","10","",""
"null","289848","pSARL_v2","pSARL_v2ynvbfqun","6400f74904684aced4782997","fixation","img/fixation.png","null","","test","","","","","",""
"129","289989","pSARL_v2","pSARL_v2ynvbfqun","6400f74904684aced4782997","freq","img/green_2bandit_a2.png","68","70","test","0","210","210","10","",""
"null","290690","pSARL_v2","pSARL_v2ynvbfqun","6400f74904684aced4782997","freq_resp","img/green_2bandit_a.png","68","70","test","","","","10","",""
"null","290850","pSARL_v2","pSARL_v2ynvbfqun","6400f74904684aced4782997","fixation","img/fixation.png","null","","test","","","","","",""
"96","290954","pSARL_v2","pSARL_v2ynvbfqun","6400f74904684aced4782997","freq","img/green_2bandit_a2.png","68","70","test","0","211","211","10","",""
"null","291680","pSARL_v2","pSARL_v2ynvbfqun","6400f74904684aced4782997","freq_resp","img/green_2bandit_a.png","68","70","test","","","","10","",""
"null","291840","pSARL_v2","pSARL_v2ynvbfqun","6400f74904684aced4782997","fixation","img/fixation.png","null","","test","","","","","",""
"121","291973","pSARL_v2","pSARL_v2ynvbfqun","6400f74904684aced4782997","freq","img/green_2bandit_a2.png","68","70","test","0","212","212","10","",""
