"rt","time_elapsed","expId","subject","prolificID","trialType","stimulus","key_press","corrresp","phase","corr","trialNum","attentionRunNum","blockNum","points","rlNum"
"7902","7930","pSARL_v2","pSARL_v2j1gjo2cx","577d11f88b3e2300016d74a0","","","","","","","","","","",""
"","11000","pSARL_v2","pSARL_v2j1gjo2cx","577d11f88b3e2300016d74a0","fullscreen","","","","","","","","","",""
"89507.30000001192","100519","pSARL_v2","pSARL_v2j1gjo2cx","577d11f88b3e2300016d74a0","","","","","","","","","","",""
"null","101335","pSARL_v2","pSARL_v2j1gjo2cx","577d11f88b3e2300016d74a0","freqPrac","img/green_2bandit_a2.png","null","70","prac","0","","","","",""
"null","102347","pSARL_v2","pSARL_v2j1gjo2cx","577d11f88b3e2300016d74a0","feedback","img/tooSlow.png","null","na","prac","","","","","",""
"null","102509","pSARL_v2","pSARL_v2j1gjo2cx","577d11f88b3e2300016d74a0","fixation","img/fixation.png","null","","prac","","","","","",""
"587.5999999940395","103108","pSARL_v2","pSARL_v2j1gjo2cx","577d11f88b3e2300016d74a0","infreqPrac","img/orange_2bandit_a2.png","68","68","prac","1","","","","",""
"587.5999999940395","103333","pSARL_v2","pSARL_v2j1gjo2cx","577d11f88b3e2300016d74a0","infreqPrac_resp","img/orange_2bandit_a.png","68","68","prac","","","","","",""
"null","103496","pSARL_v2","pSARL_v2j1gjo2cx","577d11f88b3e2300016d74a0","fixation","img/fixation.png","null","","prac","","","","","",""
"441.80000001192093","103946","pSARL_v2","pSARL_v2j1gjo2cx","577d11f88b3e2300016d74a0","freqPrac","img/green_2bandit_a2.png","70","70","prac","1","","","","",""
"441.80000001192093","104321","pSARL_v2","pSARL_v2j1gjo2cx","577d11f88b3e2300016d74a0","freqPrac_resp","img/green_2bandit_a.png","70","70","prac","","","","","",""
"null","104487","pSARL_v2","pSARL_v2j1gjo2cx","577d11f88b3e2300016d74a0","fixation","img/fixation.png","null","","prac","","","","","",""
"302.7000000178814","104800","pSARL_v2","pSARL_v2j1gjo2cx","577d11f88b3e2300016d74a0","infreqPrac","img/orange_2bandit_a2.png","70","68","prac","0","","","","",""
"302.7000000178814","105309","pSARL_v2","pSARL_v2j1gjo2cx","577d11f88b3e2300016d74a0","infreqPrac_resp","img/orange_2bandit_a.png","70","68","prac","","","","","",""
"null","106316","pSARL_v2","pSARL_v2j1gjo2cx","577d11f88b3e2300016d74a0","feedback","img/wrongKey.png","null","na","prac","","","","","",""
"null","106479","pSARL_v2","pSARL_v2j1gjo2cx","577d11f88b3e2300016d74a0","fixation","img/fixation.png","null","","prac","","","","","",""
"728.0999999940395","107216","pSARL_v2","pSARL_v2j1gjo2cx","577d11f88b3e2300016d74a0","infreqPrac","img/orange_2bandit_a2.png","68","68","prac","1","","","","",""
"728.0999999940395","107301","pSARL_v2","pSARL_v2j1gjo2cx","577d11f88b3e2300016d74a0","infreqPrac_resp","img/orange_2bandit_a.png","68","68","prac","","","","","",""
"null","107462","pSARL_v2","pSARL_v2j1gjo2cx","577d11f88b3e2300016d74a0","fixation","img/fixation.png","null","","prac","","","","","",""
"581.7999999821186","108056","pSARL_v2","pSARL_v2j1gjo2cx","577d11f88b3e2300016d74a0","infreqPrac","img/orange_2bandit_a2.png","68","68","prac","1","","","","",""
"581.7999999821186","108287","pSARL_v2","pSARL_v2j1gjo2cx","577d11f88b3e2300016d74a0","infreqPrac_resp","img/orange_2bandit_a.png","68","68","prac","","","","","",""
"null","108455","pSARL_v2","pSARL_v2j1gjo2cx","577d11f88b3e2300016d74a0","fixation","img/fixation.png","null","","prac","","","","","",""
"513.5999999940395","108981","pSARL_v2","pSARL_v2j1gjo2cx","577d11f88b3e2300016d74a0","freqPrac","img/green_2bandit_a2.png","70","70","prac","1","","","","",""
"513.5999999940395","109278","pSARL_v2","pSARL_v2j1gjo2cx","577d11f88b3e2300016d74a0","freqPrac_resp","img/green_2bandit_a.png","70","70","prac","","","","","",""
"null","109446","pSARL_v2","pSARL_v2j1gjo2cx","577d11f88b3e2300016d74a0","fixation","img/fixation.png","null","","prac","","","","","",""
"394.59999999403954","109849","pSARL_v2","pSARL_v2j1gjo2cx","577d11f88b3e2300016d74a0","infreqPrac","img/orange_2bandit_a2.png","70","68","prac","0","","","","",""
"394.59999999403954","110270","pSARL_v2","pSARL_v2j1gjo2cx","577d11f88b3e2300016d74a0","infreqPrac_resp","img/orange_2bandit_a.png","70","68","prac","","","","","",""
"null","111286","pSARL_v2","pSARL_v2j1gjo2cx","577d11f88b3e2300016d74a0","feedback","img/wrongKey.png","null","na","prac","","","","","",""
"null","111445","pSARL_v2","pSARL_v2j1gjo2cx","577d11f88b3e2300016d74a0","fixation","img/fixation.png","null","","prac","","","","","",""
"747.9000000059605","112205","pSARL_v2","pSARL_v2j1gjo2cx","577d11f88b3e2300016d74a0","freqPrac","img/green_2bandit_a2.png","70","70","prac","1","","","","",""
"747.9000000059605","112269","pSARL_v2","pSARL_v2j1gjo2cx","577d11f88b3e2300016d74a0","freqPrac_resp","img/green_2bandit_a.png","70","70","prac","","","","","",""
"null","112429","pSARL_v2","pSARL_v2j1gjo2cx","577d11f88b3e2300016d74a0","fixation","img/fixation.png","null","","prac","","","","","",""
"406","112842","pSARL_v2","pSARL_v2j1gjo2cx","577d11f88b3e2300016d74a0","freqPrac","img/green_2bandit_a2.png","70","70","prac","1","","","","",""
"406","113247","pSARL_v2","pSARL_v2j1gjo2cx","577d11f88b3e2300016d74a0","freqPrac_resp","img/green_2bandit_a.png","70","70","prac","","","","","",""
"null","113417","pSARL_v2","pSARL_v2j1gjo2cx","577d11f88b3e2300016d74a0","fixation","img/fixation.png","null","","prac","","","","","",""
"25743.79999998212","139170","pSARL_v2","pSARL_v2j1gjo2cx","577d11f88b3e2300016d74a0","","","","","prac","","","","","",""
"1335","140512","pSARL_v2","pSARL_v2j1gjo2cx","577d11f88b3e2300016d74a0","rewardPractice","img/slot.png","74","","prac","","","","","",""
"null","141276","pSARL_v2","pSARL_v2j1gjo2cx","577d11f88b3e2300016d74a0","feedback","<div class=""veryhighPoints""> +15 </div>","null","na","prac","","","","","",""
"null","141440","pSARL_v2","pSARL_v2j1gjo2cx","577d11f88b3e2300016d74a0","fixation","img/fixation.png","null","","prac","","","","","",""
"24044.79999998212","165490","pSARL_v2","pSARL_v2j1gjo2cx","577d11f88b3e2300016d74a0","","","","","prac","","","","","",""
"668.4000000059605","166167","pSARL_v2","pSARL_v2j1gjo2cx","577d11f88b3e2300016d74a0","freq","img/green_2bandit_a2.png","70","70","test","1","1","1","1","",""
"null","166307","pSARL_v2","pSARL_v2j1gjo2cx","577d11f88b3e2300016d74a0","freq_resp","img/green_2bandit_a.png","70","70","test","","","","1","",""
"null","166469","pSARL_v2","pSARL_v2j1gjo2cx","577d11f88b3e2300016d74a0","fixation","img/fixation.png","null","","test","","","","","",""
"394.7000000178814","166873","pSARL_v2","pSARL_v2j1gjo2cx","577d11f88b3e2300016d74a0","freq","img/green_2bandit_a2.png","70","70","test","1","2","2","1","",""
"null","167295","pSARL_v2","pSARL_v2j1gjo2cx","577d11f88b3e2300016d74a0","freq_resp","img/green_2bandit_a.png","70","70","test","","","","1","",""
"null","167461","pSARL_v2","pSARL_v2j1gjo2cx","577d11f88b3e2300016d74a0","fixation","img/fixation.png","null","","test","","","","","",""
"437.09999999403954","167907","pSARL_v2","pSARL_v2j1gjo2cx","577d11f88b3e2300016d74a0","freq","img/green_2bandit_a2.png","70","70","test","1","3","3","1","",""
"null","168279","pSARL_v2","pSARL_v2j1gjo2cx","577d11f88b3e2300016d74a0","freq_resp","img/green_2bandit_a.png","70","70","test","","","","1","",""
"null","168447","pSARL_v2","pSARL_v2j1gjo2cx","577d11f88b3e2300016d74a0","fixation","img/fixation.png","null","","test","","","","","",""
"583.0999999940395","169040","pSARL_v2","pSARL_v2j1gjo2cx","577d11f88b3e2300016d74a0","freq","img/green_2bandit_a2.png","70","70","test","1","4","4","1","",""
"null","169269","pSARL_v2","pSARL_v2j1gjo2cx","577d11f88b3e2300016d74a0","freq_resp","img/green_2bandit_a.png","70","70","test","","","","1","",""
"null","169429","pSARL_v2","pSARL_v2j1gjo2cx","577d11f88b3e2300016d74a0","fixation","img/fixation.png","null","","test","","","","","",""
"376.5","169813","pSARL_v2","pSARL_v2j1gjo2cx","577d11f88b3e2300016d74a0","freq","img/green_2bandit_a2.png","70","70","test","1","5","5","1","",""
"null","170246","pSARL_v2","pSARL_v2j1gjo2cx","577d11f88b3e2300016d74a0","freq_resp","img/green_2bandit_a.png","70","70","test","","","","1","",""
"null","170405","pSARL_v2","pSARL_v2j1gjo2cx","577d11f88b3e2300016d74a0","fixation","img/fixation.png","null","","test","","","","","",""
"389.5","170804","pSARL_v2","pSARL_v2j1gjo2cx","577d11f88b3e2300016d74a0","freq","img/green_2bandit_a2.png","70","70","test","1","6","6","1","",""
"null","171227","pSARL_v2","pSARL_v2j1gjo2cx","577d11f88b3e2300016d74a0","freq_resp","img/green_2bandit_a.png","70","70","test","","","","1","",""
"null","171391","pSARL_v2","pSARL_v2j1gjo2cx","577d11f88b3e2300016d74a0","fixation","img/fixation.png","null","","test","","","","","",""
"339","171739","pSARL_v2","pSARL_v2j1gjo2cx","577d11f88b3e2300016d74a0","freq","img/green_2bandit_a2.png","70","70","test","1","7","7","1","",""
"null","172212","pSARL_v2","pSARL_v2j1gjo2cx","577d11f88b3e2300016d74a0","freq_resp","img/green_2bandit_a.png","70","70","test","","","","1","",""
"null","172373","pSARL_v2","pSARL_v2j1gjo2cx","577d11f88b3e2300016d74a0","fixation","img/fixation.png","null","","test","","","","","",""
"330.19999998807907","172711","pSARL_v2","pSARL_v2j1gjo2cx","577d11f88b3e2300016d74a0","freq","img/green_2bandit_a2.png","70","70","test","1","8","8","1","",""
"null","173189","pSARL_v2","pSARL_v2j1gjo2cx","577d11f88b3e2300016d74a0","freq_resp","img/green_2bandit_a.png","70","70","test","","","","1","",""
"null","173349","pSARL_v2","pSARL_v2j1gjo2cx","577d11f88b3e2300016d74a0","fixation","img/fixation.png","null","","test","","","","","",""
"260.2999999821186","173618","pSARL_v2","pSARL_v2j1gjo2cx","577d11f88b3e2300016d74a0","freq","img/green_2bandit_a2.png","70","70","test","1","9","9","1","",""
"null","174174","pSARL_v2","pSARL_v2j1gjo2cx","577d11f88b3e2300016d74a0","freq_resp","img/green_2bandit_a.png","70","70","test","","","","1","",""
"null","174333","pSARL_v2","pSARL_v2j1gjo2cx","577d11f88b3e2300016d74a0","fixation","img/fixation.png","null","","test","","","","","",""
"397.10000002384186","174740","pSARL_v2","pSARL_v2j1gjo2cx","577d11f88b3e2300016d74a0","freq","img/green_2bandit_a2.png","70","70","test","1","10","10","1","",""
"null","175157","pSARL_v2","pSARL_v2j1gjo2cx","577d11f88b3e2300016d74a0","freq_resp","img/green_2bandit_a.png","70","70","test","","","","1","",""
"null","175318","pSARL_v2","pSARL_v2j1gjo2cx","577d11f88b3e2300016d74a0","fixation","img/fixation.png","null","","test","","","","","",""
"323.5","175653","pSARL_v2","pSARL_v2j1gjo2cx","577d11f88b3e2300016d74a0","freq","img/green_2bandit_a2.png","70","70","test","1","11","11","1","",""
"null","176144","pSARL_v2","pSARL_v2j1gjo2cx","577d11f88b3e2300016d74a0","freq_resp","img/green_2bandit_a.png","70","70","test","","","","1","",""
"null","176310","pSARL_v2","pSARL_v2j1gjo2cx","577d11f88b3e2300016d74a0","fixation","img/fixation.png","null","","test","","","","","",""
"547.5999999940395","176864","pSARL_v2","pSARL_v2j1gjo2cx","577d11f88b3e2300016d74a0","freq","img/green_2bandit_a2.png","70","70","test","1","12","12","1","",""
"null","177127","pSARL_v2","pSARL_v2j1gjo2cx","577d11f88b3e2300016d74a0","freq_resp","img/green_2bandit_a.png","70","70","test","","","","1","",""
"null","177294","pSARL_v2","pSARL_v2j1gjo2cx","577d11f88b3e2300016d74a0","fixation","img/fixation.png","null","","test","","","","","",""
"374.5","177676","pSARL_v2","pSARL_v2j1gjo2cx","577d11f88b3e2300016d74a0","freq","img/green_2bandit_a2.png","70","70","test","1","13","13","1","",""
"null","178120","pSARL_v2","pSARL_v2j1gjo2cx","577d11f88b3e2300016d74a0","freq_resp","img/green_2bandit_a.png","70","70","test","","","","1","",""
"null","178286","pSARL_v2","pSARL_v2j1gjo2cx","577d11f88b3e2300016d74a0","fixation","img/fixation.png","null","","test","","","","","",""
"380.5","178685","pSARL_v2","pSARL_v2j1gjo2cx","577d11f88b3e2300016d74a0","freq","img/green_2bandit_a2.png","70","70","test","1","14","14","1","",""
"null","179117","pSARL_v2","pSARL_v2j1gjo2cx","577d11f88b3e2300016d74a0","freq_resp","img/green_2bandit_a.png","70","70","test","","","","1","",""
"null","179276","pSARL_v2","pSARL_v2j1gjo2cx","577d11f88b3e2300016d74a0","fixation","img/fixation.png","null","","test","","","","","",""
"372.30000001192093","179656","pSARL_v2","pSARL_v2j1gjo2cx","577d11f88b3e2300016d74a0","freq","img/green_2bandit_a2.png","70","70","test","1","15","15","1","",""
"null","180093","pSARL_v2","pSARL_v2j1gjo2cx","577d11f88b3e2300016d74a0","freq_resp","img/green_2bandit_a.png","70","70","test","","","","1","",""
"null","180254","pSARL_v2","pSARL_v2j1gjo2cx","577d11f88b3e2300016d74a0","fixation","img/fixation.png","null","","test","","","","","",""
"269.80000001192093","180532","pSARL_v2","pSARL_v2j1gjo2cx","577d11f88b3e2300016d74a0","freq","img/green_2bandit_a2.png","70","70","test","1","16","16","1","",""
"null","181077","pSARL_v2","pSARL_v2j1gjo2cx","577d11f88b3e2300016d74a0","freq_resp","img/green_2bandit_a.png","70","70","test","","","","1","",""
"null","181237","pSARL_v2","pSARL_v2j1gjo2cx","577d11f88b3e2300016d74a0","fixation","img/fixation.png","null","","test","","","","","",""
"451.59999999403954","181696","pSARL_v2","pSARL_v2j1gjo2cx","577d11f88b3e2300016d74a0","infreq","img/orange_2bandit_a2.png","68","68","test","1","17","17","1","",""
"null","182063","pSARL_v2","pSARL_v2j1gjo2cx","577d11f88b3e2300016d74a0","infreq_resp","img/orange_2bandit_a.png","68","68","test","","","","1","",""
"null","182235","pSARL_v2","pSARL_v2j1gjo2cx","577d11f88b3e2300016d74a0","fixation","img/fixation.png","null","","test","","","","","",""
"405","182648","pSARL_v2","pSARL_v2j1gjo2cx","577d11f88b3e2300016d74a0","infreq","img/orange_2bandit_a2.png","68","68","test","1","18","18","1","",""
"null","183052","pSARL_v2","pSARL_v2j1gjo2cx","577d11f88b3e2300016d74a0","infreq_resp","img/orange_2bandit_a.png","68","68","test","","","","1","",""
"null","183214","pSARL_v2","pSARL_v2j1gjo2cx","577d11f88b3e2300016d74a0","fixation","img/fixation.png","null","","test","","","","","",""
"282.7000000178814","183504","pSARL_v2","pSARL_v2j1gjo2cx","577d11f88b3e2300016d74a0","freq","img/green_2bandit_a2.png","68","70","test","0","19","19","1","",""
"null","184036","pSARL_v2","pSARL_v2j1gjo2cx","577d11f88b3e2300016d74a0","freq_resp","img/green_2bandit_a.png","68","70","test","","","","1","",""
"null","184197","pSARL_v2","pSARL_v2j1gjo2cx","577d11f88b3e2300016d74a0","fixation","img/fixation.png","null","","test","","","","","",""
"610.6999999880791","184820","pSARL_v2","pSARL_v2j1gjo2cx","577d11f88b3e2300016d74a0","reward","img/slot.png","74","","test","","","","","",""
"null","185581","pSARL_v2","pSARL_v2j1gjo2cx","577d11f88b3e2300016d74a0","points","<div class=""verylowPoints""> -6 </div>","null","na","test","","","","1","-6","0"
"563.7999999821186","186150","pSARL_v2","pSARL_v2j1gjo2cx","577d11f88b3e2300016d74a0","freq","img/green_2bandit_a2.png","70","70","test","1","20","20","2","",""
"null","186397","pSARL_v2","pSARL_v2j1gjo2cx","577d11f88b3e2300016d74a0","freq_resp","img/green_2bandit_a.png","70","70","test","","","","2","",""
"null","186557","pSARL_v2","pSARL_v2j1gjo2cx","577d11f88b3e2300016d74a0","fixation","img/fixation.png","null","","test","","","","","",""
"397.09999999403954","186962","pSARL_v2","pSARL_v2j1gjo2cx","577d11f88b3e2300016d74a0","freq","img/green_2bandit_a2.png","70","70","test","1","21","21","2","",""
"null","187373","pSARL_v2","pSARL_v2j1gjo2cx","577d11f88b3e2300016d74a0","freq_resp","img/green_2bandit_a.png","70","70","test","","","","2","",""
"null","187534","pSARL_v2","pSARL_v2j1gjo2cx","577d11f88b3e2300016d74a0","fixation","img/fixation.png","null","","test","","","","","",""
"369.59999999403954","187913","pSARL_v2","pSARL_v2j1gjo2cx","577d11f88b3e2300016d74a0","freq","img/green_2bandit_a2.png","70","70","test","1","22","22","2","",""
"null","188357","pSARL_v2","pSARL_v2j1gjo2cx","577d11f88b3e2300016d74a0","freq_resp","img/green_2bandit_a.png","70","70","test","","","","2","",""
"null","188518","pSARL_v2","pSARL_v2j1gjo2cx","577d11f88b3e2300016d74a0","fixation","img/fixation.png","null","","test","","","","","",""
"382","188910","pSARL_v2","pSARL_v2j1gjo2cx","577d11f88b3e2300016d74a0","freq","img/green_2bandit_a2.png","70","70","test","1","23","23","2","",""
"null","189341","pSARL_v2","pSARL_v2j1gjo2cx","577d11f88b3e2300016d74a0","freq_resp","img/green_2bandit_a.png","70","70","test","","","","2","",""
"null","189500","pSARL_v2","pSARL_v2j1gjo2cx","577d11f88b3e2300016d74a0","fixation","img/fixation.png","null","","test","","","","","",""
"296","189804","pSARL_v2","pSARL_v2j1gjo2cx","577d11f88b3e2300016d74a0","freq","img/green_2bandit_a2.png","70","70","test","1","24","24","2","",""
"null","190318","pSARL_v2","pSARL_v2j1gjo2cx","577d11f88b3e2300016d74a0","freq_resp","img/green_2bandit_a.png","70","70","test","","","","2","",""
"null","190479","pSARL_v2","pSARL_v2j1gjo2cx","577d11f88b3e2300016d74a0","fixation","img/fixation.png","null","","test","","","","","",""
"278.69999998807907","190767","pSARL_v2","pSARL_v2j1gjo2cx","577d11f88b3e2300016d74a0","freq","img/green_2bandit_a2.png","70","70","test","1","25","25","2","",""
"null","191303","pSARL_v2","pSARL_v2j1gjo2cx","577d11f88b3e2300016d74a0","freq_resp","img/green_2bandit_a.png","70","70","test","","","","2","",""
"null","191461","pSARL_v2","pSARL_v2j1gjo2cx","577d11f88b3e2300016d74a0","fixation","img/fixation.png","null","","test","","","","","",""
"345.5","191815","pSARL_v2","pSARL_v2j1gjo2cx","577d11f88b3e2300016d74a0","freq","img/green_2bandit_a2.png","70","70","test","1","26","26","2","",""
"null","192285","pSARL_v2","pSARL_v2j1gjo2cx","577d11f88b3e2300016d74a0","freq_resp","img/green_2bandit_a.png","70","70","test","","","","2","",""
"null","192445","pSARL_v2","pSARL_v2j1gjo2cx","577d11f88b3e2300016d74a0","fixation","img/fixation.png","null","","test","","","","","",""
"256.2999999821186","192716","pSARL_v2","pSARL_v2j1gjo2cx","577d11f88b3e2300016d74a0","freq","img/green_2bandit_a2.png","70","70","test","1","27","27","2","",""
"null","193270","pSARL_v2","pSARL_v2j1gjo2cx","577d11f88b3e2300016d74a0","freq_resp","img/green_2bandit_a.png","70","70","test","","","","2","",""
"null","193430","pSARL_v2","pSARL_v2j1gjo2cx","577d11f88b3e2300016d74a0","fixation","img/fixation.png","null","","test","","","","","",""
"270.2999999821186","193711","pSARL_v2","pSARL_v2j1gjo2cx","577d11f88b3e2300016d74a0","freq","img/green_2bandit_a2.png","70","70","test","1","28","28","2","",""
"null","194253","pSARL_v2","pSARL_v2j1gjo2cx","577d11f88b3e2300016d74a0","freq_resp","img/green_2bandit_a.png","70","70","test","","","","2","",""
"null","194413","pSARL_v2","pSARL_v2j1gjo2cx","577d11f88b3e2300016d74a0","fixation","img/fixation.png","null","","test","","","","","",""
"429.90000000596046","194852","pSARL_v2","pSARL_v2j1gjo2cx","577d11f88b3e2300016d74a0","infreq","img/orange_2bandit_a2.png","68","68","test","1","29","29","2","",""
"null","195237","pSARL_v2","pSARL_v2j1gjo2cx","577d11f88b3e2300016d74a0","infreq_resp","img/orange_2bandit_a.png","68","68","test","","","","2","",""
"null","195397","pSARL_v2","pSARL_v2j1gjo2cx","577d11f88b3e2300016d74a0","fixation","img/fixation.png","null","","test","","","","","",""
"462.80000001192093","195872","pSARL_v2","pSARL_v2j1gjo2cx","577d11f88b3e2300016d74a0","infreq","img/orange_2bandit_a2.png","68","68","test","1","30","30","2","",""
"null","196223","pSARL_v2","pSARL_v2j1gjo2cx","577d11f88b3e2300016d74a0","infreq_resp","img/orange_2bandit_a.png","68","68","test","","","","2","",""
"null","196390","pSARL_v2","pSARL_v2j1gjo2cx","577d11f88b3e2300016d74a0","fixation","img/fixation.png","null","","test","","","","","",""
"605","197004","pSARL_v2","pSARL_v2j1gjo2cx","577d11f88b3e2300016d74a0","freq","img/green_2bandit_a2.png","70","70","test","1","31","31","2","",""
"null","197213","pSARL_v2","pSARL_v2j1gjo2cx","577d11f88b3e2300016d74a0","freq_resp","img/green_2bandit_a.png","70","70","test","","","","2","",""
"null","197373","pSARL_v2","pSARL_v2j1gjo2cx","577d11f88b3e2300016d74a0","fixation","img/fixation.png","null","","test","","","","","",""
"393.40000000596046","197778","pSARL_v2","pSARL_v2j1gjo2cx","577d11f88b3e2300016d74a0","freq","img/green_2bandit_a2.png","70","70","test","1","32","32","2","",""
"null","198197","pSARL_v2","pSARL_v2j1gjo2cx","577d11f88b3e2300016d74a0","freq_resp","img/green_2bandit_a.png","70","70","test","","","","2","",""
"null","198360","pSARL_v2","pSARL_v2j1gjo2cx","577d11f88b3e2300016d74a0","fixation","img/fixation.png","null","","test","","","","","",""
"379.59999999403954","198746","pSARL_v2","pSARL_v2j1gjo2cx","577d11f88b3e2300016d74a0","freq","img/green_2bandit_a2.png","70","70","test","1","33","33","2","",""
"null","199182","pSARL_v2","pSARL_v2j1gjo2cx","577d11f88b3e2300016d74a0","freq_resp","img/green_2bandit_a.png","70","70","test","","","","2","",""
"null","199342","pSARL_v2","pSARL_v2j1gjo2cx","577d11f88b3e2300016d74a0","fixation","img/fixation.png","null","","test","","","","","",""
"223.2000000178814","199574","pSARL_v2","pSARL_v2j1gjo2cx","577d11f88b3e2300016d74a0","infreq","img/orange_2bandit_a2.png","70","68","test","0","34","34","2","",""
"null","200167","pSARL_v2","pSARL_v2j1gjo2cx","577d11f88b3e2300016d74a0","infreq_resp","img/orange_2bandit_a.png","70","68","test","","","","2","",""
"null","200334","pSARL_v2","pSARL_v2j1gjo2cx","577d11f88b3e2300016d74a0","fixation","img/fixation.png","null","","test","","","","","",""
"559.5999999940395","200901","pSARL_v2","pSARL_v2j1gjo2cx","577d11f88b3e2300016d74a0","freq","img/green_2bandit_a2.png","70","70","test","1","35","35","2","",""
"null","201156","pSARL_v2","pSARL_v2j1gjo2cx","577d11f88b3e2300016d74a0","freq_resp","img/green_2bandit_a.png","70","70","test","","","","2","",""
"null","201320","pSARL_v2","pSARL_v2j1gjo2cx","577d11f88b3e2300016d74a0","fixation","img/fixation.png","null","","test","","","","","",""
"611.3000000119209","201941","pSARL_v2","pSARL_v2j1gjo2cx","577d11f88b3e2300016d74a0","freq","img/green_2bandit_a2.png","70","70","test","1","36","36","2","",""
"null","202142","pSARL_v2","pSARL_v2j1gjo2cx","577d11f88b3e2300016d74a0","freq_resp","img/green_2bandit_a.png","70","70","test","","","","2","",""
"null","202301","pSARL_v2","pSARL_v2j1gjo2cx","577d11f88b3e2300016d74a0","fixation","img/fixation.png","null","","test","","","","","",""
"419.7000000178814","202731","pSARL_v2","pSARL_v2j1gjo2cx","577d11f88b3e2300016d74a0","freq","img/green_2bandit_a2.png","70","70","test","1","37","37","2","",""
"null","203125","pSARL_v2","pSARL_v2j1gjo2cx","577d11f88b3e2300016d74a0","freq_resp","img/green_2bandit_a.png","70","70","test","","","","2","",""
"null","203285","pSARL_v2","pSARL_v2j1gjo2cx","577d11f88b3e2300016d74a0","fixation","img/fixation.png","null","","test","","","","","",""
"458.90000000596046","203752","pSARL_v2","pSARL_v2j1gjo2cx","577d11f88b3e2300016d74a0","freq","img/green_2bandit_a2.png","70","70","test","1","38","38","2","",""
"null","204102","pSARL_v2","pSARL_v2j1gjo2cx","577d11f88b3e2300016d74a0","freq_resp","img/green_2bandit_a.png","70","70","test","","","","2","",""
"null","204264","pSARL_v2","pSARL_v2j1gjo2cx","577d11f88b3e2300016d74a0","fixation","img/fixation.png","null","","test","","","","","",""
"461.40000000596046","204734","pSARL_v2","pSARL_v2j1gjo2cx","577d11f88b3e2300016d74a0","freq","img/green_2bandit_a2.png","70","70","test","1","39","39","2","",""
"null","205086","pSARL_v2","pSARL_v2j1gjo2cx","577d11f88b3e2300016d74a0","freq_resp","img/green_2bandit_a.png","70","70","test","","","","2","",""
"null","205245","pSARL_v2","pSARL_v2j1gjo2cx","577d11f88b3e2300016d74a0","fixation","img/fixation.png","null","","test","","","","","",""
"399.80000001192093","205654","pSARL_v2","pSARL_v2j1gjo2cx","577d11f88b3e2300016d74a0","freq","img/green_2bandit_a2.png","70","70","test","1","40","40","2","",""
"null","206069","pSARL_v2","pSARL_v2j1gjo2cx","577d11f88b3e2300016d74a0","freq_resp","img/green_2bandit_a.png","70","70","test","","","","2","",""
"null","206231","pSARL_v2","pSARL_v2j1gjo2cx","577d11f88b3e2300016d74a0","fixation","img/fixation.png","null","","test","","","","","",""
"378.39999997615814","206618","pSARL_v2","pSARL_v2j1gjo2cx","577d11f88b3e2300016d74a0","freq","img/green_2bandit_a2.png","70","70","test","1","41","41","2","",""
"null","207052","pSARL_v2","pSARL_v2j1gjo2cx","577d11f88b3e2300016d74a0","freq_resp","img/green_2bandit_a.png","70","70","test","","","","2","",""
"null","207213","pSARL_v2","pSARL_v2j1gjo2cx","577d11f88b3e2300016d74a0","fixation","img/fixation.png","null","","test","","","","","",""
"647.7999999821186","207870","pSARL_v2","pSARL_v2j1gjo2cx","577d11f88b3e2300016d74a0","reward","img/slot.png","74","","test","","","","","",""
"null","208628","pSARL_v2","pSARL_v2j1gjo2cx","577d11f88b3e2300016d74a0","points","<div class=""verylowPoints""> -11 </div>","null","na","test","","","","2","-11","1"
"787.5","209424","pSARL_v2","pSARL_v2j1gjo2cx","577d11f88b3e2300016d74a0","freq","img/green_2bandit_a2.png","70","70","test","1","42","42","3","",""
"null","209447","pSARL_v2","pSARL_v2j1gjo2cx","577d11f88b3e2300016d74a0","freq_resp","img/green_2bandit_a.png","70","70","test","","","","3","",""
"null","209615","pSARL_v2","pSARL_v2j1gjo2cx","577d11f88b3e2300016d74a0","fixation","img/fixation.png","null","","test","","","","","",""
"519","210141","pSARL_v2","pSARL_v2j1gjo2cx","577d11f88b3e2300016d74a0","freq","img/green_2bandit_a2.png","70","70","test","1","43","43","3","",""
"null","210436","pSARL_v2","pSARL_v2j1gjo2cx","577d11f88b3e2300016d74a0","freq_resp","img/green_2bandit_a.png","70","70","test","","","","3","",""
"null","210600","pSARL_v2","pSARL_v2j1gjo2cx","577d11f88b3e2300016d74a0","fixation","img/fixation.png","null","","test","","","","","",""
"428.40000000596046","211038","pSARL_v2","pSARL_v2j1gjo2cx","577d11f88b3e2300016d74a0","freq","img/green_2bandit_a2.png","70","70","test","1","44","44","3","",""
"null","211422","pSARL_v2","pSARL_v2j1gjo2cx","577d11f88b3e2300016d74a0","freq_resp","img/green_2bandit_a.png","70","70","test","","","","3","",""
"null","211588","pSARL_v2","pSARL_v2j1gjo2cx","577d11f88b3e2300016d74a0","fixation","img/fixation.png","null","","test","","","","","",""
"446.7000000178814","212041","pSARL_v2","pSARL_v2j1gjo2cx","577d11f88b3e2300016d74a0","freq","img/green_2bandit_a2.png","70","70","test","1","45","45","3","",""
"null","212406","pSARL_v2","pSARL_v2j1gjo2cx","577d11f88b3e2300016d74a0","freq_resp","img/green_2bandit_a.png","70","70","test","","","","3","",""
"null","212566","pSARL_v2","pSARL_v2j1gjo2cx","577d11f88b3e2300016d74a0","fixation","img/fixation.png","null","","test","","","","","",""
"359.69999998807907","212933","pSARL_v2","pSARL_v2j1gjo2cx","577d11f88b3e2300016d74a0","freq","img/green_2bandit_a2.png","70","70","test","1","46","46","3","",""
"null","213389","pSARL_v2","pSARL_v2j1gjo2cx","577d11f88b3e2300016d74a0","freq_resp","img/green_2bandit_a.png","70","70","test","","","","3","",""
"null","213549","pSARL_v2","pSARL_v2j1gjo2cx","577d11f88b3e2300016d74a0","fixation","img/fixation.png","null","","test","","","","","",""
"362","213918","pSARL_v2","pSARL_v2j1gjo2cx","577d11f88b3e2300016d74a0","freq","img/green_2bandit_a2.png","70","70","test","1","47","47","3","",""
"null","214366","pSARL_v2","pSARL_v2j1gjo2cx","577d11f88b3e2300016d74a0","freq_resp","img/green_2bandit_a.png","70","70","test","","","","3","",""
"null","214525","pSARL_v2","pSARL_v2j1gjo2cx","577d11f88b3e2300016d74a0","fixation","img/fixation.png","null","","test","","","","","",""
"283.19999998807907","214815","pSARL_v2","pSARL_v2j1gjo2cx","577d11f88b3e2300016d74a0","freq","img/green_2bandit_a2.png","70","70","test","1","48","48","3","",""
"null","215342","pSARL_v2","pSARL_v2j1gjo2cx","577d11f88b3e2300016d74a0","freq_resp","img/green_2bandit_a.png","70","70","test","","","","3","",""
"null","215501","pSARL_v2","pSARL_v2j1gjo2cx","577d11f88b3e2300016d74a0","fixation","img/fixation.png","null","","test","","","","","",""
"373.7999999821186","215882","pSARL_v2","pSARL_v2j1gjo2cx","577d11f88b3e2300016d74a0","freq","img/green_2bandit_a2.png","70","70","test","1","49","49","3","",""
"null","216317","pSARL_v2","pSARL_v2j1gjo2cx","577d11f88b3e2300016d74a0","freq_resp","img/green_2bandit_a.png","70","70","test","","","","3","",""
"null","216479","pSARL_v2","pSARL_v2j1gjo2cx","577d11f88b3e2300016d74a0","fixation","img/fixation.png","null","","test","","","","","",""
"365.60000002384186","216854","pSARL_v2","pSARL_v2j1gjo2cx","577d11f88b3e2300016d74a0","freq","img/green_2bandit_a2.png","70","70","test","1","50","50","3","",""
"null","217305","pSARL_v2","pSARL_v2j1gjo2cx","577d11f88b3e2300016d74a0","freq_resp","img/green_2bandit_a.png","70","70","test","","","","3","",""
"null","217472","pSARL_v2","pSARL_v2j1gjo2cx","577d11f88b3e2300016d74a0","fixation","img/fixation.png","null","","test","","","","","",""
"305.19999998807907","217787","pSARL_v2","pSARL_v2j1gjo2cx","577d11f88b3e2300016d74a0","freq","img/green_2bandit_a2.png","70","70","test","1","51","51","3","",""
"null","218293","pSARL_v2","pSARL_v2j1gjo2cx","577d11f88b3e2300016d74a0","freq_resp","img/green_2bandit_a.png","70","70","test","","","","3","",""
"null","218455","pSARL_v2","pSARL_v2j1gjo2cx","577d11f88b3e2300016d74a0","fixation","img/fixation.png","null","","test","","","","","",""
"372.5","218836","pSARL_v2","pSARL_v2j1gjo2cx","577d11f88b3e2300016d74a0","freq","img/green_2bandit_a2.png","70","70","test","1","52","52","3","",""
"null","219278","pSARL_v2","pSARL_v2j1gjo2cx","577d11f88b3e2300016d74a0","freq_resp","img/green_2bandit_a.png","70","70","test","","","","3","",""
"null","219445","pSARL_v2","pSARL_v2j1gjo2cx","577d11f88b3e2300016d74a0","fixation","img/fixation.png","null","","test","","","","","",""
"394.5","219849","pSARL_v2","pSARL_v2j1gjo2cx","577d11f88b3e2300016d74a0","freq","img/green_2bandit_a2.png","70","70","test","1","53","53","3","",""
"null","220269","pSARL_v2","pSARL_v2j1gjo2cx","577d11f88b3e2300016d74a0","freq_resp","img/green_2bandit_a.png","70","70","test","","","","3","",""
"null","220431","pSARL_v2","pSARL_v2j1gjo2cx","577d11f88b3e2300016d74a0","fixation","img/fixation.png","null","","test","","","","","",""
"476.2000000178814","220914","pSARL_v2","pSARL_v2j1gjo2cx","577d11f88b3e2300016d74a0","infreq","img/orange_2bandit_a2.png","68","68","test","1","54","54","3","",""
"null","221247","pSARL_v2","pSARL_v2j1gjo2cx","577d11f88b3e2300016d74a0","infreq_resp","img/orange_2bandit_a.png","68","68","test","","","","3","",""
"null","221415","pSARL_v2","pSARL_v2j1gjo2cx","577d11f88b3e2300016d74a0","fixation","img/fixation.png","null","","test","","","","","",""
"435.5","221859","pSARL_v2","pSARL_v2j1gjo2cx","577d11f88b3e2300016d74a0","infreq","img/orange_2bandit_a2.png","68","68","test","1","55","55","3","",""
"null","222239","pSARL_v2","pSARL_v2j1gjo2cx","577d11f88b3e2300016d74a0","infreq_resp","img/orange_2bandit_a.png","68","68","test","","","","3","",""
"null","222407","pSARL_v2","pSARL_v2j1gjo2cx","577d11f88b3e2300016d74a0","fixation","img/fixation.png","null","","test","","","","","",""
"387.40000000596046","222803","pSARL_v2","pSARL_v2j1gjo2cx","577d11f88b3e2300016d74a0","freq","img/green_2bandit_a2.png","70","70","test","1","56","56","3","",""
"null","223230","pSARL_v2","pSARL_v2j1gjo2cx","577d11f88b3e2300016d74a0","freq_resp","img/green_2bandit_a.png","70","70","test","","","","3","",""
"null","223389","pSARL_v2","pSARL_v2j1gjo2cx","577d11f88b3e2300016d74a0","fixation","img/fixation.png","null","","test","","","","","",""
"381.7000000178814","223779","pSARL_v2","pSARL_v2j1gjo2cx","577d11f88b3e2300016d74a0","freq","img/green_2bandit_a2.png","70","70","test","1","57","57","3","",""
"null","224213","pSARL_v2","pSARL_v2j1gjo2cx","577d11f88b3e2300016d74a0","freq_resp","img/green_2bandit_a.png","70","70","test","","","","3","",""
"null","224375","pSARL_v2","pSARL_v2j1gjo2cx","577d11f88b3e2300016d74a0","fixation","img/fixation.png","null","","test","","","","","",""
"540.0999999940395","224923","pSARL_v2","pSARL_v2j1gjo2cx","577d11f88b3e2300016d74a0","infreq","img/orange_2bandit_a2.png","68","68","test","1","58","58","3","",""
"null","225198","pSARL_v2","pSARL_v2j1gjo2cx","577d11f88b3e2300016d74a0","infreq_resp","img/orange_2bandit_a.png","68","68","test","","","","3","",""
"null","225367","pSARL_v2","pSARL_v2j1gjo2cx","577d11f88b3e2300016d74a0","fixation","img/fixation.png","null","","test","","","","","",""
"513","225889","pSARL_v2","pSARL_v2j1gjo2cx","577d11f88b3e2300016d74a0","freq","img/green_2bandit_a2.png","70","70","test","1","59","59","3","",""
"null","226190","pSARL_v2","pSARL_v2j1gjo2cx","577d11f88b3e2300016d74a0","freq_resp","img/green_2bandit_a.png","70","70","test","","","","3","",""
"null","226349","pSARL_v2","pSARL_v2j1gjo2cx","577d11f88b3e2300016d74a0","fixation","img/fixation.png","null","","test","","","","","",""
"415.80000001192093","226773","pSARL_v2","pSARL_v2j1gjo2cx","577d11f88b3e2300016d74a0","freq","img/green_2bandit_a2.png","70","70","test","1","60","60","3","",""
"null","227174","pSARL_v2","pSARL_v2j1gjo2cx","577d11f88b3e2300016d74a0","freq_resp","img/green_2bandit_a.png","70","70","test","","","","3","",""
"null","227333","pSARL_v2","pSARL_v2j1gjo2cx","577d11f88b3e2300016d74a0","fixation","img/fixation.png","null","","test","","","","","",""
"434.60000002384186","227776","pSARL_v2","pSARL_v2j1gjo2cx","577d11f88b3e2300016d74a0","freq","img/green_2bandit_a2.png","70","70","test","1","61","61","3","",""
"null","228149","pSARL_v2","pSARL_v2j1gjo2cx","577d11f88b3e2300016d74a0","freq_resp","img/green_2bandit_a.png","70","70","test","","","","3","",""
"null","228309","pSARL_v2","pSARL_v2j1gjo2cx","577d11f88b3e2300016d74a0","fixation","img/fixation.png","null","","test","","","","","",""
"438.19999998807907","228755","pSARL_v2","pSARL_v2j1gjo2cx","577d11f88b3e2300016d74a0","freq","img/green_2bandit_a2.png","70","70","test","1","62","62","3","",""
"null","229126","pSARL_v2","pSARL_v2j1gjo2cx","577d11f88b3e2300016d74a0","freq_resp","img/green_2bandit_a.png","70","70","test","","","","3","",""
"null","229292","pSARL_v2","pSARL_v2j1gjo2cx","577d11f88b3e2300016d74a0","fixation","img/fixation.png","null","","test","","","","","",""
"560.6999999880791","229861","pSARL_v2","pSARL_v2j1gjo2cx","577d11f88b3e2300016d74a0","reward","img/slot.png","74","","test","","","","","",""
"null","230622","pSARL_v2","pSARL_v2j1gjo2cx","577d11f88b3e2300016d74a0","points","<div class=""verylowPoints""> -7 </div>","null","na","test","","","","3","-7","2"
"652.1999999880791","231285","pSARL_v2","pSARL_v2j1gjo2cx","577d11f88b3e2300016d74a0","freq","img/green_2bandit_a2.png","70","70","test","1","63","63","4","",""
"null","231446","pSARL_v2","pSARL_v2j1gjo2cx","577d11f88b3e2300016d74a0","freq_resp","img/green_2bandit_a.png","70","70","test","","","","4","",""
"null","231606","pSARL_v2","pSARL_v2j1gjo2cx","577d11f88b3e2300016d74a0","fixation","img/fixation.png","null","","test","","","","","",""
"588.6000000238419","232203","pSARL_v2","pSARL_v2j1gjo2cx","577d11f88b3e2300016d74a0","freq","img/green_2bandit_a2.png","70","70","test","1","64","64","4","",""
"null","232429","pSARL_v2","pSARL_v2j1gjo2cx","577d11f88b3e2300016d74a0","freq_resp","img/green_2bandit_a.png","70","70","test","","","","4","",""
"null","232590","pSARL_v2","pSARL_v2j1gjo2cx","577d11f88b3e2300016d74a0","fixation","img/fixation.png","null","","test","","","","","",""
"443.09999999403954","233044","pSARL_v2","pSARL_v2j1gjo2cx","577d11f88b3e2300016d74a0","freq","img/green_2bandit_a2.png","70","70","test","1","65","65","4","",""
"null","233413","pSARL_v2","pSARL_v2j1gjo2cx","577d11f88b3e2300016d74a0","freq_resp","img/green_2bandit_a.png","70","70","test","","","","4","",""
"null","233573","pSARL_v2","pSARL_v2j1gjo2cx","577d11f88b3e2300016d74a0","fixation","img/fixation.png","null","","test","","","","","",""
"400.90000000596046","233982","pSARL_v2","pSARL_v2j1gjo2cx","577d11f88b3e2300016d74a0","freq","img/green_2bandit_a2.png","70","70","test","1","66","66","4","",""
"null","234399","pSARL_v2","pSARL_v2j1gjo2cx","577d11f88b3e2300016d74a0","freq_resp","img/green_2bandit_a.png","70","70","test","","","","4","",""
"null","234565","pSARL_v2","pSARL_v2j1gjo2cx","577d11f88b3e2300016d74a0","fixation","img/fixation.png","null","","test","","","","","",""
"355.60000002384186","234929","pSARL_v2","pSARL_v2j1gjo2cx","577d11f88b3e2300016d74a0","freq","img/green_2bandit_a2.png","70","70","test","1","67","67","4","",""
"null","235388","pSARL_v2","pSARL_v2j1gjo2cx","577d11f88b3e2300016d74a0","freq_resp","img/green_2bandit_a.png","70","70","test","","","","4","",""
"null","235552","pSARL_v2","pSARL_v2j1gjo2cx","577d11f88b3e2300016d74a0","fixation","img/fixation.png","null","","test","","","","","",""
"374.5","235935","pSARL_v2","pSARL_v2j1gjo2cx","577d11f88b3e2300016d74a0","freq","img/green_2bandit_a2.png","70","70","test","1","68","68","4","",""
"null","236373","pSARL_v2","pSARL_v2j1gjo2cx","577d11f88b3e2300016d74a0","freq_resp","img/green_2bandit_a.png","70","70","test","","","","4","",""
"null","236535","pSARL_v2","pSARL_v2j1gjo2cx","577d11f88b3e2300016d74a0","fixation","img/fixation.png","null","","test","","","","","",""
"313.90000000596046","236859","pSARL_v2","pSARL_v2j1gjo2cx","577d11f88b3e2300016d74a0","infreq","img/orange_2bandit_a2.png","70","68","test","0","69","69","4","",""
"null","237357","pSARL_v2","pSARL_v2j1gjo2cx","577d11f88b3e2300016d74a0","infreq_resp","img/orange_2bandit_a.png","70","68","test","","","","4","",""
"null","237517","pSARL_v2","pSARL_v2j1gjo2cx","577d11f88b3e2300016d74a0","fixation","img/fixation.png","null","","test","","","","","",""
"445.90000000596046","237973","pSARL_v2","pSARL_v2j1gjo2cx","577d11f88b3e2300016d74a0","freq","img/green_2bandit_a2.png","70","70","test","1","70","70","4","",""
"null","238343","pSARL_v2","pSARL_v2j1gjo2cx","577d11f88b3e2300016d74a0","freq_resp","img/green_2bandit_a.png","70","70","test","","","","4","",""
"null","238510","pSARL_v2","pSARL_v2j1gjo2cx","577d11f88b3e2300016d74a0","fixation","img/fixation.png","null","","test","","","","","",""
"457.69999998807907","238977","pSARL_v2","pSARL_v2j1gjo2cx","577d11f88b3e2300016d74a0","infreq","img/orange_2bandit_a2.png","68","68","test","1","71","71","4","",""
"null","239332","pSARL_v2","pSARL_v2j1gjo2cx","577d11f88b3e2300016d74a0","infreq_resp","img/orange_2bandit_a.png","68","68","test","","","","4","",""
"null","239495","pSARL_v2","pSARL_v2j1gjo2cx","577d11f88b3e2300016d74a0","fixation","img/fixation.png","null","","test","","","","","",""
"599.5999999940395","240102","pSARL_v2","pSARL_v2j1gjo2cx","577d11f88b3e2300016d74a0","freq","img/green_2bandit_a2.png","70","70","test","1","72","72","4","",""
"null","240318","pSARL_v2","pSARL_v2j1gjo2cx","577d11f88b3e2300016d74a0","freq_resp","img/green_2bandit_a.png","70","70","test","","","","4","",""
"null","240481","pSARL_v2","pSARL_v2j1gjo2cx","577d11f88b3e2300016d74a0","fixation","img/fixation.png","null","","test","","","","","",""
"404.90000000596046","240894","pSARL_v2","pSARL_v2j1gjo2cx","577d11f88b3e2300016d74a0","freq","img/green_2bandit_a2.png","70","70","test","1","73","73","4","",""
"null","241301","pSARL_v2","pSARL_v2j1gjo2cx","577d11f88b3e2300016d74a0","freq_resp","img/green_2bandit_a.png","70","70","test","","","","4","",""
"null","241462","pSARL_v2","pSARL_v2j1gjo2cx","577d11f88b3e2300016d74a0","fixation","img/fixation.png","null","","test","","","","","",""
"357.10000002384186","241831","pSARL_v2","pSARL_v2j1gjo2cx","577d11f88b3e2300016d74a0","freq","img/green_2bandit_a2.png","70","70","test","1","74","74","4","",""
"null","242287","pSARL_v2","pSARL_v2j1gjo2cx","577d11f88b3e2300016d74a0","freq_resp","img/green_2bandit_a.png","70","70","test","","","","4","",""
"null","242455","pSARL_v2","pSARL_v2j1gjo2cx","577d11f88b3e2300016d74a0","fixation","img/fixation.png","null","","test","","","","","",""
"308.30000001192093","242773","pSARL_v2","pSARL_v2j1gjo2cx","577d11f88b3e2300016d74a0","freq","img/green_2bandit_a2.png","70","70","test","1","75","75","4","",""
"null","243279","pSARL_v2","pSARL_v2j1gjo2cx","577d11f88b3e2300016d74a0","freq_resp","img/green_2bandit_a.png","70","70","test","","","","4","",""
"null","243446","pSARL_v2","pSARL_v2j1gjo2cx","577d11f88b3e2300016d74a0","fixation","img/fixation.png","null","","test","","","","","",""
"163.59999999403954","243621","pSARL_v2","pSARL_v2j1gjo2cx","577d11f88b3e2300016d74a0","freq","img/green_2bandit_a2.png","70","70","test","1","76","76","4","",""
"null","244269","pSARL_v2","pSARL_v2j1gjo2cx","577d11f88b3e2300016d74a0","freq_resp","img/green_2bandit_a.png","70","70","test","","","","4","",""
"null","244431","pSARL_v2","pSARL_v2j1gjo2cx","577d11f88b3e2300016d74a0","fixation","img/fixation.png","null","","test","","","","","",""
"331.69999998807907","244780","pSARL_v2","pSARL_v2j1gjo2cx","577d11f88b3e2300016d74a0","freq","img/green_2bandit_a2.png","70","70","test","1","77","77","4","",""
"null","245262","pSARL_v2","pSARL_v2j1gjo2cx","577d11f88b3e2300016d74a0","freq_resp","img/green_2bandit_a.png","70","70","test","","","","4","",""
"null","245424","pSARL_v2","pSARL_v2j1gjo2cx","577d11f88b3e2300016d74a0","fixation","img/fixation.png","null","","test","","","","","",""
"376.09999999403954","245809","pSARL_v2","pSARL_v2j1gjo2cx","577d11f88b3e2300016d74a0","freq","img/green_2bandit_a2.png","70","70","test","1","78","78","4","",""
"null","246246","pSARL_v2","pSARL_v2j1gjo2cx","577d11f88b3e2300016d74a0","freq_resp","img/green_2bandit_a.png","70","70","test","","","","4","",""
"null","246406","pSARL_v2","pSARL_v2j1gjo2cx","577d11f88b3e2300016d74a0","fixation","img/fixation.png","null","","test","","","","","",""
"391.59999999403954","246805","pSARL_v2","pSARL_v2j1gjo2cx","577d11f88b3e2300016d74a0","freq","img/green_2bandit_a2.png","70","70","test","1","79","79","4","",""
"null","247230","pSARL_v2","pSARL_v2j1gjo2cx","577d11f88b3e2300016d74a0","freq_resp","img/green_2bandit_a.png","70","70","test","","","","4","",""
"null","247389","pSARL_v2","pSARL_v2j1gjo2cx","577d11f88b3e2300016d74a0","fixation","img/fixation.png","null","","test","","","","","",""
"381.7999999821186","247784","pSARL_v2","pSARL_v2j1gjo2cx","577d11f88b3e2300016d74a0","freq","img/green_2bandit_a2.png","70","70","test","1","80","80","4","",""
"null","248215","pSARL_v2","pSARL_v2j1gjo2cx","577d11f88b3e2300016d74a0","freq_resp","img/green_2bandit_a.png","70","70","test","","","","4","",""
"null","248382","pSARL_v2","pSARL_v2j1gjo2cx","577d11f88b3e2300016d74a0","fixation","img/fixation.png","null","","test","","","","","",""
"386.40000000596046","248773","pSARL_v2","pSARL_v2j1gjo2cx","577d11f88b3e2300016d74a0","freq","img/green_2bandit_a2.png","70","70","test","1","81","81","4","",""
"null","249197","pSARL_v2","pSARL_v2j1gjo2cx","577d11f88b3e2300016d74a0","freq_resp","img/green_2bandit_a.png","70","70","test","","","","4","",""
"null","249358","pSARL_v2","pSARL_v2j1gjo2cx","577d11f88b3e2300016d74a0","fixation","img/fixation.png","null","","test","","","","","",""
"744.7999999821186","250111","pSARL_v2","pSARL_v2j1gjo2cx","577d11f88b3e2300016d74a0","freq","img/green_2bandit_a2.png","70","70","test","1","82","82","4","",""
"null","250183","pSARL_v2","pSARL_v2j1gjo2cx","577d11f88b3e2300016d74a0","freq_resp","img/green_2bandit_a.png","70","70","test","","","","4","",""
"null","250352","pSARL_v2","pSARL_v2j1gjo2cx","577d11f88b3e2300016d74a0","fixation","img/fixation.png","null","","test","","","","","",""
"490.40000000596046","250853","pSARL_v2","pSARL_v2j1gjo2cx","577d11f88b3e2300016d74a0","freq","img/green_2bandit_a2.png","70","70","test","1","83","83","4","",""
"null","251177","pSARL_v2","pSARL_v2j1gjo2cx","577d11f88b3e2300016d74a0","freq_resp","img/green_2bandit_a.png","70","70","test","","","","4","",""
"null","251342","pSARL_v2","pSARL_v2j1gjo2cx","577d11f88b3e2300016d74a0","fixation","img/fixation.png","null","","test","","","","","",""
"515.7999999821186","251869","pSARL_v2","pSARL_v2j1gjo2cx","577d11f88b3e2300016d74a0","infreq","img/orange_2bandit_a2.png","68","68","test","1","84","84","4","",""
"null","252165","pSARL_v2","pSARL_v2j1gjo2cx","577d11f88b3e2300016d74a0","infreq_resp","img/orange_2bandit_a.png","68","68","test","","","","4","",""
"null","252329","pSARL_v2","pSARL_v2j1gjo2cx","577d11f88b3e2300016d74a0","fixation","img/fixation.png","null","","test","","","","","",""
"351.40000000596046","252688","pSARL_v2","pSARL_v2j1gjo2cx","577d11f88b3e2300016d74a0","freq","img/green_2bandit_a2.png","70","70","test","1","85","85","4","",""
"null","253149","pSARL_v2","pSARL_v2j1gjo2cx","577d11f88b3e2300016d74a0","freq_resp","img/green_2bandit_a.png","70","70","test","","","","4","",""
"null","253310","pSARL_v2","pSARL_v2j1gjo2cx","577d11f88b3e2300016d74a0","fixation","img/fixation.png","null","","test","","","","","",""
"352.30000001192093","253673","pSARL_v2","pSARL_v2j1gjo2cx","577d11f88b3e2300016d74a0","freq","img/green_2bandit_a2.png","70","70","test","1","86","86","4","",""
"null","254131","pSARL_v2","pSARL_v2j1gjo2cx","577d11f88b3e2300016d74a0","freq_resp","img/green_2bandit_a.png","70","70","test","","","","4","",""
"null","254294","pSARL_v2","pSARL_v2j1gjo2cx","577d11f88b3e2300016d74a0","fixation","img/fixation.png","null","","test","","","","","",""
"305.5","254608","pSARL_v2","pSARL_v2j1gjo2cx","577d11f88b3e2300016d74a0","freq","img/green_2bandit_a2.png","70","70","test","1","87","87","4","",""
"null","255116","pSARL_v2","pSARL_v2j1gjo2cx","577d11f88b3e2300016d74a0","freq_resp","img/green_2bandit_a.png","70","70","test","","","","4","",""
"null","255276","pSARL_v2","pSARL_v2j1gjo2cx","577d11f88b3e2300016d74a0","fixation","img/fixation.png","null","","test","","","","","",""
"337.69999998807907","255624","pSARL_v2","pSARL_v2j1gjo2cx","577d11f88b3e2300016d74a0","freq","img/green_2bandit_a2.png","70","70","test","1","88","88","4","",""
"null","256100","pSARL_v2","pSARL_v2j1gjo2cx","577d11f88b3e2300016d74a0","freq_resp","img/green_2bandit_a.png","70","70","test","","","","4","",""
"null","256261","pSARL_v2","pSARL_v2j1gjo2cx","577d11f88b3e2300016d74a0","fixation","img/fixation.png","null","","test","","","","","",""
"294","256564","pSARL_v2","pSARL_v2j1gjo2cx","577d11f88b3e2300016d74a0","freq","img/green_2bandit_a2.png","70","70","test","1","89","89","4","",""
"null","257084","pSARL_v2","pSARL_v2j1gjo2cx","577d11f88b3e2300016d74a0","freq_resp","img/green_2bandit_a.png","70","70","test","","","","4","",""
"null","257245","pSARL_v2","pSARL_v2j1gjo2cx","577d11f88b3e2300016d74a0","fixation","img/fixation.png","null","","test","","","","","",""
"543.2000000178814","257796","pSARL_v2","pSARL_v2j1gjo2cx","577d11f88b3e2300016d74a0","reward","img/slot.png","74","","test","","","","","",""
"null","258557","pSARL_v2","pSARL_v2j1gjo2cx","577d11f88b3e2300016d74a0","points","<div class=""verylowPoints""> -3 </div>","null","na","test","","","","4","-3","3"
"661.2000000178814","259224","pSARL_v2","pSARL_v2j1gjo2cx","577d11f88b3e2300016d74a0","freq","img/green_2bandit_a2.png","70","70","test","1","90","90","5","",""
"null","259373","pSARL_v2","pSARL_v2j1gjo2cx","577d11f88b3e2300016d74a0","freq_resp","img/green_2bandit_a.png","70","70","test","","","","5","",""
"null","259533","pSARL_v2","pSARL_v2j1gjo2cx","577d11f88b3e2300016d74a0","fixation","img/fixation.png","null","","test","","","","","",""
"627.5","260169","pSARL_v2","pSARL_v2j1gjo2cx","577d11f88b3e2300016d74a0","freq","img/green_2bandit_a2.png","70","70","test","1","91","91","5","",""
"null","260346","pSARL_v2","pSARL_v2j1gjo2cx","577d11f88b3e2300016d74a0","freq_resp","img/green_2bandit_a.png","70","70","test","","","","5","",""
"null","260507","pSARL_v2","pSARL_v2j1gjo2cx","577d11f88b3e2300016d74a0","fixation","img/fixation.png","null","","test","","","","","",""
"469.2000000178814","260982","pSARL_v2","pSARL_v2j1gjo2cx","577d11f88b3e2300016d74a0","freq","img/green_2bandit_a2.png","70","70","test","1","92","92","5","",""
"null","261325","pSARL_v2","pSARL_v2j1gjo2cx","577d11f88b3e2300016d74a0","freq_resp","img/green_2bandit_a.png","70","70","test","","","","5","",""
"null","261485","pSARL_v2","pSARL_v2j1gjo2cx","577d11f88b3e2300016d74a0","fixation","img/fixation.png","null","","test","","","","","",""
"494.40000000596046","261987","pSARL_v2","pSARL_v2j1gjo2cx","577d11f88b3e2300016d74a0","freq","img/green_2bandit_a2.png","70","70","test","1","93","93","5","",""
"null","262301","pSARL_v2","pSARL_v2j1gjo2cx","577d11f88b3e2300016d74a0","freq_resp","img/green_2bandit_a.png","70","70","test","","","","5","",""
"null","262461","pSARL_v2","pSARL_v2j1gjo2cx","577d11f88b3e2300016d74a0","fixation","img/fixation.png","null","","test","","","","","",""
"658.8000000119209","263127","pSARL_v2","pSARL_v2j1gjo2cx","577d11f88b3e2300016d74a0","freq","img/green_2bandit_a2.png","70","70","test","1","94","94","5","",""
"null","263279","pSARL_v2","pSARL_v2j1gjo2cx","577d11f88b3e2300016d74a0","freq_resp","img/green_2bandit_a.png","70","70","test","","","","5","",""
"null","263448","pSARL_v2","pSARL_v2j1gjo2cx","577d11f88b3e2300016d74a0","fixation","img/fixation.png","null","","test","","","","","",""
"null","264260","pSARL_v2","pSARL_v2j1gjo2cx","577d11f88b3e2300016d74a0","infreq","img/orange_2bandit_a2.png","null","68","test","0","95","95","5","",""
"null","264422","pSARL_v2","pSARL_v2j1gjo2cx","577d11f88b3e2300016d74a0","fixation","img/fixation.png","null","","test","","","","","",""
"null","265236","pSARL_v2","pSARL_v2j1gjo2cx","577d11f88b3e2300016d74a0","freq","img/green_2bandit_a2.png","null","70","test","0","96","96","5","",""
"null","265399","pSARL_v2","pSARL_v2j1gjo2cx","577d11f88b3e2300016d74a0","fixation","img/fixation.png","null","","test","","","","","",""
"2.300000011920929","265409","pSARL_v2","pSARL_v2j1gjo2cx","577d11f88b3e2300016d74a0","freq","img/green_2bandit_a2.png","70","70","test","1","97","97","5","",""
"null","266219","pSARL_v2","pSARL_v2j1gjo2cx","577d11f88b3e2300016d74a0","freq_resp","img/green_2bandit_a.png","70","70","test","","","","5","",""
"null","266382","pSARL_v2","pSARL_v2j1gjo2cx","577d11f88b3e2300016d74a0","fixation","img/fixation.png","null","","test","","","","","",""
"576.3000000119209","266966","pSARL_v2","pSARL_v2j1gjo2cx","577d11f88b3e2300016d74a0","freq","img/green_2bandit_a2.png","70","70","test","1","98","98","5","",""
"null","267201","pSARL_v2","pSARL_v2j1gjo2cx","577d11f88b3e2300016d74a0","freq_resp","img/green_2bandit_a.png","70","70","test","","","","5","",""
"null","267365","pSARL_v2","pSARL_v2j1gjo2cx","577d11f88b3e2300016d74a0","fixation","img/fixation.png","null","","test","","","","","",""
"353","267726","pSARL_v2","pSARL_v2j1gjo2cx","577d11f88b3e2300016d74a0","freq","img/green_2bandit_a2.png","70","70","test","1","99","99","5","",""
"null","268189","pSARL_v2","pSARL_v2j1gjo2cx","577d11f88b3e2300016d74a0","freq_resp","img/green_2bandit_a.png","70","70","test","","","","5","",""
"null","268349","pSARL_v2","pSARL_v2j1gjo2cx","577d11f88b3e2300016d74a0","fixation","img/fixation.png","null","","test","","","","","",""
"225.90000000596046","268585","pSARL_v2","pSARL_v2j1gjo2cx","577d11f88b3e2300016d74a0","freq","img/green_2bandit_a2.png","70","70","test","1","100","100","5","",""
"null","269176","pSARL_v2","pSARL_v2j1gjo2cx","577d11f88b3e2300016d74a0","freq_resp","img/green_2bandit_a.png","70","70","test","","","","5","",""
"null","269343","pSARL_v2","pSARL_v2j1gjo2cx","577d11f88b3e2300016d74a0","fixation","img/fixation.png","null","","test","","","","","",""
"159.09999999403954","269514","pSARL_v2","pSARL_v2j1gjo2cx","577d11f88b3e2300016d74a0","freq","img/green_2bandit_a2.png","70","70","test","1","101","101","5","",""
"null","270165","pSARL_v2","pSARL_v2j1gjo2cx","577d11f88b3e2300016d74a0","freq_resp","img/green_2bandit_a.png","70","70","test","","","","5","",""
"null","270327","pSARL_v2","pSARL_v2j1gjo2cx","577d11f88b3e2300016d74a0","fixation","img/fixation.png","null","","test","","","","","",""
"177.90000000596046","270516","pSARL_v2","pSARL_v2j1gjo2cx","577d11f88b3e2300016d74a0","freq","img/green_2bandit_a2.png","70","70","test","1","102","102","5","",""
"null","271149","pSARL_v2","pSARL_v2j1gjo2cx","577d11f88b3e2300016d74a0","freq_resp","img/green_2bandit_a.png","70","70","test","","","","5","",""
"null","271308","pSARL_v2","pSARL_v2j1gjo2cx","577d11f88b3e2300016d74a0","fixation","img/fixation.png","null","","test","","","","","",""
"182.59999999403954","271500","pSARL_v2","pSARL_v2j1gjo2cx","577d11f88b3e2300016d74a0","infreq","img/orange_2bandit_a2.png","70","68","test","0","103","103","5","",""
"null","272133","pSARL_v2","pSARL_v2j1gjo2cx","577d11f88b3e2300016d74a0","infreq_resp","img/orange_2bandit_a.png","70","68","test","","","","5","",""
"null","272296","pSARL_v2","pSARL_v2j1gjo2cx","577d11f88b3e2300016d74a0","fixation","img/fixation.png","null","","test","","","","","",""
"430.10000002384186","272739","pSARL_v2","pSARL_v2j1gjo2cx","577d11f88b3e2300016d74a0","freq","img/green_2bandit_a2.png","70","70","test","1","104","104","5","",""
"null","273117","pSARL_v2","pSARL_v2j1gjo2cx","577d11f88b3e2300016d74a0","freq_resp","img/green_2bandit_a.png","70","70","test","","","","5","",""
"null","273280","pSARL_v2","pSARL_v2j1gjo2cx","577d11f88b3e2300016d74a0","fixation","img/fixation.png","null","","test","","","","","",""
"402.40000000596046","273692","pSARL_v2","pSARL_v2j1gjo2cx","577d11f88b3e2300016d74a0","freq","img/green_2bandit_a2.png","70","70","test","1","105","105","5","",""
"null","274099","pSARL_v2","pSARL_v2j1gjo2cx","577d11f88b3e2300016d74a0","freq_resp","img/green_2bandit_a.png","70","70","test","","","","5","",""
"null","274259","pSARL_v2","pSARL_v2j1gjo2cx","577d11f88b3e2300016d74a0","fixation","img/fixation.png","null","","test","","","","","",""
"331.30000001192093","274597","pSARL_v2","pSARL_v2j1gjo2cx","577d11f88b3e2300016d74a0","freq","img/green_2bandit_a2.png","70","70","test","1","106","106","5","",""
"null","275078","pSARL_v2","pSARL_v2j1gjo2cx","577d11f88b3e2300016d74a0","freq_resp","img/green_2bandit_a.png","70","70","test","","","","5","",""
"null","275237","pSARL_v2","pSARL_v2j1gjo2cx","577d11f88b3e2300016d74a0","fixation","img/fixation.png","null","","test","","","","","",""
"290.89999997615814","275538","pSARL_v2","pSARL_v2j1gjo2cx","577d11f88b3e2300016d74a0","freq","img/green_2bandit_a2.png","70","70","test","1","107","107","5","",""
"null","276060","pSARL_v2","pSARL_v2j1gjo2cx","577d11f88b3e2300016d74a0","freq_resp","img/green_2bandit_a.png","70","70","test","","","","5","",""
"null","276222","pSARL_v2","pSARL_v2j1gjo2cx","577d11f88b3e2300016d74a0","fixation","img/fixation.png","null","","test","","","","","",""
"352.59999999403954","276583","pSARL_v2","pSARL_v2j1gjo2cx","577d11f88b3e2300016d74a0","freq","img/green_2bandit_a2.png","70","70","test","1","108","108","5","",""
"null","277047","pSARL_v2","pSARL_v2j1gjo2cx","577d11f88b3e2300016d74a0","freq_resp","img/green_2bandit_a.png","70","70","test","","","","5","",""
"null","277215","pSARL_v2","pSARL_v2j1gjo2cx","577d11f88b3e2300016d74a0","fixation","img/fixation.png","null","","test","","","","","",""
"385.59999999403954","277608","pSARL_v2","pSARL_v2j1gjo2cx","577d11f88b3e2300016d74a0","freq","img/green_2bandit_a2.png","70","70","test","1","109","109","5","",""
"null","278038","pSARL_v2","pSARL_v2j1gjo2cx","577d11f88b3e2300016d74a0","freq_resp","img/green_2bandit_a.png","70","70","test","","","","5","",""
"null","278197","pSARL_v2","pSARL_v2j1gjo2cx","577d11f88b3e2300016d74a0","fixation","img/fixation.png","null","","test","","","","","",""
"371.10000002384186","278577","pSARL_v2","pSARL_v2j1gjo2cx","577d11f88b3e2300016d74a0","freq","img/green_2bandit_a2.png","70","70","test","1","110","110","5","",""
"null","279014","pSARL_v2","pSARL_v2j1gjo2cx","577d11f88b3e2300016d74a0","freq_resp","img/green_2bandit_a.png","70","70","test","","","","5","",""
"null","279175","pSARL_v2","pSARL_v2j1gjo2cx","577d11f88b3e2300016d74a0","fixation","img/fixation.png","null","","test","","","","","",""
"383.80000001192093","279569","pSARL_v2","pSARL_v2j1gjo2cx","577d11f88b3e2300016d74a0","freq","img/green_2bandit_a2.png","70","70","test","1","111","111","5","",""
"null","279997","pSARL_v2","pSARL_v2j1gjo2cx","577d11f88b3e2300016d74a0","freq_resp","img/green_2bandit_a.png","70","70","test","","","","5","",""
"null","280157","pSARL_v2","pSARL_v2j1gjo2cx","577d11f88b3e2300016d74a0","fixation","img/fixation.png","null","","test","","","","","",""
"286","280450","pSARL_v2","pSARL_v2j1gjo2cx","577d11f88b3e2300016d74a0","freq","img/green_2bandit_a2.png","70","70","test","1","112","112","5","",""
"null","280972","pSARL_v2","pSARL_v2j1gjo2cx","577d11f88b3e2300016d74a0","freq_resp","img/green_2bandit_a.png","70","70","test","","","","5","",""
"null","281134","pSARL_v2","pSARL_v2j1gjo2cx","577d11f88b3e2300016d74a0","fixation","img/fixation.png","null","","test","","","","","",""
"172.7999999821186","281316","pSARL_v2","pSARL_v2j1gjo2cx","577d11f88b3e2300016d74a0","freq","img/green_2bandit_a2.png","70","70","test","1","113","113","5","",""
"null","281958","pSARL_v2","pSARL_v2j1gjo2cx","577d11f88b3e2300016d74a0","freq_resp","img/green_2bandit_a.png","70","70","test","","","","5","",""
"null","282118","pSARL_v2","pSARL_v2j1gjo2cx","577d11f88b3e2300016d74a0","fixation","img/fixation.png","null","","test","","","","","",""
"327.09999999403954","282455","pSARL_v2","pSARL_v2j1gjo2cx","577d11f88b3e2300016d74a0","freq","img/green_2bandit_a2.png","70","70","test","1","114","114","5","",""
"null","282942","pSARL_v2","pSARL_v2j1gjo2cx","577d11f88b3e2300016d74a0","freq_resp","img/green_2bandit_a.png","70","70","test","","","","5","",""
"null","283102","pSARL_v2","pSARL_v2j1gjo2cx","577d11f88b3e2300016d74a0","fixation","img/fixation.png","null","","test","","","","","",""
"355.2000000178814","283467","pSARL_v2","pSARL_v2j1gjo2cx","577d11f88b3e2300016d74a0","freq","img/green_2bandit_a2.png","70","70","test","1","115","115","5","",""
"null","283924","pSARL_v2","pSARL_v2j1gjo2cx","577d11f88b3e2300016d74a0","freq_resp","img/green_2bandit_a.png","70","70","test","","","","5","",""
"null","284086","pSARL_v2","pSARL_v2j1gjo2cx","577d11f88b3e2300016d74a0","fixation","img/fixation.png","null","","test","","","","","",""
"546.0999999940395","284640","pSARL_v2","pSARL_v2j1gjo2cx","577d11f88b3e2300016d74a0","reward","img/slot.png","74","","test","","","","","",""
"null","285404","pSARL_v2","pSARL_v2j1gjo2cx","577d11f88b3e2300016d74a0","points","<div class=""veryhighPoints""> +1 </div>","null","na","test","","","","5","1","4"
"610.3000000119209","286021","pSARL_v2","pSARL_v2j1gjo2cx","577d11f88b3e2300016d74a0","freq","img/green_2bandit_a2.png","70","70","test","1","116","116","6","",""
"null","286224","pSARL_v2","pSARL_v2j1gjo2cx","577d11f88b3e2300016d74a0","freq_resp","img/green_2bandit_a.png","70","70","test","","","","6","",""
"null","286392","pSARL_v2","pSARL_v2j1gjo2cx","577d11f88b3e2300016d74a0","fixation","img/fixation.png","null","","test","","","","","",""
"541.8999999761581","286946","pSARL_v2","pSARL_v2j1gjo2cx","577d11f88b3e2300016d74a0","freq","img/green_2bandit_a2.png","70","70","test","1","117","117","6","",""
"null","287224","pSARL_v2","pSARL_v2j1gjo2cx","577d11f88b3e2300016d74a0","freq_resp","img/green_2bandit_a.png","70","70","test","","","","6","",""
"null","287391","pSARL_v2","pSARL_v2j1gjo2cx","577d11f88b3e2300016d74a0","fixation","img/fixation.png","null","","test","","","","","",""
"561.7999999821186","287961","pSARL_v2","pSARL_v2j1gjo2cx","577d11f88b3e2300016d74a0","infreq","img/orange_2bandit_a2.png","70","68","test","0","118","118","6","",""
"null","288215","pSARL_v2","pSARL_v2j1gjo2cx","577d11f88b3e2300016d74a0","infreq_resp","img/orange_2bandit_a.png","70","68","test","","","","6","",""
"null","288382","pSARL_v2","pSARL_v2j1gjo2cx","577d11f88b3e2300016d74a0","fixation","img/fixation.png","null","","test","","","","","",""
"523","288916","pSARL_v2","pSARL_v2j1gjo2cx","577d11f88b3e2300016d74a0","freq","img/green_2bandit_a2.png","70","70","test","1","119","119","6","",""
"null","289206","pSARL_v2","pSARL_v2j1gjo2cx","577d11f88b3e2300016d74a0","freq_resp","img/green_2bandit_a.png","70","70","test","","","","6","",""
"null","289369","pSARL_v2","pSARL_v2j1gjo2cx","577d11f88b3e2300016d74a0","fixation","img/fixation.png","null","","test","","","","","",""
"380.09999999403954","289762","pSARL_v2","pSARL_v2j1gjo2cx","577d11f88b3e2300016d74a0","freq","img/green_2bandit_a2.png","70","70","test","1","120","120","6","",""
"null","290197","pSARL_v2","pSARL_v2j1gjo2cx","577d11f88b3e2300016d74a0","freq_resp","img/green_2bandit_a.png","70","70","test","","","","6","",""
"null","290357","pSARL_v2","pSARL_v2j1gjo2cx","577d11f88b3e2300016d74a0","fixation","img/fixation.png","null","","test","","","","","",""
"375.80000001192093","290743","pSARL_v2","pSARL_v2j1gjo2cx","577d11f88b3e2300016d74a0","freq","img/green_2bandit_a2.png","70","70","test","1","121","121","6","",""
"null","291181","pSARL_v2","pSARL_v2j1gjo2cx","577d11f88b3e2300016d74a0","freq_resp","img/green_2bandit_a.png","70","70","test","","","","6","",""
"null","291341","pSARL_v2","pSARL_v2j1gjo2cx","577d11f88b3e2300016d74a0","fixation","img/fixation.png","null","","test","","","","","",""
"417.60000002384186","291769","pSARL_v2","pSARL_v2j1gjo2cx","577d11f88b3e2300016d74a0","freq","img/green_2bandit_a2.png","70","70","test","1","122","122","6","",""
"null","292169","pSARL_v2","pSARL_v2j1gjo2cx","577d11f88b3e2300016d74a0","freq_resp","img/green_2bandit_a.png","70","70","test","","","","6","",""
"null","292335","pSARL_v2","pSARL_v2j1gjo2cx","577d11f88b3e2300016d74a0","fixation","img/fixation.png","null","","test","","","","","",""
"281.5","292626","pSARL_v2","pSARL_v2j1gjo2cx","577d11f88b3e2300016d74a0","freq","img/green_2bandit_a2.png","70","70","test","1","123","123","6","",""
"null","293158","pSARL_v2","pSARL_v2j1gjo2cx","577d11f88b3e2300016d74a0","freq_resp","img/green_2bandit_a.png","70","70","test","","","","6","",""
"null","293317","pSARL_v2","pSARL_v2j1gjo2cx","577d11f88b3e2300016d74a0","fixation","img/fixation.png","null","","test","","","","","",""
"453","293779","pSARL_v2","pSARL_v2j1gjo2cx","577d11f88b3e2300016d74a0","infreq","img/orange_2bandit_a2.png","68","68","test","1","124","124","6","",""
"null","294142","pSARL_v2","pSARL_v2j1gjo2cx","577d11f88b3e2300016d74a0","infreq_resp","img/orange_2bandit_a.png","68","68","test","","","","6","",""
"null","294303","pSARL_v2","pSARL_v2j1gjo2cx","577d11f88b3e2300016d74a0","fixation","img/fixation.png","null","","test","","","","","",""
"395.19999998807907","294708","pSARL_v2","pSARL_v2j1gjo2cx","577d11f88b3e2300016d74a0","freq","img/green_2bandit_a2.png","70","70","test","1","125","125","6","",""
"null","295125","pSARL_v2","pSARL_v2j1gjo2cx","577d11f88b3e2300016d74a0","freq_resp","img/green_2bandit_a.png","70","70","test","","","","6","",""
"null","295286","pSARL_v2","pSARL_v2j1gjo2cx","577d11f88b3e2300016d74a0","fixation","img/fixation.png","null","","test","","","","","",""
"342.90000000596046","295639","pSARL_v2","pSARL_v2j1gjo2cx","577d11f88b3e2300016d74a0","freq","img/green_2bandit_a2.png","70","70","test","1","126","126","6","",""
"null","296109","pSARL_v2","pSARL_v2j1gjo2cx","577d11f88b3e2300016d74a0","freq_resp","img/green_2bandit_a.png","70","70","test","","","","6","",""
"null","296270","pSARL_v2","pSARL_v2j1gjo2cx","577d11f88b3e2300016d74a0","fixation","img/fixation.png","null","","test","","","","","",""
"355.80000001192093","296632","pSARL_v2","pSARL_v2j1gjo2cx","577d11f88b3e2300016d74a0","freq","img/green_2bandit_a2.png","70","70","test","1","127","127","6","",""
"null","297084","pSARL_v2","pSARL_v2j1gjo2cx","577d11f88b3e2300016d74a0","freq_resp","img/green_2bandit_a.png","70","70","test","","","","6","",""
"null","297245","pSARL_v2","pSARL_v2j1gjo2cx","577d11f88b3e2300016d74a0","fixation","img/fixation.png","null","","test","","","","","",""
"360","297615","pSARL_v2","pSARL_v2j1gjo2cx","577d11f88b3e2300016d74a0","freq","img/green_2bandit_a2.png","70","70","test","1","128","128","6","",""
"null","298069","pSARL_v2","pSARL_v2j1gjo2cx","577d11f88b3e2300016d74a0","freq_resp","img/green_2bandit_a.png","70","70","test","","","","6","",""
"null","298230","pSARL_v2","pSARL_v2j1gjo2cx","577d11f88b3e2300016d74a0","fixation","img/fixation.png","null","","test","","","","","",""
"365.2000000178814","298604","pSARL_v2","pSARL_v2j1gjo2cx","577d11f88b3e2300016d74a0","freq","img/green_2bandit_a2.png","70","70","test","1","129","129","6","",""
"null","299055","pSARL_v2","pSARL_v2j1gjo2cx","577d11f88b3e2300016d74a0","freq_resp","img/green_2bandit_a.png","70","70","test","","","","6","",""
"null","299221","pSARL_v2","pSARL_v2j1gjo2cx","577d11f88b3e2300016d74a0","fixation","img/fixation.png","null","","test","","","","","",""
"388.19999998807907","299616","pSARL_v2","pSARL_v2j1gjo2cx","577d11f88b3e2300016d74a0","freq","img/green_2bandit_a2.png","70","70","test","1","130","130","6","",""
"null","300038","pSARL_v2","pSARL_v2j1gjo2cx","577d11f88b3e2300016d74a0","freq_resp","img/green_2bandit_a.png","70","70","test","","","","6","",""
"null","300199","pSARL_v2","pSARL_v2j1gjo2cx","577d11f88b3e2300016d74a0","fixation","img/fixation.png","null","","test","","","","","",""
"384.2000000178814","300593","pSARL_v2","pSARL_v2j1gjo2cx","577d11f88b3e2300016d74a0","freq","img/green_2bandit_a2.png","70","70","test","1","131","131","6","",""
"null","301021","pSARL_v2","pSARL_v2j1gjo2cx","577d11f88b3e2300016d74a0","freq_resp","img/green_2bandit_a.png","70","70","test","","","","6","",""
"null","301181","pSARL_v2","pSARL_v2j1gjo2cx","577d11f88b3e2300016d74a0","fixation","img/fixation.png","null","","test","","","","","",""
"363.5","301552","pSARL_v2","pSARL_v2j1gjo2cx","577d11f88b3e2300016d74a0","freq","img/green_2bandit_a2.png","70","70","test","1","132","132","6","",""
"null","302007","pSARL_v2","pSARL_v2j1gjo2cx","577d11f88b3e2300016d74a0","freq_resp","img/green_2bandit_a.png","70","70","test","","","","6","",""
"null","302173","pSARL_v2","pSARL_v2j1gjo2cx","577d11f88b3e2300016d74a0","fixation","img/fixation.png","null","","test","","","","","",""
"340.5","302523","pSARL_v2","pSARL_v2j1gjo2cx","577d11f88b3e2300016d74a0","freq","img/green_2bandit_a2.png","70","70","test","1","133","133","6","",""
"null","302996","pSARL_v2","pSARL_v2j1gjo2cx","577d11f88b3e2300016d74a0","freq_resp","img/green_2bandit_a.png","70","70","test","","","","6","",""
"null","303158","pSARL_v2","pSARL_v2j1gjo2cx","577d11f88b3e2300016d74a0","fixation","img/fixation.png","null","","test","","","","","",""
"361.19999998807907","303527","pSARL_v2","pSARL_v2j1gjo2cx","577d11f88b3e2300016d74a0","freq","img/green_2bandit_a2.png","70","70","test","1","134","134","6","",""
"null","303973","pSARL_v2","pSARL_v2j1gjo2cx","577d11f88b3e2300016d74a0","freq_resp","img/green_2bandit_a.png","70","70","test","","","","6","",""
"null","304134","pSARL_v2","pSARL_v2j1gjo2cx","577d11f88b3e2300016d74a0","fixation","img/fixation.png","null","","test","","","","","",""
"367.5","304511","pSARL_v2","pSARL_v2j1gjo2cx","577d11f88b3e2300016d74a0","freq","img/green_2bandit_a2.png","70","70","test","1","135","135","6","",""
"null","304957","pSARL_v2","pSARL_v2j1gjo2cx","577d11f88b3e2300016d74a0","freq_resp","img/green_2bandit_a.png","70","70","test","","","","6","",""
"null","305119","pSARL_v2","pSARL_v2j1gjo2cx","577d11f88b3e2300016d74a0","fixation","img/fixation.png","null","","test","","","","","",""
"163.40000000596046","305294","pSARL_v2","pSARL_v2j1gjo2cx","577d11f88b3e2300016d74a0","freq","img/green_2bandit_a2.png","70","70","test","1","136","136","6","",""
"null","305941","pSARL_v2","pSARL_v2j1gjo2cx","577d11f88b3e2300016d74a0","freq_resp","img/green_2bandit_a.png","70","70","test","","","","6","",""
"null","306100","pSARL_v2","pSARL_v2j1gjo2cx","577d11f88b3e2300016d74a0","fixation","img/fixation.png","null","","test","","","","","",""
"236.2999999821186","306345","pSARL_v2","pSARL_v2j1gjo2cx","577d11f88b3e2300016d74a0","freq","img/green_2bandit_a2.png","70","70","test","1","137","137","6","",""
"null","306925","pSARL_v2","pSARL_v2j1gjo2cx","577d11f88b3e2300016d74a0","freq_resp","img/green_2bandit_a.png","70","70","test","","","","6","",""
"null","307086","pSARL_v2","pSARL_v2j1gjo2cx","577d11f88b3e2300016d74a0","fixation","img/fixation.png","null","","test","","","","","",""
"376","307474","pSARL_v2","pSARL_v2j1gjo2cx","577d11f88b3e2300016d74a0","freq","img/green_2bandit_a2.png","70","70","test","1","138","138","6","",""
"null","307912","pSARL_v2","pSARL_v2j1gjo2cx","577d11f88b3e2300016d74a0","freq_resp","img/green_2bandit_a.png","70","70","test","","","","6","",""
"null","308079","pSARL_v2","pSARL_v2j1gjo2cx","577d11f88b3e2300016d74a0","fixation","img/fixation.png","null","","test","","","","","",""
"349.7999999821186","308438","pSARL_v2","pSARL_v2j1gjo2cx","577d11f88b3e2300016d74a0","freq","img/green_2bandit_a2.png","70","70","test","1","139","139","6","",""
"null","308901","pSARL_v2","pSARL_v2j1gjo2cx","577d11f88b3e2300016d74a0","freq_resp","img/green_2bandit_a.png","70","70","test","","","","6","",""
"null","309061","pSARL_v2","pSARL_v2j1gjo2cx","577d11f88b3e2300016d74a0","fixation","img/fixation.png","null","","test","","","","","",""
"471.59999999403954","309541","pSARL_v2","pSARL_v2j1gjo2cx","577d11f88b3e2300016d74a0","reward","img/slot.png","74","","test","","","","","",""
"null","310302","pSARL_v2","pSARL_v2j1gjo2cx","577d11f88b3e2300016d74a0","points","<div class=""verylowPoints""> -7 </div>","null","na","test","","","","6","-7","5"
"355.80000001192093","310667","pSARL_v2","pSARL_v2j1gjo2cx","577d11f88b3e2300016d74a0","freq","img/green_2bandit_a2.png","70","70","test","1","140","140","7","",""
"null","311124","pSARL_v2","pSARL_v2j1gjo2cx","577d11f88b3e2300016d74a0","freq_resp","img/green_2bandit_a.png","70","70","test","","","","7","",""
"null","311285","pSARL_v2","pSARL_v2j1gjo2cx","577d11f88b3e2300016d74a0","fixation","img/fixation.png","null","","test","","","","","",""
"363.90000000596046","311658","pSARL_v2","pSARL_v2j1gjo2cx","577d11f88b3e2300016d74a0","freq","img/green_2bandit_a2.png","70","70","test","1","141","141","7","",""
"null","312110","pSARL_v2","pSARL_v2j1gjo2cx","577d11f88b3e2300016d74a0","freq_resp","img/green_2bandit_a.png","70","70","test","","","","7","",""
"null","312270","pSARL_v2","pSARL_v2j1gjo2cx","577d11f88b3e2300016d74a0","fixation","img/fixation.png","null","","test","","","","","",""
"369.39999997615814","312647","pSARL_v2","pSARL_v2j1gjo2cx","577d11f88b3e2300016d74a0","freq","img/green_2bandit_a2.png","70","70","test","1","142","142","7","",""
"null","313085","pSARL_v2","pSARL_v2j1gjo2cx","577d11f88b3e2300016d74a0","freq_resp","img/green_2bandit_a.png","70","70","test","","","","7","",""
"null","313246","pSARL_v2","pSARL_v2j1gjo2cx","577d11f88b3e2300016d74a0","fixation","img/fixation.png","null","","test","","","","","",""
"null","314062","pSARL_v2","pSARL_v2j1gjo2cx","577d11f88b3e2300016d74a0","infreq","img/orange_2bandit_a2.png","null","68","test","0","143","143","7","",""
"null","314229","pSARL_v2","pSARL_v2j1gjo2cx","577d11f88b3e2300016d74a0","fixation","img/fixation.png","null","","test","","","","","",""
"662.0999999940395","314903","pSARL_v2","pSARL_v2j1gjo2cx","577d11f88b3e2300016d74a0","freq","img/green_2bandit_a2.png","70","70","test","1","144","144","7","",""
"null","315055","pSARL_v2","pSARL_v2j1gjo2cx","577d11f88b3e2300016d74a0","freq_resp","img/green_2bandit_a.png","70","70","test","","","","7","",""
"null","315223","pSARL_v2","pSARL_v2j1gjo2cx","577d11f88b3e2300016d74a0","fixation","img/fixation.png","null","","test","","","","","",""
"407.40000000596046","315638","pSARL_v2","pSARL_v2j1gjo2cx","577d11f88b3e2300016d74a0","freq","img/green_2bandit_a2.png","70","70","test","1","145","145","7","",""
"null","316045","pSARL_v2","pSARL_v2j1gjo2cx","577d11f88b3e2300016d74a0","freq_resp","img/green_2bandit_a.png","70","70","test","","","","7","",""
"null","316206","pSARL_v2","pSARL_v2j1gjo2cx","577d11f88b3e2300016d74a0","fixation","img/fixation.png","null","","test","","","","","",""
"360.7999999821186","316574","pSARL_v2","pSARL_v2j1gjo2cx","577d11f88b3e2300016d74a0","freq","img/green_2bandit_a2.png","70","70","test","1","146","146","7","",""
"null","317028","pSARL_v2","pSARL_v2j1gjo2cx","577d11f88b3e2300016d74a0","freq_resp","img/green_2bandit_a.png","70","70","test","","","","7","",""
"null","317189","pSARL_v2","pSARL_v2j1gjo2cx","577d11f88b3e2300016d74a0","fixation","img/fixation.png","null","","test","","","","","",""
"230.69999998807907","317432","pSARL_v2","pSARL_v2j1gjo2cx","577d11f88b3e2300016d74a0","infreq","img/orange_2bandit_a2.png","70","68","test","0","147","147","7","",""
"null","318015","pSARL_v2","pSARL_v2j1gjo2cx","577d11f88b3e2300016d74a0","infreq_resp","img/orange_2bandit_a.png","70","68","test","","","","7","",""
"null","318184","pSARL_v2","pSARL_v2j1gjo2cx","577d11f88b3e2300016d74a0","fixation","img/fixation.png","null","","test","","","","","",""
"622.1000000238419","318813","pSARL_v2","pSARL_v2j1gjo2cx","577d11f88b3e2300016d74a0","freq","img/green_2bandit_a2.png","70","70","test","1","148","148","7","",""
"null","319001","pSARL_v2","pSARL_v2j1gjo2cx","577d11f88b3e2300016d74a0","freq_resp","img/green_2bandit_a.png","70","70","test","","","","7","",""
"null","319167","pSARL_v2","pSARL_v2j1gjo2cx","577d11f88b3e2300016d74a0","fixation","img/fixation.png","null","","test","","","","","",""
"396.80000001192093","319574","pSARL_v2","pSARL_v2j1gjo2cx","577d11f88b3e2300016d74a0","freq","img/green_2bandit_a2.png","70","70","test","1","149","149","7","",""
"null","319992","pSARL_v2","pSARL_v2j1gjo2cx","577d11f88b3e2300016d74a0","freq_resp","img/green_2bandit_a.png","70","70","test","","","","7","",""
"null","320160","pSARL_v2","pSARL_v2j1gjo2cx","577d11f88b3e2300016d74a0","fixation","img/fixation.png","null","","test","","","","","",""
"437.40000000596046","320605","pSARL_v2","pSARL_v2j1gjo2cx","577d11f88b3e2300016d74a0","freq","img/green_2bandit_a2.png","70","70","test","1","150","150","7","",""
"null","320981","pSARL_v2","pSARL_v2j1gjo2cx","577d11f88b3e2300016d74a0","freq_resp","img/green_2bandit_a.png","70","70","test","","","","7","",""
"null","321142","pSARL_v2","pSARL_v2j1gjo2cx","577d11f88b3e2300016d74a0","fixation","img/fixation.png","null","","test","","","","","",""
"349.30000001192093","321498","pSARL_v2","pSARL_v2j1gjo2cx","577d11f88b3e2300016d74a0","freq","img/green_2bandit_a2.png","70","70","test","1","151","151","7","",""
"null","321966","pSARL_v2","pSARL_v2j1gjo2cx","577d11f88b3e2300016d74a0","freq_resp","img/green_2bandit_a.png","70","70","test","","","","7","",""
"null","322126","pSARL_v2","pSARL_v2j1gjo2cx","577d11f88b3e2300016d74a0","fixation","img/fixation.png","null","","test","","","","","",""
"412.59999999403954","322548","pSARL_v2","pSARL_v2j1gjo2cx","577d11f88b3e2300016d74a0","freq","img/green_2bandit_a2.png","70","70","test","1","152","152","7","",""
"null","322949","pSARL_v2","pSARL_v2j1gjo2cx","577d11f88b3e2300016d74a0","freq_resp","img/green_2bandit_a.png","70","70","test","","","","7","",""
"null","323109","pSARL_v2","pSARL_v2j1gjo2cx","577d11f88b3e2300016d74a0","fixation","img/fixation.png","null","","test","","","","","",""
"347.2999999821186","323467","pSARL_v2","pSARL_v2j1gjo2cx","577d11f88b3e2300016d74a0","freq","img/green_2bandit_a2.png","70","70","test","1","153","153","7","",""
"null","323933","pSARL_v2","pSARL_v2j1gjo2cx","577d11f88b3e2300016d74a0","freq_resp","img/green_2bandit_a.png","70","70","test","","","","7","",""
"null","324092","pSARL_v2","pSARL_v2j1gjo2cx","577d11f88b3e2300016d74a0","fixation","img/fixation.png","null","","test","","","","","",""
"349.90000000596046","324450","pSARL_v2","pSARL_v2j1gjo2cx","577d11f88b3e2300016d74a0","freq","img/green_2bandit_a2.png","70","70","test","1","154","154","7","",""
"null","324919","pSARL_v2","pSARL_v2j1gjo2cx","577d11f88b3e2300016d74a0","freq_resp","img/green_2bandit_a.png","70","70","test","","","","7","",""
"null","325078","pSARL_v2","pSARL_v2j1gjo2cx","577d11f88b3e2300016d74a0","fixation","img/fixation.png","null","","test","","","","","",""
"268","325354","pSARL_v2","pSARL_v2j1gjo2cx","577d11f88b3e2300016d74a0","freq","img/green_2bandit_a2.png","70","70","test","1","155","155","7","",""
"null","325901","pSARL_v2","pSARL_v2j1gjo2cx","577d11f88b3e2300016d74a0","freq_resp","img/green_2bandit_a.png","70","70","test","","","","7","",""
"null","326062","pSARL_v2","pSARL_v2j1gjo2cx","577d11f88b3e2300016d74a0","fixation","img/fixation.png","null","","test","","","","","",""
"339.40000000596046","326413","pSARL_v2","pSARL_v2j1gjo2cx","577d11f88b3e2300016d74a0","freq","img/green_2bandit_a2.png","70","70","test","1","156","156","7","",""
"null","326885","pSARL_v2","pSARL_v2j1gjo2cx","577d11f88b3e2300016d74a0","freq_resp","img/green_2bandit_a.png","70","70","test","","","","7","",""
"null","327045","pSARL_v2","pSARL_v2j1gjo2cx","577d11f88b3e2300016d74a0","fixation","img/fixation.png","null","","test","","","","","",""
"362","327416","pSARL_v2","pSARL_v2j1gjo2cx","577d11f88b3e2300016d74a0","freq","img/green_2bandit_a2.png","70","70","test","1","157","157","7","",""
"null","327869","pSARL_v2","pSARL_v2j1gjo2cx","577d11f88b3e2300016d74a0","freq_resp","img/green_2bandit_a.png","70","70","test","","","","7","",""
"null","328029","pSARL_v2","pSARL_v2j1gjo2cx","577d11f88b3e2300016d74a0","fixation","img/fixation.png","null","","test","","","","","",""
"437.5","328476","pSARL_v2","pSARL_v2j1gjo2cx","577d11f88b3e2300016d74a0","infreq","img/orange_2bandit_a2.png","68","68","test","1","158","158","7","",""
"null","328853","pSARL_v2","pSARL_v2j1gjo2cx","577d11f88b3e2300016d74a0","infreq_resp","img/orange_2bandit_a.png","68","68","test","","","","7","",""
"null","329012","pSARL_v2","pSARL_v2j1gjo2cx","577d11f88b3e2300016d74a0","fixation","img/fixation.png","null","","test","","","","","",""
"621.2000000178814","329642","pSARL_v2","pSARL_v2j1gjo2cx","577d11f88b3e2300016d74a0","freq","img/green_2bandit_a2.png","70","70","test","1","159","159","7","",""
"null","329829","pSARL_v2","pSARL_v2j1gjo2cx","577d11f88b3e2300016d74a0","freq_resp","img/green_2bandit_a.png","70","70","test","","","","7","",""
"null","329991","pSARL_v2","pSARL_v2j1gjo2cx","577d11f88b3e2300016d74a0","fixation","img/fixation.png","null","","test","","","","","",""
"516","330515","pSARL_v2","pSARL_v2j1gjo2cx","577d11f88b3e2300016d74a0","freq","img/green_2bandit_a2.png","70","70","test","1","160","160","7","",""
"null","330818","pSARL_v2","pSARL_v2j1gjo2cx","577d11f88b3e2300016d74a0","freq_resp","img/green_2bandit_a.png","70","70","test","","","","7","",""
"null","330986","pSARL_v2","pSARL_v2j1gjo2cx","577d11f88b3e2300016d74a0","fixation","img/fixation.png","null","","test","","","","","",""
"416","331411","pSARL_v2","pSARL_v2j1gjo2cx","577d11f88b3e2300016d74a0","freq","img/green_2bandit_a2.png","70","70","test","1","161","161","7","",""
"null","331807","pSARL_v2","pSARL_v2j1gjo2cx","577d11f88b3e2300016d74a0","freq_resp","img/green_2bandit_a.png","70","70","test","","","","7","",""
"null","331973","pSARL_v2","pSARL_v2j1gjo2cx","577d11f88b3e2300016d74a0","fixation","img/fixation.png","null","","test","","","","","",""
"380.09999999403954","332362","pSARL_v2","pSARL_v2j1gjo2cx","577d11f88b3e2300016d74a0","freq","img/green_2bandit_a2.png","70","70","test","1","162","162","7","",""
"null","332797","pSARL_v2","pSARL_v2j1gjo2cx","577d11f88b3e2300016d74a0","freq_resp","img/green_2bandit_a.png","70","70","test","","","","7","",""
"null","332960","pSARL_v2","pSARL_v2j1gjo2cx","577d11f88b3e2300016d74a0","fixation","img/fixation.png","null","","test","","","","","",""
"494.90000000596046","333465","pSARL_v2","pSARL_v2j1gjo2cx","577d11f88b3e2300016d74a0","reward","img/slot.png","74","","test","","","","","",""
"null","334229","pSARL_v2","pSARL_v2j1gjo2cx","577d11f88b3e2300016d74a0","points","<div class=""verylowPoints""> -6 </div>","null","na","test","","","","7","-6","6"
"null","335049","pSARL_v2","pSARL_v2j1gjo2cx","577d11f88b3e2300016d74a0","freq","img/green_2bandit_a2.png","null","70","test","0","163","163","8","",""
"null","335215","pSARL_v2","pSARL_v2j1gjo2cx","577d11f88b3e2300016d74a0","fixation","img/fixation.png","null","","test","","","","","",""
"110","335335","pSARL_v2","pSARL_v2j1gjo2cx","577d11f88b3e2300016d74a0","freq","img/green_2bandit_a2.png","70","70","test","1","164","164","8","",""
"null","336038","pSARL_v2","pSARL_v2j1gjo2cx","577d11f88b3e2300016d74a0","freq_resp","img/green_2bandit_a.png","70","70","test","","","","8","",""
"null","336197","pSARL_v2","pSARL_v2j1gjo2cx","577d11f88b3e2300016d74a0","fixation","img/fixation.png","null","","test","","","","","",""
"182.59999999403954","336389","pSARL_v2","pSARL_v2j1gjo2cx","577d11f88b3e2300016d74a0","freq","img/green_2bandit_a2.png","70","70","test","1","165","165","8","",""
"null","337021","pSARL_v2","pSARL_v2j1gjo2cx","577d11f88b3e2300016d74a0","freq_resp","img/green_2bandit_a.png","70","70","test","","","","8","",""
"null","337184","pSARL_v2","pSARL_v2j1gjo2cx","577d11f88b3e2300016d74a0","fixation","img/fixation.png","null","","test","","","","","",""
"151.80000001192093","337348","pSARL_v2","pSARL_v2j1gjo2cx","577d11f88b3e2300016d74a0","freq","img/green_2bandit_a2.png","70","70","test","1","166","166","8","",""
"null","338014","pSARL_v2","pSARL_v2j1gjo2cx","577d11f88b3e2300016d74a0","freq_resp","img/green_2bandit_a.png","70","70","test","","","","8","",""
"null","338178","pSARL_v2","pSARL_v2j1gjo2cx","577d11f88b3e2300016d74a0","fixation","img/fixation.png","null","","test","","","","","",""
"241","338429","pSARL_v2","pSARL_v2j1gjo2cx","577d11f88b3e2300016d74a0","freq","img/green_2bandit_a2.png","70","70","test","1","167","167","8","",""
"null","339000","pSARL_v2","pSARL_v2j1gjo2cx","577d11f88b3e2300016d74a0","freq_resp","img/green_2bandit_a.png","70","70","test","","","","8","",""
"null","339167","pSARL_v2","pSARL_v2j1gjo2cx","577d11f88b3e2300016d74a0","fixation","img/fixation.png","null","","test","","","","","",""
"346.60000002384186","339520","pSARL_v2","pSARL_v2j1gjo2cx","577d11f88b3e2300016d74a0","freq","img/green_2bandit_a2.png","70","70","test","1","168","168","8","",""
"null","339989","pSARL_v2","pSARL_v2j1gjo2cx","577d11f88b3e2300016d74a0","freq_resp","img/green_2bandit_a.png","70","70","test","","","","8","",""
"null","340150","pSARL_v2","pSARL_v2j1gjo2cx","577d11f88b3e2300016d74a0","fixation","img/fixation.png","null","","test","","","","","",""
"286.39999997615814","340447","pSARL_v2","pSARL_v2j1gjo2cx","577d11f88b3e2300016d74a0","freq","img/green_2bandit_a2.png","70","70","test","1","169","169","8","",""
"null","340973","pSARL_v2","pSARL_v2j1gjo2cx","577d11f88b3e2300016d74a0","freq_resp","img/green_2bandit_a.png","70","70","test","","","","8","",""
"null","341133","pSARL_v2","pSARL_v2j1gjo2cx","577d11f88b3e2300016d74a0","fixation","img/fixation.png","null","","test","","","","","",""
"367","341511","pSARL_v2","pSARL_v2j1gjo2cx","577d11f88b3e2300016d74a0","freq","img/green_2bandit_a2.png","70","70","test","1","170","170","8","",""
"null","341957","pSARL_v2","pSARL_v2j1gjo2cx","577d11f88b3e2300016d74a0","freq_resp","img/green_2bandit_a.png","70","70","test","","","","8","",""
"null","342117","pSARL_v2","pSARL_v2j1gjo2cx","577d11f88b3e2300016d74a0","fixation","img/fixation.png","null","","test","","","","","",""
"304","342429","pSARL_v2","pSARL_v2j1gjo2cx","577d11f88b3e2300016d74a0","freq","img/green_2bandit_a2.png","70","70","test","1","171","171","8","",""
"null","342940","pSARL_v2","pSARL_v2j1gjo2cx","577d11f88b3e2300016d74a0","freq_resp","img/green_2bandit_a.png","70","70","test","","","","8","",""
"null","343101","pSARL_v2","pSARL_v2j1gjo2cx","577d11f88b3e2300016d74a0","fixation","img/fixation.png","null","","test","","","","","",""
"348.69999998807907","343457","pSARL_v2","pSARL_v2j1gjo2cx","577d11f88b3e2300016d74a0","freq","img/green_2bandit_a2.png","70","70","test","1","172","172","8","",""
"null","343923","pSARL_v2","pSARL_v2j1gjo2cx","577d11f88b3e2300016d74a0","freq_resp","img/green_2bandit_a.png","70","70","test","","","","8","",""
"null","344083","pSARL_v2","pSARL_v2j1gjo2cx","577d11f88b3e2300016d74a0","fixation","img/fixation.png","null","","test","","","","","",""
"260.69999998807907","344353","pSARL_v2","pSARL_v2j1gjo2cx","577d11f88b3e2300016d74a0","infreq","img/orange_2bandit_a2.png","70","68","test","0","173","173","8","",""
"null","344902","pSARL_v2","pSARL_v2j1gjo2cx","577d11f88b3e2300016d74a0","infreq_resp","img/orange_2bandit_a.png","70","68","test","","","","8","",""
"null","345071","pSARL_v2","pSARL_v2j1gjo2cx","577d11f88b3e2300016d74a0","fixation","img/fixation.png","null","","test","","","","","",""
"null","345888","pSARL_v2","pSARL_v2j1gjo2cx","577d11f88b3e2300016d74a0","freq","img/green_2bandit_a2.png","null","70","test","0","174","174","8","",""
"null","346055","pSARL_v2","pSARL_v2j1gjo2cx","577d11f88b3e2300016d74a0","fixation","img/fixation.png","null","","test","","","","","",""
"594.5999999940395","346660","pSARL_v2","pSARL_v2j1gjo2cx","577d11f88b3e2300016d74a0","freq","img/green_2bandit_a2.png","70","70","test","1","175","175","8","",""
"null","346880","pSARL_v2","pSARL_v2j1gjo2cx","577d11f88b3e2300016d74a0","freq_resp","img/green_2bandit_a.png","70","70","test","","","","8","",""
"null","347048","pSARL_v2","pSARL_v2j1gjo2cx","577d11f88b3e2300016d74a0","fixation","img/fixation.png","null","","test","","","","","",""
"455.39999997615814","347514","pSARL_v2","pSARL_v2j1gjo2cx","577d11f88b3e2300016d74a0","freq","img/green_2bandit_a2.png","70","70","test","1","176","176","8","",""
"null","347869","pSARL_v2","pSARL_v2j1gjo2cx","577d11f88b3e2300016d74a0","freq_resp","img/green_2bandit_a.png","70","70","test","","","","8","",""
"null","348031","pSARL_v2","pSARL_v2j1gjo2cx","577d11f88b3e2300016d74a0","fixation","img/fixation.png","null","","test","","","","","",""
"369.7999999821186","348411","pSARL_v2","pSARL_v2j1gjo2cx","577d11f88b3e2300016d74a0","freq","img/green_2bandit_a2.png","70","70","test","1","177","177","8","",""
"null","348851","pSARL_v2","pSARL_v2j1gjo2cx","577d11f88b3e2300016d74a0","freq_resp","img/green_2bandit_a.png","70","70","test","","","","8","",""
"null","349013","pSARL_v2","pSARL_v2j1gjo2cx","577d11f88b3e2300016d74a0","fixation","img/fixation.png","null","","test","","","","","",""
"409.80000001192093","349431","pSARL_v2","pSARL_v2j1gjo2cx","577d11f88b3e2300016d74a0","infreq","img/orange_2bandit_a2.png","68","68","test","1","178","178","8","",""
"null","349830","pSARL_v2","pSARL_v2j1gjo2cx","577d11f88b3e2300016d74a0","infreq_resp","img/orange_2bandit_a.png","68","68","test","","","","8","",""
"null","349989","pSARL_v2","pSARL_v2j1gjo2cx","577d11f88b3e2300016d74a0","fixation","img/fixation.png","null","","test","","","","","",""
"342.2000000178814","350340","pSARL_v2","pSARL_v2j1gjo2cx","577d11f88b3e2300016d74a0","freq","img/green_2bandit_a2.png","70","70","test","1","179","179","8","",""
"null","350815","pSARL_v2","pSARL_v2j1gjo2cx","577d11f88b3e2300016d74a0","freq_resp","img/green_2bandit_a.png","70","70","test","","","","8","",""
"null","350983","pSARL_v2","pSARL_v2j1gjo2cx","577d11f88b3e2300016d74a0","fixation","img/fixation.png","null","","test","","","","","",""
"393.59999999403954","351383","pSARL_v2","pSARL_v2j1gjo2cx","577d11f88b3e2300016d74a0","freq","img/green_2bandit_a2.png","70","70","test","1","180","180","8","",""
"null","351806","pSARL_v2","pSARL_v2j1gjo2cx","577d11f88b3e2300016d74a0","freq_resp","img/green_2bandit_a.png","70","70","test","","","","8","",""
"null","351976","pSARL_v2","pSARL_v2j1gjo2cx","577d11f88b3e2300016d74a0","fixation","img/fixation.png","null","","test","","","","","",""
"387.09999999403954","352373","pSARL_v2","pSARL_v2j1gjo2cx","577d11f88b3e2300016d74a0","freq","img/green_2bandit_a2.png","70","70","test","1","181","181","8","",""
"null","352799","pSARL_v2","pSARL_v2j1gjo2cx","577d11f88b3e2300016d74a0","freq_resp","img/green_2bandit_a.png","70","70","test","","","","8","",""
"null","352966","pSARL_v2","pSARL_v2j1gjo2cx","577d11f88b3e2300016d74a0","fixation","img/fixation.png","null","","test","","","","","",""
"374.80000001192093","353350","pSARL_v2","pSARL_v2j1gjo2cx","577d11f88b3e2300016d74a0","freq","img/green_2bandit_a2.png","70","70","test","1","182","182","8","",""
"null","353792","pSARL_v2","pSARL_v2j1gjo2cx","577d11f88b3e2300016d74a0","freq_resp","img/green_2bandit_a.png","70","70","test","","","","8","",""
"null","353958","pSARL_v2","pSARL_v2j1gjo2cx","577d11f88b3e2300016d74a0","fixation","img/fixation.png","null","","test","","","","","",""
"381.40000000596046","354350","pSARL_v2","pSARL_v2j1gjo2cx","577d11f88b3e2300016d74a0","freq","img/green_2bandit_a2.png","70","70","test","1","183","183","8","",""
"null","354781","pSARL_v2","pSARL_v2j1gjo2cx","577d11f88b3e2300016d74a0","freq_resp","img/green_2bandit_a.png","70","70","test","","","","8","",""
"null","354942","pSARL_v2","pSARL_v2j1gjo2cx","577d11f88b3e2300016d74a0","fixation","img/fixation.png","null","","test","","","","","",""
"350.5","355301","pSARL_v2","pSARL_v2j1gjo2cx","577d11f88b3e2300016d74a0","freq","img/green_2bandit_a2.png","70","70","test","1","184","184","8","",""
"null","355769","pSARL_v2","pSARL_v2j1gjo2cx","577d11f88b3e2300016d74a0","freq_resp","img/green_2bandit_a.png","70","70","test","","","","8","",""
"null","355934","pSARL_v2","pSARL_v2j1gjo2cx","577d11f88b3e2300016d74a0","fixation","img/fixation.png","null","","test","","","","","",""
"398.90000000596046","356339","pSARL_v2","pSARL_v2j1gjo2cx","577d11f88b3e2300016d74a0","freq","img/green_2bandit_a2.png","70","70","test","1","185","185","8","",""
"null","356750","pSARL_v2","pSARL_v2j1gjo2cx","577d11f88b3e2300016d74a0","freq_resp","img/green_2bandit_a.png","70","70","test","","","","8","",""
"null","356910","pSARL_v2","pSARL_v2j1gjo2cx","577d11f88b3e2300016d74a0","fixation","img/fixation.png","null","","test","","","","","",""
"404.90000000596046","357321","pSARL_v2","pSARL_v2j1gjo2cx","577d11f88b3e2300016d74a0","freq","img/green_2bandit_a2.png","70","70","test","1","186","186","8","",""
"null","357727","pSARL_v2","pSARL_v2j1gjo2cx","577d11f88b3e2300016d74a0","freq_resp","img/green_2bandit_a.png","70","70","test","","","","8","",""
"null","357895","pSARL_v2","pSARL_v2j1gjo2cx","577d11f88b3e2300016d74a0","fixation","img/fixation.png","null","","test","","","","","",""
"383","358286","pSARL_v2","pSARL_v2j1gjo2cx","577d11f88b3e2300016d74a0","freq","img/green_2bandit_a2.png","70","70","test","1","187","187","8","",""
"null","358718","pSARL_v2","pSARL_v2j1gjo2cx","577d11f88b3e2300016d74a0","freq_resp","img/green_2bandit_a.png","70","70","test","","","","8","",""
"null","358883","pSARL_v2","pSARL_v2j1gjo2cx","577d11f88b3e2300016d74a0","fixation","img/fixation.png","null","","test","","","","","",""
"500.5","359393","pSARL_v2","pSARL_v2j1gjo2cx","577d11f88b3e2300016d74a0","reward","img/slot.png","74","","test","","","","","",""
"null","360158","pSARL_v2","pSARL_v2j1gjo2cx","577d11f88b3e2300016d74a0","points","<div class=""verylowPoints""> -4 </div>","null","na","test","","","","8","-4","7"
"473.5","360641","pSARL_v2","pSARL_v2j1gjo2cx","577d11f88b3e2300016d74a0","freq","img/green_2bandit_a2.png","70","70","test","1","188","188","9","",""
"null","360984","pSARL_v2","pSARL_v2j1gjo2cx","577d11f88b3e2300016d74a0","freq_resp","img/green_2bandit_a.png","70","70","test","","","","9","",""
"null","361149","pSARL_v2","pSARL_v2j1gjo2cx","577d11f88b3e2300016d74a0","fixation","img/fixation.png","null","","test","","","","","",""
"371.2000000178814","361531","pSARL_v2","pSARL_v2j1gjo2cx","577d11f88b3e2300016d74a0","freq","img/green_2bandit_a2.png","70","70","test","1","189","189","9","",""
"null","361973","pSARL_v2","pSARL_v2j1gjo2cx","577d11f88b3e2300016d74a0","freq_resp","img/green_2bandit_a.png","70","70","test","","","","9","",""
"null","362134","pSARL_v2","pSARL_v2j1gjo2cx","577d11f88b3e2300016d74a0","fixation","img/fixation.png","null","","test","","","","","",""
"386.59999999403954","362529","pSARL_v2","pSARL_v2j1gjo2cx","577d11f88b3e2300016d74a0","freq","img/green_2bandit_a2.png","70","70","test","1","190","190","9","",""
"null","362960","pSARL_v2","pSARL_v2j1gjo2cx","577d11f88b3e2300016d74a0","freq_resp","img/green_2bandit_a.png","70","70","test","","","","9","",""
"null","363126","pSARL_v2","pSARL_v2j1gjo2cx","577d11f88b3e2300016d74a0","fixation","img/fixation.png","null","","test","","","","","",""
"364.2000000178814","363499","pSARL_v2","pSARL_v2j1gjo2cx","577d11f88b3e2300016d74a0","freq","img/green_2bandit_a2.png","70","70","test","1","191","191","9","",""
"null","363949","pSARL_v2","pSARL_v2j1gjo2cx","577d11f88b3e2300016d74a0","freq_resp","img/green_2bandit_a.png","70","70","test","","","","9","",""
"null","364110","pSARL_v2","pSARL_v2j1gjo2cx","577d11f88b3e2300016d74a0","fixation","img/fixation.png","null","","test","","","","","",""
"417.7000000178814","364539","pSARL_v2","pSARL_v2j1gjo2cx","577d11f88b3e2300016d74a0","freq","img/green_2bandit_a2.png","70","70","test","1","192","192","9","",""
"null","364934","pSARL_v2","pSARL_v2j1gjo2cx","577d11f88b3e2300016d74a0","freq_resp","img/green_2bandit_a.png","70","70","test","","","","9","",""
"null","365102","pSARL_v2","pSARL_v2j1gjo2cx","577d11f88b3e2300016d74a0","fixation","img/fixation.png","null","","test","","","","","",""
"359.5","365468","pSARL_v2","pSARL_v2j1gjo2cx","577d11f88b3e2300016d74a0","freq","img/green_2bandit_a2.png","70","70","test","1","193","193","9","",""
"null","365920","pSARL_v2","pSARL_v2j1gjo2cx","577d11f88b3e2300016d74a0","freq_resp","img/green_2bandit_a.png","70","70","test","","","","9","",""
"null","366084","pSARL_v2","pSARL_v2j1gjo2cx","577d11f88b3e2300016d74a0","fixation","img/fixation.png","null","","test","","","","","",""
"365.80000001192093","366459","pSARL_v2","pSARL_v2j1gjo2cx","577d11f88b3e2300016d74a0","freq","img/green_2bandit_a2.png","70","70","test","1","194","194","9","",""
"null","366908","pSARL_v2","pSARL_v2j1gjo2cx","577d11f88b3e2300016d74a0","freq_resp","img/green_2bandit_a.png","70","70","test","","","","9","",""
"null","367067","pSARL_v2","pSARL_v2j1gjo2cx","577d11f88b3e2300016d74a0","fixation","img/fixation.png","null","","test","","","","","",""
"374.19999998807907","367446","pSARL_v2","pSARL_v2j1gjo2cx","577d11f88b3e2300016d74a0","freq","img/green_2bandit_a2.png","70","70","test","1","195","195","9","",""
"null","367885","pSARL_v2","pSARL_v2j1gjo2cx","577d11f88b3e2300016d74a0","freq_resp","img/green_2bandit_a.png","70","70","test","","","","9","",""
"null","368046","pSARL_v2","pSARL_v2j1gjo2cx","577d11f88b3e2300016d74a0","fixation","img/fixation.png","null","","test","","","","","",""
"368.2999999821186","368421","pSARL_v2","pSARL_v2j1gjo2cx","577d11f88b3e2300016d74a0","freq","img/green_2bandit_a2.png","70","70","test","1","196","196","9","",""
"null","368859","pSARL_v2","pSARL_v2j1gjo2cx","577d11f88b3e2300016d74a0","freq_resp","img/green_2bandit_a.png","70","70","test","","","","9","",""
"null","369019","pSARL_v2","pSARL_v2j1gjo2cx","577d11f88b3e2300016d74a0","fixation","img/fixation.png","null","","test","","","","","",""
"362.2999999821186","369391","pSARL_v2","pSARL_v2j1gjo2cx","577d11f88b3e2300016d74a0","freq","img/green_2bandit_a2.png","70","70","test","1","197","197","9","",""
"null","369846","pSARL_v2","pSARL_v2j1gjo2cx","577d11f88b3e2300016d74a0","freq_resp","img/green_2bandit_a.png","70","70","test","","","","9","",""
"null","370005","pSARL_v2","pSARL_v2j1gjo2cx","577d11f88b3e2300016d74a0","fixation","img/fixation.png","null","","test","","","","","",""
"360.5","370375","pSARL_v2","pSARL_v2j1gjo2cx","577d11f88b3e2300016d74a0","freq","img/green_2bandit_a2.png","70","70","test","1","198","198","9","",""
"null","370832","pSARL_v2","pSARL_v2j1gjo2cx","577d11f88b3e2300016d74a0","freq_resp","img/green_2bandit_a.png","70","70","test","","","","9","",""
"null","370999","pSARL_v2","pSARL_v2j1gjo2cx","577d11f88b3e2300016d74a0","fixation","img/fixation.png","null","","test","","","","","",""
"549.4000000059605","371557","pSARL_v2","pSARL_v2j1gjo2cx","577d11f88b3e2300016d74a0","infreq","img/orange_2bandit_a2.png","68","68","test","1","199","199","9","",""
"null","371821","pSARL_v2","pSARL_v2j1gjo2cx","577d11f88b3e2300016d74a0","infreq_resp","img/orange_2bandit_a.png","68","68","test","","","","9","",""
"null","371981","pSARL_v2","pSARL_v2j1gjo2cx","577d11f88b3e2300016d74a0","fixation","img/fixation.png","null","","test","","","","","",""
"406.90000000596046","372397","pSARL_v2","pSARL_v2j1gjo2cx","577d11f88b3e2300016d74a0","freq","img/green_2bandit_a2.png","70","70","test","1","200","200","9","",""
"null","372809","pSARL_v2","pSARL_v2j1gjo2cx","577d11f88b3e2300016d74a0","freq_resp","img/green_2bandit_a.png","70","70","test","","","","9","",""
"null","372974","pSARL_v2","pSARL_v2j1gjo2cx","577d11f88b3e2300016d74a0","fixation","img/fixation.png","null","","test","","","","","",""
"489","373471","pSARL_v2","pSARL_v2j1gjo2cx","577d11f88b3e2300016d74a0","freq","img/green_2bandit_a2.png","70","70","test","1","201","201","9","",""
"null","373797","pSARL_v2","pSARL_v2j1gjo2cx","577d11f88b3e2300016d74a0","freq_resp","img/green_2bandit_a.png","70","70","test","","","","9","",""
"null","373956","pSARL_v2","pSARL_v2j1gjo2cx","577d11f88b3e2300016d74a0","fixation","img/fixation.png","null","","test","","","","","",""
"403.60000002384186","374369","pSARL_v2","pSARL_v2j1gjo2cx","577d11f88b3e2300016d74a0","freq","img/green_2bandit_a2.png","70","70","test","1","202","202","9","",""
"null","374781","pSARL_v2","pSARL_v2j1gjo2cx","577d11f88b3e2300016d74a0","freq_resp","img/green_2bandit_a.png","70","70","test","","","","9","",""
"null","374941","pSARL_v2","pSARL_v2j1gjo2cx","577d11f88b3e2300016d74a0","fixation","img/fixation.png","null","","test","","","","","",""
"321.09999999403954","375270","pSARL_v2","pSARL_v2j1gjo2cx","577d11f88b3e2300016d74a0","freq","img/green_2bandit_a2.png","70","70","test","1","203","203","9","",""
"null","375758","pSARL_v2","pSARL_v2j1gjo2cx","577d11f88b3e2300016d74a0","freq_resp","img/green_2bandit_a.png","70","70","test","","","","9","",""
"null","375917","pSARL_v2","pSARL_v2j1gjo2cx","577d11f88b3e2300016d74a0","fixation","img/fixation.png","null","","test","","","","","",""
"302.59999999403954","376230","pSARL_v2","pSARL_v2j1gjo2cx","577d11f88b3e2300016d74a0","freq","img/green_2bandit_a2.png","70","70","test","1","204","204","9","",""
"null","376741","pSARL_v2","pSARL_v2j1gjo2cx","577d11f88b3e2300016d74a0","freq_resp","img/green_2bandit_a.png","70","70","test","","","","9","",""
"null","376900","pSARL_v2","pSARL_v2j1gjo2cx","577d11f88b3e2300016d74a0","fixation","img/fixation.png","null","","test","","","","","",""
"214.90000000596046","377126","pSARL_v2","pSARL_v2j1gjo2cx","577d11f88b3e2300016d74a0","infreq","img/orange_2bandit_a2.png","70","68","test","0","205","205","9","",""
"null","377725","pSARL_v2","pSARL_v2j1gjo2cx","577d11f88b3e2300016d74a0","infreq_resp","img/orange_2bandit_a.png","70","68","test","","","","9","",""
"null","377885","pSARL_v2","pSARL_v2j1gjo2cx","577d11f88b3e2300016d74a0","fixation","img/fixation.png","null","","test","","","","","",""
"312.09999999403954","378206","pSARL_v2","pSARL_v2j1gjo2cx","577d11f88b3e2300016d74a0","freq","img/green_2bandit_a2.png","70","70","test","1","206","206","9","",""
"null","378698","pSARL_v2","pSARL_v2j1gjo2cx","577d11f88b3e2300016d74a0","freq_resp","img/green_2bandit_a.png","70","70","test","","","","9","",""
"null","378858","pSARL_v2","pSARL_v2j1gjo2cx","577d11f88b3e2300016d74a0","fixation","img/fixation.png","null","","test","","","","","",""
"252.59999999403954","379117","pSARL_v2","pSARL_v2j1gjo2cx","577d11f88b3e2300016d74a0","freq","img/green_2bandit_a2.png","70","70","test","1","207","207","9","",""
"null","379678","pSARL_v2","pSARL_v2j1gjo2cx","577d11f88b3e2300016d74a0","freq_resp","img/green_2bandit_a.png","70","70","test","","","","9","",""
"null","379838","pSARL_v2","pSARL_v2j1gjo2cx","577d11f88b3e2300016d74a0","fixation","img/fixation.png","null","","test","","","","","",""
