"rt","time_elapsed","expId","subject","prolificID","trialType","stimulus","key_press","corrresp","phase","corr","trialNum","attentionRunNum","blockNum","points","rlNum"
"15099.899999976158","15110","pSARL_v2","pSARL_v28pbdcpfm","5d23460ad4c57900192b129c","","","","","","","","","","",""
"","17860","pSARL_v2","pSARL_v28pbdcpfm","5d23460ad4c57900192b129c","fullscreen","","","","","","","","","",""
"123398.60000002384","141266","pSARL_v2","pSARL_v28pbdcpfm","5d23460ad4c57900192b129c","","","","","","","","","","",""
"null","142083","pSARL_v2","pSARL_v28pbdcpfm","5d23460ad4c57900192b129c","freqPrac","img/orange_2bandit_a2.png","null","70","prac","0","","","","",""
"null","143091","pSARL_v2","pSARL_v28pbdcpfm","5d23460ad4c57900192b129c","feedback","img/tooSlow.png","null","na","prac","","","","","",""
"null","143251","pSARL_v2","pSARL_v28pbdcpfm","5d23460ad4c57900192b129c","fixation","img/fixation.png","null","","prac","","","","","",""
"659.1000000238419","143917","pSARL_v2","pSARL_v28pbdcpfm","5d23460ad4c57900192b129c","infreqPrac","img/green_2bandit_a2.png","68","68","prac","1","","","","",""
"659.1000000238419","144074","pSARL_v2","pSARL_v28pbdcpfm","5d23460ad4c57900192b129c","infreqPrac_resp","img/green_2bandit_a.png","68","68","prac","","","","","",""
"null","144246","pSARL_v2","pSARL_v28pbdcpfm","5d23460ad4c57900192b129c","fixation","img/fixation.png","null","","prac","","","","","",""
"624","144877","pSARL_v2","pSARL_v28pbdcpfm","5d23460ad4c57900192b129c","freqPrac","img/orange_2bandit_a2.png","70","70","prac","1","","","","",""
"624","145076","pSARL_v2","pSARL_v28pbdcpfm","5d23460ad4c57900192b129c","freqPrac_resp","img/orange_2bandit_a.png","70","70","prac","","","","","",""
"null","145236","pSARL_v2","pSARL_v28pbdcpfm","5d23460ad4c57900192b129c","fixation","img/fixation.png","null","","prac","","","","","",""
"554","145797","pSARL_v2","pSARL_v28pbdcpfm","5d23460ad4c57900192b129c","infreqPrac","img/green_2bandit_a2.png","68","68","prac","1","","","","",""
"554","146060","pSARL_v2","pSARL_v28pbdcpfm","5d23460ad4c57900192b129c","infreqPrac_resp","img/green_2bandit_a.png","68","68","prac","","","","","",""
"null","146223","pSARL_v2","pSARL_v28pbdcpfm","5d23460ad4c57900192b129c","fixation","img/fixation.png","null","","prac","","","","","",""
"375.39999997615814","146605","pSARL_v2","pSARL_v28pbdcpfm","5d23460ad4c57900192b129c","infreqPrac","img/green_2bandit_a2.png","68","68","prac","1","","","","",""
"375.39999997615814","147046","pSARL_v2","pSARL_v28pbdcpfm","5d23460ad4c57900192b129c","infreqPrac_resp","img/green_2bandit_a.png","68","68","prac","","","","","",""
"null","147203","pSARL_v2","pSARL_v28pbdcpfm","5d23460ad4c57900192b129c","fixation","img/fixation.png","null","","prac","","","","","",""
"387.7999999523163","147597","pSARL_v2","pSARL_v28pbdcpfm","5d23460ad4c57900192b129c","infreqPrac","img/green_2bandit_a2.png","68","68","prac","1","","","","",""
"387.7999999523163","148028","pSARL_v2","pSARL_v28pbdcpfm","5d23460ad4c57900192b129c","infreqPrac_resp","img/green_2bandit_a.png","68","68","prac","","","","","",""
"null","148200","pSARL_v2","pSARL_v28pbdcpfm","5d23460ad4c57900192b129c","fixation","img/fixation.png","null","","prac","","","","","",""
"374.10000002384186","148581","pSARL_v2","pSARL_v28pbdcpfm","5d23460ad4c57900192b129c","freqPrac","img/orange_2bandit_a2.png","68","70","prac","0","","","","",""
"374.10000002384186","149028","pSARL_v2","pSARL_v28pbdcpfm","5d23460ad4c57900192b129c","freqPrac_resp","img/orange_2bandit_a.png","68","70","prac","","","","","",""
"null","150035","pSARL_v2","pSARL_v28pbdcpfm","5d23460ad4c57900192b129c","feedback","img/wrongKey.png","null","na","prac","","","","","",""
"null","150200","pSARL_v2","pSARL_v28pbdcpfm","5d23460ad4c57900192b129c","fixation","img/fixation.png","null","","prac","","","","","",""
"486.60000002384186","150693","pSARL_v2","pSARL_v28pbdcpfm","5d23460ad4c57900192b129c","infreqPrac","img/green_2bandit_a2.png","68","68","prac","1","","","","",""
"486.60000002384186","151022","pSARL_v2","pSARL_v28pbdcpfm","5d23460ad4c57900192b129c","infreqPrac_resp","img/green_2bandit_a.png","68","68","prac","","","","","",""
"null","151183","pSARL_v2","pSARL_v28pbdcpfm","5d23460ad4c57900192b129c","fixation","img/fixation.png","null","","prac","","","","","",""
"383.60000002384186","151574","pSARL_v2","pSARL_v28pbdcpfm","5d23460ad4c57900192b129c","freqPrac","img/orange_2bandit_a2.png","70","70","prac","1","","","","",""
"383.60000002384186","151997","pSARL_v2","pSARL_v28pbdcpfm","5d23460ad4c57900192b129c","freqPrac_resp","img/orange_2bandit_a.png","70","70","prac","","","","","",""
"null","152169","pSARL_v2","pSARL_v28pbdcpfm","5d23460ad4c57900192b129c","fixation","img/fixation.png","null","","prac","","","","","",""
"365.40000009536743","152541","pSARL_v2","pSARL_v28pbdcpfm","5d23460ad4c57900192b129c","freqPrac","img/orange_2bandit_a2.png","70","70","prac","1","","","","",""
"365.40000009536743","152981","pSARL_v2","pSARL_v28pbdcpfm","5d23460ad4c57900192b129c","freqPrac_resp","img/orange_2bandit_a.png","70","70","prac","","","","","",""
"null","153153","pSARL_v2","pSARL_v28pbdcpfm","5d23460ad4c57900192b129c","fixation","img/fixation.png","null","","prac","","","","","",""
"26806.799999952316","179966","pSARL_v2","pSARL_v28pbdcpfm","5d23460ad4c57900192b129c","","","","","prac","","","","","",""
"744.2999999523163","180717","pSARL_v2","pSARL_v28pbdcpfm","5d23460ad4c57900192b129c","rewardPractice","img/slot.png","74","","prac","","","","","",""
"null","181481","pSARL_v2","pSARL_v28pbdcpfm","5d23460ad4c57900192b129c","feedback","<div class=""veryhighPoints""> +15 </div>","null","na","prac","","","","","",""
"null","181638","pSARL_v2","pSARL_v28pbdcpfm","5d23460ad4c57900192b129c","fixation","img/fixation.png","null","","prac","","","","","",""
"6265.399999976158","187910","pSARL_v2","pSARL_v28pbdcpfm","5d23460ad4c57900192b129c","","","","","prac","","","","","",""
"703.6000000238419","188619","pSARL_v2","pSARL_v28pbdcpfm","5d23460ad4c57900192b129c","freq","img/orange_2bandit_a2.png","70","70","test","1","1","1","1","",""
"null","188725","pSARL_v2","pSARL_v28pbdcpfm","5d23460ad4c57900192b129c","freq_resp","img/orange_2bandit_a.png","70","70","test","","","","1","",""
"null","188887","pSARL_v2","pSARL_v28pbdcpfm","5d23460ad4c57900192b129c","fixation","img/fixation.png","null","","test","","","","","",""
"422.5","189316","pSARL_v2","pSARL_v28pbdcpfm","5d23460ad4c57900192b129c","freq","img/orange_2bandit_a2.png","70","70","test","1","2","2","1","",""
"null","189700","pSARL_v2","pSARL_v28pbdcpfm","5d23460ad4c57900192b129c","freq_resp","img/orange_2bandit_a.png","70","70","test","","","","1","",""
"null","189870","pSARL_v2","pSARL_v28pbdcpfm","5d23460ad4c57900192b129c","fixation","img/fixation.png","null","","test","","","","","",""
"376.2999999523163","190253","pSARL_v2","pSARL_v28pbdcpfm","5d23460ad4c57900192b129c","freq","img/orange_2bandit_a2.png","70","70","test","1","3","3","1","",""
"null","190684","pSARL_v2","pSARL_v28pbdcpfm","5d23460ad4c57900192b129c","freq_resp","img/orange_2bandit_a.png","70","70","test","","","","1","",""
"null","190841","pSARL_v2","pSARL_v28pbdcpfm","5d23460ad4c57900192b129c","fixation","img/fixation.png","null","","test","","","","","",""
"381","191229","pSARL_v2","pSARL_v28pbdcpfm","5d23460ad4c57900192b129c","freq","img/orange_2bandit_a2.png","70","70","test","1","4","4","1","",""
"null","191659","pSARL_v2","pSARL_v28pbdcpfm","5d23460ad4c57900192b129c","freq_resp","img/orange_2bandit_a.png","70","70","test","","","","1","",""
"null","191819","pSARL_v2","pSARL_v28pbdcpfm","5d23460ad4c57900192b129c","fixation","img/fixation.png","null","","test","","","","","",""
"403.6999999284744","192228","pSARL_v2","pSARL_v28pbdcpfm","5d23460ad4c57900192b129c","freq","img/orange_2bandit_a2.png","70","70","test","1","5","5","1","",""
"null","192638","pSARL_v2","pSARL_v28pbdcpfm","5d23460ad4c57900192b129c","freq_resp","img/orange_2bandit_a.png","70","70","test","","","","1","",""
"null","192802","pSARL_v2","pSARL_v28pbdcpfm","5d23460ad4c57900192b129c","fixation","img/fixation.png","null","","test","","","","","",""
"420.10000002384186","193229","pSARL_v2","pSARL_v28pbdcpfm","5d23460ad4c57900192b129c","freq","img/orange_2bandit_a2.png","70","70","test","1","6","6","1","",""
"null","193622","pSARL_v2","pSARL_v28pbdcpfm","5d23460ad4c57900192b129c","freq_resp","img/orange_2bandit_a.png","70","70","test","","","","1","",""
"null","193809","pSARL_v2","pSARL_v28pbdcpfm","5d23460ad4c57900192b129c","fixation","img/fixation.png","null","","test","","","","","",""
"389.1999999284744","194205","pSARL_v2","pSARL_v28pbdcpfm","5d23460ad4c57900192b129c","freq","img/orange_2bandit_a2.png","70","70","test","1","7","7","1","",""
"null","194622","pSARL_v2","pSARL_v28pbdcpfm","5d23460ad4c57900192b129c","freq_resp","img/orange_2bandit_a.png","70","70","test","","","","1","",""
"null","194779","pSARL_v2","pSARL_v28pbdcpfm","5d23460ad4c57900192b129c","fixation","img/fixation.png","null","","test","","","","","",""
"419.1999999284744","195204","pSARL_v2","pSARL_v28pbdcpfm","5d23460ad4c57900192b129c","infreq","img/green_2bandit_a2.png","68","68","test","1","8","8","1","",""
"null","195607","pSARL_v2","pSARL_v28pbdcpfm","5d23460ad4c57900192b129c","infreq_resp","img/green_2bandit_a.png","68","68","test","","","","1","",""
"null","195779","pSARL_v2","pSARL_v28pbdcpfm","5d23460ad4c57900192b129c","fixation","img/fixation.png","null","","test","","","","","",""
"395","196180","pSARL_v2","pSARL_v28pbdcpfm","5d23460ad4c57900192b129c","freq","img/orange_2bandit_a2.png","70","70","test","1","9","9","1","",""
"null","196606","pSARL_v2","pSARL_v28pbdcpfm","5d23460ad4c57900192b129c","freq_resp","img/orange_2bandit_a.png","70","70","test","","","","1","",""
"null","196779","pSARL_v2","pSARL_v28pbdcpfm","5d23460ad4c57900192b129c","fixation","img/fixation.png","null","","test","","","","","",""
"394.7999999523163","197181","pSARL_v2","pSARL_v28pbdcpfm","5d23460ad4c57900192b129c","freq","img/orange_2bandit_a2.png","70","70","test","1","10","10","1","",""
"null","197604","pSARL_v2","pSARL_v28pbdcpfm","5d23460ad4c57900192b129c","freq_resp","img/orange_2bandit_a.png","70","70","test","","","","1","",""
"null","197762","pSARL_v2","pSARL_v28pbdcpfm","5d23460ad4c57900192b129c","fixation","img/fixation.png","null","","test","","","","","",""
"476.7999999523163","198245","pSARL_v2","pSARL_v28pbdcpfm","5d23460ad4c57900192b129c","freq","img/orange_2bandit_a2.png","70","70","test","1","11","11","1","",""
"null","198576","pSARL_v2","pSARL_v28pbdcpfm","5d23460ad4c57900192b129c","freq_resp","img/orange_2bandit_a.png","70","70","test","","","","1","",""
"null","198736","pSARL_v2","pSARL_v28pbdcpfm","5d23460ad4c57900192b129c","fixation","img/fixation.png","null","","test","","","","","",""
"454.39999997615814","199197","pSARL_v2","pSARL_v28pbdcpfm","5d23460ad4c57900192b129c","freq","img/orange_2bandit_a2.png","70","70","test","1","12","12","1","",""
"null","199560","pSARL_v2","pSARL_v28pbdcpfm","5d23460ad4c57900192b129c","freq_resp","img/orange_2bandit_a.png","70","70","test","","","","1","",""
"null","199720","pSARL_v2","pSARL_v28pbdcpfm","5d23460ad4c57900192b129c","fixation","img/fixation.png","null","","test","","","","","",""
"365.7999999523163","200091","pSARL_v2","pSARL_v28pbdcpfm","5d23460ad4c57900192b129c","freq","img/orange_2bandit_a2.png","70","70","test","1","13","13","1","",""
"null","200543","pSARL_v2","pSARL_v28pbdcpfm","5d23460ad4c57900192b129c","freq_resp","img/orange_2bandit_a.png","70","70","test","","","","1","",""
"null","200701","pSARL_v2","pSARL_v28pbdcpfm","5d23460ad4c57900192b129c","fixation","img/fixation.png","null","","test","","","","","",""
"353.60000002384186","201061","pSARL_v2","pSARL_v28pbdcpfm","5d23460ad4c57900192b129c","freq","img/orange_2bandit_a2.png","70","70","test","1","14","14","1","",""
"null","201530","pSARL_v2","pSARL_v28pbdcpfm","5d23460ad4c57900192b129c","freq_resp","img/orange_2bandit_a.png","70","70","test","","","","1","",""
"null","201700","pSARL_v2","pSARL_v28pbdcpfm","5d23460ad4c57900192b129c","fixation","img/fixation.png","null","","test","","","","","",""
"313.3000000715256","202020","pSARL_v2","pSARL_v28pbdcpfm","5d23460ad4c57900192b129c","freq","img/orange_2bandit_a2.png","70","70","test","1","15","15","1","",""
"null","202528","pSARL_v2","pSARL_v28pbdcpfm","5d23460ad4c57900192b129c","freq_resp","img/orange_2bandit_a.png","70","70","test","","","","1","",""
"null","202701","pSARL_v2","pSARL_v28pbdcpfm","5d23460ad4c57900192b129c","fixation","img/fixation.png","null","","test","","","","","",""
"297.5","203005","pSARL_v2","pSARL_v28pbdcpfm","5d23460ad4c57900192b129c","freq","img/orange_2bandit_a2.png","70","70","test","1","16","16","1","",""
"null","203513","pSARL_v2","pSARL_v28pbdcpfm","5d23460ad4c57900192b129c","freq_resp","img/orange_2bandit_a.png","70","70","test","","","","1","",""
"null","203683","pSARL_v2","pSARL_v28pbdcpfm","5d23460ad4c57900192b129c","fixation","img/fixation.png","null","","test","","","","","",""
"410.8000000715256","204100","pSARL_v2","pSARL_v28pbdcpfm","5d23460ad4c57900192b129c","freq","img/orange_2bandit_a2.png","70","70","test","1","17","17","1","",""
"null","204497","pSARL_v2","pSARL_v28pbdcpfm","5d23460ad4c57900192b129c","freq_resp","img/orange_2bandit_a.png","70","70","test","","","","1","",""
"null","204665","pSARL_v2","pSARL_v28pbdcpfm","5d23460ad4c57900192b129c","fixation","img/fixation.png","null","","test","","","","","",""
"356.7999999523163","205029","pSARL_v2","pSARL_v28pbdcpfm","5d23460ad4c57900192b129c","freq","img/orange_2bandit_a2.png","70","70","test","1","18","18","1","",""
"null","205482","pSARL_v2","pSARL_v28pbdcpfm","5d23460ad4c57900192b129c","freq_resp","img/orange_2bandit_a.png","70","70","test","","","","1","",""
"null","205650","pSARL_v2","pSARL_v28pbdcpfm","5d23460ad4c57900192b129c","fixation","img/fixation.png","null","","test","","","","","",""
"331.60000002384186","205989","pSARL_v2","pSARL_v28pbdcpfm","5d23460ad4c57900192b129c","freq","img/orange_2bandit_a2.png","70","70","test","1","19","19","1","",""
"null","206466","pSARL_v2","pSARL_v28pbdcpfm","5d23460ad4c57900192b129c","freq_resp","img/orange_2bandit_a.png","70","70","test","","","","1","",""
"null","206632","pSARL_v2","pSARL_v28pbdcpfm","5d23460ad4c57900192b129c","fixation","img/fixation.png","null","","test","","","","","",""
"334","206973","pSARL_v2","pSARL_v28pbdcpfm","5d23460ad4c57900192b129c","freq","img/orange_2bandit_a2.png","70","70","test","1","20","20","1","",""
"null","207451","pSARL_v2","pSARL_v28pbdcpfm","5d23460ad4c57900192b129c","freq_resp","img/orange_2bandit_a.png","70","70","test","","","","1","",""
"null","207615","pSARL_v2","pSARL_v28pbdcpfm","5d23460ad4c57900192b129c","fixation","img/fixation.png","null","","test","","","","","",""
"318.8000000715256","207941","pSARL_v2","pSARL_v28pbdcpfm","5d23460ad4c57900192b129c","freq","img/orange_2bandit_a2.png","70","70","test","1","21","21","1","",""
"null","208435","pSARL_v2","pSARL_v28pbdcpfm","5d23460ad4c57900192b129c","freq_resp","img/orange_2bandit_a.png","70","70","test","","","","1","",""
"null","208597","pSARL_v2","pSARL_v28pbdcpfm","5d23460ad4c57900192b129c","fixation","img/fixation.png","null","","test","","","","","",""
"305.60000002384186","208909","pSARL_v2","pSARL_v28pbdcpfm","5d23460ad4c57900192b129c","freq","img/orange_2bandit_a2.png","70","70","test","1","22","22","1","",""
"null","209419","pSARL_v2","pSARL_v28pbdcpfm","5d23460ad4c57900192b129c","freq_resp","img/orange_2bandit_a.png","70","70","test","","","","1","",""
"null","209591","pSARL_v2","pSARL_v28pbdcpfm","5d23460ad4c57900192b129c","fixation","img/fixation.png","null","","test","","","","","",""
"454.09999990463257","210052","pSARL_v2","pSARL_v28pbdcpfm","5d23460ad4c57900192b129c","infreq","img/green_2bandit_a2.png","68","68","test","1","23","23","1","",""
"null","210419","pSARL_v2","pSARL_v28pbdcpfm","5d23460ad4c57900192b129c","infreq_resp","img/green_2bandit_a.png","68","68","test","","","","1","",""
"null","210575","pSARL_v2","pSARL_v28pbdcpfm","5d23460ad4c57900192b129c","fixation","img/fixation.png","null","","test","","","","","",""
"438.7999999523163","211019","pSARL_v2","pSARL_v28pbdcpfm","5d23460ad4c57900192b129c","freq","img/orange_2bandit_a2.png","70","70","test","1","24","24","1","",""
"null","211389","pSARL_v2","pSARL_v28pbdcpfm","5d23460ad4c57900192b129c","freq_resp","img/orange_2bandit_a.png","70","70","test","","","","1","",""
"null","211559","pSARL_v2","pSARL_v28pbdcpfm","5d23460ad4c57900192b129c","fixation","img/fixation.png","null","","test","","","","","",""
"342.7000000476837","211908","pSARL_v2","pSARL_v28pbdcpfm","5d23460ad4c57900192b129c","freq","img/orange_2bandit_a2.png","70","70","test","1","25","25","1","",""
"null","212387","pSARL_v2","pSARL_v28pbdcpfm","5d23460ad4c57900192b129c","freq_resp","img/orange_2bandit_a.png","70","70","test","","","","1","",""
"null","212545","pSARL_v2","pSARL_v28pbdcpfm","5d23460ad4c57900192b129c","fixation","img/fixation.png","null","","test","","","","","",""
"364.89999997615814","212917","pSARL_v2","pSARL_v28pbdcpfm","5d23460ad4c57900192b129c","freq","img/orange_2bandit_a2.png","70","70","test","1","26","26","1","",""
"null","213371","pSARL_v2","pSARL_v28pbdcpfm","5d23460ad4c57900192b129c","freq_resp","img/orange_2bandit_a.png","70","70","test","","","","1","",""
"null","213528","pSARL_v2","pSARL_v28pbdcpfm","5d23460ad4c57900192b129c","fixation","img/fixation.png","null","","test","","","","","",""
"493.39999997615814","214029","pSARL_v2","pSARL_v28pbdcpfm","5d23460ad4c57900192b129c","reward","img/slot.png","74","","test","","","","","",""
"null","214800","pSARL_v2","pSARL_v28pbdcpfm","5d23460ad4c57900192b129c","points","<div class=""verylowPoints""> -6 </div>","null","na","test","","","","1","-6","0"
"461.5","215268","pSARL_v2","pSARL_v28pbdcpfm","5d23460ad4c57900192b129c","freq","img/orange_2bandit_a2.png","70","70","test","1","27","27","2","",""
"null","215621","pSARL_v2","pSARL_v28pbdcpfm","5d23460ad4c57900192b129c","freq_resp","img/orange_2bandit_a.png","70","70","test","","","","2","",""
"null","215779","pSARL_v2","pSARL_v28pbdcpfm","5d23460ad4c57900192b129c","fixation","img/fixation.png","null","","test","","","","","",""
"354.3000000715256","216140","pSARL_v2","pSARL_v28pbdcpfm","5d23460ad4c57900192b129c","freq","img/orange_2bandit_a2.png","70","70","test","1","28","28","2","",""
"null","216605","pSARL_v2","pSARL_v28pbdcpfm","5d23460ad4c57900192b129c","freq_resp","img/orange_2bandit_a.png","70","70","test","","","","2","",""
"null","216763","pSARL_v2","pSARL_v28pbdcpfm","5d23460ad4c57900192b129c","fixation","img/fixation.png","null","","test","","","","","",""
"342.7999999523163","217112","pSARL_v2","pSARL_v28pbdcpfm","5d23460ad4c57900192b129c","freq","img/orange_2bandit_a2.png","70","70","test","1","29","29","2","",""
"null","217591","pSARL_v2","pSARL_v28pbdcpfm","5d23460ad4c57900192b129c","freq_resp","img/orange_2bandit_a.png","70","70","test","","","","2","",""
"null","217760","pSARL_v2","pSARL_v28pbdcpfm","5d23460ad4c57900192b129c","fixation","img/fixation.png","null","","test","","","","","",""
"437.5","218204","pSARL_v2","pSARL_v28pbdcpfm","5d23460ad4c57900192b129c","infreq","img/green_2bandit_a2.png","68","68","test","1","30","30","2","",""
"null","218574","pSARL_v2","pSARL_v28pbdcpfm","5d23460ad4c57900192b129c","infreq_resp","img/green_2bandit_a.png","68","68","test","","","","2","",""
"null","218749","pSARL_v2","pSARL_v28pbdcpfm","5d23460ad4c57900192b129c","fixation","img/fixation.png","null","","test","","","","","",""
"400.89999997615814","219157","pSARL_v2","pSARL_v28pbdcpfm","5d23460ad4c57900192b129c","freq","img/orange_2bandit_a2.png","70","70","test","1","31","31","2","",""
"null","219567","pSARL_v2","pSARL_v28pbdcpfm","5d23460ad4c57900192b129c","freq_resp","img/orange_2bandit_a.png","70","70","test","","","","2","",""
"null","219728","pSARL_v2","pSARL_v28pbdcpfm","5d23460ad4c57900192b129c","fixation","img/fixation.png","null","","test","","","","","",""
"310.09999990463257","220045","pSARL_v2","pSARL_v28pbdcpfm","5d23460ad4c57900192b129c","freq","img/orange_2bandit_a2.png","70","70","test","1","32","32","2","",""
"null","220544","pSARL_v2","pSARL_v28pbdcpfm","5d23460ad4c57900192b129c","freq_resp","img/orange_2bandit_a.png","70","70","test","","","","2","",""
"null","220712","pSARL_v2","pSARL_v28pbdcpfm","5d23460ad4c57900192b129c","fixation","img/fixation.png","null","","test","","","","","",""
"317.8000000715256","221036","pSARL_v2","pSARL_v28pbdcpfm","5d23460ad4c57900192b129c","freq","img/orange_2bandit_a2.png","70","70","test","1","33","33","2","",""
"null","221529","pSARL_v2","pSARL_v28pbdcpfm","5d23460ad4c57900192b129c","freq_resp","img/orange_2bandit_a.png","70","70","test","","","","2","",""
"null","221699","pSARL_v2","pSARL_v28pbdcpfm","5d23460ad4c57900192b129c","fixation","img/fixation.png","null","","test","","","","","",""
"514.7000000476837","222220","pSARL_v2","pSARL_v28pbdcpfm","5d23460ad4c57900192b129c","infreq","img/green_2bandit_a2.png","68","68","test","1","34","34","2","",""
"null","222529","pSARL_v2","pSARL_v28pbdcpfm","5d23460ad4c57900192b129c","infreq_resp","img/green_2bandit_a.png","68","68","test","","","","2","",""
"null","222692","pSARL_v2","pSARL_v28pbdcpfm","5d23460ad4c57900192b129c","fixation","img/fixation.png","null","","test","","","","","",""
"345.8000000715256","223045","pSARL_v2","pSARL_v28pbdcpfm","5d23460ad4c57900192b129c","freq","img/orange_2bandit_a2.png","70","70","test","1","35","35","2","",""
"null","223513","pSARL_v2","pSARL_v28pbdcpfm","5d23460ad4c57900192b129c","freq_resp","img/orange_2bandit_a.png","70","70","test","","","","2","",""
"null","223676","pSARL_v2","pSARL_v28pbdcpfm","5d23460ad4c57900192b129c","fixation","img/fixation.png","null","","test","","","","","",""
"346.40000009536743","224029","pSARL_v2","pSARL_v28pbdcpfm","5d23460ad4c57900192b129c","freq","img/orange_2bandit_a2.png","70","70","test","1","36","36","2","",""
"null","224491","pSARL_v2","pSARL_v28pbdcpfm","5d23460ad4c57900192b129c","freq_resp","img/orange_2bandit_a.png","70","70","test","","","","2","",""
"null","224659","pSARL_v2","pSARL_v28pbdcpfm","5d23460ad4c57900192b129c","fixation","img/fixation.png","null","","test","","","","","",""
"354.89999997615814","225020","pSARL_v2","pSARL_v28pbdcpfm","5d23460ad4c57900192b129c","freq","img/orange_2bandit_a2.png","70","70","test","1","37","37","2","",""
"null","225481","pSARL_v2","pSARL_v28pbdcpfm","5d23460ad4c57900192b129c","freq_resp","img/orange_2bandit_a.png","70","70","test","","","","2","",""
"null","225638","pSARL_v2","pSARL_v28pbdcpfm","5d23460ad4c57900192b129c","fixation","img/fixation.png","null","","test","","","","","",""
"375.90000009536743","226020","pSARL_v2","pSARL_v28pbdcpfm","5d23460ad4c57900192b129c","freq","img/orange_2bandit_a2.png","70","70","test","1","38","38","2","",""
"null","226466","pSARL_v2","pSARL_v28pbdcpfm","5d23460ad4c57900192b129c","freq_resp","img/orange_2bandit_a.png","70","70","test","","","","2","",""
"null","226639","pSARL_v2","pSARL_v28pbdcpfm","5d23460ad4c57900192b129c","fixation","img/fixation.png","null","","test","","","","","",""
"350.39999997615814","226996","pSARL_v2","pSARL_v28pbdcpfm","5d23460ad4c57900192b129c","freq","img/orange_2bandit_a2.png","70","70","test","1","39","39","2","",""
"null","227466","pSARL_v2","pSARL_v28pbdcpfm","5d23460ad4c57900192b129c","freq_resp","img/orange_2bandit_a.png","70","70","test","","","","2","",""
"null","227630","pSARL_v2","pSARL_v28pbdcpfm","5d23460ad4c57900192b129c","fixation","img/fixation.png","null","","test","","","","","",""
"375.39999997615814","228012","pSARL_v2","pSARL_v28pbdcpfm","5d23460ad4c57900192b129c","freq","img/orange_2bandit_a2.png","70","70","test","1","40","40","2","",""
"null","228451","pSARL_v2","pSARL_v28pbdcpfm","5d23460ad4c57900192b129c","freq_resp","img/orange_2bandit_a.png","70","70","test","","","","2","",""
"null","228621","pSARL_v2","pSARL_v28pbdcpfm","5d23460ad4c57900192b129c","fixation","img/fixation.png","null","","test","","","","","",""
"425.60000002384186","229052","pSARL_v2","pSARL_v28pbdcpfm","5d23460ad4c57900192b129c","freq","img/orange_2bandit_a2.png","70","70","test","1","41","41","2","",""
"null","229435","pSARL_v2","pSARL_v28pbdcpfm","5d23460ad4c57900192b129c","freq_resp","img/orange_2bandit_a.png","70","70","test","","","","2","",""
"null","229591","pSARL_v2","pSARL_v28pbdcpfm","5d23460ad4c57900192b129c","fixation","img/fixation.png","null","","test","","","","","",""
"375.1999999284744","229973","pSARL_v2","pSARL_v28pbdcpfm","5d23460ad4c57900192b129c","freq","img/orange_2bandit_a2.png","70","70","test","1","42","42","2","",""
"null","230420","pSARL_v2","pSARL_v28pbdcpfm","5d23460ad4c57900192b129c","freq_resp","img/orange_2bandit_a.png","70","70","test","","","","2","",""
"null","230591","pSARL_v2","pSARL_v28pbdcpfm","5d23460ad4c57900192b129c","fixation","img/fixation.png","null","","test","","","","","",""
"391.10000002384186","230988","pSARL_v2","pSARL_v28pbdcpfm","5d23460ad4c57900192b129c","freq","img/orange_2bandit_a2.png","70","70","test","1","43","43","2","",""
"null","231404","pSARL_v2","pSARL_v28pbdcpfm","5d23460ad4c57900192b129c","freq_resp","img/orange_2bandit_a.png","70","70","test","","","","2","",""
"null","231571","pSARL_v2","pSARL_v28pbdcpfm","5d23460ad4c57900192b129c","fixation","img/fixation.png","null","","test","","","","","",""
"426.3000000715256","232004","pSARL_v2","pSARL_v28pbdcpfm","5d23460ad4c57900192b129c","freq","img/orange_2bandit_a2.png","70","70","test","1","44","44","2","",""
"null","232389","pSARL_v2","pSARL_v28pbdcpfm","5d23460ad4c57900192b129c","freq_resp","img/orange_2bandit_a.png","70","70","test","","","","2","",""
"null","232560","pSARL_v2","pSARL_v28pbdcpfm","5d23460ad4c57900192b129c","fixation","img/fixation.png","null","","test","","","","","",""
"446","233012","pSARL_v2","pSARL_v28pbdcpfm","5d23460ad4c57900192b129c","freq","img/orange_2bandit_a2.png","70","70","test","1","45","45","2","",""
"null","233388","pSARL_v2","pSARL_v28pbdcpfm","5d23460ad4c57900192b129c","freq_resp","img/orange_2bandit_a.png","70","70","test","","","","2","",""
"null","233559","pSARL_v2","pSARL_v28pbdcpfm","5d23460ad4c57900192b129c","fixation","img/fixation.png","null","","test","","","","","",""
"350.60000002384186","233916","pSARL_v2","pSARL_v28pbdcpfm","5d23460ad4c57900192b129c","freq","img/orange_2bandit_a2.png","70","70","test","1","46","46","2","",""
"null","234373","pSARL_v2","pSARL_v28pbdcpfm","5d23460ad4c57900192b129c","freq_resp","img/orange_2bandit_a.png","70","70","test","","","","2","",""
"null","234539","pSARL_v2","pSARL_v28pbdcpfm","5d23460ad4c57900192b129c","fixation","img/fixation.png","null","","test","","","","","",""
"442.7999999523163","234988","pSARL_v2","pSARL_v28pbdcpfm","5d23460ad4c57900192b129c","freq","img/orange_2bandit_a2.png","70","70","test","1","47","47","2","",""
"null","235357","pSARL_v2","pSARL_v28pbdcpfm","5d23460ad4c57900192b129c","freq_resp","img/orange_2bandit_a.png","70","70","test","","","","2","",""
"null","235522","pSARL_v2","pSARL_v28pbdcpfm","5d23460ad4c57900192b129c","fixation","img/fixation.png","null","","test","","","","","",""
"516","236044","pSARL_v2","pSARL_v28pbdcpfm","5d23460ad4c57900192b129c","freq","img/orange_2bandit_a2.png","70","70","test","1","48","48","2","",""
"null","236336","pSARL_v2","pSARL_v28pbdcpfm","5d23460ad4c57900192b129c","freq_resp","img/orange_2bandit_a.png","70","70","test","","","","2","",""
"null","236497","pSARL_v2","pSARL_v28pbdcpfm","5d23460ad4c57900192b129c","fixation","img/fixation.png","null","","test","","","","","",""
"940.7000000476837","237444","pSARL_v2","pSARL_v28pbdcpfm","5d23460ad4c57900192b129c","reward","img/slot.png","74","","test","","","","","",""
"null","238216","pSARL_v2","pSARL_v28pbdcpfm","5d23460ad4c57900192b129c","points","<div class=""verylowPoints""> -11 </div>","null","na","test","","","","2","-11","1"
"654.1000000238419","238877","pSARL_v2","pSARL_v28pbdcpfm","5d23460ad4c57900192b129c","freq","img/orange_2bandit_a2.png","70","70","test","1","49","49","3","",""
"null","239037","pSARL_v2","pSARL_v28pbdcpfm","5d23460ad4c57900192b129c","freq_resp","img/orange_2bandit_a.png","70","70","test","","","","3","",""
"null","239200","pSARL_v2","pSARL_v28pbdcpfm","5d23460ad4c57900192b129c","fixation","img/fixation.png","null","","test","","","","","",""
"422.10000002384186","239628","pSARL_v2","pSARL_v28pbdcpfm","5d23460ad4c57900192b129c","freq","img/orange_2bandit_a2.png","70","70","test","1","50","50","3","",""
"null","240013","pSARL_v2","pSARL_v28pbdcpfm","5d23460ad4c57900192b129c","freq_resp","img/orange_2bandit_a.png","70","70","test","","","","3","",""
"null","240171","pSARL_v2","pSARL_v28pbdcpfm","5d23460ad4c57900192b129c","fixation","img/fixation.png","null","","test","","","","","",""
"146.59999990463257","240325","pSARL_v2","pSARL_v28pbdcpfm","5d23460ad4c57900192b129c","freq","img/orange_2bandit_a2.png","70","70","test","1","51","51","3","",""
"null","240999","pSARL_v2","pSARL_v28pbdcpfm","5d23460ad4c57900192b129c","freq_resp","img/orange_2bandit_a.png","70","70","test","","","","3","",""
"null","241170","pSARL_v2","pSARL_v28pbdcpfm","5d23460ad4c57900192b129c","fixation","img/fixation.png","null","","test","","","","","",""
"341.60000002384186","241518","pSARL_v2","pSARL_v28pbdcpfm","5d23460ad4c57900192b129c","freq","img/orange_2bandit_a2.png","70","70","test","1","52","52","3","",""
"null","241997","pSARL_v2","pSARL_v28pbdcpfm","5d23460ad4c57900192b129c","freq_resp","img/orange_2bandit_a.png","70","70","test","","","","3","",""
"null","242169","pSARL_v2","pSARL_v28pbdcpfm","5d23460ad4c57900192b129c","fixation","img/fixation.png","null","","test","","","","","",""
"308.60000002384186","242484","pSARL_v2","pSARL_v28pbdcpfm","5d23460ad4c57900192b129c","freq","img/orange_2bandit_a2.png","70","70","test","1","53","53","3","",""
"null","242982","pSARL_v2","pSARL_v28pbdcpfm","5d23460ad4c57900192b129c","freq_resp","img/orange_2bandit_a.png","70","70","test","","","","3","",""
"null","243153","pSARL_v2","pSARL_v28pbdcpfm","5d23460ad4c57900192b129c","fixation","img/fixation.png","null","","test","","","","","",""
"707.5","243868","pSARL_v2","pSARL_v28pbdcpfm","5d23460ad4c57900192b129c","freq","img/orange_2bandit_a2.png","70","70","test","1","54","54","3","",""
"null","243973","pSARL_v2","pSARL_v28pbdcpfm","5d23460ad4c57900192b129c","freq_resp","img/orange_2bandit_a.png","70","70","test","","","","3","",""
"null","244135","pSARL_v2","pSARL_v28pbdcpfm","5d23460ad4c57900192b129c","fixation","img/fixation.png","null","","test","","","","","",""
"542.6000000238419","244685","pSARL_v2","pSARL_v28pbdcpfm","5d23460ad4c57900192b129c","infreq","img/green_2bandit_a2.png","68","68","test","1","55","55","3","",""
"null","244950","pSARL_v2","pSARL_v28pbdcpfm","5d23460ad4c57900192b129c","infreq_resp","img/green_2bandit_a.png","68","68","test","","","","3","",""
"null","245122","pSARL_v2","pSARL_v28pbdcpfm","5d23460ad4c57900192b129c","fixation","img/fixation.png","null","","test","","","","","",""
"300","245428","pSARL_v2","pSARL_v28pbdcpfm","5d23460ad4c57900192b129c","freq","img/orange_2bandit_a2.png","70","70","test","1","56","56","3","",""
"null","245939","pSARL_v2","pSARL_v28pbdcpfm","5d23460ad4c57900192b129c","freq_resp","img/orange_2bandit_a.png","70","70","test","","","","3","",""
"null","246101","pSARL_v2","pSARL_v28pbdcpfm","5d23460ad4c57900192b129c","fixation","img/fixation.png","null","","test","","","","","",""
"312.8000000715256","246420","pSARL_v2","pSARL_v28pbdcpfm","5d23460ad4c57900192b129c","freq","img/orange_2bandit_a2.png","70","70","test","1","57","57","3","",""
"null","246917","pSARL_v2","pSARL_v28pbdcpfm","5d23460ad4c57900192b129c","freq_resp","img/orange_2bandit_a.png","70","70","test","","","","3","",""
"null","247076","pSARL_v2","pSARL_v28pbdcpfm","5d23460ad4c57900192b129c","fixation","img/fixation.png","null","","test","","","","","",""
"650.1000000238419","247732","pSARL_v2","pSARL_v28pbdcpfm","5d23460ad4c57900192b129c","freq","img/orange_2bandit_a2.png","70","70","test","1","58","58","3","",""
"null","247892","pSARL_v2","pSARL_v28pbdcpfm","5d23460ad4c57900192b129c","freq_resp","img/orange_2bandit_a.png","70","70","test","","","","3","",""
"null","248056","pSARL_v2","pSARL_v28pbdcpfm","5d23460ad4c57900192b129c","fixation","img/fixation.png","null","","test","","","","","",""
"525.3999999761581","248588","pSARL_v2","pSARL_v28pbdcpfm","5d23460ad4c57900192b129c","infreq","img/green_2bandit_a2.png","68","68","test","1","59","59","3","",""
"null","248872","pSARL_v2","pSARL_v28pbdcpfm","5d23460ad4c57900192b129c","infreq_resp","img/green_2bandit_a.png","68","68","test","","","","3","",""
"null","249045","pSARL_v2","pSARL_v28pbdcpfm","5d23460ad4c57900192b129c","fixation","img/fixation.png","null","","test","","","","","",""
"450.40000009536743","249501","pSARL_v2","pSARL_v28pbdcpfm","5d23460ad4c57900192b129c","freq","img/orange_2bandit_a2.png","70","70","test","1","60","60","3","",""
"null","249858","pSARL_v2","pSARL_v28pbdcpfm","5d23460ad4c57900192b129c","freq_resp","img/orange_2bandit_a.png","70","70","test","","","","3","",""
"null","250028","pSARL_v2","pSARL_v28pbdcpfm","5d23460ad4c57900192b129c","fixation","img/fixation.png","null","","test","","","","","",""
"321.39999997615814","250356","pSARL_v2","pSARL_v28pbdcpfm","5d23460ad4c57900192b129c","freq","img/orange_2bandit_a2.png","70","70","test","1","61","61","3","",""
"null","250846","pSARL_v2","pSARL_v28pbdcpfm","5d23460ad4c57900192b129c","freq_resp","img/orange_2bandit_a.png","70","70","test","","","","3","",""
"null","251013","pSARL_v2","pSARL_v28pbdcpfm","5d23460ad4c57900192b129c","fixation","img/fixation.png","null","","test","","","","","",""
"320.39999997615814","251340","pSARL_v2","pSARL_v28pbdcpfm","5d23460ad4c57900192b129c","freq","img/orange_2bandit_a2.png","70","70","test","1","62","62","3","",""
"null","251834","pSARL_v2","pSARL_v28pbdcpfm","5d23460ad4c57900192b129c","freq_resp","img/orange_2bandit_a.png","70","70","test","","","","3","",""
"null","251997","pSARL_v2","pSARL_v28pbdcpfm","5d23460ad4c57900192b129c","fixation","img/fixation.png","null","","test","","","","","",""
"304.39999997615814","252308","pSARL_v2","pSARL_v28pbdcpfm","5d23460ad4c57900192b129c","freq","img/orange_2bandit_a2.png","70","70","test","1","63","63","3","",""
"null","252825","pSARL_v2","pSARL_v28pbdcpfm","5d23460ad4c57900192b129c","freq_resp","img/orange_2bandit_a.png","70","70","test","","","","3","",""
"null","252996","pSARL_v2","pSARL_v28pbdcpfm","5d23460ad4c57900192b129c","fixation","img/fixation.png","null","","test","","","","","",""
"330.3000000715256","253332","pSARL_v2","pSARL_v28pbdcpfm","5d23460ad4c57900192b129c","freq","img/orange_2bandit_a2.png","70","70","test","1","64","64","3","",""
"null","253808","pSARL_v2","pSARL_v28pbdcpfm","5d23460ad4c57900192b129c","freq_resp","img/orange_2bandit_a.png","70","70","test","","","","3","",""
"null","253981","pSARL_v2","pSARL_v28pbdcpfm","5d23460ad4c57900192b129c","fixation","img/fixation.png","null","","test","","","","","",""
"352.60000002384186","254340","pSARL_v2","pSARL_v28pbdcpfm","5d23460ad4c57900192b129c","freq","img/orange_2bandit_a2.png","70","70","test","1","65","65","3","",""
"null","254795","pSARL_v2","pSARL_v28pbdcpfm","5d23460ad4c57900192b129c","freq_resp","img/orange_2bandit_a.png","70","70","test","","","","3","",""
"null","254967","pSARL_v2","pSARL_v28pbdcpfm","5d23460ad4c57900192b129c","fixation","img/fixation.png","null","","test","","","","","",""
"350.6999999284744","255324","pSARL_v2","pSARL_v28pbdcpfm","5d23460ad4c57900192b129c","freq","img/orange_2bandit_a2.png","70","70","test","1","66","66","3","",""
"null","255795","pSARL_v2","pSARL_v28pbdcpfm","5d23460ad4c57900192b129c","freq_resp","img/orange_2bandit_a.png","70","70","test","","","","3","",""
"null","255966","pSARL_v2","pSARL_v28pbdcpfm","5d23460ad4c57900192b129c","fixation","img/fixation.png","null","","test","","","","","",""
"320","256292","pSARL_v2","pSARL_v28pbdcpfm","5d23460ad4c57900192b129c","freq","img/orange_2bandit_a2.png","70","70","test","1","67","67","3","",""
"null","256793","pSARL_v2","pSARL_v28pbdcpfm","5d23460ad4c57900192b129c","freq_resp","img/orange_2bandit_a.png","70","70","test","","","","3","",""
"null","256950","pSARL_v2","pSARL_v28pbdcpfm","5d23460ad4c57900192b129c","fixation","img/fixation.png","null","","test","","","","","",""
"351.2000000476837","257309","pSARL_v2","pSARL_v28pbdcpfm","5d23460ad4c57900192b129c","freq","img/orange_2bandit_a2.png","70","70","test","1","68","68","3","",""
"null","257778","pSARL_v2","pSARL_v28pbdcpfm","5d23460ad4c57900192b129c","freq_resp","img/orange_2bandit_a.png","70","70","test","","","","3","",""
"null","257951","pSARL_v2","pSARL_v28pbdcpfm","5d23460ad4c57900192b129c","fixation","img/fixation.png","null","","test","","","","","",""
"343","258300","pSARL_v2","pSARL_v28pbdcpfm","5d23460ad4c57900192b129c","freq","img/orange_2bandit_a2.png","70","70","test","1","69","69","3","",""
"null","258777","pSARL_v2","pSARL_v28pbdcpfm","5d23460ad4c57900192b129c","freq_resp","img/orange_2bandit_a.png","70","70","test","","","","3","",""
"null","258945","pSARL_v2","pSARL_v28pbdcpfm","5d23460ad4c57900192b129c","fixation","img/fixation.png","null","","test","","","","","",""
"324.89999997615814","259276","pSARL_v2","pSARL_v28pbdcpfm","5d23460ad4c57900192b129c","freq","img/orange_2bandit_a2.png","70","70","test","1","70","70","3","",""
"null","259762","pSARL_v2","pSARL_v28pbdcpfm","5d23460ad4c57900192b129c","freq_resp","img/orange_2bandit_a.png","70","70","test","","","","3","",""
"null","259930","pSARL_v2","pSARL_v28pbdcpfm","5d23460ad4c57900192b129c","fixation","img/fixation.png","null","","test","","","","","",""
"299","260236","pSARL_v2","pSARL_v28pbdcpfm","5d23460ad4c57900192b129c","freq","img/orange_2bandit_a2.png","70","70","test","1","71","71","3","",""
"null","260748","pSARL_v2","pSARL_v28pbdcpfm","5d23460ad4c57900192b129c","freq_resp","img/orange_2bandit_a.png","70","70","test","","","","3","",""
"null","260917","pSARL_v2","pSARL_v28pbdcpfm","5d23460ad4c57900192b129c","fixation","img/fixation.png","null","","test","","","","","",""
"976.1999999284744","261901","pSARL_v2","pSARL_v28pbdcpfm","5d23460ad4c57900192b129c","reward","img/slot.png","74","","test","","","","","",""
"null","262669","pSARL_v2","pSARL_v28pbdcpfm","5d23460ad4c57900192b129c","points","<div class=""verylowPoints""> -7 </div>","null","na","test","","","","3","-7","2"
"520.6999999284744","263196","pSARL_v2","pSARL_v28pbdcpfm","5d23460ad4c57900192b129c","freq","img/orange_2bandit_a2.png","70","70","test","1","72","72","4","",""
"null","263497","pSARL_v2","pSARL_v28pbdcpfm","5d23460ad4c57900192b129c","freq_resp","img/orange_2bandit_a.png","70","70","test","","","","4","",""
"null","263669","pSARL_v2","pSARL_v28pbdcpfm","5d23460ad4c57900192b129c","fixation","img/fixation.png","null","","test","","","","","",""
"328.89999997615814","264004","pSARL_v2","pSARL_v28pbdcpfm","5d23460ad4c57900192b129c","freq","img/orange_2bandit_a2.png","70","70","test","1","73","73","4","",""
"null","264482","pSARL_v2","pSARL_v28pbdcpfm","5d23460ad4c57900192b129c","freq_resp","img/orange_2bandit_a.png","70","70","test","","","","4","",""
"null","264650","pSARL_v2","pSARL_v28pbdcpfm","5d23460ad4c57900192b129c","fixation","img/fixation.png","null","","test","","","","","",""
"323.6999999284744","264978","pSARL_v2","pSARL_v28pbdcpfm","5d23460ad4c57900192b129c","freq","img/orange_2bandit_a2.png","70","70","test","1","74","74","4","",""
"null","265465","pSARL_v2","pSARL_v28pbdcpfm","5d23460ad4c57900192b129c","freq_resp","img/orange_2bandit_a.png","70","70","test","","","","4","",""
"null","265628","pSARL_v2","pSARL_v28pbdcpfm","5d23460ad4c57900192b129c","fixation","img/fixation.png","null","","test","","","","","",""
"305","265938","pSARL_v2","pSARL_v28pbdcpfm","5d23460ad4c57900192b129c","freq","img/orange_2bandit_a2.png","70","70","test","1","75","75","4","",""
"null","266450","pSARL_v2","pSARL_v28pbdcpfm","5d23460ad4c57900192b129c","freq_resp","img/orange_2bandit_a.png","70","70","test","","","","4","",""
"null","266622","pSARL_v2","pSARL_v28pbdcpfm","5d23460ad4c57900192b129c","fixation","img/fixation.png","null","","test","","","","","",""
"311.5","266938","pSARL_v2","pSARL_v28pbdcpfm","5d23460ad4c57900192b129c","freq","img/orange_2bandit_a2.png","70","70","test","1","76","76","4","",""
"null","267442","pSARL_v2","pSARL_v28pbdcpfm","5d23460ad4c57900192b129c","freq_resp","img/orange_2bandit_a.png","70","70","test","","","","4","",""
"null","267611","pSARL_v2","pSARL_v28pbdcpfm","5d23460ad4c57900192b129c","fixation","img/fixation.png","null","","test","","","","","",""
"370.89999997615814","267986","pSARL_v2","pSARL_v28pbdcpfm","5d23460ad4c57900192b129c","freq","img/orange_2bandit_a2.png","70","70","test","1","77","77","4","",""
"null","268431","pSARL_v2","pSARL_v28pbdcpfm","5d23460ad4c57900192b129c","freq_resp","img/orange_2bandit_a.png","70","70","test","","","","4","",""
"null","268591","pSARL_v2","pSARL_v28pbdcpfm","5d23460ad4c57900192b129c","fixation","img/fixation.png","null","","test","","","","","",""
"342.7999999523163","268939","pSARL_v2","pSARL_v28pbdcpfm","5d23460ad4c57900192b129c","freq","img/orange_2bandit_a2.png","70","70","test","1","78","78","4","",""
"null","269403","pSARL_v2","pSARL_v28pbdcpfm","5d23460ad4c57900192b129c","freq_resp","img/orange_2bandit_a.png","70","70","test","","","","4","",""
"null","269560","pSARL_v2","pSARL_v28pbdcpfm","5d23460ad4c57900192b129c","fixation","img/fixation.png","null","","test","","","","","",""
"341.5","269906","pSARL_v2","pSARL_v28pbdcpfm","5d23460ad4c57900192b129c","freq","img/orange_2bandit_a2.png","70","70","test","1","79","79","4","",""
"null","270372","pSARL_v2","pSARL_v28pbdcpfm","5d23460ad4c57900192b129c","freq_resp","img/orange_2bandit_a.png","70","70","test","","","","4","",""
"null","270549","pSARL_v2","pSARL_v28pbdcpfm","5d23460ad4c57900192b129c","fixation","img/fixation.png","null","","test","","","","","",""
"440.59999990463257","270996","pSARL_v2","pSARL_v28pbdcpfm","5d23460ad4c57900192b129c","infreq","img/green_2bandit_a2.png","68","68","test","1","80","80","4","",""
"null","271370","pSARL_v2","pSARL_v28pbdcpfm","5d23460ad4c57900192b129c","infreq_resp","img/green_2bandit_a.png","68","68","test","","","","4","",""
"null","271529","pSARL_v2","pSARL_v28pbdcpfm","5d23460ad4c57900192b129c","fixation","img/fixation.png","null","","test","","","","","",""
"324.39999997615814","271860","pSARL_v2","pSARL_v28pbdcpfm","5d23460ad4c57900192b129c","freq","img/orange_2bandit_a2.png","70","70","test","1","81","81","4","",""
"null","272356","pSARL_v2","pSARL_v28pbdcpfm","5d23460ad4c57900192b129c","freq_resp","img/orange_2bandit_a.png","70","70","test","","","","4","",""
"null","272526","pSARL_v2","pSARL_v28pbdcpfm","5d23460ad4c57900192b129c","fixation","img/fixation.png","null","","test","","","","","",""
"319.39999997615814","272852","pSARL_v2","pSARL_v28pbdcpfm","5d23460ad4c57900192b129c","freq","img/orange_2bandit_a2.png","70","70","test","1","82","82","4","",""
"null","273340","pSARL_v2","pSARL_v28pbdcpfm","5d23460ad4c57900192b129c","freq_resp","img/orange_2bandit_a.png","70","70","test","","","","4","",""
"null","273501","pSARL_v2","pSARL_v28pbdcpfm","5d23460ad4c57900192b129c","fixation","img/fixation.png","null","","test","","","","","",""
"321.2000000476837","273828","pSARL_v2","pSARL_v28pbdcpfm","5d23460ad4c57900192b129c","freq","img/orange_2bandit_a2.png","70","70","test","1","83","83","4","",""
"null","274315","pSARL_v2","pSARL_v28pbdcpfm","5d23460ad4c57900192b129c","freq_resp","img/orange_2bandit_a.png","70","70","test","","","","4","",""
"null","274482","pSARL_v2","pSARL_v28pbdcpfm","5d23460ad4c57900192b129c","fixation","img/fixation.png","null","","test","","","","","",""
"315.39999997615814","274804","pSARL_v2","pSARL_v28pbdcpfm","5d23460ad4c57900192b129c","freq","img/orange_2bandit_a2.png","70","70","test","1","84","84","4","",""
"null","275295","pSARL_v2","pSARL_v28pbdcpfm","5d23460ad4c57900192b129c","freq_resp","img/orange_2bandit_a.png","70","70","test","","","","4","",""
"null","275459","pSARL_v2","pSARL_v28pbdcpfm","5d23460ad4c57900192b129c","fixation","img/fixation.png","null","","test","","","","","",""
"315","275780","pSARL_v2","pSARL_v28pbdcpfm","5d23460ad4c57900192b129c","freq","img/orange_2bandit_a2.png","70","70","test","1","85","85","4","",""
"null","276279","pSARL_v2","pSARL_v28pbdcpfm","5d23460ad4c57900192b129c","freq_resp","img/orange_2bandit_a.png","70","70","test","","","","4","",""
"null","276464","pSARL_v2","pSARL_v28pbdcpfm","5d23460ad4c57900192b129c","fixation","img/fixation.png","null","","test","","","","","",""
"325.2999999523163","276796","pSARL_v2","pSARL_v28pbdcpfm","5d23460ad4c57900192b129c","freq","img/orange_2bandit_a2.png","70","70","test","1","86","86","4","",""
"null","277282","pSARL_v2","pSARL_v28pbdcpfm","5d23460ad4c57900192b129c","freq_resp","img/orange_2bandit_a.png","70","70","test","","","","4","",""
"null","277451","pSARL_v2","pSARL_v28pbdcpfm","5d23460ad4c57900192b129c","fixation","img/fixation.png","null","","test","","","","","",""
"null","278264","pSARL_v2","pSARL_v28pbdcpfm","5d23460ad4c57900192b129c","infreq","img/green_2bandit_a2.png","null","68","test","0","87","87","4","",""
"null","278435","pSARL_v2","pSARL_v28pbdcpfm","5d23460ad4c57900192b129c","fixation","img/fixation.png","null","","test","","","","","",""
"570.2999999523163","279012","pSARL_v2","pSARL_v28pbdcpfm","5d23460ad4c57900192b129c","freq","img/orange_2bandit_a2.png","70","70","test","1","88","88","4","",""
"null","279247","pSARL_v2","pSARL_v28pbdcpfm","5d23460ad4c57900192b129c","freq_resp","img/orange_2bandit_a.png","70","70","test","","","","4","",""
"null","279408","pSARL_v2","pSARL_v28pbdcpfm","5d23460ad4c57900192b129c","fixation","img/fixation.png","null","","test","","","","","",""
"461.5","279876","pSARL_v2","pSARL_v28pbdcpfm","5d23460ad4c57900192b129c","freq","img/orange_2bandit_a2.png","70","70","test","1","89","89","4","",""
"null","280229","pSARL_v2","pSARL_v28pbdcpfm","5d23460ad4c57900192b129c","freq_resp","img/orange_2bandit_a.png","70","70","test","","","","4","",""
"null","280387","pSARL_v2","pSARL_v28pbdcpfm","5d23460ad4c57900192b129c","fixation","img/fixation.png","null","","test","","","","","",""
"361.90000009536743","280756","pSARL_v2","pSARL_v28pbdcpfm","5d23460ad4c57900192b129c","freq","img/orange_2bandit_a2.png","70","70","test","1","90","90","4","",""
"null","281217","pSARL_v2","pSARL_v28pbdcpfm","5d23460ad4c57900192b129c","freq_resp","img/orange_2bandit_a.png","70","70","test","","","","4","",""
"null","281375","pSARL_v2","pSARL_v28pbdcpfm","5d23460ad4c57900192b129c","fixation","img/fixation.png","null","","test","","","","","",""
"631.2000000476837","282012","pSARL_v2","pSARL_v28pbdcpfm","5d23460ad4c57900192b129c","reward","img/slot.png","74","","test","","","","","",""
"null","282779","pSARL_v2","pSARL_v28pbdcpfm","5d23460ad4c57900192b129c","points","<div class=""verylowPoints""> -3 </div>","null","na","test","","","","4","-3","3"
"410.59999990463257","283196","pSARL_v2","pSARL_v28pbdcpfm","5d23460ad4c57900192b129c","freq","img/orange_2bandit_a2.png","70","70","test","1","91","91","5","",""
"null","283606","pSARL_v2","pSARL_v28pbdcpfm","5d23460ad4c57900192b129c","freq_resp","img/orange_2bandit_a.png","70","70","test","","","","5","",""
"null","283778","pSARL_v2","pSARL_v28pbdcpfm","5d23460ad4c57900192b129c","fixation","img/fixation.png","null","","test","","","","","",""
"347.40000009536743","284132","pSARL_v2","pSARL_v28pbdcpfm","5d23460ad4c57900192b129c","freq","img/orange_2bandit_a2.png","70","70","test","1","92","92","5","",""
"null","284605","pSARL_v2","pSARL_v28pbdcpfm","5d23460ad4c57900192b129c","freq_resp","img/orange_2bandit_a.png","70","70","test","","","","5","",""
"null","284763","pSARL_v2","pSARL_v28pbdcpfm","5d23460ad4c57900192b129c","fixation","img/fixation.png","null","","test","","","","","",""
"314.59999990463257","285084","pSARL_v2","pSARL_v28pbdcpfm","5d23460ad4c57900192b129c","freq","img/orange_2bandit_a2.png","70","70","test","1","93","93","5","",""
"null","285576","pSARL_v2","pSARL_v28pbdcpfm","5d23460ad4c57900192b129c","freq_resp","img/orange_2bandit_a.png","70","70","test","","","","5","",""
"null","285747","pSARL_v2","pSARL_v28pbdcpfm","5d23460ad4c57900192b129c","fixation","img/fixation.png","null","","test","","","","","",""
"330.8000000715256","286084","pSARL_v2","pSARL_v28pbdcpfm","5d23460ad4c57900192b129c","freq","img/orange_2bandit_a2.png","70","70","test","1","94","94","5","",""
"null","286575","pSARL_v2","pSARL_v28pbdcpfm","5d23460ad4c57900192b129c","freq_resp","img/orange_2bandit_a.png","70","70","test","","","","5","",""
"null","286737","pSARL_v2","pSARL_v28pbdcpfm","5d23460ad4c57900192b129c","fixation","img/fixation.png","null","","test","","","","","",""
"308.60000002384186","287052","pSARL_v2","pSARL_v28pbdcpfm","5d23460ad4c57900192b129c","freq","img/orange_2bandit_a2.png","70","70","test","1","95","95","5","",""
"null","287560","pSARL_v2","pSARL_v28pbdcpfm","5d23460ad4c57900192b129c","freq_resp","img/orange_2bandit_a.png","70","70","test","","","","5","",""
"null","287728","pSARL_v2","pSARL_v28pbdcpfm","5d23460ad4c57900192b129c","fixation","img/fixation.png","null","","test","","","","","",""
"301.8000000715256","288036","pSARL_v2","pSARL_v28pbdcpfm","5d23460ad4c57900192b129c","freq","img/orange_2bandit_a2.png","70","70","test","1","96","96","5","",""
"null","288544","pSARL_v2","pSARL_v28pbdcpfm","5d23460ad4c57900192b129c","freq_resp","img/orange_2bandit_a.png","70","70","test","","","","5","",""
"null","288700","pSARL_v2","pSARL_v28pbdcpfm","5d23460ad4c57900192b129c","fixation","img/fixation.png","null","","test","","","","","",""
"337.39999997615814","289042","pSARL_v2","pSARL_v28pbdcpfm","5d23460ad4c57900192b129c","freq","img/orange_2bandit_a2.png","70","70","test","1","97","97","5","",""
"null","289513","pSARL_v2","pSARL_v28pbdcpfm","5d23460ad4c57900192b129c","freq_resp","img/orange_2bandit_a.png","70","70","test","","","","5","",""
"null","289685","pSARL_v2","pSARL_v28pbdcpfm","5d23460ad4c57900192b129c","fixation","img/fixation.png","null","","test","","","","","",""
"360.3000000715256","290052","pSARL_v2","pSARL_v28pbdcpfm","5d23460ad4c57900192b129c","freq","img/orange_2bandit_a2.png","70","70","test","1","98","98","5","",""
"null","290497","pSARL_v2","pSARL_v28pbdcpfm","5d23460ad4c57900192b129c","freq_resp","img/orange_2bandit_a.png","70","70","test","","","","5","",""
"null","290668","pSARL_v2","pSARL_v28pbdcpfm","5d23460ad4c57900192b129c","fixation","img/fixation.png","null","","test","","","","","",""
"296.89999997615814","290972","pSARL_v2","pSARL_v28pbdcpfm","5d23460ad4c57900192b129c","freq","img/orange_2bandit_a2.png","70","70","test","1","99","99","5","",""
"null","291490","pSARL_v2","pSARL_v28pbdcpfm","5d23460ad4c57900192b129c","freq_resp","img/orange_2bandit_a.png","70","70","test","","","","5","",""
"null","291652","pSARL_v2","pSARL_v28pbdcpfm","5d23460ad4c57900192b129c","fixation","img/fixation.png","null","","test","","","","","",""
"329.60000002384186","291988","pSARL_v2","pSARL_v28pbdcpfm","5d23460ad4c57900192b129c","freq","img/orange_2bandit_a2.png","70","70","test","1","100","100","5","",""
"null","292465","pSARL_v2","pSARL_v28pbdcpfm","5d23460ad4c57900192b129c","freq_resp","img/orange_2bandit_a.png","70","70","test","","","","5","",""
"null","292636","pSARL_v2","pSARL_v28pbdcpfm","5d23460ad4c57900192b129c","fixation","img/fixation.png","null","","test","","","","","",""
"321.8000000715256","292966","pSARL_v2","pSARL_v28pbdcpfm","5d23460ad4c57900192b129c","freq","img/orange_2bandit_a2.png","70","70","test","1","101","101","5","",""
"null","293466","pSARL_v2","pSARL_v28pbdcpfm","5d23460ad4c57900192b129c","freq_resp","img/orange_2bandit_a.png","70","70","test","","","","5","",""
"null","293625","pSARL_v2","pSARL_v28pbdcpfm","5d23460ad4c57900192b129c","fixation","img/fixation.png","null","","test","","","","","",""
"292.10000002384186","293924","pSARL_v2","pSARL_v28pbdcpfm","5d23460ad4c57900192b129c","freq","img/orange_2bandit_a2.png","70","70","test","1","102","102","5","",""
"null","294450","pSARL_v2","pSARL_v28pbdcpfm","5d23460ad4c57900192b129c","freq_resp","img/orange_2bandit_a.png","70","70","test","","","","5","",""
"null","294622","pSARL_v2","pSARL_v28pbdcpfm","5d23460ad4c57900192b129c","fixation","img/fixation.png","null","","test","","","","","",""
"375.39999997615814","295003","pSARL_v2","pSARL_v28pbdcpfm","5d23460ad4c57900192b129c","infreq","img/green_2bandit_a2.png","68","68","test","1","103","103","5","",""
"null","295435","pSARL_v2","pSARL_v28pbdcpfm","5d23460ad4c57900192b129c","infreq_resp","img/green_2bandit_a.png","68","68","test","","","","5","",""
"null","295601","pSARL_v2","pSARL_v28pbdcpfm","5d23460ad4c57900192b129c","fixation","img/fixation.png","null","","test","","","","","",""
"316.10000002384186","295924","pSARL_v2","pSARL_v28pbdcpfm","5d23460ad4c57900192b129c","freq","img/orange_2bandit_a2.png","70","70","test","1","104","104","5","",""
"null","296419","pSARL_v2","pSARL_v28pbdcpfm","5d23460ad4c57900192b129c","freq_resp","img/orange_2bandit_a.png","70","70","test","","","","5","",""
"null","296584","pSARL_v2","pSARL_v28pbdcpfm","5d23460ad4c57900192b129c","fixation","img/fixation.png","null","","test","","","","","",""
"628.6000000238419","297220","pSARL_v2","pSARL_v28pbdcpfm","5d23460ad4c57900192b129c","freq","img/orange_2bandit_a2.png","70","70","test","1","105","105","5","",""
"null","297403","pSARL_v2","pSARL_v28pbdcpfm","5d23460ad4c57900192b129c","freq_resp","img/orange_2bandit_a.png","70","70","test","","","","5","",""
"null","297567","pSARL_v2","pSARL_v28pbdcpfm","5d23460ad4c57900192b129c","fixation","img/fixation.png","null","","test","","","","","",""
"358.10000002384186","297931","pSARL_v2","pSARL_v28pbdcpfm","5d23460ad4c57900192b129c","freq","img/orange_2bandit_a2.png","70","70","test","1","106","106","5","",""
"null","298389","pSARL_v2","pSARL_v28pbdcpfm","5d23460ad4c57900192b129c","freq_resp","img/orange_2bandit_a.png","70","70","test","","","","5","",""
"null","298550","pSARL_v2","pSARL_v28pbdcpfm","5d23460ad4c57900192b129c","fixation","img/fixation.png","null","","test","","","","","",""
"270.7000000476837","298828","pSARL_v2","pSARL_v28pbdcpfm","5d23460ad4c57900192b129c","freq","img/orange_2bandit_a2.png","70","70","test","1","107","107","5","",""
"null","299371","pSARL_v2","pSARL_v28pbdcpfm","5d23460ad4c57900192b129c","freq_resp","img/orange_2bandit_a.png","70","70","test","","","","5","",""
"null","299538","pSARL_v2","pSARL_v28pbdcpfm","5d23460ad4c57900192b129c","fixation","img/fixation.png","null","","test","","","","","",""
"299","299844","pSARL_v2","pSARL_v28pbdcpfm","5d23460ad4c57900192b129c","freq","img/orange_2bandit_a2.png","70","70","test","1","108","108","5","",""
"null","300355","pSARL_v2","pSARL_v28pbdcpfm","5d23460ad4c57900192b129c","freq_resp","img/orange_2bandit_a.png","70","70","test","","","","5","",""
"null","300513","pSARL_v2","pSARL_v28pbdcpfm","5d23460ad4c57900192b129c","fixation","img/fixation.png","null","","test","","","","","",""
"323.89999997615814","300843","pSARL_v2","pSARL_v28pbdcpfm","5d23460ad4c57900192b129c","freq","img/orange_2bandit_a2.png","70","70","test","1","109","109","5","",""
"null","301340","pSARL_v2","pSARL_v28pbdcpfm","5d23460ad4c57900192b129c","freq_resp","img/orange_2bandit_a.png","70","70","test","","","","5","",""
"null","301501","pSARL_v2","pSARL_v28pbdcpfm","5d23460ad4c57900192b129c","fixation","img/fixation.png","null","","test","","","","","",""
"303.7000000476837","301812","pSARL_v2","pSARL_v28pbdcpfm","5d23460ad4c57900192b129c","freq","img/orange_2bandit_a2.png","70","70","test","1","110","110","5","",""
"null","302324","pSARL_v2","pSARL_v28pbdcpfm","5d23460ad4c57900192b129c","freq_resp","img/orange_2bandit_a.png","70","70","test","","","","5","",""
"null","302482","pSARL_v2","pSARL_v28pbdcpfm","5d23460ad4c57900192b129c","fixation","img/fixation.png","null","","test","","","","","",""
"491.2999999523163","302979","pSARL_v2","pSARL_v28pbdcpfm","5d23460ad4c57900192b129c","infreq","img/green_2bandit_a2.png","68","68","test","1","111","111","5","",""
"null","303294","pSARL_v2","pSARL_v28pbdcpfm","5d23460ad4c57900192b129c","infreq_resp","img/green_2bandit_a.png","68","68","test","","","","5","",""
"null","303465","pSARL_v2","pSARL_v28pbdcpfm","5d23460ad4c57900192b129c","fixation","img/fixation.png","null","","test","","","","","",""
"332.3000000715256","303803","pSARL_v2","pSARL_v28pbdcpfm","5d23460ad4c57900192b129c","freq","img/orange_2bandit_a2.png","70","70","test","1","112","112","5","",""
"null","304280","pSARL_v2","pSARL_v28pbdcpfm","5d23460ad4c57900192b129c","freq_resp","img/orange_2bandit_a.png","70","70","test","","","","5","",""
"null","304450","pSARL_v2","pSARL_v28pbdcpfm","5d23460ad4c57900192b129c","fixation","img/fixation.png","null","","test","","","","","",""
"314.5","304771","pSARL_v2","pSARL_v28pbdcpfm","5d23460ad4c57900192b129c","freq","img/orange_2bandit_a2.png","70","70","test","1","113","113","5","",""
"null","305278","pSARL_v2","pSARL_v28pbdcpfm","5d23460ad4c57900192b129c","freq_resp","img/orange_2bandit_a.png","70","70","test","","","","5","",""
"null","305438","pSARL_v2","pSARL_v28pbdcpfm","5d23460ad4c57900192b129c","fixation","img/fixation.png","null","","test","","","","","",""
"343.10000002384186","305788","pSARL_v2","pSARL_v28pbdcpfm","5d23460ad4c57900192b129c","freq","img/orange_2bandit_a2.png","70","70","test","1","114","114","5","",""
"null","306261","pSARL_v2","pSARL_v28pbdcpfm","5d23460ad4c57900192b129c","freq_resp","img/orange_2bandit_a.png","70","70","test","","","","5","",""
"null","306429","pSARL_v2","pSARL_v28pbdcpfm","5d23460ad4c57900192b129c","fixation","img/fixation.png","null","","test","","","","","",""
"327.39999997615814","306763","pSARL_v2","pSARL_v28pbdcpfm","5d23460ad4c57900192b129c","freq","img/orange_2bandit_a2.png","70","70","test","1","115","115","5","",""
"null","307246","pSARL_v2","pSARL_v28pbdcpfm","5d23460ad4c57900192b129c","freq_resp","img/orange_2bandit_a.png","70","70","test","","","","5","",""
"null","307414","pSARL_v2","pSARL_v28pbdcpfm","5d23460ad4c57900192b129c","fixation","img/fixation.png","null","","test","","","","","",""
"399.10000002384186","307820","pSARL_v2","pSARL_v28pbdcpfm","5d23460ad4c57900192b129c","reward","img/slot.png","74","","test","","","","","",""
"null","308591","pSARL_v2","pSARL_v28pbdcpfm","5d23460ad4c57900192b129c","points","<div class=""veryhighPoints""> +1 </div>","null","na","test","","","","5","1","4"
"333.60000002384186","308931","pSARL_v2","pSARL_v28pbdcpfm","5d23460ad4c57900192b129c","freq","img/orange_2bandit_a2.png","70","70","test","1","116","116","6","",""
"null","309418","pSARL_v2","pSARL_v28pbdcpfm","5d23460ad4c57900192b129c","freq_resp","img/orange_2bandit_a.png","70","70","test","","","","6","",""
"null","309585","pSARL_v2","pSARL_v28pbdcpfm","5d23460ad4c57900192b129c","fixation","img/fixation.png","null","","test","","","","","",""
"323.39999997615814","309916","pSARL_v2","pSARL_v28pbdcpfm","5d23460ad4c57900192b129c","freq","img/orange_2bandit_a2.png","70","70","test","1","117","117","6","",""
"null","310404","pSARL_v2","pSARL_v28pbdcpfm","5d23460ad4c57900192b129c","freq_resp","img/orange_2bandit_a.png","70","70","test","","","","6","",""
"null","310561","pSARL_v2","pSARL_v28pbdcpfm","5d23460ad4c57900192b129c","fixation","img/fixation.png","null","","test","","","","","",""
"348.2000000476837","310916","pSARL_v2","pSARL_v28pbdcpfm","5d23460ad4c57900192b129c","freq","img/orange_2bandit_a2.png","70","70","test","1","118","118","6","",""
"null","311381","pSARL_v2","pSARL_v28pbdcpfm","5d23460ad4c57900192b129c","freq_resp","img/orange_2bandit_a.png","70","70","test","","","","6","",""
"null","311543","pSARL_v2","pSARL_v28pbdcpfm","5d23460ad4c57900192b129c","fixation","img/fixation.png","null","","test","","","","","",""
"325.89999997615814","311876","pSARL_v2","pSARL_v28pbdcpfm","5d23460ad4c57900192b129c","freq","img/orange_2bandit_a2.png","70","70","test","1","119","119","6","",""
"null","312385","pSARL_v2","pSARL_v28pbdcpfm","5d23460ad4c57900192b129c","freq_resp","img/orange_2bandit_a.png","70","70","test","","","","6","",""
"null","312545","pSARL_v2","pSARL_v28pbdcpfm","5d23460ad4c57900192b129c","fixation","img/fixation.png","null","","test","","","","","",""
"211.39999997615814","312764","pSARL_v2","pSARL_v28pbdcpfm","5d23460ad4c57900192b129c","freq","img/orange_2bandit_a2.png","70","70","test","1","120","120","6","",""
"null","313372","pSARL_v2","pSARL_v28pbdcpfm","5d23460ad4c57900192b129c","freq_resp","img/orange_2bandit_a.png","70","70","test","","","","6","",""
"null","313543","pSARL_v2","pSARL_v28pbdcpfm","5d23460ad4c57900192b129c","fixation","img/fixation.png","null","","test","","","","","",""
"325.89999997615814","313875","pSARL_v2","pSARL_v28pbdcpfm","5d23460ad4c57900192b129c","freq","img/orange_2bandit_a2.png","70","70","test","1","121","121","6","",""
"null","314371","pSARL_v2","pSARL_v28pbdcpfm","5d23460ad4c57900192b129c","freq_resp","img/orange_2bandit_a.png","70","70","test","","","","6","",""
"null","314532","pSARL_v2","pSARL_v28pbdcpfm","5d23460ad4c57900192b129c","fixation","img/fixation.png","null","","test","","","","","",""
"312.7999999523163","314851","pSARL_v2","pSARL_v28pbdcpfm","5d23460ad4c57900192b129c","freq","img/orange_2bandit_a2.png","70","70","test","1","122","122","6","",""
"null","315356","pSARL_v2","pSARL_v28pbdcpfm","5d23460ad4c57900192b129c","freq_resp","img/orange_2bandit_a.png","70","70","test","","","","6","",""
"null","315513","pSARL_v2","pSARL_v28pbdcpfm","5d23460ad4c57900192b129c","fixation","img/fixation.png","null","","test","","","","","",""
"331.60000002384186","315850","pSARL_v2","pSARL_v28pbdcpfm","5d23460ad4c57900192b129c","freq","img/orange_2bandit_a2.png","70","70","test","1","123","123","6","",""
"null","316325","pSARL_v2","pSARL_v28pbdcpfm","5d23460ad4c57900192b129c","freq_resp","img/orange_2bandit_a.png","70","70","test","","","","6","",""
"null","316497","pSARL_v2","pSARL_v28pbdcpfm","5d23460ad4c57900192b129c","fixation","img/fixation.png","null","","test","","","","","",""
"339.89999997615814","316843","pSARL_v2","pSARL_v28pbdcpfm","5d23460ad4c57900192b129c","freq","img/orange_2bandit_a2.png","70","70","test","1","124","124","6","",""
"null","317341","pSARL_v2","pSARL_v28pbdcpfm","5d23460ad4c57900192b129c","freq_resp","img/orange_2bandit_a.png","70","70","test","","","","6","",""
"null","317499","pSARL_v2","pSARL_v28pbdcpfm","5d23460ad4c57900192b129c","fixation","img/fixation.png","null","","test","","","","","",""
"337.60000002384186","317844","pSARL_v2","pSARL_v28pbdcpfm","5d23460ad4c57900192b129c","freq","img/orange_2bandit_a2.png","70","70","test","1","125","125","6","",""
"null","318325","pSARL_v2","pSARL_v28pbdcpfm","5d23460ad4c57900192b129c","freq_resp","img/orange_2bandit_a.png","70","70","test","","","","6","",""
"null","318493","pSARL_v2","pSARL_v28pbdcpfm","5d23460ad4c57900192b129c","fixation","img/fixation.png","null","","test","","","","","",""
"448","318948","pSARL_v2","pSARL_v28pbdcpfm","5d23460ad4c57900192b129c","freq","img/orange_2bandit_a2.png","70","70","test","1","126","126","6","",""
"null","319309","pSARL_v2","pSARL_v28pbdcpfm","5d23460ad4c57900192b129c","freq_resp","img/orange_2bandit_a.png","70","70","test","","","","6","",""
"null","319476","pSARL_v2","pSARL_v28pbdcpfm","5d23460ad4c57900192b129c","fixation","img/fixation.png","null","","test","","","","","",""
"null","320295","pSARL_v2","pSARL_v28pbdcpfm","5d23460ad4c57900192b129c","freq","img/orange_2bandit_a2.png","null","70","test","0","127","127","6","",""
"null","320463","pSARL_v2","pSARL_v28pbdcpfm","5d23460ad4c57900192b129c","fixation","img/fixation.png","null","","test","","","","","",""
"93.39999997615814","320563","pSARL_v2","pSARL_v28pbdcpfm","5d23460ad4c57900192b129c","freq","img/orange_2bandit_a2.png","70","70","test","1","128","128","6","",""
"null","321278","pSARL_v2","pSARL_v28pbdcpfm","5d23460ad4c57900192b129c","freq_resp","img/orange_2bandit_a.png","70","70","test","","","","6","",""
"null","321449","pSARL_v2","pSARL_v28pbdcpfm","5d23460ad4c57900192b129c","fixation","img/fixation.png","null","","test","","","","","",""
"null","322262","pSARL_v2","pSARL_v28pbdcpfm","5d23460ad4c57900192b129c","freq","img/orange_2bandit_a2.png","null","70","test","0","129","129","6","",""
"null","322419","pSARL_v2","pSARL_v28pbdcpfm","5d23460ad4c57900192b129c","fixation","img/fixation.png","null","","test","","","","","",""
"529.2999999523163","322955","pSARL_v2","pSARL_v28pbdcpfm","5d23460ad4c57900192b129c","infreq","img/green_2bandit_a2.png","68","68","test","1","130","130","6","",""
"null","323247","pSARL_v2","pSARL_v28pbdcpfm","5d23460ad4c57900192b129c","infreq_resp","img/green_2bandit_a.png","68","68","test","","","","6","",""
"null","323404","pSARL_v2","pSARL_v28pbdcpfm","5d23460ad4c57900192b129c","fixation","img/fixation.png","null","","test","","","","","",""
"528.7000000476837","323939","pSARL_v2","pSARL_v28pbdcpfm","5d23460ad4c57900192b129c","freq","img/orange_2bandit_a2.png","70","70","test","1","131","131","6","",""
"null","324226","pSARL_v2","pSARL_v28pbdcpfm","5d23460ad4c57900192b129c","freq_resp","img/orange_2bandit_a.png","70","70","test","","","","6","",""
"null","324392","pSARL_v2","pSARL_v28pbdcpfm","5d23460ad4c57900192b129c","fixation","img/fixation.png","null","","test","","","","","",""
"388.2999999523163","324786","pSARL_v2","pSARL_v28pbdcpfm","5d23460ad4c57900192b129c","freq","img/orange_2bandit_a2.png","70","70","test","1","132","132","6","",""
"null","325214","pSARL_v2","pSARL_v28pbdcpfm","5d23460ad4c57900192b129c","freq_resp","img/orange_2bandit_a.png","70","70","test","","","","6","",""
"null","325372","pSARL_v2","pSARL_v28pbdcpfm","5d23460ad4c57900192b129c","fixation","img/fixation.png","null","","test","","","","","",""
"488.39999997615814","325868","pSARL_v2","pSARL_v28pbdcpfm","5d23460ad4c57900192b129c","infreq","img/green_2bandit_a2.png","68","68","test","1","133","133","6","",""
"null","326200","pSARL_v2","pSARL_v28pbdcpfm","5d23460ad4c57900192b129c","infreq_resp","img/green_2bandit_a.png","68","68","test","","","","6","",""
"null","326363","pSARL_v2","pSARL_v28pbdcpfm","5d23460ad4c57900192b129c","fixation","img/fixation.png","null","","test","","","","","",""
"330.09999990463257","326700","pSARL_v2","pSARL_v28pbdcpfm","5d23460ad4c57900192b129c","freq","img/orange_2bandit_a2.png","70","70","test","1","134","134","6","",""
"null","327185","pSARL_v2","pSARL_v28pbdcpfm","5d23460ad4c57900192b129c","freq_resp","img/orange_2bandit_a.png","70","70","test","","","","6","",""
"null","327357","pSARL_v2","pSARL_v28pbdcpfm","5d23460ad4c57900192b129c","fixation","img/fixation.png","null","","test","","","","","",""
"303.2999999523163","327667","pSARL_v2","pSARL_v28pbdcpfm","5d23460ad4c57900192b129c","freq","img/orange_2bandit_a2.png","70","70","test","1","135","135","6","",""
"null","328180","pSARL_v2","pSARL_v28pbdcpfm","5d23460ad4c57900192b129c","freq_resp","img/orange_2bandit_a.png","70","70","test","","","","6","",""
"null","328341","pSARL_v2","pSARL_v28pbdcpfm","5d23460ad4c57900192b129c","fixation","img/fixation.png","null","","test","","","","","",""
"527.6999999284744","328876","pSARL_v2","pSARL_v28pbdcpfm","5d23460ad4c57900192b129c","reward","img/slot.png","74","","test","","","","","",""
"null","329637","pSARL_v2","pSARL_v28pbdcpfm","5d23460ad4c57900192b129c","points","<div class=""verylowPoints""> -7 </div>","null","na","test","","","","6","-7","5"
"391.10000002384186","330034","pSARL_v2","pSARL_v28pbdcpfm","5d23460ad4c57900192b129c","freq","img/orange_2bandit_a2.png","70","70","test","1","136","136","7","",""
"null","330450","pSARL_v2","pSARL_v28pbdcpfm","5d23460ad4c57900192b129c","freq_resp","img/orange_2bandit_a.png","70","70","test","","","","7","",""
"null","330612","pSARL_v2","pSARL_v28pbdcpfm","5d23460ad4c57900192b129c","fixation","img/fixation.png","null","","test","","","","","",""
"304.1999999284744","330923","pSARL_v2","pSARL_v28pbdcpfm","5d23460ad4c57900192b129c","infreq","img/green_2bandit_a2.png","70","68","test","0","137","137","7","",""
"null","331434","pSARL_v2","pSARL_v28pbdcpfm","5d23460ad4c57900192b129c","infreq_resp","img/green_2bandit_a.png","70","68","test","","","","7","",""
"null","331604","pSARL_v2","pSARL_v28pbdcpfm","5d23460ad4c57900192b129c","fixation","img/fixation.png","null","","test","","","","","",""
"336.1999999284744","331948","pSARL_v2","pSARL_v28pbdcpfm","5d23460ad4c57900192b129c","freq","img/orange_2bandit_a2.png","70","70","test","1","138","138","7","",""
"null","332419","pSARL_v2","pSARL_v28pbdcpfm","5d23460ad4c57900192b129c","freq_resp","img/orange_2bandit_a.png","70","70","test","","","","7","",""
"null","332588","pSARL_v2","pSARL_v28pbdcpfm","5d23460ad4c57900192b129c","fixation","img/fixation.png","null","","test","","","","","",""
"376.5","332970","pSARL_v2","pSARL_v28pbdcpfm","5d23460ad4c57900192b129c","infreq","img/green_2bandit_a2.png","68","68","test","1","139","139","7","",""
"null","333403","pSARL_v2","pSARL_v28pbdcpfm","5d23460ad4c57900192b129c","infreq_resp","img/green_2bandit_a.png","68","68","test","","","","7","",""
"null","333560","pSARL_v2","pSARL_v28pbdcpfm","5d23460ad4c57900192b129c","fixation","img/fixation.png","null","","test","","","","","",""
"324.5","333891","pSARL_v2","pSARL_v28pbdcpfm","5d23460ad4c57900192b129c","freq","img/orange_2bandit_a2.png","70","70","test","1","140","140","7","",""
"null","334376","pSARL_v2","pSARL_v28pbdcpfm","5d23460ad4c57900192b129c","freq_resp","img/orange_2bandit_a.png","70","70","test","","","","7","",""
"null","334538","pSARL_v2","pSARL_v28pbdcpfm","5d23460ad4c57900192b129c","fixation","img/fixation.png","null","","test","","","","","",""
"299.60000002384186","334844","pSARL_v2","pSARL_v28pbdcpfm","5d23460ad4c57900192b129c","freq","img/orange_2bandit_a2.png","70","70","test","1","141","141","7","",""
"null","335357","pSARL_v2","pSARL_v28pbdcpfm","5d23460ad4c57900192b129c","freq_resp","img/orange_2bandit_a.png","70","70","test","","","","7","",""
"null","335522","pSARL_v2","pSARL_v28pbdcpfm","5d23460ad4c57900192b129c","fixation","img/fixation.png","null","","test","","","","","",""
"298.6999999284744","335827","pSARL_v2","pSARL_v28pbdcpfm","5d23460ad4c57900192b129c","freq","img/orange_2bandit_a2.png","70","70","test","1","142","142","7","",""
"null","336341","pSARL_v2","pSARL_v28pbdcpfm","5d23460ad4c57900192b129c","freq_resp","img/orange_2bandit_a.png","70","70","test","","","","7","",""
"null","336510","pSARL_v2","pSARL_v28pbdcpfm","5d23460ad4c57900192b129c","fixation","img/fixation.png","null","","test","","","","","",""
"286.6999999284744","336803","pSARL_v2","pSARL_v28pbdcpfm","5d23460ad4c57900192b129c","freq","img/orange_2bandit_a2.png","70","70","test","1","143","143","7","",""
"null","337325","pSARL_v2","pSARL_v28pbdcpfm","5d23460ad4c57900192b129c","freq_resp","img/orange_2bandit_a.png","70","70","test","","","","7","",""
"null","337488","pSARL_v2","pSARL_v28pbdcpfm","5d23460ad4c57900192b129c","fixation","img/fixation.png","null","","test","","","","","",""
"325.09999990463257","337819","pSARL_v2","pSARL_v28pbdcpfm","5d23460ad4c57900192b129c","freq","img/orange_2bandit_a2.png","70","70","test","1","144","144","7","",""
"null","338311","pSARL_v2","pSARL_v28pbdcpfm","5d23460ad4c57900192b129c","freq_resp","img/orange_2bandit_a.png","70","70","test","","","","7","",""
"null","338481","pSARL_v2","pSARL_v28pbdcpfm","5d23460ad4c57900192b129c","fixation","img/fixation.png","null","","test","","","","","",""
"323.89999997615814","338811","pSARL_v2","pSARL_v28pbdcpfm","5d23460ad4c57900192b129c","freq","img/orange_2bandit_a2.png","70","70","test","1","145","145","7","",""
"null","339294","pSARL_v2","pSARL_v28pbdcpfm","5d23460ad4c57900192b129c","freq_resp","img/orange_2bandit_a.png","70","70","test","","","","7","",""
"null","339453","pSARL_v2","pSARL_v28pbdcpfm","5d23460ad4c57900192b129c","fixation","img/fixation.png","null","","test","","","","","",""
"535.6999999284744","339996","pSARL_v2","pSARL_v28pbdcpfm","5d23460ad4c57900192b129c","freq","img/orange_2bandit_a2.png","70","70","test","1","146","146","7","",""
"null","340277","pSARL_v2","pSARL_v28pbdcpfm","5d23460ad4c57900192b129c","freq_resp","img/orange_2bandit_a.png","70","70","test","","","","7","",""
"null","340436","pSARL_v2","pSARL_v28pbdcpfm","5d23460ad4c57900192b129c","fixation","img/fixation.png","null","","test","","","","","",""
"353","340796","pSARL_v2","pSARL_v28pbdcpfm","5d23460ad4c57900192b129c","freq","img/orange_2bandit_a2.png","70","70","test","1","147","147","7","",""
"null","341262","pSARL_v2","pSARL_v28pbdcpfm","5d23460ad4c57900192b129c","freq_resp","img/orange_2bandit_a.png","70","70","test","","","","7","",""
"null","341421","pSARL_v2","pSARL_v28pbdcpfm","5d23460ad4c57900192b129c","fixation","img/fixation.png","null","","test","","","","","",""
"423.7999999523163","341851","pSARL_v2","pSARL_v28pbdcpfm","5d23460ad4c57900192b129c","freq","img/orange_2bandit_a2.png","70","70","test","1","148","148","7","",""
"null","342248","pSARL_v2","pSARL_v28pbdcpfm","5d23460ad4c57900192b129c","freq_resp","img/orange_2bandit_a.png","70","70","test","","","","7","",""
"null","342408","pSARL_v2","pSARL_v28pbdcpfm","5d23460ad4c57900192b129c","fixation","img/fixation.png","null","","test","","","","","",""
"612.5","343027","pSARL_v2","pSARL_v28pbdcpfm","5d23460ad4c57900192b129c","freq","img/orange_2bandit_a2.png","70","70","test","1","149","149","7","",""
"null","343232","pSARL_v2","pSARL_v28pbdcpfm","5d23460ad4c57900192b129c","freq_resp","img/orange_2bandit_a.png","70","70","test","","","","7","",""
"null","343403","pSARL_v2","pSARL_v28pbdcpfm","5d23460ad4c57900192b129c","fixation","img/fixation.png","null","","test","","","","","",""
"393.10000002384186","343803","pSARL_v2","pSARL_v28pbdcpfm","5d23460ad4c57900192b129c","freq","img/orange_2bandit_a2.png","70","70","test","1","150","150","7","",""
"null","344225","pSARL_v2","pSARL_v28pbdcpfm","5d23460ad4c57900192b129c","freq_resp","img/orange_2bandit_a.png","70","70","test","","","","7","",""
"null","344388","pSARL_v2","pSARL_v28pbdcpfm","5d23460ad4c57900192b129c","fixation","img/fixation.png","null","","test","","","","","",""
"369.1999999284744","344763","pSARL_v2","pSARL_v28pbdcpfm","5d23460ad4c57900192b129c","freq","img/orange_2bandit_a2.png","70","70","test","1","151","151","7","",""
"null","345214","pSARL_v2","pSARL_v28pbdcpfm","5d23460ad4c57900192b129c","freq_resp","img/orange_2bandit_a.png","70","70","test","","","","7","",""
"null","345372","pSARL_v2","pSARL_v28pbdcpfm","5d23460ad4c57900192b129c","fixation","img/fixation.png","null","","test","","","","","",""
"361.2000000476837","345740","pSARL_v2","pSARL_v28pbdcpfm","5d23460ad4c57900192b129c","freq","img/orange_2bandit_a2.png","70","70","test","1","152","152","7","",""
"null","346200","pSARL_v2","pSARL_v28pbdcpfm","5d23460ad4c57900192b129c","freq_resp","img/orange_2bandit_a.png","70","70","test","","","","7","",""
"null","346367","pSARL_v2","pSARL_v28pbdcpfm","5d23460ad4c57900192b129c","fixation","img/fixation.png","null","","test","","","","","",""
"429.2999999523163","346803","pSARL_v2","pSARL_v28pbdcpfm","5d23460ad4c57900192b129c","freq","img/orange_2bandit_a2.png","70","70","test","1","153","153","7","",""
"null","347184","pSARL_v2","pSARL_v28pbdcpfm","5d23460ad4c57900192b129c","freq_resp","img/orange_2bandit_a.png","70","70","test","","","","7","",""
"null","347350","pSARL_v2","pSARL_v28pbdcpfm","5d23460ad4c57900192b129c","fixation","img/fixation.png","null","","test","","","","","",""
"398.40000009536743","347756","pSARL_v2","pSARL_v28pbdcpfm","5d23460ad4c57900192b129c","freq","img/orange_2bandit_a2.png","70","70","test","1","154","154","7","",""
"null","348169","pSARL_v2","pSARL_v28pbdcpfm","5d23460ad4c57900192b129c","freq_resp","img/orange_2bandit_a.png","70","70","test","","","","7","",""
"null","348337","pSARL_v2","pSARL_v28pbdcpfm","5d23460ad4c57900192b129c","fixation","img/fixation.png","null","","test","","","","","",""
"339.3000000715256","348684","pSARL_v2","pSARL_v28pbdcpfm","5d23460ad4c57900192b129c","freq","img/orange_2bandit_a2.png","70","70","test","1","155","155","7","",""
"null","349154","pSARL_v2","pSARL_v28pbdcpfm","5d23460ad4c57900192b129c","freq_resp","img/orange_2bandit_a.png","70","70","test","","","","7","",""
"null","349316","pSARL_v2","pSARL_v28pbdcpfm","5d23460ad4c57900192b129c","fixation","img/fixation.png","null","","test","","","","","",""
"952.2000000476837","350275","pSARL_v2","pSARL_v28pbdcpfm","5d23460ad4c57900192b129c","reward","img/slot.png","74","","test","","","","","",""
"null","351044","pSARL_v2","pSARL_v28pbdcpfm","5d23460ad4c57900192b129c","points","<div class=""verylowPoints""> -6 </div>","null","na","test","","","","7","-6","6"
"520.2000000476837","351571","pSARL_v2","pSARL_v28pbdcpfm","5d23460ad4c57900192b129c","freq","img/orange_2bandit_a2.png","70","70","test","1","156","156","8","",""
"null","351871","pSARL_v2","pSARL_v28pbdcpfm","5d23460ad4c57900192b129c","freq_resp","img/orange_2bandit_a.png","70","70","test","","","","8","",""
"null","352028","pSARL_v2","pSARL_v28pbdcpfm","5d23460ad4c57900192b129c","fixation","img/fixation.png","null","","test","","","","","",""
"337.7999999523163","352372","pSARL_v2","pSARL_v28pbdcpfm","5d23460ad4c57900192b129c","freq","img/orange_2bandit_a2.png","70","70","test","1","157","157","8","",""
"null","352857","pSARL_v2","pSARL_v28pbdcpfm","5d23460ad4c57900192b129c","freq_resp","img/orange_2bandit_a.png","70","70","test","","","","8","",""
"null","353026","pSARL_v2","pSARL_v28pbdcpfm","5d23460ad4c57900192b129c","fixation","img/fixation.png","null","","test","","","","","",""
"330.6999999284744","353363","pSARL_v2","pSARL_v28pbdcpfm","5d23460ad4c57900192b129c","freq","img/orange_2bandit_a2.png","70","70","test","1","158","158","8","",""
"null","353841","pSARL_v2","pSARL_v28pbdcpfm","5d23460ad4c57900192b129c","freq_resp","img/orange_2bandit_a.png","70","70","test","","","","8","",""
"null","354011","pSARL_v2","pSARL_v28pbdcpfm","5d23460ad4c57900192b129c","fixation","img/fixation.png","null","","test","","","","","",""
"354.2000000476837","354371","pSARL_v2","pSARL_v28pbdcpfm","5d23460ad4c57900192b129c","freq","img/orange_2bandit_a2.png","70","70","test","1","159","159","8","",""
"null","354825","pSARL_v2","pSARL_v28pbdcpfm","5d23460ad4c57900192b129c","freq_resp","img/orange_2bandit_a.png","70","70","test","","","","8","",""
"null","354997","pSARL_v2","pSARL_v28pbdcpfm","5d23460ad4c57900192b129c","fixation","img/fixation.png","null","","test","","","","","",""
"343.1999999284744","355345","pSARL_v2","pSARL_v28pbdcpfm","5d23460ad4c57900192b129c","freq","img/orange_2bandit_a2.png","70","70","test","1","160","160","8","",""
"null","355809","pSARL_v2","pSARL_v28pbdcpfm","5d23460ad4c57900192b129c","freq_resp","img/orange_2bandit_a.png","70","70","test","","","","8","",""
"null","355980","pSARL_v2","pSARL_v28pbdcpfm","5d23460ad4c57900192b129c","fixation","img/fixation.png","null","","test","","","","","",""
"328.2999999523163","356315","pSARL_v2","pSARL_v28pbdcpfm","5d23460ad4c57900192b129c","freq","img/orange_2bandit_a2.png","70","70","test","1","161","161","8","",""
"null","356794","pSARL_v2","pSARL_v28pbdcpfm","5d23460ad4c57900192b129c","freq_resp","img/orange_2bandit_a.png","70","70","test","","","","8","",""
"null","356952","pSARL_v2","pSARL_v28pbdcpfm","5d23460ad4c57900192b129c","fixation","img/fixation.png","null","","test","","","","","",""
"532.3000000715256","357491","pSARL_v2","pSARL_v28pbdcpfm","5d23460ad4c57900192b129c","infreq","img/green_2bandit_a2.png","68","68","test","1","162","162","8","",""
"null","357778","pSARL_v2","pSARL_v28pbdcpfm","5d23460ad4c57900192b129c","infreq_resp","img/green_2bandit_a.png","68","68","test","","","","8","",""
"null","357947","pSARL_v2","pSARL_v28pbdcpfm","5d23460ad4c57900192b129c","fixation","img/fixation.png","null","","test","","","","","",""
"376.6999999284744","358331","pSARL_v2","pSARL_v28pbdcpfm","5d23460ad4c57900192b129c","freq","img/orange_2bandit_a2.png","70","70","test","1","163","163","8","",""
"null","358763","pSARL_v2","pSARL_v28pbdcpfm","5d23460ad4c57900192b129c","freq_resp","img/orange_2bandit_a.png","70","70","test","","","","8","",""
"null","358931","pSARL_v2","pSARL_v28pbdcpfm","5d23460ad4c57900192b129c","fixation","img/fixation.png","null","","test","","","","","",""
"321.90000009536743","359260","pSARL_v2","pSARL_v28pbdcpfm","5d23460ad4c57900192b129c","freq","img/orange_2bandit_a2.png","70","70","test","1","164","164","8","",""
"null","359747","pSARL_v2","pSARL_v28pbdcpfm","5d23460ad4c57900192b129c","freq_resp","img/orange_2bandit_a.png","70","70","test","","","","8","",""
"null","359913","pSARL_v2","pSARL_v28pbdcpfm","5d23460ad4c57900192b129c","fixation","img/fixation.png","null","","test","","","","","",""
"363.60000002384186","360282","pSARL_v2","pSARL_v28pbdcpfm","5d23460ad4c57900192b129c","freq","img/orange_2bandit_a2.png","70","70","test","1","165","165","8","",""
"null","360732","pSARL_v2","pSARL_v28pbdcpfm","5d23460ad4c57900192b129c","freq_resp","img/orange_2bandit_a.png","70","70","test","","","","8","",""
"null","360896","pSARL_v2","pSARL_v28pbdcpfm","5d23460ad4c57900192b129c","fixation","img/fixation.png","null","","test","","","","","",""
"508.60000002384186","361411","pSARL_v2","pSARL_v28pbdcpfm","5d23460ad4c57900192b129c","infreq","img/green_2bandit_a2.png","68","68","test","1","166","166","8","",""
"null","361716","pSARL_v2","pSARL_v28pbdcpfm","5d23460ad4c57900192b129c","infreq_resp","img/green_2bandit_a.png","68","68","test","","","","8","",""
"null","361879","pSARL_v2","pSARL_v28pbdcpfm","5d23460ad4c57900192b129c","fixation","img/fixation.png","null","","test","","","","","",""
"309.6999999284744","362193","pSARL_v2","pSARL_v28pbdcpfm","5d23460ad4c57900192b129c","freq","img/orange_2bandit_a2.png","70","70","test","1","167","167","8","",""
"null","362699","pSARL_v2","pSARL_v28pbdcpfm","5d23460ad4c57900192b129c","freq_resp","img/orange_2bandit_a.png","70","70","test","","","","8","",""
"null","362866","pSARL_v2","pSARL_v28pbdcpfm","5d23460ad4c57900192b129c","fixation","img/fixation.png","null","","test","","","","","",""
"266.7000000476837","363139","pSARL_v2","pSARL_v28pbdcpfm","5d23460ad4c57900192b129c","freq","img/orange_2bandit_a2.png","70","70","test","1","168","168","8","",""
"null","363685","pSARL_v2","pSARL_v28pbdcpfm","5d23460ad4c57900192b129c","freq_resp","img/orange_2bandit_a.png","70","70","test","","","","8","",""
"null","363857","pSARL_v2","pSARL_v28pbdcpfm","5d23460ad4c57900192b129c","fixation","img/fixation.png","null","","test","","","","","",""
"316.09999990463257","364179","pSARL_v2","pSARL_v28pbdcpfm","5d23460ad4c57900192b129c","freq","img/orange_2bandit_a2.png","70","70","test","1","169","169","8","",""
"null","364684","pSARL_v2","pSARL_v28pbdcpfm","5d23460ad4c57900192b129c","freq_resp","img/orange_2bandit_a.png","70","70","test","","","","8","",""
"null","364856","pSARL_v2","pSARL_v28pbdcpfm","5d23460ad4c57900192b129c","fixation","img/fixation.png","null","","test","","","","","",""
"308.40000009536743","365171","pSARL_v2","pSARL_v28pbdcpfm","5d23460ad4c57900192b129c","freq","img/orange_2bandit_a2.png","70","70","test","1","170","170","8","",""
"null","365684","pSARL_v2","pSARL_v28pbdcpfm","5d23460ad4c57900192b129c","freq_resp","img/orange_2bandit_a.png","70","70","test","","","","8","",""
"null","365857","pSARL_v2","pSARL_v28pbdcpfm","5d23460ad4c57900192b129c","fixation","img/fixation.png","null","","test","","","","","",""
"323.2000000476837","366188","pSARL_v2","pSARL_v28pbdcpfm","5d23460ad4c57900192b129c","freq","img/orange_2bandit_a2.png","70","70","test","1","171","171","8","",""
"null","366685","pSARL_v2","pSARL_v28pbdcpfm","5d23460ad4c57900192b129c","freq_resp","img/orange_2bandit_a.png","70","70","test","","","","8","",""
"null","366856","pSARL_v2","pSARL_v28pbdcpfm","5d23460ad4c57900192b129c","fixation","img/fixation.png","null","","test","","","","","",""
"372.5","367233","pSARL_v2","pSARL_v28pbdcpfm","5d23460ad4c57900192b129c","freq","img/orange_2bandit_a2.png","70","70","test","1","172","172","8","",""
"null","367682","pSARL_v2","pSARL_v28pbdcpfm","5d23460ad4c57900192b129c","freq_resp","img/orange_2bandit_a.png","70","70","test","","","","8","",""
"null","367839","pSARL_v2","pSARL_v28pbdcpfm","5d23460ad4c57900192b129c","fixation","img/fixation.png","null","","test","","","","","",""
"374","368219","pSARL_v2","pSARL_v28pbdcpfm","5d23460ad4c57900192b129c","freq","img/orange_2bandit_a2.png","70","70","test","1","173","173","8","",""
"null","368654","pSARL_v2","pSARL_v28pbdcpfm","5d23460ad4c57900192b129c","freq_resp","img/orange_2bandit_a.png","70","70","test","","","","8","",""
"null","368825","pSARL_v2","pSARL_v28pbdcpfm","5d23460ad4c57900192b129c","fixation","img/fixation.png","null","","test","","","","","",""
"330.6999999284744","369161","pSARL_v2","pSARL_v28pbdcpfm","5d23460ad4c57900192b129c","freq","img/orange_2bandit_a2.png","70","70","test","1","174","174","8","",""
"null","369638","pSARL_v2","pSARL_v28pbdcpfm","5d23460ad4c57900192b129c","freq_resp","img/orange_2bandit_a.png","70","70","test","","","","8","",""
"null","369799","pSARL_v2","pSARL_v28pbdcpfm","5d23460ad4c57900192b129c","fixation","img/fixation.png","null","","test","","","","","",""
"477.39999997615814","370283","pSARL_v2","pSARL_v28pbdcpfm","5d23460ad4c57900192b129c","reward","img/slot.png","74","","test","","","","","",""
"null","371054","pSARL_v2","pSARL_v28pbdcpfm","5d23460ad4c57900192b129c","points","<div class=""verylowPoints""> -4 </div>","null","na","test","","","","8","-4","7"
"350.8000000715256","371411","pSARL_v2","pSARL_v28pbdcpfm","5d23460ad4c57900192b129c","freq","img/orange_2bandit_a2.png","70","70","test","1","175","175","9","",""
"null","371874","pSARL_v2","pSARL_v28pbdcpfm","5d23460ad4c57900192b129c","freq_resp","img/orange_2bandit_a.png","70","70","test","","","","9","",""
"null","372040","pSARL_v2","pSARL_v28pbdcpfm","5d23460ad4c57900192b129c","fixation","img/fixation.png","null","","test","","","","","",""
"308.5","372355","pSARL_v2","pSARL_v28pbdcpfm","5d23460ad4c57900192b129c","infreq","img/green_2bandit_a2.png","70","68","test","0","176","176","9","",""
"null","372856","pSARL_v2","pSARL_v28pbdcpfm","5d23460ad4c57900192b129c","infreq_resp","img/green_2bandit_a.png","70","68","test","","","","9","",""
"null","373015","pSARL_v2","pSARL_v28pbdcpfm","5d23460ad4c57900192b129c","fixation","img/fixation.png","null","","test","","","","","",""
"293.2000000476837","373315","pSARL_v2","pSARL_v28pbdcpfm","5d23460ad4c57900192b129c","freq","img/orange_2bandit_a2.png","70","70","test","1","177","177","9","",""
"null","373842","pSARL_v2","pSARL_v28pbdcpfm","5d23460ad4c57900192b129c","freq_resp","img/orange_2bandit_a.png","70","70","test","","","","9","",""
"null","374008","pSARL_v2","pSARL_v28pbdcpfm","5d23460ad4c57900192b129c","fixation","img/fixation.png","null","","test","","","","","",""
"324.7999999523163","374339","pSARL_v2","pSARL_v28pbdcpfm","5d23460ad4c57900192b129c","freq","img/orange_2bandit_a2.png","70","70","test","1","178","178","9","",""
"null","374825","pSARL_v2","pSARL_v28pbdcpfm","5d23460ad4c57900192b129c","freq_resp","img/orange_2bandit_a.png","70","70","test","","","","9","",""
"null","374997","pSARL_v2","pSARL_v28pbdcpfm","5d23460ad4c57900192b129c","fixation","img/fixation.png","null","","test","","","","","",""
"343.7000000476837","375347","pSARL_v2","pSARL_v28pbdcpfm","5d23460ad4c57900192b129c","freq","img/orange_2bandit_a2.png","70","70","test","1","179","179","9","",""
"null","375810","pSARL_v2","pSARL_v28pbdcpfm","5d23460ad4c57900192b129c","freq_resp","img/orange_2bandit_a.png","70","70","test","","","","9","",""
"null","375974","pSARL_v2","pSARL_v28pbdcpfm","5d23460ad4c57900192b129c","fixation","img/fixation.png","null","","test","","","","","",""
"326.90000009536743","376308","pSARL_v2","pSARL_v28pbdcpfm","5d23460ad4c57900192b129c","freq","img/orange_2bandit_a2.png","70","70","test","1","180","180","9","",""
"null","376794","pSARL_v2","pSARL_v28pbdcpfm","5d23460ad4c57900192b129c","freq_resp","img/orange_2bandit_a.png","70","70","test","","","","9","",""
"null","376957","pSARL_v2","pSARL_v28pbdcpfm","5d23460ad4c57900192b129c","fixation","img/fixation.png","null","","test","","","","","",""
"343.39999997615814","377308","pSARL_v2","pSARL_v28pbdcpfm","5d23460ad4c57900192b129c","freq","img/orange_2bandit_a2.png","70","70","test","1","181","181","9","",""
"null","377777","pSARL_v2","pSARL_v28pbdcpfm","5d23460ad4c57900192b129c","freq_resp","img/orange_2bandit_a.png","70","70","test","","","","9","",""
"null","377950","pSARL_v2","pSARL_v28pbdcpfm","5d23460ad4c57900192b129c","fixation","img/fixation.png","null","","test","","","","","",""
"326.89999997615814","378283","pSARL_v2","pSARL_v28pbdcpfm","5d23460ad4c57900192b129c","freq","img/orange_2bandit_a2.png","70","70","test","1","182","182","9","",""
"null","378778","pSARL_v2","pSARL_v28pbdcpfm","5d23460ad4c57900192b129c","freq_resp","img/orange_2bandit_a.png","70","70","test","","","","9","",""
"null","378950","pSARL_v2","pSARL_v28pbdcpfm","5d23460ad4c57900192b129c","fixation","img/fixation.png","null","","test","","","","","",""
"342.90000009536743","379299","pSARL_v2","pSARL_v28pbdcpfm","5d23460ad4c57900192b129c","freq","img/orange_2bandit_a2.png","70","70","test","1","183","183","9","",""
"null","379777","pSARL_v2","pSARL_v28pbdcpfm","5d23460ad4c57900192b129c","freq_resp","img/orange_2bandit_a.png","70","70","test","","","","9","",""
"null","379935","pSARL_v2","pSARL_v28pbdcpfm","5d23460ad4c57900192b129c","fixation","img/fixation.png","null","","test","","","","","",""
"325.2000000476837","380267","pSARL_v2","pSARL_v28pbdcpfm","5d23460ad4c57900192b129c","freq","img/orange_2bandit_a2.png","70","70","test","1","184","184","9","",""
"null","380761","pSARL_v2","pSARL_v28pbdcpfm","5d23460ad4c57900192b129c","freq_resp","img/orange_2bandit_a.png","70","70","test","","","","9","",""
"null","380919","pSARL_v2","pSARL_v28pbdcpfm","5d23460ad4c57900192b129c","fixation","img/fixation.png","null","","test","","","","","",""
"301.2999999523163","381227","pSARL_v2","pSARL_v28pbdcpfm","5d23460ad4c57900192b129c","freq","img/orange_2bandit_a2.png","70","70","test","1","185","185","9","",""
"null","381746","pSARL_v2","pSARL_v28pbdcpfm","5d23460ad4c57900192b129c","freq_resp","img/orange_2bandit_a.png","70","70","test","","","","9","",""
"null","381904","pSARL_v2","pSARL_v28pbdcpfm","5d23460ad4c57900192b129c","fixation","img/fixation.png","null","","test","","","","","",""
"300.7999999523163","382211","pSARL_v2","pSARL_v28pbdcpfm","5d23460ad4c57900192b129c","freq","img/orange_2bandit_a2.png","70","70","test","1","186","186","9","",""
"null","382725","pSARL_v2","pSARL_v28pbdcpfm","5d23460ad4c57900192b129c","freq_resp","img/orange_2bandit_a.png","70","70","test","","","","9","",""
"null","382888","pSARL_v2","pSARL_v28pbdcpfm","5d23460ad4c57900192b129c","fixation","img/fixation.png","null","","test","","","","","",""
"308.10000002384186","383203","pSARL_v2","pSARL_v28pbdcpfm","5d23460ad4c57900192b129c","freq","img/orange_2bandit_a2.png","70","70","test","1","187","187","9","",""
"null","383702","pSARL_v2","pSARL_v28pbdcpfm","5d23460ad4c57900192b129c","freq_resp","img/orange_2bandit_a.png","70","70","test","","","","9","",""
"null","383871","pSARL_v2","pSARL_v28pbdcpfm","5d23460ad4c57900192b129c","fixation","img/fixation.png","null","","test","","","","","",""
"333.2000000476837","384211","pSARL_v2","pSARL_v28pbdcpfm","5d23460ad4c57900192b129c","freq","img/orange_2bandit_a2.png","70","70","test","1","188","188","9","",""
"null","384684","pSARL_v2","pSARL_v28pbdcpfm","5d23460ad4c57900192b129c","freq_resp","img/orange_2bandit_a.png","70","70","test","","","","9","",""
"null","384843","pSARL_v2","pSARL_v28pbdcpfm","5d23460ad4c57900192b129c","fixation","img/fixation.png","null","","test","","","","","",""
"449.10000002384186","385301","pSARL_v2","pSARL_v28pbdcpfm","5d23460ad4c57900192b129c","infreq","img/green_2bandit_a2.png","68","68","test","1","189","189","9","",""
"null","385670","pSARL_v2","pSARL_v28pbdcpfm","5d23460ad4c57900192b129c","infreq_resp","img/green_2bandit_a.png","68","68","test","","","","9","",""
"null","385837","pSARL_v2","pSARL_v28pbdcpfm","5d23460ad4c57900192b129c","fixation","img/fixation.png","null","","test","","","","","",""
"367","386211","pSARL_v2","pSARL_v28pbdcpfm","5d23460ad4c57900192b129c","freq","img/orange_2bandit_a2.png","70","70","test","1","190","190","9","",""
"null","386653","pSARL_v2","pSARL_v28pbdcpfm","5d23460ad4c57900192b129c","freq_resp","img/orange_2bandit_a.png","70","70","test","","","","9","",""
"null","386825","pSARL_v2","pSARL_v28pbdcpfm","5d23460ad4c57900192b129c","fixation","img/fixation.png","null","","test","","","","","",""
"347","387179","pSARL_v2","pSARL_v28pbdcpfm","5d23460ad4c57900192b129c","freq","img/orange_2bandit_a2.png","70","70","test","1","191","191","9","",""
"null","387654","pSARL_v2","pSARL_v28pbdcpfm","5d23460ad4c57900192b129c","freq_resp","img/orange_2bandit_a.png","70","70","test","","","","9","",""
"null","387825","pSARL_v2","pSARL_v28pbdcpfm","5d23460ad4c57900192b129c","fixation","img/fixation.png","null","","test","","","","","",""
"347.1999999284744","388179","pSARL_v2","pSARL_v28pbdcpfm","5d23460ad4c57900192b129c","freq","img/orange_2bandit_a2.png","70","70","test","1","192","192","9","",""
"null","388639","pSARL_v2","pSARL_v28pbdcpfm","5d23460ad4c57900192b129c","freq_resp","img/orange_2bandit_a.png","70","70","test","","","","9","",""
"null","388810","pSARL_v2","pSARL_v28pbdcpfm","5d23460ad4c57900192b129c","fixation","img/fixation.png","null","","test","","","","","",""
"330.39999997615814","389148","pSARL_v2","pSARL_v28pbdcpfm","5d23460ad4c57900192b129c","freq","img/orange_2bandit_a2.png","70","70","test","1","193","193","9","",""
"null","389644","pSARL_v2","pSARL_v28pbdcpfm","5d23460ad4c57900192b129c","freq_resp","img/orange_2bandit_a.png","70","70","test","","","","9","",""
"null","389810","pSARL_v2","pSARL_v28pbdcpfm","5d23460ad4c57900192b129c","fixation","img/fixation.png","null","","test","","","","","",""
"274.7000000476837","390091","pSARL_v2","pSARL_v28pbdcpfm","5d23460ad4c57900192b129c","freq","img/orange_2bandit_a2.png","70","70","test","1","194","194","9","",""
"null","390638","pSARL_v2","pSARL_v28pbdcpfm","5d23460ad4c57900192b129c","freq_resp","img/orange_2bandit_a.png","70","70","test","","","","9","",""
"null","390809","pSARL_v2","pSARL_v28pbdcpfm","5d23460ad4c57900192b129c","fixation","img/fixation.png","null","","test","","","","","",""
"291.10000002384186","391107","pSARL_v2","pSARL_v28pbdcpfm","5d23460ad4c57900192b129c","freq","img/orange_2bandit_a2.png","70","70","test","1","195","195","9","",""
"null","391623","pSARL_v2","pSARL_v28pbdcpfm","5d23460ad4c57900192b129c","freq_resp","img/orange_2bandit_a.png","70","70","test","","","","9","",""
"null","391793","pSARL_v2","pSARL_v28pbdcpfm","5d23460ad4c57900192b129c","fixation","img/fixation.png","null","","test","","","","","",""
"315","392115","pSARL_v2","pSARL_v28pbdcpfm","5d23460ad4c57900192b129c","freq","img/orange_2bandit_a2.png","70","70","test","1","196","196","9","",""
"null","392622","pSARL_v2","pSARL_v28pbdcpfm","5d23460ad4c57900192b129c","freq_resp","img/orange_2bandit_a.png","70","70","test","","","","9","",""
"null","392794","pSARL_v2","pSARL_v28pbdcpfm","5d23460ad4c57900192b129c","fixation","img/fixation.png","null","","test","","","","","",""
"322.39999997615814","393123","pSARL_v2","pSARL_v28pbdcpfm","5d23460ad4c57900192b129c","freq","img/orange_2bandit_a2.png","70","70","test","1","197","197","9","",""
"null","393608","pSARL_v2","pSARL_v28pbdcpfm","5d23460ad4c57900192b129c","freq_resp","img/orange_2bandit_a.png","70","70","test","","","","9","",""
"null","393767","pSARL_v2","pSARL_v28pbdcpfm","5d23460ad4c57900192b129c","fixation","img/fixation.png","null","","test","","","","","",""
"333.2000000476837","394107","pSARL_v2","pSARL_v28pbdcpfm","5d23460ad4c57900192b129c","freq","img/orange_2bandit_a2.png","70","70","test","1","198","198","9","",""
"null","394582","pSARL_v2","pSARL_v28pbdcpfm","5d23460ad4c57900192b129c","freq_resp","img/orange_2bandit_a.png","70","70","test","","","","9","",""
"null","394747","pSARL_v2","pSARL_v28pbdcpfm","5d23460ad4c57900192b129c","fixation","img/fixation.png","null","","test","","","","","",""
"345.2999999523163","395099","pSARL_v2","pSARL_v28pbdcpfm","5d23460ad4c57900192b129c","freq","img/orange_2bandit_a2.png","70","70","test","1","199","199","9","",""
"null","395572","pSARL_v2","pSARL_v28pbdcpfm","5d23460ad4c57900192b129c","freq_resp","img/orange_2bandit_a.png","70","70","test","","","","9","",""
"null","395732","pSARL_v2","pSARL_v28pbdcpfm","5d23460ad4c57900192b129c","fixation","img/fixation.png","null","","test","","","","","",""
"520.8999999761581","396259","pSARL_v2","pSARL_v28pbdcpfm","5d23460ad4c57900192b129c","reward","img/slot.png","74","","test","","","","","",""
"null","397028","pSARL_v2","pSARL_v28pbdcpfm","5d23460ad4c57900192b129c","points","<div class=""verylowPoints""> -3 </div>","null","na","test","","","","9","-3","8"
"360.2000000476837","397395","pSARL_v2","pSARL_v28pbdcpfm","5d23460ad4c57900192b129c","freq","img/orange_2bandit_a2.png","70","70","test","1","200","200","10","",""
"null","397846","pSARL_v2","pSARL_v28pbdcpfm","5d23460ad4c57900192b129c","freq_resp","img/orange_2bandit_a.png","70","70","test","","","","10","",""
"null","398012","pSARL_v2","pSARL_v28pbdcpfm","5d23460ad4c57900192b129c","fixation","img/fixation.png","null","","test","","","","","",""
"480.7000000476837","398499","pSARL_v2","pSARL_v28pbdcpfm","5d23460ad4c57900192b129c","infreq","img/green_2bandit_a2.png","68","68","test","1","201","201","10","",""
"null","398841","pSARL_v2","pSARL_v28pbdcpfm","5d23460ad4c57900192b129c","infreq_resp","img/green_2bandit_a.png","68","68","test","","","","10","",""
"null","399013","pSARL_v2","pSARL_v28pbdcpfm","5d23460ad4c57900192b129c","fixation","img/fixation.png","null","","test","","","","","",""
"527.1999999284744","399547","pSARL_v2","pSARL_v28pbdcpfm","5d23460ad4c57900192b129c","infreq","img/green_2bandit_a2.png","68","68","test","1","202","202","10","",""
"null","399826","pSARL_v2","pSARL_v28pbdcpfm","5d23460ad4c57900192b129c","infreq_resp","img/green_2bandit_a.png","68","68","test","","","","10","",""
"null","399997","pSARL_v2","pSARL_v28pbdcpfm","5d23460ad4c57900192b129c","fixation","img/fixation.png","null","","test","","","","","",""
"335.5","400339","pSARL_v2","pSARL_v28pbdcpfm","5d23460ad4c57900192b129c","freq","img/orange_2bandit_a2.png","70","70","test","1","203","203","10","",""
"null","400825","pSARL_v2","pSARL_v28pbdcpfm","5d23460ad4c57900192b129c","freq_resp","img/orange_2bandit_a.png","70","70","test","","","","10","",""
"null","400984","pSARL_v2","pSARL_v28pbdcpfm","5d23460ad4c57900192b129c","fixation","img/fixation.png","null","","test","","","","","",""
"284.39999997615814","401275","pSARL_v2","pSARL_v28pbdcpfm","5d23460ad4c57900192b129c","freq","img/orange_2bandit_a2.png","70","70","test","1","204","204","10","",""
"null","401810","pSARL_v2","pSARL_v28pbdcpfm","5d23460ad4c57900192b129c","freq_resp","img/orange_2bandit_a.png","70","70","test","","","","10","",""
"null","401988","pSARL_v2","pSARL_v28pbdcpfm","5d23460ad4c57900192b129c","fixation","img/fixation.png","null","","test","","","","","",""
"304","402299","pSARL_v2","pSARL_v28pbdcpfm","5d23460ad4c57900192b129c","freq","img/orange_2bandit_a2.png","70","70","test","1","205","205","10","",""
"null","402810","pSARL_v2","pSARL_v28pbdcpfm","5d23460ad4c57900192b129c","freq_resp","img/orange_2bandit_a.png","70","70","test","","","","10","",""
"null","402981","pSARL_v2","pSARL_v28pbdcpfm","5d23460ad4c57900192b129c","fixation","img/fixation.png","null","","test","","","","","",""
