"rt","time_elapsed","expId","subject","prolificID","trialType","stimulus","key_press","corrresp","phase","corr","trialNum","attentionRunNum","blockNum","points","rlNum"
"11483.100000143051","11490","pSARL_v2","pSARL_v2flraxqo0","60b8242021561f7827855c02","","","","","","","","","","",""
"","14480","pSARL_v2","pSARL_v2flraxqo0","60b8242021561f7827855c02","fullscreen","","","","","","","","","",""
"113936.29999995232","128420","pSARL_v2","pSARL_v2flraxqo0","60b8242021561f7827855c02","","","","","","","","","","",""
"null","129224","pSARL_v2","pSARL_v2flraxqo0","60b8242021561f7827855c02","freqPrac","img/orange_2bandit_a2.png","null","70","prac","0","","","","",""
"null","130244","pSARL_v2","pSARL_v2flraxqo0","60b8242021561f7827855c02","feedback","img/tooSlow.png","null","na","prac","","","","","",""
"null","130401","pSARL_v2","pSARL_v2flraxqo0","60b8242021561f7827855c02","fixation","img/fixation.png","null","","prac","","","","","",""
"512.7999999523163","130918","pSARL_v2","pSARL_v2flraxqo0","60b8242021561f7827855c02","infreqPrac","img/green_2bandit_a2.png","68","68","prac","1","","","","",""
"512.7999999523163","131224","pSARL_v2","pSARL_v2flraxqo0","60b8242021561f7827855c02","infreqPrac_resp","img/green_2bandit_a.png","68","68","prac","","","","","",""
"null","131383","pSARL_v2","pSARL_v2flraxqo0","60b8242021561f7827855c02","fixation","img/fixation.png","null","","prac","","","","","",""
"459.10000014305115","131847","pSARL_v2","pSARL_v2flraxqo0","60b8242021561f7827855c02","freqPrac","img/orange_2bandit_a2.png","70","70","prac","1","","","","",""
"459.10000014305115","132198","pSARL_v2","pSARL_v2flraxqo0","60b8242021561f7827855c02","freqPrac_resp","img/orange_2bandit_a.png","70","70","prac","","","","","",""
"null","132355","pSARL_v2","pSARL_v2flraxqo0","60b8242021561f7827855c02","fixation","img/fixation.png","null","","prac","","","","","",""
"400","132759","pSARL_v2","pSARL_v2flraxqo0","60b8242021561f7827855c02","infreqPrac","img/green_2bandit_a2.png","68","68","prac","1","","","","",""
"400","133171","pSARL_v2","pSARL_v2flraxqo0","60b8242021561f7827855c02","infreqPrac_resp","img/green_2bandit_a.png","68","68","prac","","","","","",""
"null","133325","pSARL_v2","pSARL_v2flraxqo0","60b8242021561f7827855c02","fixation","img/fixation.png","null","","prac","","","","","",""
"485.10000014305115","133814","pSARL_v2","pSARL_v2flraxqo0","60b8242021561f7827855c02","infreqPrac","img/green_2bandit_a2.png","68","68","prac","1","","","","",""
"485.10000014305115","134140","pSARL_v2","pSARL_v2flraxqo0","60b8242021561f7827855c02","infreqPrac_resp","img/green_2bandit_a.png","68","68","prac","","","","","",""
"null","134297","pSARL_v2","pSARL_v2flraxqo0","60b8242021561f7827855c02","fixation","img/fixation.png","null","","prac","","","","","",""
"466","134768","pSARL_v2","pSARL_v2flraxqo0","60b8242021561f7827855c02","infreqPrac","img/green_2bandit_a2.png","68","68","prac","1","","","","",""
"466","135112","pSARL_v2","pSARL_v2flraxqo0","60b8242021561f7827855c02","infreqPrac_resp","img/green_2bandit_a.png","68","68","prac","","","","","",""
"null","135270","pSARL_v2","pSARL_v2flraxqo0","60b8242021561f7827855c02","fixation","img/fixation.png","null","","prac","","","","","",""
"445.2000000476837","135720","pSARL_v2","pSARL_v2flraxqo0","60b8242021561f7827855c02","freqPrac","img/orange_2bandit_a2.png","70","70","prac","1","","","","",""
"445.2000000476837","136087","pSARL_v2","pSARL_v2flraxqo0","60b8242021561f7827855c02","freqPrac_resp","img/orange_2bandit_a.png","70","70","prac","","","","","",""
"null","136244","pSARL_v2","pSARL_v2flraxqo0","60b8242021561f7827855c02","fixation","img/fixation.png","null","","prac","","","","","",""
"470.80000019073486","136720","pSARL_v2","pSARL_v2flraxqo0","60b8242021561f7827855c02","infreqPrac","img/green_2bandit_a2.png","68","68","prac","1","","","","",""
"470.80000019073486","137054","pSARL_v2","pSARL_v2flraxqo0","60b8242021561f7827855c02","infreqPrac_resp","img/green_2bandit_a.png","68","68","prac","","","","","",""
"null","137210","pSARL_v2","pSARL_v2flraxqo0","60b8242021561f7827855c02","fixation","img/fixation.png","null","","prac","","","","","",""
"410.09999990463257","137624","pSARL_v2","pSARL_v2flraxqo0","60b8242021561f7827855c02","freqPrac","img/orange_2bandit_a2.png","70","70","prac","1","","","","",""
"410.09999990463257","138025","pSARL_v2","pSARL_v2flraxqo0","60b8242021561f7827855c02","freqPrac_resp","img/orange_2bandit_a.png","70","70","prac","","","","","",""
"null","138183","pSARL_v2","pSARL_v2flraxqo0","60b8242021561f7827855c02","fixation","img/fixation.png","null","","prac","","","","","",""
"380.2000000476837","138567","pSARL_v2","pSARL_v2flraxqo0","60b8242021561f7827855c02","freqPrac","img/orange_2bandit_a2.png","70","70","prac","1","","","","",""
"380.2000000476837","139003","pSARL_v2","pSARL_v2flraxqo0","60b8242021561f7827855c02","freqPrac_resp","img/orange_2bandit_a.png","70","70","prac","","","","","",""
"null","139157","pSARL_v2","pSARL_v2flraxqo0","60b8242021561f7827855c02","fixation","img/fixation.png","null","","prac","","","","","",""
"26211.599999904633","165372","pSARL_v2","pSARL_v2flraxqo0","60b8242021561f7827855c02","","","","","prac","","","","","",""
"553.8999998569489","165931","pSARL_v2","pSARL_v2flraxqo0","60b8242021561f7827855c02","rewardPractice","img/slot.png","74","","prac","","","","","",""
"null","166695","pSARL_v2","pSARL_v2flraxqo0","60b8242021561f7827855c02","feedback","<div class=""veryhighPoints""> +15 </div>","null","na","prac","","","","","",""
"null","166851","pSARL_v2","pSARL_v2flraxqo0","60b8242021561f7827855c02","fixation","img/fixation.png","null","","prac","","","","","",""
"14791.599999904633","181647","pSARL_v2","pSARL_v2flraxqo0","60b8242021561f7827855c02","","","","","prac","","","","","",""
"481.59999990463257","182132","pSARL_v2","pSARL_v2flraxqo0","60b8242021561f7827855c02","freq","img/orange_2bandit_a2.png","70","70","test","1","1","1","1","",""
"null","182467","pSARL_v2","pSARL_v2flraxqo0","60b8242021561f7827855c02","freq_resp","img/orange_2bandit_a.png","70","70","test","","","","1","",""
"null","182626","pSARL_v2","pSARL_v2flraxqo0","60b8242021561f7827855c02","fixation","img/fixation.png","null","","test","","","","","",""
"422.39999985694885","183052","pSARL_v2","pSARL_v2flraxqo0","60b8242021561f7827855c02","freq","img/orange_2bandit_a2.png","70","70","test","1","2","2","1","",""
"null","183445","pSARL_v2","pSARL_v2flraxqo0","60b8242021561f7827855c02","freq_resp","img/orange_2bandit_a.png","70","70","test","","","","1","",""
"null","183602","pSARL_v2","pSARL_v2flraxqo0","60b8242021561f7827855c02","fixation","img/fixation.png","null","","test","","","","","",""
"382.40000009536743","183988","pSARL_v2","pSARL_v2flraxqo0","60b8242021561f7827855c02","freq","img/orange_2bandit_a2.png","70","70","test","1","3","3","1","",""
"null","184415","pSARL_v2","pSARL_v2flraxqo0","60b8242021561f7827855c02","freq_resp","img/orange_2bandit_a.png","70","70","test","","","","1","",""
"null","184569","pSARL_v2","pSARL_v2flraxqo0","60b8242021561f7827855c02","fixation","img/fixation.png","null","","test","","","","","",""
"367.5","184942","pSARL_v2","pSARL_v2flraxqo0","60b8242021561f7827855c02","freq","img/orange_2bandit_a2.png","70","70","test","1","4","4","1","",""
"null","185383","pSARL_v2","pSARL_v2flraxqo0","60b8242021561f7827855c02","freq_resp","img/orange_2bandit_a.png","70","70","test","","","","1","",""
"null","185553","pSARL_v2","pSARL_v2flraxqo0","60b8242021561f7827855c02","fixation","img/fixation.png","null","","test","","","","","",""
"319.5","185877","pSARL_v2","pSARL_v2flraxqo0","60b8242021561f7827855c02","freq","img/orange_2bandit_a2.png","70","70","test","1","5","5","1","",""
"null","186374","pSARL_v2","pSARL_v2flraxqo0","60b8242021561f7827855c02","freq_resp","img/orange_2bandit_a.png","70","70","test","","","","1","",""
"null","186531","pSARL_v2","pSARL_v2flraxqo0","60b8242021561f7827855c02","fixation","img/fixation.png","null","","test","","","","","",""
"358.30000019073486","186894","pSARL_v2","pSARL_v2flraxqo0","60b8242021561f7827855c02","freq","img/orange_2bandit_a2.png","70","70","test","1","6","6","1","",""
"null","187348","pSARL_v2","pSARL_v2flraxqo0","60b8242021561f7827855c02","freq_resp","img/orange_2bandit_a.png","70","70","test","","","","1","",""
"null","187505","pSARL_v2","pSARL_v2flraxqo0","60b8242021561f7827855c02","fixation","img/fixation.png","null","","test","","","","","",""
"359.69999980926514","187870","pSARL_v2","pSARL_v2flraxqo0","60b8242021561f7827855c02","infreq","img/green_2bandit_a2.png","70","68","test","0","7","7","1","",""
"null","188324","pSARL_v2","pSARL_v2flraxqo0","60b8242021561f7827855c02","infreq_resp","img/green_2bandit_a.png","70","68","test","","","","1","",""
"null","188493","pSARL_v2","pSARL_v2flraxqo0","60b8242021561f7827855c02","fixation","img/fixation.png","null","","test","","","","","",""
"491.69999980926514","188990","pSARL_v2","pSARL_v2flraxqo0","60b8242021561f7827855c02","freq","img/orange_2bandit_a2.png","70","70","test","1","8","8","1","",""
"null","189312","pSARL_v2","pSARL_v2flraxqo0","60b8242021561f7827855c02","freq_resp","img/orange_2bandit_a.png","70","70","test","","","","1","",""
"null","189471","pSARL_v2","pSARL_v2flraxqo0","60b8242021561f7827855c02","fixation","img/fixation.png","null","","test","","","","","",""
"393.7999999523163","189869","pSARL_v2","pSARL_v2flraxqo0","60b8242021561f7827855c02","freq","img/orange_2bandit_a2.png","70","70","test","1","9","9","1","",""
"null","190288","pSARL_v2","pSARL_v2flraxqo0","60b8242021561f7827855c02","freq_resp","img/orange_2bandit_a.png","70","70","test","","","","1","",""
"null","190446","pSARL_v2","pSARL_v2flraxqo0","60b8242021561f7827855c02","fixation","img/fixation.png","null","","test","","","","","",""
"387.80000019073486","190838","pSARL_v2","pSARL_v2flraxqo0","60b8242021561f7827855c02","freq","img/orange_2bandit_a2.png","70","70","test","1","10","10","1","",""
"null","191270","pSARL_v2","pSARL_v2flraxqo0","60b8242021561f7827855c02","freq_resp","img/orange_2bandit_a.png","70","70","test","","","","1","",""
"null","191429","pSARL_v2","pSARL_v2flraxqo0","60b8242021561f7827855c02","fixation","img/fixation.png","null","","test","","","","","",""
"365.89999985694885","191800","pSARL_v2","pSARL_v2flraxqo0","60b8242021561f7827855c02","freq","img/orange_2bandit_a2.png","70","70","test","1","11","11","1","",""
"null","192242","pSARL_v2","pSARL_v2flraxqo0","60b8242021561f7827855c02","freq_resp","img/orange_2bandit_a.png","70","70","test","","","","1","",""
"null","192399","pSARL_v2","pSARL_v2flraxqo0","60b8242021561f7827855c02","fixation","img/fixation.png","null","","test","","","","","",""
"370.5","192775","pSARL_v2","pSARL_v2flraxqo0","60b8242021561f7827855c02","freq","img/orange_2bandit_a2.png","70","70","test","1","12","12","1","",""
"null","193223","pSARL_v2","pSARL_v2flraxqo0","60b8242021561f7827855c02","freq_resp","img/orange_2bandit_a.png","70","70","test","","","","1","",""
"null","193381","pSARL_v2","pSARL_v2flraxqo0","60b8242021561f7827855c02","fixation","img/fixation.png","null","","test","","","","","",""
"349","193735","pSARL_v2","pSARL_v2flraxqo0","60b8242021561f7827855c02","freq","img/orange_2bandit_a2.png","70","70","test","1","13","13","1","",""
"null","194195","pSARL_v2","pSARL_v2flraxqo0","60b8242021561f7827855c02","freq_resp","img/orange_2bandit_a.png","70","70","test","","","","1","",""
"null","194356","pSARL_v2","pSARL_v2flraxqo0","60b8242021561f7827855c02","fixation","img/fixation.png","null","","test","","","","","",""
"470","194829","pSARL_v2","pSARL_v2flraxqo0","60b8242021561f7827855c02","infreq","img/green_2bandit_a2.png","68","68","test","1","14","14","1","",""
"null","195176","pSARL_v2","pSARL_v2flraxqo0","60b8242021561f7827855c02","infreq_resp","img/green_2bandit_a.png","68","68","test","","","","1","",""
"null","195333","pSARL_v2","pSARL_v2flraxqo0","60b8242021561f7827855c02","fixation","img/fixation.png","null","","test","","","","","",""
"389.40000009536743","195727","pSARL_v2","pSARL_v2flraxqo0","60b8242021561f7827855c02","freq","img/orange_2bandit_a2.png","70","70","test","1","15","15","1","",""
"null","196152","pSARL_v2","pSARL_v2flraxqo0","60b8242021561f7827855c02","freq_resp","img/orange_2bandit_a.png","70","70","test","","","","1","",""
"null","196309","pSARL_v2","pSARL_v2flraxqo0","60b8242021561f7827855c02","fixation","img/fixation.png","null","","test","","","","","",""
"420.90000009536743","196734","pSARL_v2","pSARL_v2flraxqo0","60b8242021561f7827855c02","freq","img/orange_2bandit_a2.png","70","70","test","1","16","16","1","",""
"null","197130","pSARL_v2","pSARL_v2flraxqo0","60b8242021561f7827855c02","freq_resp","img/orange_2bandit_a.png","70","70","test","","","","1","",""
"null","197285","pSARL_v2","pSARL_v2flraxqo0","60b8242021561f7827855c02","fixation","img/fixation.png","null","","test","","","","","",""
"333.80000019073486","197623","pSARL_v2","pSARL_v2flraxqo0","60b8242021561f7827855c02","freq","img/orange_2bandit_a2.png","70","70","test","1","17","17","1","",""
"null","198096","pSARL_v2","pSARL_v2flraxqo0","60b8242021561f7827855c02","freq_resp","img/orange_2bandit_a.png","70","70","test","","","","1","",""
"null","198252","pSARL_v2","pSARL_v2flraxqo0","60b8242021561f7827855c02","fixation","img/fixation.png","null","","test","","","","","",""
"366.09999990463257","198622","pSARL_v2","pSARL_v2flraxqo0","60b8242021561f7827855c02","infreq","img/green_2bandit_a2.png","68","68","test","1","18","18","1","",""
"null","199068","pSARL_v2","pSARL_v2flraxqo0","60b8242021561f7827855c02","infreq_resp","img/green_2bandit_a.png","68","68","test","","","","1","",""
"null","199226","pSARL_v2","pSARL_v2flraxqo0","60b8242021561f7827855c02","fixation","img/fixation.png","null","","test","","","","","",""
"312.90000009536743","199543","pSARL_v2","pSARL_v2flraxqo0","60b8242021561f7827855c02","freq","img/orange_2bandit_a2.png","70","70","test","1","19","19","1","",""
"null","200043","pSARL_v2","pSARL_v2flraxqo0","60b8242021561f7827855c02","freq_resp","img/orange_2bandit_a.png","70","70","test","","","","1","",""
"null","200200","pSARL_v2","pSARL_v2flraxqo0","60b8242021561f7827855c02","fixation","img/fixation.png","null","","test","","","","","",""
"274.89999985694885","200480","pSARL_v2","pSARL_v2flraxqo0","60b8242021561f7827855c02","freq","img/orange_2bandit_a2.png","70","70","test","1","20","20","1","",""
"null","201025","pSARL_v2","pSARL_v2flraxqo0","60b8242021561f7827855c02","freq_resp","img/orange_2bandit_a.png","70","70","test","","","","1","",""
"null","201181","pSARL_v2","pSARL_v2flraxqo0","60b8242021561f7827855c02","fixation","img/fixation.png","null","","test","","","","","",""
"333.5","201518","pSARL_v2","pSARL_v2flraxqo0","60b8242021561f7827855c02","freq","img/orange_2bandit_a2.png","70","70","test","1","21","21","1","",""
"null","201992","pSARL_v2","pSARL_v2flraxqo0","60b8242021561f7827855c02","freq_resp","img/orange_2bandit_a.png","70","70","test","","","","1","",""
"null","202150","pSARL_v2","pSARL_v2flraxqo0","60b8242021561f7827855c02","fixation","img/fixation.png","null","","test","","","","","",""
"350.40000009536743","202505","pSARL_v2","pSARL_v2flraxqo0","60b8242021561f7827855c02","freq","img/orange_2bandit_a2.png","70","70","test","1","22","22","1","",""
"null","202971","pSARL_v2","pSARL_v2flraxqo0","60b8242021561f7827855c02","freq_resp","img/orange_2bandit_a.png","70","70","test","","","","1","",""
"null","203127","pSARL_v2","pSARL_v2flraxqo0","60b8242021561f7827855c02","fixation","img/fixation.png","null","","test","","","","","",""
"315.60000014305115","203448","pSARL_v2","pSARL_v2flraxqo0","60b8242021561f7827855c02","freq","img/orange_2bandit_a2.png","70","70","test","1","23","23","1","",""
"null","203945","pSARL_v2","pSARL_v2flraxqo0","60b8242021561f7827855c02","freq_resp","img/orange_2bandit_a.png","70","70","test","","","","1","",""
"null","204102","pSARL_v2","pSARL_v2flraxqo0","60b8242021561f7827855c02","fixation","img/fixation.png","null","","test","","","","","",""
"357.2000000476837","204464","pSARL_v2","pSARL_v2flraxqo0","60b8242021561f7827855c02","freq","img/orange_2bandit_a2.png","70","70","test","1","24","24","1","",""
"null","204916","pSARL_v2","pSARL_v2flraxqo0","60b8242021561f7827855c02","freq_resp","img/orange_2bandit_a.png","70","70","test","","","","1","",""
"null","205075","pSARL_v2","pSARL_v2flraxqo0","60b8242021561f7827855c02","fixation","img/fixation.png","null","","test","","","","","",""
"496.60000014305115","205576","pSARL_v2","pSARL_v2flraxqo0","60b8242021561f7827855c02","reward","img/slot.png","74","","test","","","","","",""
"null","206345","pSARL_v2","pSARL_v2flraxqo0","60b8242021561f7827855c02","points","<div class=""verylowPoints""> -6 </div>","null","na","test","","","","1","-6","0"
"602.2000000476837","206952","pSARL_v2","pSARL_v2flraxqo0","60b8242021561f7827855c02","freq","img/orange_2bandit_a2.png","70","70","test","1","25","25","2","",""
"null","207167","pSARL_v2","pSARL_v2flraxqo0","60b8242021561f7827855c02","freq_resp","img/orange_2bandit_a.png","70","70","test","","","","2","",""
"null","207321","pSARL_v2","pSARL_v2flraxqo0","60b8242021561f7827855c02","fixation","img/fixation.png","null","","test","","","","","",""
"466.40000009536743","207792","pSARL_v2","pSARL_v2flraxqo0","60b8242021561f7827855c02","freq","img/orange_2bandit_a2.png","70","70","test","1","26","26","2","",""
"null","208137","pSARL_v2","pSARL_v2flraxqo0","60b8242021561f7827855c02","freq_resp","img/orange_2bandit_a.png","70","70","test","","","","2","",""
"null","208294","pSARL_v2","pSARL_v2flraxqo0","60b8242021561f7827855c02","fixation","img/fixation.png","null","","test","","","","","",""
"373.09999990463257","208673","pSARL_v2","pSARL_v2flraxqo0","60b8242021561f7827855c02","freq","img/orange_2bandit_a2.png","70","70","test","1","27","27","2","",""
"null","209111","pSARL_v2","pSARL_v2flraxqo0","60b8242021561f7827855c02","freq_resp","img/orange_2bandit_a.png","70","70","test","","","","2","",""
"null","209271","pSARL_v2","pSARL_v2flraxqo0","60b8242021561f7827855c02","fixation","img/fixation.png","null","","test","","","","","",""
"365.10000014305115","209641","pSARL_v2","pSARL_v2flraxqo0","60b8242021561f7827855c02","freq","img/orange_2bandit_a2.png","70","70","test","1","28","28","2","",""
"null","210089","pSARL_v2","pSARL_v2flraxqo0","60b8242021561f7827855c02","freq_resp","img/orange_2bandit_a.png","70","70","test","","","","2","",""
"null","210247","pSARL_v2","pSARL_v2flraxqo0","60b8242021561f7827855c02","fixation","img/fixation.png","null","","test","","","","","",""
"444.7999999523163","210696","pSARL_v2","pSARL_v2flraxqo0","60b8242021561f7827855c02","infreq","img/green_2bandit_a2.png","68","68","test","1","29","29","2","",""
"null","211068","pSARL_v2","pSARL_v2flraxqo0","60b8242021561f7827855c02","infreq_resp","img/green_2bandit_a.png","68","68","test","","","","2","",""
"null","211226","pSARL_v2","pSARL_v2flraxqo0","60b8242021561f7827855c02","fixation","img/fixation.png","null","","test","","","","","",""
"418.19999980926514","211647","pSARL_v2","pSARL_v2flraxqo0","60b8242021561f7827855c02","freq","img/orange_2bandit_a2.png","70","70","test","1","30","30","2","",""
"null","212036","pSARL_v2","pSARL_v2flraxqo0","60b8242021561f7827855c02","freq_resp","img/orange_2bandit_a.png","70","70","test","","","","2","",""
"null","212194","pSARL_v2","pSARL_v2flraxqo0","60b8242021561f7827855c02","fixation","img/fixation.png","null","","test","","","","","",""
"394.7000000476837","212592","pSARL_v2","pSARL_v2flraxqo0","60b8242021561f7827855c02","infreq","img/green_2bandit_a2.png","68","68","test","1","31","31","2","",""
"null","213005","pSARL_v2","pSARL_v2flraxqo0","60b8242021561f7827855c02","infreq_resp","img/green_2bandit_a.png","68","68","test","","","","2","",""
"null","213160","pSARL_v2","pSARL_v2flraxqo0","60b8242021561f7827855c02","fixation","img/fixation.png","null","","test","","","","","",""
"300.19999980926514","213465","pSARL_v2","pSARL_v2flraxqo0","60b8242021561f7827855c02","freq","img/orange_2bandit_a2.png","70","70","test","1","32","32","2","",""
"null","213983","pSARL_v2","pSARL_v2flraxqo0","60b8242021561f7827855c02","freq_resp","img/orange_2bandit_a.png","70","70","test","","","","2","",""
"null","214141","pSARL_v2","pSARL_v2flraxqo0","60b8242021561f7827855c02","fixation","img/fixation.png","null","","test","","","","","",""
"343.39999985694885","214488","pSARL_v2","pSARL_v2flraxqo0","60b8242021561f7827855c02","freq","img/orange_2bandit_a2.png","70","70","test","1","33","33","2","",""
"null","214961","pSARL_v2","pSARL_v2flraxqo0","60b8242021561f7827855c02","freq_resp","img/orange_2bandit_a.png","70","70","test","","","","2","",""
"null","215121","pSARL_v2","pSARL_v2flraxqo0","60b8242021561f7827855c02","fixation","img/fixation.png","null","","test","","","","","",""
"339.7000000476837","215465","pSARL_v2","pSARL_v2flraxqo0","60b8242021561f7827855c02","freq","img/orange_2bandit_a2.png","70","70","test","1","34","34","2","",""
"null","215937","pSARL_v2","pSARL_v2flraxqo0","60b8242021561f7827855c02","freq_resp","img/orange_2bandit_a.png","70","70","test","","","","2","",""
"null","216093","pSARL_v2","pSARL_v2flraxqo0","60b8242021561f7827855c02","fixation","img/fixation.png","null","","test","","","","","",""
"287","216385","pSARL_v2","pSARL_v2flraxqo0","60b8242021561f7827855c02","freq","img/orange_2bandit_a2.png","70","70","test","1","35","35","2","",""
"null","216907","pSARL_v2","pSARL_v2flraxqo0","60b8242021561f7827855c02","freq_resp","img/orange_2bandit_a.png","70","70","test","","","","2","",""
"null","217065","pSARL_v2","pSARL_v2flraxqo0","60b8242021561f7827855c02","fixation","img/fixation.png","null","","test","","","","","",""
"404","217474","pSARL_v2","pSARL_v2flraxqo0","60b8242021561f7827855c02","freq","img/orange_2bandit_a2.png","70","70","test","1","36","36","2","",""
"null","217887","pSARL_v2","pSARL_v2flraxqo0","60b8242021561f7827855c02","freq_resp","img/orange_2bandit_a.png","70","70","test","","","","2","",""
"null","218043","pSARL_v2","pSARL_v2flraxqo0","60b8242021561f7827855c02","fixation","img/fixation.png","null","","test","","","","","",""
"282.40000009536743","218330","pSARL_v2","pSARL_v2flraxqo0","60b8242021561f7827855c02","freq","img/orange_2bandit_a2.png","70","70","test","1","37","37","2","",""
"null","218868","pSARL_v2","pSARL_v2flraxqo0","60b8242021561f7827855c02","freq_resp","img/orange_2bandit_a.png","70","70","test","","","","2","",""
"null","219025","pSARL_v2","pSARL_v2flraxqo0","60b8242021561f7827855c02","fixation","img/fixation.png","null","","test","","","","","",""
"308.2999999523163","219338","pSARL_v2","pSARL_v2flraxqo0","60b8242021561f7827855c02","freq","img/orange_2bandit_a2.png","70","70","test","1","38","38","2","",""
"null","219841","pSARL_v2","pSARL_v2flraxqo0","60b8242021561f7827855c02","freq_resp","img/orange_2bandit_a.png","70","70","test","","","","2","",""
"null","219999","pSARL_v2","pSARL_v2flraxqo0","60b8242021561f7827855c02","fixation","img/fixation.png","null","","test","","","","","",""
"278.10000014305115","220281","pSARL_v2","pSARL_v2flraxqo0","60b8242021561f7827855c02","freq","img/orange_2bandit_a2.png","70","70","test","1","39","39","2","",""
"null","220821","pSARL_v2","pSARL_v2flraxqo0","60b8242021561f7827855c02","freq_resp","img/orange_2bandit_a.png","70","70","test","","","","2","",""
"null","220980","pSARL_v2","pSARL_v2flraxqo0","60b8242021561f7827855c02","fixation","img/fixation.png","null","","test","","","","","",""
"361.39999985694885","221346","pSARL_v2","pSARL_v2flraxqo0","60b8242021561f7827855c02","freq","img/orange_2bandit_a2.png","70","70","test","1","40","40","2","",""
"null","221793","pSARL_v2","pSARL_v2flraxqo0","60b8242021561f7827855c02","freq_resp","img/orange_2bandit_a.png","70","70","test","","","","2","",""
"null","221949","pSARL_v2","pSARL_v2flraxqo0","60b8242021561f7827855c02","fixation","img/fixation.png","null","","test","","","","","",""
"376.40000009536743","222330","pSARL_v2","pSARL_v2flraxqo0","60b8242021561f7827855c02","freq","img/orange_2bandit_a2.png","70","70","test","1","41","41","2","",""
"null","222771","pSARL_v2","pSARL_v2flraxqo0","60b8242021561f7827855c02","freq_resp","img/orange_2bandit_a.png","70","70","test","","","","2","",""
"null","222930","pSARL_v2","pSARL_v2flraxqo0","60b8242021561f7827855c02","fixation","img/fixation.png","null","","test","","","","","",""
"371.5","223305","pSARL_v2","pSARL_v2flraxqo0","60b8242021561f7827855c02","freq","img/orange_2bandit_a2.png","70","70","test","1","42","42","2","",""
"null","223738","pSARL_v2","pSARL_v2flraxqo0","60b8242021561f7827855c02","freq_resp","img/orange_2bandit_a.png","70","70","test","","","","2","",""
"null","223895","pSARL_v2","pSARL_v2flraxqo0","60b8242021561f7827855c02","fixation","img/fixation.png","null","","test","","","","","",""
"382.19999980926514","224281","pSARL_v2","pSARL_v2flraxqo0","60b8242021561f7827855c02","freq","img/orange_2bandit_a2.png","70","70","test","1","43","43","2","",""
"null","224708","pSARL_v2","pSARL_v2flraxqo0","60b8242021561f7827855c02","freq_resp","img/orange_2bandit_a.png","70","70","test","","","","2","",""
"null","224868","pSARL_v2","pSARL_v2flraxqo0","60b8242021561f7827855c02","fixation","img/fixation.png","null","","test","","","","","",""
"410","225283","pSARL_v2","pSARL_v2flraxqo0","60b8242021561f7827855c02","freq","img/orange_2bandit_a2.png","70","70","test","1","44","44","2","",""
"null","225682","pSARL_v2","pSARL_v2flraxqo0","60b8242021561f7827855c02","freq_resp","img/orange_2bandit_a.png","70","70","test","","","","2","",""
"null","225839","pSARL_v2","pSARL_v2flraxqo0","60b8242021561f7827855c02","fixation","img/fixation.png","null","","test","","","","","",""
"438.40000009536743","226281","pSARL_v2","pSARL_v2flraxqo0","60b8242021561f7827855c02","freq","img/orange_2bandit_a2.png","70","70","test","1","45","45","2","",""
"null","226657","pSARL_v2","pSARL_v2flraxqo0","60b8242021561f7827855c02","freq_resp","img/orange_2bandit_a.png","70","70","test","","","","2","",""
"null","226814","pSARL_v2","pSARL_v2flraxqo0","60b8242021561f7827855c02","fixation","img/fixation.png","null","","test","","","","","",""
"448.69999980926514","227267","pSARL_v2","pSARL_v2flraxqo0","60b8242021561f7827855c02","freq","img/orange_2bandit_a2.png","70","70","test","1","46","46","2","",""
"null","227633","pSARL_v2","pSARL_v2flraxqo0","60b8242021561f7827855c02","freq_resp","img/orange_2bandit_a.png","70","70","test","","","","2","",""
"null","227789","pSARL_v2","pSARL_v2flraxqo0","60b8242021561f7827855c02","fixation","img/fixation.png","null","","test","","","","","",""
"337.5","228131","pSARL_v2","pSARL_v2flraxqo0","60b8242021561f7827855c02","freq","img/orange_2bandit_a2.png","70","70","test","1","47","47","2","",""
"null","228605","pSARL_v2","pSARL_v2flraxqo0","60b8242021561f7827855c02","freq_resp","img/orange_2bandit_a.png","70","70","test","","","","2","",""
"null","228760","pSARL_v2","pSARL_v2flraxqo0","60b8242021561f7827855c02","fixation","img/fixation.png","null","","test","","","","","",""
"413.69999980926514","229179","pSARL_v2","pSARL_v2flraxqo0","60b8242021561f7827855c02","freq","img/orange_2bandit_a2.png","70","70","test","1","48","48","2","",""
"null","229570","pSARL_v2","pSARL_v2flraxqo0","60b8242021561f7827855c02","freq_resp","img/orange_2bandit_a.png","70","70","test","","","","2","",""
"null","229725","pSARL_v2","pSARL_v2flraxqo0","60b8242021561f7827855c02","fixation","img/fixation.png","null","","test","","","","","",""
"857.8999998569489","230587","pSARL_v2","pSARL_v2flraxqo0","60b8242021561f7827855c02","reward","img/slot.png","74","","test","","","","","",""
"null","231352","pSARL_v2","pSARL_v2flraxqo0","60b8242021561f7827855c02","points","<div class=""verylowPoints""> -11 </div>","null","na","test","","","","2","-11","1"
"422.09999990463257","231779","pSARL_v2","pSARL_v2flraxqo0","60b8242021561f7827855c02","freq","img/orange_2bandit_a2.png","70","70","test","1","49","49","3","",""
"null","232169","pSARL_v2","pSARL_v2flraxqo0","60b8242021561f7827855c02","freq_resp","img/orange_2bandit_a.png","70","70","test","","","","3","",""
"null","232329","pSARL_v2","pSARL_v2flraxqo0","60b8242021561f7827855c02","fixation","img/fixation.png","null","","test","","","","","",""
"469.7000000476837","232803","pSARL_v2","pSARL_v2flraxqo0","60b8242021561f7827855c02","infreq","img/green_2bandit_a2.png","68","68","test","1","50","50","3","",""
"null","233142","pSARL_v2","pSARL_v2flraxqo0","60b8242021561f7827855c02","infreq_resp","img/green_2bandit_a.png","68","68","test","","","","3","",""
"null","233312","pSARL_v2","pSARL_v2flraxqo0","60b8242021561f7827855c02","fixation","img/fixation.png","null","","test","","","","","",""
"423.2999999523163","233741","pSARL_v2","pSARL_v2flraxqo0","60b8242021561f7827855c02","freq","img/orange_2bandit_a2.png","70","70","test","1","51","51","3","",""
"null","234131","pSARL_v2","pSARL_v2flraxqo0","60b8242021561f7827855c02","freq_resp","img/orange_2bandit_a.png","70","70","test","","","","3","",""
"null","234291","pSARL_v2","pSARL_v2flraxqo0","60b8242021561f7827855c02","fixation","img/fixation.png","null","","test","","","","","",""
"299.7999999523163","234596","pSARL_v2","pSARL_v2flraxqo0","60b8242021561f7827855c02","freq","img/orange_2bandit_a2.png","70","70","test","1","52","52","3","",""
"null","235105","pSARL_v2","pSARL_v2flraxqo0","60b8242021561f7827855c02","freq_resp","img/orange_2bandit_a.png","70","70","test","","","","3","",""
"null","235263","pSARL_v2","pSARL_v2flraxqo0","60b8242021561f7827855c02","fixation","img/fixation.png","null","","test","","","","","",""
"288.2000000476837","235556","pSARL_v2","pSARL_v2flraxqo0","60b8242021561f7827855c02","freq","img/orange_2bandit_a2.png","70","70","test","1","53","53","3","",""
"null","236078","pSARL_v2","pSARL_v2flraxqo0","60b8242021561f7827855c02","freq_resp","img/orange_2bandit_a.png","70","70","test","","","","3","",""
"null","236237","pSARL_v2","pSARL_v2flraxqo0","60b8242021561f7827855c02","fixation","img/fixation.png","null","","test","","","","","",""
"298.39999985694885","236540","pSARL_v2","pSARL_v2flraxqo0","60b8242021561f7827855c02","infreq","img/green_2bandit_a2.png","70","68","test","0","54","54","3","",""
"null","237059","pSARL_v2","pSARL_v2flraxqo0","60b8242021561f7827855c02","infreq_resp","img/green_2bandit_a.png","70","68","test","","","","3","",""
"null","237217","pSARL_v2","pSARL_v2flraxqo0","60b8242021561f7827855c02","fixation","img/fixation.png","null","","test","","","","","",""
"373.60000014305115","237595","pSARL_v2","pSARL_v2flraxqo0","60b8242021561f7827855c02","freq","img/orange_2bandit_a2.png","70","70","test","1","55","55","3","",""
"null","238033","pSARL_v2","pSARL_v2flraxqo0","60b8242021561f7827855c02","freq_resp","img/orange_2bandit_a.png","70","70","test","","","","3","",""
"null","238190","pSARL_v2","pSARL_v2flraxqo0","60b8242021561f7827855c02","fixation","img/fixation.png","null","","test","","","","","",""
"321","238516","pSARL_v2","pSARL_v2flraxqo0","60b8242021561f7827855c02","freq","img/orange_2bandit_a2.png","70","70","test","1","56","56","3","",""
"null","239009","pSARL_v2","pSARL_v2flraxqo0","60b8242021561f7827855c02","freq_resp","img/orange_2bandit_a.png","70","70","test","","","","3","",""
"null","239169","pSARL_v2","pSARL_v2flraxqo0","60b8242021561f7827855c02","fixation","img/fixation.png","null","","test","","","","","",""
"382.2999999523163","239556","pSARL_v2","pSARL_v2flraxqo0","60b8242021561f7827855c02","freq","img/orange_2bandit_a2.png","70","70","test","1","57","57","3","",""
"null","239991","pSARL_v2","pSARL_v2flraxqo0","60b8242021561f7827855c02","freq_resp","img/orange_2bandit_a.png","70","70","test","","","","3","",""
"null","240151","pSARL_v2","pSARL_v2flraxqo0","60b8242021561f7827855c02","fixation","img/fixation.png","null","","test","","","","","",""
"328.60000014305115","240485","pSARL_v2","pSARL_v2flraxqo0","60b8242021561f7827855c02","freq","img/orange_2bandit_a2.png","70","70","test","1","58","58","3","",""
"null","240971","pSARL_v2","pSARL_v2flraxqo0","60b8242021561f7827855c02","freq_resp","img/orange_2bandit_a.png","70","70","test","","","","3","",""
"null","241129","pSARL_v2","pSARL_v2flraxqo0","60b8242021561f7827855c02","fixation","img/fixation.png","null","","test","","","","","",""
"319.09999990463257","241451","pSARL_v2","pSARL_v2flraxqo0","60b8242021561f7827855c02","freq","img/orange_2bandit_a2.png","70","70","test","1","59","59","3","",""
"null","241943","pSARL_v2","pSARL_v2flraxqo0","60b8242021561f7827855c02","freq_resp","img/orange_2bandit_a.png","70","70","test","","","","3","",""
"null","242098","pSARL_v2","pSARL_v2flraxqo0","60b8242021561f7827855c02","fixation","img/fixation.png","null","","test","","","","","",""
"317.09999990463257","242419","pSARL_v2","pSARL_v2flraxqo0","60b8242021561f7827855c02","freq","img/orange_2bandit_a2.png","70","70","test","1","60","60","3","",""
"null","242915","pSARL_v2","pSARL_v2flraxqo0","60b8242021561f7827855c02","freq_resp","img/orange_2bandit_a.png","70","70","test","","","","3","",""
"null","243074","pSARL_v2","pSARL_v2flraxqo0","60b8242021561f7827855c02","fixation","img/fixation.png","null","","test","","","","","",""
"397.09999990463257","243475","pSARL_v2","pSARL_v2flraxqo0","60b8242021561f7827855c02","freq","img/orange_2bandit_a2.png","70","70","test","1","61","61","3","",""
"null","243885","pSARL_v2","pSARL_v2flraxqo0","60b8242021561f7827855c02","freq_resp","img/orange_2bandit_a.png","70","70","test","","","","3","",""
"null","244050","pSARL_v2","pSARL_v2flraxqo0","60b8242021561f7827855c02","fixation","img/fixation.png","null","","test","","","","","",""
"350.7000000476837","244406","pSARL_v2","pSARL_v2flraxqo0","60b8242021561f7827855c02","freq","img/orange_2bandit_a2.png","70","70","test","1","62","62","3","",""
"null","244863","pSARL_v2","pSARL_v2flraxqo0","60b8242021561f7827855c02","freq_resp","img/orange_2bandit_a.png","70","70","test","","","","3","",""
"null","245022","pSARL_v2","pSARL_v2flraxqo0","60b8242021561f7827855c02","fixation","img/fixation.png","null","","test","","","","","",""
"321.2999999523163","245349","pSARL_v2","pSARL_v2flraxqo0","60b8242021561f7827855c02","freq","img/orange_2bandit_a2.png","70","70","test","1","63","63","3","",""
"null","245839","pSARL_v2","pSARL_v2flraxqo0","60b8242021561f7827855c02","freq_resp","img/orange_2bandit_a.png","70","70","test","","","","3","",""
"null","245995","pSARL_v2","pSARL_v2flraxqo0","60b8242021561f7827855c02","fixation","img/fixation.png","null","","test","","","","","",""
"348.09999990463257","246349","pSARL_v2","pSARL_v2flraxqo0","60b8242021561f7827855c02","freq","img/orange_2bandit_a2.png","70","70","test","1","64","64","3","",""
"null","246810","pSARL_v2","pSARL_v2flraxqo0","60b8242021561f7827855c02","freq_resp","img/orange_2bandit_a.png","70","70","test","","","","3","",""
"null","246968","pSARL_v2","pSARL_v2flraxqo0","60b8242021561f7827855c02","fixation","img/fixation.png","null","","test","","","","","",""
"304.2999999523163","247275","pSARL_v2","pSARL_v2flraxqo0","60b8242021561f7827855c02","freq","img/orange_2bandit_a2.png","70","70","test","1","65","65","3","",""
"null","247784","pSARL_v2","pSARL_v2flraxqo0","60b8242021561f7827855c02","freq_resp","img/orange_2bandit_a.png","70","70","test","","","","3","",""
"null","247941","pSARL_v2","pSARL_v2flraxqo0","60b8242021561f7827855c02","fixation","img/fixation.png","null","","test","","","","","",""
"323.2000000476837","248268","pSARL_v2","pSARL_v2flraxqo0","60b8242021561f7827855c02","freq","img/orange_2bandit_a2.png","70","70","test","1","66","66","3","",""
"null","248760","pSARL_v2","pSARL_v2flraxqo0","60b8242021561f7827855c02","freq_resp","img/orange_2bandit_a.png","70","70","test","","","","3","",""
"null","248917","pSARL_v2","pSARL_v2flraxqo0","60b8242021561f7827855c02","fixation","img/fixation.png","null","","test","","","","","",""
"283","249205","pSARL_v2","pSARL_v2flraxqo0","60b8242021561f7827855c02","freq","img/orange_2bandit_a2.png","70","70","test","1","67","67","3","",""
"null","249734","pSARL_v2","pSARL_v2flraxqo0","60b8242021561f7827855c02","freq_resp","img/orange_2bandit_a.png","70","70","test","","","","3","",""
"null","249889","pSARL_v2","pSARL_v2flraxqo0","60b8242021561f7827855c02","fixation","img/fixation.png","null","","test","","","","","",""
"495.89999985694885","250390","pSARL_v2","pSARL_v2flraxqo0","60b8242021561f7827855c02","reward","img/slot.png","74","","test","","","","","",""
"null","251152","pSARL_v2","pSARL_v2flraxqo0","60b8242021561f7827855c02","points","<div class=""verylowPoints""> -7 </div>","null","na","test","","","","3","-7","2"
"480.59999990463257","251638","pSARL_v2","pSARL_v2flraxqo0","60b8242021561f7827855c02","freq","img/orange_2bandit_a2.png","70","70","test","1","68","68","4","",""
"null","251968","pSARL_v2","pSARL_v2flraxqo0","60b8242021561f7827855c02","freq_resp","img/orange_2bandit_a.png","70","70","test","","","","4","",""
"null","252139","pSARL_v2","pSARL_v2flraxqo0","60b8242021561f7827855c02","fixation","img/fixation.png","null","","test","","","","","",""
"300.10000014305115","252444","pSARL_v2","pSARL_v2flraxqo0","60b8242021561f7827855c02","freq","img/orange_2bandit_a2.png","70","70","test","1","69","69","4","",""
"null","252953","pSARL_v2","pSARL_v2flraxqo0","60b8242021561f7827855c02","freq_resp","img/orange_2bandit_a.png","70","70","test","","","","4","",""
"null","253109","pSARL_v2","pSARL_v2flraxqo0","60b8242021561f7827855c02","fixation","img/fixation.png","null","","test","","","","","",""
"267.69999980926514","253382","pSARL_v2","pSARL_v2flraxqo0","60b8242021561f7827855c02","freq","img/orange_2bandit_a2.png","70","70","test","1","70","70","4","",""
"null","253921","pSARL_v2","pSARL_v2flraxqo0","60b8242021561f7827855c02","freq_resp","img/orange_2bandit_a.png","70","70","test","","","","4","",""
"null","254092","pSARL_v2","pSARL_v2flraxqo0","60b8242021561f7827855c02","fixation","img/fixation.png","null","","test","","","","","",""
"316.59999990463257","254413","pSARL_v2","pSARL_v2flraxqo0","60b8242021561f7827855c02","freq","img/orange_2bandit_a2.png","70","70","test","1","71","71","4","",""
"null","254904","pSARL_v2","pSARL_v2flraxqo0","60b8242021561f7827855c02","freq_resp","img/orange_2bandit_a.png","70","70","test","","","","4","",""
"null","255062","pSARL_v2","pSARL_v2flraxqo0","60b8242021561f7827855c02","fixation","img/fixation.png","null","","test","","","","","",""
"323.59999990463257","255391","pSARL_v2","pSARL_v2flraxqo0","60b8242021561f7827855c02","freq","img/orange_2bandit_a2.png","70","70","test","1","72","72","4","",""
"null","255885","pSARL_v2","pSARL_v2flraxqo0","60b8242021561f7827855c02","freq_resp","img/orange_2bandit_a.png","70","70","test","","","","4","",""
"null","256054","pSARL_v2","pSARL_v2flraxqo0","60b8242021561f7827855c02","fixation","img/fixation.png","null","","test","","","","","",""
"355.7999999523163","256413","pSARL_v2","pSARL_v2flraxqo0","60b8242021561f7827855c02","freq","img/orange_2bandit_a2.png","70","70","test","1","73","73","4","",""
"null","256875","pSARL_v2","pSARL_v2flraxqo0","60b8242021561f7827855c02","freq_resp","img/orange_2bandit_a.png","70","70","test","","","","4","",""
"null","257034","pSARL_v2","pSARL_v2flraxqo0","60b8242021561f7827855c02","fixation","img/fixation.png","null","","test","","","","","",""
"391.09999990463257","257430","pSARL_v2","pSARL_v2flraxqo0","60b8242021561f7827855c02","freq","img/orange_2bandit_a2.png","70","70","test","1","74","74","4","",""
"null","257856","pSARL_v2","pSARL_v2flraxqo0","60b8242021561f7827855c02","freq_resp","img/orange_2bandit_a.png","70","70","test","","","","4","",""
"null","258014","pSARL_v2","pSARL_v2flraxqo0","60b8242021561f7827855c02","fixation","img/fixation.png","null","","test","","","","","",""
"338.7999999523163","258358","pSARL_v2","pSARL_v2flraxqo0","60b8242021561f7827855c02","infreq","img/green_2bandit_a2.png","68","68","test","1","75","75","4","",""
"null","258829","pSARL_v2","pSARL_v2flraxqo0","60b8242021561f7827855c02","infreq_resp","img/green_2bandit_a.png","68","68","test","","","","4","",""
"null","258985","pSARL_v2","pSARL_v2flraxqo0","60b8242021561f7827855c02","fixation","img/fixation.png","null","","test","","","","","",""
"336.60000014305115","259326","pSARL_v2","pSARL_v2flraxqo0","60b8242021561f7827855c02","freq","img/orange_2bandit_a2.png","70","70","test","1","76","76","4","",""
"null","259801","pSARL_v2","pSARL_v2flraxqo0","60b8242021561f7827855c02","freq_resp","img/orange_2bandit_a.png","70","70","test","","","","4","",""
"null","259965","pSARL_v2","pSARL_v2flraxqo0","60b8242021561f7827855c02","fixation","img/fixation.png","null","","test","","","","","",""
"300.59999990463257","260269","pSARL_v2","pSARL_v2flraxqo0","60b8242021561f7827855c02","freq","img/orange_2bandit_a2.png","70","70","test","1","77","77","4","",""
"null","260783","pSARL_v2","pSARL_v2flraxqo0","60b8242021561f7827855c02","freq_resp","img/orange_2bandit_a.png","70","70","test","","","","4","",""
"null","260939","pSARL_v2","pSARL_v2flraxqo0","60b8242021561f7827855c02","fixation","img/fixation.png","null","","test","","","","","",""
"502.2999999523163","261445","pSARL_v2","pSARL_v2flraxqo0","60b8242021561f7827855c02","infreq","img/green_2bandit_a2.png","68","68","test","1","78","78","4","",""
"null","261758","pSARL_v2","pSARL_v2flraxqo0","60b8242021561f7827855c02","infreq_resp","img/green_2bandit_a.png","68","68","test","","","","4","",""
"null","261913","pSARL_v2","pSARL_v2flraxqo0","60b8242021561f7827855c02","fixation","img/fixation.png","null","","test","","","","","",""
"552.7000000476837","262470","pSARL_v2","pSARL_v2flraxqo0","60b8242021561f7827855c02","freq","img/orange_2bandit_a2.png","70","70","test","1","79","79","4","",""
"null","262725","pSARL_v2","pSARL_v2flraxqo0","60b8242021561f7827855c02","freq_resp","img/orange_2bandit_a.png","70","70","test","","","","4","",""
"null","262884","pSARL_v2","pSARL_v2flraxqo0","60b8242021561f7827855c02","fixation","img/fixation.png","null","","test","","","","","",""
"374.89999985694885","263263","pSARL_v2","pSARL_v2flraxqo0","60b8242021561f7827855c02","freq","img/orange_2bandit_a2.png","70","70","test","1","80","80","4","",""
"null","263707","pSARL_v2","pSARL_v2flraxqo0","60b8242021561f7827855c02","freq_resp","img/orange_2bandit_a.png","70","70","test","","","","4","",""
"null","263862","pSARL_v2","pSARL_v2flraxqo0","60b8242021561f7827855c02","fixation","img/fixation.png","null","","test","","","","","",""
"403.2999999523163","264271","pSARL_v2","pSARL_v2flraxqo0","60b8242021561f7827855c02","freq","img/orange_2bandit_a2.png","70","70","test","1","81","81","4","",""
"null","264673","pSARL_v2","pSARL_v2flraxqo0","60b8242021561f7827855c02","freq_resp","img/orange_2bandit_a.png","70","70","test","","","","4","",""
"null","264843","pSARL_v2","pSARL_v2flraxqo0","60b8242021561f7827855c02","fixation","img/fixation.png","null","","test","","","","","",""
"366.59999990463257","265215","pSARL_v2","pSARL_v2flraxqo0","60b8242021561f7827855c02","freq","img/orange_2bandit_a2.png","70","70","test","1","82","82","4","",""
"null","265659","pSARL_v2","pSARL_v2flraxqo0","60b8242021561f7827855c02","freq_resp","img/orange_2bandit_a.png","70","70","test","","","","4","",""
"null","265814","pSARL_v2","pSARL_v2flraxqo0","60b8242021561f7827855c02","fixation","img/fixation.png","null","","test","","","","","",""
"356.2000000476837","266174","pSARL_v2","pSARL_v2flraxqo0","60b8242021561f7827855c02","freq","img/orange_2bandit_a2.png","70","70","test","1","83","83","4","",""
"null","266633","pSARL_v2","pSARL_v2flraxqo0","60b8242021561f7827855c02","freq_resp","img/orange_2bandit_a.png","70","70","test","","","","4","",""
"null","266790","pSARL_v2","pSARL_v2flraxqo0","60b8242021561f7827855c02","fixation","img/fixation.png","null","","test","","","","","",""
"332.10000014305115","267125","pSARL_v2","pSARL_v2flraxqo0","60b8242021561f7827855c02","freq","img/orange_2bandit_a2.png","70","70","test","1","84","84","4","",""
"null","267613","pSARL_v2","pSARL_v2flraxqo0","60b8242021561f7827855c02","freq_resp","img/orange_2bandit_a.png","70","70","test","","","","4","",""
"null","267780","pSARL_v2","pSARL_v2flraxqo0","60b8242021561f7827855c02","fixation","img/fixation.png","null","","test","","","","","",""
"454.39999985694885","268239","pSARL_v2","pSARL_v2flraxqo0","60b8242021561f7827855c02","freq","img/orange_2bandit_a2.png","70","70","test","1","85","85","4","",""
"null","268599","pSARL_v2","pSARL_v2flraxqo0","60b8242021561f7827855c02","freq_resp","img/orange_2bandit_a.png","70","70","test","","","","4","",""
"null","268756","pSARL_v2","pSARL_v2flraxqo0","60b8242021561f7827855c02","fixation","img/fixation.png","null","","test","","","","","",""
"318.5","269078","pSARL_v2","pSARL_v2flraxqo0","60b8242021561f7827855c02","freq","img/orange_2bandit_a2.png","70","70","test","1","86","86","4","",""
"null","269564","pSARL_v2","pSARL_v2flraxqo0","60b8242021561f7827855c02","freq_resp","img/orange_2bandit_a.png","70","70","test","","","","4","",""
"null","269724","pSARL_v2","pSARL_v2flraxqo0","60b8242021561f7827855c02","fixation","img/fixation.png","null","","test","","","","","",""
"358.2999999523163","270087","pSARL_v2","pSARL_v2flraxqo0","60b8242021561f7827855c02","freq","img/orange_2bandit_a2.png","70","70","test","1","87","87","4","",""
"null","270544","pSARL_v2","pSARL_v2flraxqo0","60b8242021561f7827855c02","freq_resp","img/orange_2bandit_a.png","70","70","test","","","","4","",""
"null","270700","pSARL_v2","pSARL_v2flraxqo0","60b8242021561f7827855c02","fixation","img/fixation.png","null","","test","","","","","",""
"382.69999980926514","271088","pSARL_v2","pSARL_v2flraxqo0","60b8242021561f7827855c02","freq","img/orange_2bandit_a2.png","70","70","test","1","88","88","4","",""
"null","271512","pSARL_v2","pSARL_v2flraxqo0","60b8242021561f7827855c02","freq_resp","img/orange_2bandit_a.png","70","70","test","","","","4","",""
"null","271669","pSARL_v2","pSARL_v2flraxqo0","60b8242021561f7827855c02","fixation","img/fixation.png","null","","test","","","","","",""
"365.2999999523163","272038","pSARL_v2","pSARL_v2flraxqo0","60b8242021561f7827855c02","freq","img/orange_2bandit_a2.png","70","70","test","1","89","89","4","",""
"null","272490","pSARL_v2","pSARL_v2flraxqo0","60b8242021561f7827855c02","freq_resp","img/orange_2bandit_a.png","70","70","test","","","","4","",""
"null","272645","pSARL_v2","pSARL_v2flraxqo0","60b8242021561f7827855c02","fixation","img/fixation.png","null","","test","","","","","",""
"365.60000014305115","273016","pSARL_v2","pSARL_v2flraxqo0","60b8242021561f7827855c02","freq","img/orange_2bandit_a2.png","70","70","test","1","90","90","4","",""
"null","273464","pSARL_v2","pSARL_v2flraxqo0","60b8242021561f7827855c02","freq_resp","img/orange_2bandit_a.png","70","70","test","","","","4","",""
"null","273621","pSARL_v2","pSARL_v2flraxqo0","60b8242021561f7827855c02","fixation","img/fixation.png","null","","test","","","","","",""
"461.90000009536743","274087","pSARL_v2","pSARL_v2flraxqo0","60b8242021561f7827855c02","reward","img/slot.png","74","","test","","","","","",""
"null","274853","pSARL_v2","pSARL_v2flraxqo0","60b8242021561f7827855c02","points","<div class=""verylowPoints""> -3 </div>","null","na","test","","","","4","-3","3"
"260.60000014305115","275119","pSARL_v2","pSARL_v2flraxqo0","60b8242021561f7827855c02","freq","img/orange_2bandit_a2.png","70","70","test","1","91","91","5","",""
"null","275667","pSARL_v2","pSARL_v2flraxqo0","60b8242021561f7827855c02","freq_resp","img/orange_2bandit_a.png","70","70","test","","","","5","",""
"null","275837","pSARL_v2","pSARL_v2flraxqo0","60b8242021561f7827855c02","fixation","img/fixation.png","null","","test","","","","","",""
"294.09999990463257","276135","pSARL_v2","pSARL_v2flraxqo0","60b8242021561f7827855c02","freq","img/orange_2bandit_a2.png","70","70","test","1","92","92","5","",""
"null","276655","pSARL_v2","pSARL_v2flraxqo0","60b8242021561f7827855c02","freq_resp","img/orange_2bandit_a.png","70","70","test","","","","5","",""
"null","276825","pSARL_v2","pSARL_v2flraxqo0","60b8242021561f7827855c02","fixation","img/fixation.png","null","","test","","","","","",""
"298.59999990463257","277127","pSARL_v2","pSARL_v2flraxqo0","60b8242021561f7827855c02","freq","img/orange_2bandit_a2.png","70","70","test","1","93","93","5","",""
"null","277641","pSARL_v2","pSARL_v2flraxqo0","60b8242021561f7827855c02","freq_resp","img/orange_2bandit_a.png","70","70","test","","","","5","",""
"null","277796","pSARL_v2","pSARL_v2flraxqo0","60b8242021561f7827855c02","fixation","img/fixation.png","null","","test","","","","","",""
"303.2000000476837","278104","pSARL_v2","pSARL_v2flraxqo0","60b8242021561f7827855c02","freq","img/orange_2bandit_a2.png","70","70","test","1","94","94","5","",""
"null","278617","pSARL_v2","pSARL_v2flraxqo0","60b8242021561f7827855c02","freq_resp","img/orange_2bandit_a.png","70","70","test","","","","5","",""
"null","278777","pSARL_v2","pSARL_v2flraxqo0","60b8242021561f7827855c02","fixation","img/fixation.png","null","","test","","","","","",""
"298.5","279080","pSARL_v2","pSARL_v2flraxqo0","60b8242021561f7827855c02","freq","img/orange_2bandit_a2.png","70","70","test","1","95","95","5","",""
"null","279594","pSARL_v2","pSARL_v2flraxqo0","60b8242021561f7827855c02","freq_resp","img/orange_2bandit_a.png","70","70","test","","","","5","",""
"null","279751","pSARL_v2","pSARL_v2flraxqo0","60b8242021561f7827855c02","fixation","img/fixation.png","null","","test","","","","","",""
"324.60000014305115","280081","pSARL_v2","pSARL_v2flraxqo0","60b8242021561f7827855c02","freq","img/orange_2bandit_a2.png","70","70","test","1","96","96","5","",""
"null","280570","pSARL_v2","pSARL_v2flraxqo0","60b8242021561f7827855c02","freq_resp","img/orange_2bandit_a.png","70","70","test","","","","5","",""
"null","280725","pSARL_v2","pSARL_v2flraxqo0","60b8242021561f7827855c02","fixation","img/fixation.png","null","","test","","","","","",""
"318.7999999523163","281049","pSARL_v2","pSARL_v2flraxqo0","60b8242021561f7827855c02","freq","img/orange_2bandit_a2.png","70","70","test","1","97","97","5","",""
"null","281543","pSARL_v2","pSARL_v2flraxqo0","60b8242021561f7827855c02","freq_resp","img/orange_2bandit_a.png","70","70","test","","","","5","",""
"null","281700","pSARL_v2","pSARL_v2flraxqo0","60b8242021561f7827855c02","fixation","img/fixation.png","null","","test","","","","","",""
"424.2999999523163","282129","pSARL_v2","pSARL_v2flraxqo0","60b8242021561f7827855c02","infreq","img/green_2bandit_a2.png","68","68","test","1","98","98","5","",""
"null","282510","pSARL_v2","pSARL_v2flraxqo0","60b8242021561f7827855c02","infreq_resp","img/green_2bandit_a.png","68","68","test","","","","5","",""
"null","282669","pSARL_v2","pSARL_v2flraxqo0","60b8242021561f7827855c02","fixation","img/fixation.png","null","","test","","","","","",""
"239.5","282912","pSARL_v2","pSARL_v2flraxqo0","60b8242021561f7827855c02","freq","img/orange_2bandit_a2.png","70","70","test","1","99","99","5","",""
"null","283491","pSARL_v2","pSARL_v2flraxqo0","60b8242021561f7827855c02","freq_resp","img/orange_2bandit_a.png","70","70","test","","","","5","",""
"null","283646","pSARL_v2","pSARL_v2flraxqo0","60b8242021561f7827855c02","fixation","img/fixation.png","null","","test","","","","","",""
"230.60000014305115","283881","pSARL_v2","pSARL_v2flraxqo0","60b8242021561f7827855c02","freq","img/orange_2bandit_a2.png","70","70","test","1","100","100","5","",""
"null","284467","pSARL_v2","pSARL_v2flraxqo0","60b8242021561f7827855c02","freq_resp","img/orange_2bandit_a.png","70","70","test","","","","5","",""
"null","284623","pSARL_v2","pSARL_v2flraxqo0","60b8242021561f7827855c02","fixation","img/fixation.png","null","","test","","","","","",""
"245.09999990463257","284873","pSARL_v2","pSARL_v2flraxqo0","60b8242021561f7827855c02","freq","img/orange_2bandit_a2.png","70","70","test","1","101","101","5","",""
"null","285438","pSARL_v2","pSARL_v2flraxqo0","60b8242021561f7827855c02","freq_resp","img/orange_2bandit_a.png","70","70","test","","","","5","",""
"null","285596","pSARL_v2","pSARL_v2flraxqo0","60b8242021561f7827855c02","fixation","img/fixation.png","null","","test","","","","","",""
"256.5","285858","pSARL_v2","pSARL_v2flraxqo0","60b8242021561f7827855c02","freq","img/orange_2bandit_a2.png","70","70","test","1","102","102","5","",""
"null","286416","pSARL_v2","pSARL_v2flraxqo0","60b8242021561f7827855c02","freq_resp","img/orange_2bandit_a.png","70","70","test","","","","5","",""
"null","286571","pSARL_v2","pSARL_v2flraxqo0","60b8242021561f7827855c02","fixation","img/fixation.png","null","","test","","","","","",""
"273.59999990463257","286850","pSARL_v2","pSARL_v2flraxqo0","60b8242021561f7827855c02","freq","img/orange_2bandit_a2.png","70","70","test","1","103","103","5","",""
"null","287392","pSARL_v2","pSARL_v2flraxqo0","60b8242021561f7827855c02","freq_resp","img/orange_2bandit_a.png","70","70","test","","","","5","",""
"null","287551","pSARL_v2","pSARL_v2flraxqo0","60b8242021561f7827855c02","fixation","img/fixation.png","null","","test","","","","","",""
"230.5","287787","pSARL_v2","pSARL_v2flraxqo0","60b8242021561f7827855c02","freq","img/orange_2bandit_a2.png","70","70","test","1","104","104","5","",""
"null","288363","pSARL_v2","pSARL_v2flraxqo0","60b8242021561f7827855c02","freq_resp","img/orange_2bandit_a.png","70","70","test","","","","5","",""
"null","288523","pSARL_v2","pSARL_v2flraxqo0","60b8242021561f7827855c02","fixation","img/fixation.png","null","","test","","","","","",""
"257.89999985694885","288786","pSARL_v2","pSARL_v2flraxqo0","60b8242021561f7827855c02","freq","img/orange_2bandit_a2.png","70","70","test","1","105","105","5","",""
"null","289334","pSARL_v2","pSARL_v2flraxqo0","60b8242021561f7827855c02","freq_resp","img/orange_2bandit_a.png","70","70","test","","","","5","",""
"null","289492","pSARL_v2","pSARL_v2flraxqo0","60b8242021561f7827855c02","fixation","img/fixation.png","null","","test","","","","","",""
"232.59999990463257","289728","pSARL_v2","pSARL_v2flraxqo0","60b8242021561f7827855c02","freq","img/orange_2bandit_a2.png","70","70","test","1","106","106","5","",""
"null","290307","pSARL_v2","pSARL_v2flraxqo0","60b8242021561f7827855c02","freq_resp","img/orange_2bandit_a.png","70","70","test","","","","5","",""
"null","290462","pSARL_v2","pSARL_v2flraxqo0","60b8242021561f7827855c02","fixation","img/fixation.png","null","","test","","","","","",""
"278.7000000476837","290746","pSARL_v2","pSARL_v2flraxqo0","60b8242021561f7827855c02","freq","img/orange_2bandit_a2.png","70","70","test","1","107","107","5","",""
"null","291279","pSARL_v2","pSARL_v2flraxqo0","60b8242021561f7827855c02","freq_resp","img/orange_2bandit_a.png","70","70","test","","","","5","",""
"null","291439","pSARL_v2","pSARL_v2flraxqo0","60b8242021561f7827855c02","fixation","img/fixation.png","null","","test","","","","","",""
"262.5","291706","pSARL_v2","pSARL_v2flraxqo0","60b8242021561f7827855c02","freq","img/orange_2bandit_a2.png","70","70","test","1","108","108","5","",""
"null","292249","pSARL_v2","pSARL_v2flraxqo0","60b8242021561f7827855c02","freq_resp","img/orange_2bandit_a.png","70","70","test","","","","5","",""
"null","292409","pSARL_v2","pSARL_v2flraxqo0","60b8242021561f7827855c02","fixation","img/fixation.png","null","","test","","","","","",""
"275.90000009536743","292690","pSARL_v2","pSARL_v2flraxqo0","60b8242021561f7827855c02","freq","img/orange_2bandit_a2.png","70","70","test","1","109","109","5","",""
"null","293234","pSARL_v2","pSARL_v2flraxqo0","60b8242021561f7827855c02","freq_resp","img/orange_2bandit_a.png","70","70","test","","","","5","",""
"null","293391","pSARL_v2","pSARL_v2flraxqo0","60b8242021561f7827855c02","fixation","img/fixation.png","null","","test","","","","","",""
"206.10000014305115","293602","pSARL_v2","pSARL_v2flraxqo0","60b8242021561f7827855c02","infreq","img/green_2bandit_a2.png","70","68","test","0","110","110","5","",""
"null","294207","pSARL_v2","pSARL_v2flraxqo0","60b8242021561f7827855c02","infreq_resp","img/green_2bandit_a.png","70","68","test","","","","5","",""
"null","294366","pSARL_v2","pSARL_v2flraxqo0","60b8242021561f7827855c02","fixation","img/fixation.png","null","","test","","","","","",""
"375.90000009536743","294746","pSARL_v2","pSARL_v2flraxqo0","60b8242021561f7827855c02","freq","img/orange_2bandit_a2.png","70","70","test","1","111","111","5","",""
"null","295180","pSARL_v2","pSARL_v2flraxqo0","60b8242021561f7827855c02","freq_resp","img/orange_2bandit_a.png","70","70","test","","","","5","",""
"null","295338","pSARL_v2","pSARL_v2flraxqo0","60b8242021561f7827855c02","fixation","img/fixation.png","null","","test","","","","","",""
"379.5","295721","pSARL_v2","pSARL_v2flraxqo0","60b8242021561f7827855c02","freq","img/orange_2bandit_a2.png","70","70","test","1","112","112","5","",""
"null","296154","pSARL_v2","pSARL_v2flraxqo0","60b8242021561f7827855c02","freq_resp","img/orange_2bandit_a.png","70","70","test","","","","5","",""
"null","296312","pSARL_v2","pSARL_v2flraxqo0","60b8242021561f7827855c02","fixation","img/fixation.png","null","","test","","","","","",""
"477.59999990463257","296795","pSARL_v2","pSARL_v2flraxqo0","60b8242021561f7827855c02","reward","img/slot.png","74","","test","","","","","",""
"null","297555","pSARL_v2","pSARL_v2flraxqo0","60b8242021561f7827855c02","points","<div class=""veryhighPoints""> +1 </div>","null","na","test","","","","5","1","4"
"292","297852","pSARL_v2","pSARL_v2flraxqo0","60b8242021561f7827855c02","freq","img/orange_2bandit_a2.png","70","70","test","1","113","113","6","",""
"null","298372","pSARL_v2","pSARL_v2flraxqo0","60b8242021561f7827855c02","freq_resp","img/orange_2bandit_a.png","70","70","test","","","","6","",""
"null","298528","pSARL_v2","pSARL_v2flraxqo0","60b8242021561f7827855c02","fixation","img/fixation.png","null","","test","","","","","",""
"238.60000014305115","298771","pSARL_v2","pSARL_v2flraxqo0","60b8242021561f7827855c02","freq","img/orange_2bandit_a2.png","70","70","test","1","114","114","6","",""
"null","299343","pSARL_v2","pSARL_v2flraxqo0","60b8242021561f7827855c02","freq_resp","img/orange_2bandit_a.png","70","70","test","","","","6","",""
"null","299500","pSARL_v2","pSARL_v2flraxqo0","60b8242021561f7827855c02","fixation","img/fixation.png","null","","test","","","","","",""
"234.20000004768372","299738","pSARL_v2","pSARL_v2flraxqo0","60b8242021561f7827855c02","freq","img/orange_2bandit_a2.png","70","70","test","1","115","115","6","",""
"null","300312","pSARL_v2","pSARL_v2flraxqo0","60b8242021561f7827855c02","freq_resp","img/orange_2bandit_a.png","70","70","test","","","","6","",""
"null","300470","pSARL_v2","pSARL_v2flraxqo0","60b8242021561f7827855c02","fixation","img/fixation.png","null","","test","","","","","",""
"344.60000014305115","300819","pSARL_v2","pSARL_v2flraxqo0","60b8242021561f7827855c02","freq","img/orange_2bandit_a2.png","70","70","test","1","116","116","6","",""
"null","301287","pSARL_v2","pSARL_v2flraxqo0","60b8242021561f7827855c02","freq_resp","img/orange_2bandit_a.png","70","70","test","","","","6","",""
"null","301442","pSARL_v2","pSARL_v2flraxqo0","60b8242021561f7827855c02","fixation","img/fixation.png","null","","test","","","","","",""
"340.09999990463257","301788","pSARL_v2","pSARL_v2flraxqo0","60b8242021561f7827855c02","freq","img/orange_2bandit_a2.png","70","70","test","1","117","117","6","",""
"null","302260","pSARL_v2","pSARL_v2flraxqo0","60b8242021561f7827855c02","freq_resp","img/orange_2bandit_a.png","70","70","test","","","","6","",""
"null","302418","pSARL_v2","pSARL_v2flraxqo0","60b8242021561f7827855c02","fixation","img/fixation.png","null","","test","","","","","",""
"365.10000014305115","302788","pSARL_v2","pSARL_v2flraxqo0","60b8242021561f7827855c02","freq","img/orange_2bandit_a2.png","70","70","test","1","118","118","6","",""
"null","303229","pSARL_v2","pSARL_v2flraxqo0","60b8242021561f7827855c02","freq_resp","img/orange_2bandit_a.png","70","70","test","","","","6","",""
"null","303385","pSARL_v2","pSARL_v2flraxqo0","60b8242021561f7827855c02","fixation","img/fixation.png","null","","test","","","","","",""
"534.4000000953674","303924","pSARL_v2","pSARL_v2flraxqo0","60b8242021561f7827855c02","freq","img/orange_2bandit_a2.png","70","70","test","1","119","119","6","",""
"null","304196","pSARL_v2","pSARL_v2flraxqo0","60b8242021561f7827855c02","freq_resp","img/orange_2bandit_a.png","70","70","test","","","","6","",""
"null","304352","pSARL_v2","pSARL_v2flraxqo0","60b8242021561f7827855c02","fixation","img/fixation.png","null","","test","","","","","",""
"518.8000001907349","304875","pSARL_v2","pSARL_v2flraxqo0","60b8242021561f7827855c02","freq","img/orange_2bandit_a2.png","70","70","test","1","120","120","6","",""
"null","305167","pSARL_v2","pSARL_v2flraxqo0","60b8242021561f7827855c02","freq_resp","img/orange_2bandit_a.png","70","70","test","","","","6","",""
"null","305323","pSARL_v2","pSARL_v2flraxqo0","60b8242021561f7827855c02","fixation","img/fixation.png","null","","test","","","","","",""
"492.5","305821","pSARL_v2","pSARL_v2flraxqo0","60b8242021561f7827855c02","freq","img/orange_2bandit_a2.png","70","70","test","1","121","121","6","",""
"null","306135","pSARL_v2","pSARL_v2flraxqo0","60b8242021561f7827855c02","freq_resp","img/orange_2bandit_a.png","70","70","test","","","","6","",""
"null","306291","pSARL_v2","pSARL_v2flraxqo0","60b8242021561f7827855c02","fixation","img/fixation.png","null","","test","","","","","",""
"500.90000009536743","306796","pSARL_v2","pSARL_v2flraxqo0","60b8242021561f7827855c02","freq","img/orange_2bandit_a2.png","70","70","test","1","122","122","6","",""
"null","307105","pSARL_v2","pSARL_v2flraxqo0","60b8242021561f7827855c02","freq_resp","img/orange_2bandit_a.png","70","70","test","","","","6","",""
"null","307263","pSARL_v2","pSARL_v2flraxqo0","60b8242021561f7827855c02","fixation","img/fixation.png","null","","test","","","","","",""
"440.7999999523163","307708","pSARL_v2","pSARL_v2flraxqo0","60b8242021561f7827855c02","freq","img/orange_2bandit_a2.png","70","70","test","1","123","123","6","",""
"null","308085","pSARL_v2","pSARL_v2flraxqo0","60b8242021561f7827855c02","freq_resp","img/orange_2bandit_a.png","70","70","test","","","","6","",""
"null","308256","pSARL_v2","pSARL_v2flraxqo0","60b8242021561f7827855c02","fixation","img/fixation.png","null","","test","","","","","",""
"409.09999990463257","308670","pSARL_v2","pSARL_v2flraxqo0","60b8242021561f7827855c02","freq","img/orange_2bandit_a2.png","70","70","test","1","124","124","6","",""
"null","309074","pSARL_v2","pSARL_v2flraxqo0","60b8242021561f7827855c02","freq_resp","img/orange_2bandit_a.png","70","70","test","","","","6","",""
"null","309234","pSARL_v2","pSARL_v2flraxqo0","60b8242021561f7827855c02","fixation","img/fixation.png","null","","test","","","","","",""
"373.7000000476837","309611","pSARL_v2","pSARL_v2flraxqo0","60b8242021561f7827855c02","freq","img/orange_2bandit_a2.png","70","70","test","1","125","125","6","",""
"null","310043","pSARL_v2","pSARL_v2flraxqo0","60b8242021561f7827855c02","freq_resp","img/orange_2bandit_a.png","70","70","test","","","","6","",""
"null","310201","pSARL_v2","pSARL_v2flraxqo0","60b8242021561f7827855c02","fixation","img/fixation.png","null","","test","","","","","",""
"383","310588","pSARL_v2","pSARL_v2flraxqo0","60b8242021561f7827855c02","infreq","img/green_2bandit_a2.png","68","68","test","1","126","126","6","",""
"null","311026","pSARL_v2","pSARL_v2flraxqo0","60b8242021561f7827855c02","infreq_resp","img/green_2bandit_a.png","68","68","test","","","","6","",""
"null","311182","pSARL_v2","pSARL_v2flraxqo0","60b8242021561f7827855c02","fixation","img/fixation.png","null","","test","","","","","",""
"265.7000000476837","311452","pSARL_v2","pSARL_v2flraxqo0","60b8242021561f7827855c02","freq","img/orange_2bandit_a2.png","70","70","test","1","127","127","6","",""
"null","311994","pSARL_v2","pSARL_v2flraxqo0","60b8242021561f7827855c02","freq_resp","img/orange_2bandit_a.png","70","70","test","","","","6","",""
"null","312152","pSARL_v2","pSARL_v2flraxqo0","60b8242021561f7827855c02","fixation","img/fixation.png","null","","test","","","","","",""
"487.7000000476837","312644","pSARL_v2","pSARL_v2flraxqo0","60b8242021561f7827855c02","infreq","img/green_2bandit_a2.png","68","68","test","1","128","128","6","",""
"null","312971","pSARL_v2","pSARL_v2flraxqo0","60b8242021561f7827855c02","infreq_resp","img/green_2bandit_a.png","68","68","test","","","","6","",""
"null","313126","pSARL_v2","pSARL_v2flraxqo0","60b8242021561f7827855c02","fixation","img/fixation.png","null","","test","","","","","",""
"322.2999999523163","313454","pSARL_v2","pSARL_v2flraxqo0","60b8242021561f7827855c02","freq","img/orange_2bandit_a2.png","70","70","test","1","129","129","6","",""
"null","313946","pSARL_v2","pSARL_v2flraxqo0","60b8242021561f7827855c02","freq_resp","img/orange_2bandit_a.png","70","70","test","","","","6","",""
"null","314104","pSARL_v2","pSARL_v2flraxqo0","60b8242021561f7827855c02","fixation","img/fixation.png","null","","test","","","","","",""
"416.2000000476837","314526","pSARL_v2","pSARL_v2flraxqo0","60b8242021561f7827855c02","infreq","img/green_2bandit_a2.png","68","68","test","1","130","130","6","",""
"null","314920","pSARL_v2","pSARL_v2flraxqo0","60b8242021561f7827855c02","infreq_resp","img/green_2bandit_a.png","68","68","test","","","","6","",""
"null","315081","pSARL_v2","pSARL_v2flraxqo0","60b8242021561f7827855c02","fixation","img/fixation.png","null","","test","","","","","",""
"319.30000019073486","315406","pSARL_v2","pSARL_v2flraxqo0","60b8242021561f7827855c02","freq","img/orange_2bandit_a2.png","70","70","test","1","131","131","6","",""
"null","315898","pSARL_v2","pSARL_v2flraxqo0","60b8242021561f7827855c02","freq_resp","img/orange_2bandit_a.png","70","70","test","","","","6","",""
"null","316056","pSARL_v2","pSARL_v2flraxqo0","60b8242021561f7827855c02","fixation","img/fixation.png","null","","test","","","","","",""
"376.40000009536743","316437","pSARL_v2","pSARL_v2flraxqo0","60b8242021561f7827855c02","freq","img/orange_2bandit_a2.png","70","70","test","1","132","132","6","",""
"null","316879","pSARL_v2","pSARL_v2flraxqo0","60b8242021561f7827855c02","freq_resp","img/orange_2bandit_a.png","70","70","test","","","","6","",""
"null","317036","pSARL_v2","pSARL_v2flraxqo0","60b8242021561f7827855c02","fixation","img/fixation.png","null","","test","","","","","",""
"461.5","317502","pSARL_v2","pSARL_v2flraxqo0","60b8242021561f7827855c02","freq","img/orange_2bandit_a2.png","70","70","test","1","133","133","6","",""
"null","317858","pSARL_v2","pSARL_v2flraxqo0","60b8242021561f7827855c02","freq_resp","img/orange_2bandit_a.png","70","70","test","","","","6","",""
"null","318015","pSARL_v2","pSARL_v2flraxqo0","60b8242021561f7827855c02","fixation","img/fixation.png","null","","test","","","","","",""
"457.59999990463257","318477","pSARL_v2","pSARL_v2flraxqo0","60b8242021561f7827855c02","freq","img/orange_2bandit_a2.png","70","70","test","1","134","134","6","",""
"null","318834","pSARL_v2","pSARL_v2flraxqo0","60b8242021561f7827855c02","freq_resp","img/orange_2bandit_a.png","70","70","test","","","","6","",""
"null","318991","pSARL_v2","pSARL_v2flraxqo0","60b8242021561f7827855c02","fixation","img/fixation.png","null","","test","","","","","",""
"443.2999999523163","319439","pSARL_v2","pSARL_v2flraxqo0","60b8242021561f7827855c02","freq","img/orange_2bandit_a2.png","70","70","test","1","135","135","6","",""
"null","319805","pSARL_v2","pSARL_v2flraxqo0","60b8242021561f7827855c02","freq_resp","img/orange_2bandit_a.png","70","70","test","","","","6","",""
"null","319959","pSARL_v2","pSARL_v2flraxqo0","60b8242021561f7827855c02","fixation","img/fixation.png","null","","test","","","","","",""
"634.1999998092651","320598","pSARL_v2","pSARL_v2flraxqo0","60b8242021561f7827855c02","freq","img/orange_2bandit_a2.png","70","70","test","1","136","136","6","",""
"null","320773","pSARL_v2","pSARL_v2flraxqo0","60b8242021561f7827855c02","freq_resp","img/orange_2bandit_a.png","70","70","test","","","","6","",""
"null","320933","pSARL_v2","pSARL_v2flraxqo0","60b8242021561f7827855c02","fixation","img/fixation.png","null","","test","","","","","",""
"708.6000001430511","321645","pSARL_v2","pSARL_v2flraxqo0","60b8242021561f7827855c02","freq","img/orange_2bandit_a2.png","70","70","test","1","137","137","6","",""
"null","321747","pSARL_v2","pSARL_v2flraxqo0","60b8242021561f7827855c02","freq_resp","img/orange_2bandit_a.png","70","70","test","","","","6","",""
"null","321906","pSARL_v2","pSARL_v2flraxqo0","60b8242021561f7827855c02","fixation","img/fixation.png","null","","test","","","","","",""
"599.7999999523163","322511","pSARL_v2","pSARL_v2flraxqo0","60b8242021561f7827855c02","freq","img/orange_2bandit_a2.png","70","70","test","1","138","138","6","",""
"null","322726","pSARL_v2","pSARL_v2flraxqo0","60b8242021561f7827855c02","freq_resp","img/orange_2bandit_a.png","70","70","test","","","","6","",""
"null","322883","pSARL_v2","pSARL_v2flraxqo0","60b8242021561f7827855c02","fixation","img/fixation.png","null","","test","","","","","",""
"438.80000019073486","323327","pSARL_v2","pSARL_v2flraxqo0","60b8242021561f7827855c02","reward","img/slot.png","74","","test","","","","","",""
"null","324091","pSARL_v2","pSARL_v2flraxqo0","60b8242021561f7827855c02","points","<div class=""verylowPoints""> -7 </div>","null","na","test","","","","6","-7","5"
"431.2000000476837","324527","pSARL_v2","pSARL_v2flraxqo0","60b8242021561f7827855c02","freq","img/orange_2bandit_a2.png","70","70","test","1","139","139","7","",""
"null","324910","pSARL_v2","pSARL_v2flraxqo0","60b8242021561f7827855c02","freq_resp","img/orange_2bandit_a.png","70","70","test","","","","7","",""
"null","325064","pSARL_v2","pSARL_v2flraxqo0","60b8242021561f7827855c02","fixation","img/fixation.png","null","","test","","","","","",""
"321.59999990463257","325391","pSARL_v2","pSARL_v2flraxqo0","60b8242021561f7827855c02","freq","img/orange_2bandit_a2.png","70","70","test","1","140","140","7","",""
"null","325881","pSARL_v2","pSARL_v2flraxqo0","60b8242021561f7827855c02","freq_resp","img/orange_2bandit_a.png","70","70","test","","","","7","",""
"null","326037","pSARL_v2","pSARL_v2flraxqo0","60b8242021561f7827855c02","fixation","img/fixation.png","null","","test","","","","","",""
"357.10000014305115","326399","pSARL_v2","pSARL_v2flraxqo0","60b8242021561f7827855c02","freq","img/orange_2bandit_a2.png","70","70","test","1","141","141","7","",""
"null","326853","pSARL_v2","pSARL_v2flraxqo0","60b8242021561f7827855c02","freq_resp","img/orange_2bandit_a.png","70","70","test","","","","7","",""
"null","327011","pSARL_v2","pSARL_v2flraxqo0","60b8242021561f7827855c02","fixation","img/fixation.png","null","","test","","","","","",""
"327.2000000476837","327342","pSARL_v2","pSARL_v2flraxqo0","60b8242021561f7827855c02","freq","img/orange_2bandit_a2.png","70","70","test","1","142","142","7","",""
"null","327834","pSARL_v2","pSARL_v2flraxqo0","60b8242021561f7827855c02","freq_resp","img/orange_2bandit_a.png","70","70","test","","","","7","",""
"null","327991","pSARL_v2","pSARL_v2flraxqo0","60b8242021561f7827855c02","fixation","img/fixation.png","null","","test","","","","","",""
"411","328407","pSARL_v2","pSARL_v2flraxqo0","60b8242021561f7827855c02","freq","img/orange_2bandit_a2.png","70","70","test","1","143","143","7","",""
"null","328810","pSARL_v2","pSARL_v2flraxqo0","60b8242021561f7827855c02","freq_resp","img/orange_2bandit_a.png","70","70","test","","","","7","",""
"null","328967","pSARL_v2","pSARL_v2flraxqo0","60b8242021561f7827855c02","fixation","img/fixation.png","null","","test","","","","","",""
"410.7000000476837","329382","pSARL_v2","pSARL_v2flraxqo0","60b8242021561f7827855c02","freq","img/orange_2bandit_a2.png","70","70","test","1","144","144","7","",""
"null","329780","pSARL_v2","pSARL_v2flraxqo0","60b8242021561f7827855c02","freq_resp","img/orange_2bandit_a.png","70","70","test","","","","7","",""
"null","329939","pSARL_v2","pSARL_v2flraxqo0","60b8242021561f7827855c02","fixation","img/fixation.png","null","","test","","","","","",""
"376.7000000476837","330321","pSARL_v2","pSARL_v2flraxqo0","60b8242021561f7827855c02","freq","img/orange_2bandit_a2.png","70","70","test","1","145","145","7","",""
"null","330764","pSARL_v2","pSARL_v2flraxqo0","60b8242021561f7827855c02","freq_resp","img/orange_2bandit_a.png","70","70","test","","","","7","",""
"null","330923","pSARL_v2","pSARL_v2flraxqo0","60b8242021561f7827855c02","fixation","img/fixation.png","null","","test","","","","","",""
"383.90000009536743","331312","pSARL_v2","pSARL_v2flraxqo0","60b8242021561f7827855c02","freq","img/orange_2bandit_a2.png","70","70","test","1","146","146","7","",""
"null","331742","pSARL_v2","pSARL_v2flraxqo0","60b8242021561f7827855c02","freq_resp","img/orange_2bandit_a.png","70","70","test","","","","7","",""
"null","331899","pSARL_v2","pSARL_v2flraxqo0","60b8242021561f7827855c02","fixation","img/fixation.png","null","","test","","","","","",""
"439.59999990463257","332344","pSARL_v2","pSARL_v2flraxqo0","60b8242021561f7827855c02","freq","img/orange_2bandit_a2.png","70","70","test","1","147","147","7","",""
"null","332717","pSARL_v2","pSARL_v2flraxqo0","60b8242021561f7827855c02","freq_resp","img/orange_2bandit_a.png","70","70","test","","","","7","",""
"null","332874","pSARL_v2","pSARL_v2flraxqo0","60b8242021561f7827855c02","fixation","img/fixation.png","null","","test","","","","","",""
"376.40000009536743","333256","pSARL_v2","pSARL_v2flraxqo0","60b8242021561f7827855c02","freq","img/orange_2bandit_a2.png","70","70","test","1","148","148","7","",""
"null","333689","pSARL_v2","pSARL_v2flraxqo0","60b8242021561f7827855c02","freq_resp","img/orange_2bandit_a.png","70","70","test","","","","7","",""
"null","333847","pSARL_v2","pSARL_v2flraxqo0","60b8242021561f7827855c02","fixation","img/fixation.png","null","","test","","","","","",""
"467.7999999523163","334320","pSARL_v2","pSARL_v2flraxqo0","60b8242021561f7827855c02","freq","img/orange_2bandit_a2.png","70","70","test","1","149","149","7","",""
"null","334661","pSARL_v2","pSARL_v2flraxqo0","60b8242021561f7827855c02","freq_resp","img/orange_2bandit_a.png","70","70","test","","","","7","",""
"null","334817","pSARL_v2","pSARL_v2flraxqo0","60b8242021561f7827855c02","fixation","img/fixation.png","null","","test","","","","","",""
"281.90000009536743","335104","pSARL_v2","pSARL_v2flraxqo0","60b8242021561f7827855c02","freq","img/orange_2bandit_a2.png","70","70","test","1","150","150","7","",""
"null","335647","pSARL_v2","pSARL_v2flraxqo0","60b8242021561f7827855c02","freq_resp","img/orange_2bandit_a.png","70","70","test","","","","7","",""
"null","335807","pSARL_v2","pSARL_v2flraxqo0","60b8242021561f7827855c02","fixation","img/fixation.png","null","","test","","","","","",""
"347.80000019073486","336160","pSARL_v2","pSARL_v2flraxqo0","60b8242021561f7827855c02","freq","img/orange_2bandit_a2.png","70","70","test","1","151","151","7","",""
"null","336618","pSARL_v2","pSARL_v2flraxqo0","60b8242021561f7827855c02","freq_resp","img/orange_2bandit_a.png","70","70","test","","","","7","",""
"null","336773","pSARL_v2","pSARL_v2flraxqo0","60b8242021561f7827855c02","fixation","img/fixation.png","null","","test","","","","","",""
"397.69999980926514","337176","pSARL_v2","pSARL_v2flraxqo0","60b8242021561f7827855c02","freq","img/orange_2bandit_a2.png","70","70","test","1","152","152","7","",""
"null","337592","pSARL_v2","pSARL_v2flraxqo0","60b8242021561f7827855c02","freq_resp","img/orange_2bandit_a.png","70","70","test","","","","7","",""
"null","337750","pSARL_v2","pSARL_v2flraxqo0","60b8242021561f7827855c02","fixation","img/fixation.png","null","","test","","","","","",""
"373.2999999523163","338128","pSARL_v2","pSARL_v2flraxqo0","60b8242021561f7827855c02","freq","img/orange_2bandit_a2.png","70","70","test","1","153","153","7","",""
"null","338568","pSARL_v2","pSARL_v2flraxqo0","60b8242021561f7827855c02","freq_resp","img/orange_2bandit_a.png","70","70","test","","","","7","",""
"null","338725","pSARL_v2","pSARL_v2flraxqo0","60b8242021561f7827855c02","fixation","img/fixation.png","null","","test","","","","","",""
"390.40000009536743","339120","pSARL_v2","pSARL_v2flraxqo0","60b8242021561f7827855c02","freq","img/orange_2bandit_a2.png","70","70","test","1","154","154","7","",""
"null","339535","pSARL_v2","pSARL_v2flraxqo0","60b8242021561f7827855c02","freq_resp","img/orange_2bandit_a.png","70","70","test","","","","7","",""
"null","339700","pSARL_v2","pSARL_v2flraxqo0","60b8242021561f7827855c02","fixation","img/fixation.png","null","","test","","","","","",""
"439.5","340145","pSARL_v2","pSARL_v2flraxqo0","60b8242021561f7827855c02","freq","img/orange_2bandit_a2.png","70","70","test","1","155","155","7","",""
"null","340525","pSARL_v2","pSARL_v2flraxqo0","60b8242021561f7827855c02","freq_resp","img/orange_2bandit_a.png","70","70","test","","","","7","",""
"null","340684","pSARL_v2","pSARL_v2flraxqo0","60b8242021561f7827855c02","fixation","img/fixation.png","null","","test","","","","","",""
"465.09999990463257","341154","pSARL_v2","pSARL_v2flraxqo0","60b8242021561f7827855c02","freq","img/orange_2bandit_a2.png","70","70","test","1","156","156","7","",""
"null","341496","pSARL_v2","pSARL_v2flraxqo0","60b8242021561f7827855c02","freq_resp","img/orange_2bandit_a.png","70","70","test","","","","7","",""
"null","341654","pSARL_v2","pSARL_v2flraxqo0","60b8242021561f7827855c02","fixation","img/fixation.png","null","","test","","","","","",""
"494","342153","pSARL_v2","pSARL_v2flraxqo0","60b8242021561f7827855c02","freq","img/orange_2bandit_a2.png","70","70","test","1","157","157","7","",""
"null","342470","pSARL_v2","pSARL_v2flraxqo0","60b8242021561f7827855c02","freq_resp","img/orange_2bandit_a.png","70","70","test","","","","7","",""
"null","342624","pSARL_v2","pSARL_v2flraxqo0","60b8242021561f7827855c02","fixation","img/fixation.png","null","","test","","","","","",""
"644.7000000476837","343272","pSARL_v2","pSARL_v2flraxqo0","60b8242021561f7827855c02","freq","img/orange_2bandit_a2.png","70","70","test","1","158","158","7","",""
"null","343441","pSARL_v2","pSARL_v2flraxqo0","60b8242021561f7827855c02","freq_resp","img/orange_2bandit_a.png","70","70","test","","","","7","",""
"null","343611","pSARL_v2","pSARL_v2flraxqo0","60b8242021561f7827855c02","fixation","img/fixation.png","null","","test","","","","","",""
"632.8000001907349","344248","pSARL_v2","pSARL_v2flraxqo0","60b8242021561f7827855c02","freq","img/orange_2bandit_a2.png","70","70","test","1","159","159","7","",""
"null","344422","pSARL_v2","pSARL_v2flraxqo0","60b8242021561f7827855c02","freq_resp","img/orange_2bandit_a.png","70","70","test","","","","7","",""
"null","344579","pSARL_v2","pSARL_v2flraxqo0","60b8242021561f7827855c02","fixation","img/fixation.png","null","","test","","","","","",""
"673.7999999523163","345258","pSARL_v2","pSARL_v2flraxqo0","60b8242021561f7827855c02","freq","img/orange_2bandit_a2.png","70","70","test","1","160","160","7","",""
"null","345399","pSARL_v2","pSARL_v2flraxqo0","60b8242021561f7827855c02","freq_resp","img/orange_2bandit_a.png","70","70","test","","","","7","",""
"null","345569","pSARL_v2","pSARL_v2flraxqo0","60b8242021561f7827855c02","fixation","img/fixation.png","null","","test","","","","","",""
"507.2000000476837","346081","pSARL_v2","pSARL_v2flraxqo0","60b8242021561f7827855c02","infreq","img/green_2bandit_a2.png","68","68","test","1","161","161","7","",""
"null","346380","pSARL_v2","pSARL_v2flraxqo0","60b8242021561f7827855c02","infreq_resp","img/green_2bandit_a.png","68","68","test","","","","7","",""
"null","346537","pSARL_v2","pSARL_v2flraxqo0","60b8242021561f7827855c02","fixation","img/fixation.png","null","","test","","","","","",""
"451.60000014305115","346993","pSARL_v2","pSARL_v2flraxqo0","60b8242021561f7827855c02","infreq","img/green_2bandit_a2.png","68","68","test","1","162","162","7","",""
"null","347351","pSARL_v2","pSARL_v2flraxqo0","60b8242021561f7827855c02","infreq_resp","img/green_2bandit_a.png","68","68","test","","","","7","",""
"null","347508","pSARL_v2","pSARL_v2flraxqo0","60b8242021561f7827855c02","fixation","img/fixation.png","null","","test","","","","","",""
"408.2000000476837","347920","pSARL_v2","pSARL_v2flraxqo0","60b8242021561f7827855c02","freq","img/orange_2bandit_a2.png","70","70","test","1","163","163","7","",""
"null","348325","pSARL_v2","pSARL_v2flraxqo0","60b8242021561f7827855c02","freq_resp","img/orange_2bandit_a.png","70","70","test","","","","7","",""
"null","348484","pSARL_v2","pSARL_v2flraxqo0","60b8242021561f7827855c02","fixation","img/fixation.png","null","","test","","","","","",""
"505.09999990463257","348994","pSARL_v2","pSARL_v2flraxqo0","60b8242021561f7827855c02","reward","img/slot.png","74","","test","","","","","",""
"null","349754","pSARL_v2","pSARL_v2flraxqo0","60b8242021561f7827855c02","points","<div class=""verylowPoints""> -6 </div>","null","na","test","","","","7","-6","6"
"266.2999999523163","350024","pSARL_v2","pSARL_v2flraxqo0","60b8242021561f7827855c02","freq","img/orange_2bandit_a2.png","70","70","test","1","164","164","8","",""
"null","350574","pSARL_v2","pSARL_v2flraxqo0","60b8242021561f7827855c02","freq_resp","img/orange_2bandit_a.png","70","70","test","","","","8","",""
"null","350730","pSARL_v2","pSARL_v2flraxqo0","60b8242021561f7827855c02","fixation","img/fixation.png","null","","test","","","","","",""
"402.5","351138","pSARL_v2","pSARL_v2flraxqo0","60b8242021561f7827855c02","freq","img/orange_2bandit_a2.png","70","70","test","1","165","165","8","",""
"null","351546","pSARL_v2","pSARL_v2flraxqo0","60b8242021561f7827855c02","freq_resp","img/orange_2bandit_a.png","70","70","test","","","","8","",""
"null","351705","pSARL_v2","pSARL_v2flraxqo0","60b8242021561f7827855c02","fixation","img/fixation.png","null","","test","","","","","",""
"373.59999990463257","352083","pSARL_v2","pSARL_v2flraxqo0","60b8242021561f7827855c02","freq","img/orange_2bandit_a2.png","70","70","test","1","166","166","8","",""
"null","352520","pSARL_v2","pSARL_v2flraxqo0","60b8242021561f7827855c02","freq_resp","img/orange_2bandit_a.png","70","70","test","","","","8","",""
"null","352678","pSARL_v2","pSARL_v2flraxqo0","60b8242021561f7827855c02","fixation","img/fixation.png","null","","test","","","","","",""
"351.40000009536743","353034","pSARL_v2","pSARL_v2flraxqo0","60b8242021561f7827855c02","freq","img/orange_2bandit_a2.png","70","70","test","1","167","167","8","",""
"null","353498","pSARL_v2","pSARL_v2flraxqo0","60b8242021561f7827855c02","freq_resp","img/orange_2bandit_a.png","70","70","test","","","","8","",""
"null","353654","pSARL_v2","pSARL_v2flraxqo0","60b8242021561f7827855c02","fixation","img/fixation.png","null","","test","","","","","",""
"382.80000019073486","354041","pSARL_v2","pSARL_v2flraxqo0","60b8242021561f7827855c02","freq","img/orange_2bandit_a2.png","70","70","test","1","168","168","8","",""
"null","354466","pSARL_v2","pSARL_v2flraxqo0","60b8242021561f7827855c02","freq_resp","img/orange_2bandit_a.png","70","70","test","","","","8","",""
"null","354623","pSARL_v2","pSARL_v2flraxqo0","60b8242021561f7827855c02","fixation","img/fixation.png","null","","test","","","","","",""
"350.40000009536743","354978","pSARL_v2","pSARL_v2flraxqo0","60b8242021561f7827855c02","freq","img/orange_2bandit_a2.png","70","70","test","1","169","169","8","",""
"null","355436","pSARL_v2","pSARL_v2flraxqo0","60b8242021561f7827855c02","freq_resp","img/orange_2bandit_a.png","70","70","test","","","","8","",""
"null","355594","pSARL_v2","pSARL_v2flraxqo0","60b8242021561f7827855c02","fixation","img/fixation.png","null","","test","","","","","",""
"387.7000000476837","355987","pSARL_v2","pSARL_v2flraxqo0","60b8242021561f7827855c02","freq","img/orange_2bandit_a2.png","70","70","test","1","170","170","8","",""
"null","356405","pSARL_v2","pSARL_v2flraxqo0","60b8242021561f7827855c02","freq_resp","img/orange_2bandit_a.png","70","70","test","","","","8","",""
"null","356563","pSARL_v2","pSARL_v2flraxqo0","60b8242021561f7827855c02","fixation","img/fixation.png","null","","test","","","","","",""
"354.80000019073486","356922","pSARL_v2","pSARL_v2flraxqo0","60b8242021561f7827855c02","freq","img/orange_2bandit_a2.png","70","70","test","1","171","171","8","",""
"null","357384","pSARL_v2","pSARL_v2flraxqo0","60b8242021561f7827855c02","freq_resp","img/orange_2bandit_a.png","70","70","test","","","","8","",""
"null","357540","pSARL_v2","pSARL_v2flraxqo0","60b8242021561f7827855c02","fixation","img/fixation.png","null","","test","","","","","",""
"370.59999990463257","357915","pSARL_v2","pSARL_v2flraxqo0","60b8242021561f7827855c02","freq","img/orange_2bandit_a2.png","70","70","test","1","172","172","8","",""
"null","358359","pSARL_v2","pSARL_v2flraxqo0","60b8242021561f7827855c02","freq_resp","img/orange_2bandit_a.png","70","70","test","","","","8","",""
"null","358519","pSARL_v2","pSARL_v2flraxqo0","60b8242021561f7827855c02","fixation","img/fixation.png","null","","test","","","","","",""
"447","358970","pSARL_v2","pSARL_v2flraxqo0","60b8242021561f7827855c02","infreq","img/green_2bandit_a2.png","68","68","test","1","173","173","8","",""
"null","359335","pSARL_v2","pSARL_v2flraxqo0","60b8242021561f7827855c02","infreq_resp","img/green_2bandit_a.png","68","68","test","","","","8","",""
"null","359492","pSARL_v2","pSARL_v2flraxqo0","60b8242021561f7827855c02","fixation","img/fixation.png","null","","test","","","","","",""
"289.7000000476837","359787","pSARL_v2","pSARL_v2flraxqo0","60b8242021561f7827855c02","freq","img/orange_2bandit_a2.png","70","70","test","1","174","174","8","",""
"null","360309","pSARL_v2","pSARL_v2flraxqo0","60b8242021561f7827855c02","freq_resp","img/orange_2bandit_a.png","70","70","test","","","","8","",""
"null","360470","pSARL_v2","pSARL_v2flraxqo0","60b8242021561f7827855c02","fixation","img/fixation.png","null","","test","","","","","",""
"464.19999980926514","360939","pSARL_v2","pSARL_v2flraxqo0","60b8242021561f7827855c02","infreq","img/green_2bandit_a2.png","68","68","test","1","175","175","8","",""
"null","361289","pSARL_v2","pSARL_v2flraxqo0","60b8242021561f7827855c02","infreq_resp","img/green_2bandit_a.png","68","68","test","","","","8","",""
"null","361446","pSARL_v2","pSARL_v2flraxqo0","60b8242021561f7827855c02","fixation","img/fixation.png","null","","test","","","","","",""
"360.09999990463257","361811","pSARL_v2","pSARL_v2flraxqo0","60b8242021561f7827855c02","freq","img/orange_2bandit_a2.png","70","70","test","1","176","176","8","",""
"null","362259","pSARL_v2","pSARL_v2flraxqo0","60b8242021561f7827855c02","freq_resp","img/orange_2bandit_a.png","70","70","test","","","","8","",""
"null","362416","pSARL_v2","pSARL_v2flraxqo0","60b8242021561f7827855c02","fixation","img/fixation.png","null","","test","","","","","",""
"334.90000009536743","362756","pSARL_v2","pSARL_v2flraxqo0","60b8242021561f7827855c02","freq","img/orange_2bandit_a2.png","70","70","test","1","177","177","8","",""
"null","363226","pSARL_v2","pSARL_v2flraxqo0","60b8242021561f7827855c02","freq_resp","img/orange_2bandit_a.png","70","70","test","","","","8","",""
"null","363383","pSARL_v2","pSARL_v2flraxqo0","60b8242021561f7827855c02","fixation","img/fixation.png","null","","test","","","","","",""
"295","363683","pSARL_v2","pSARL_v2flraxqo0","60b8242021561f7827855c02","freq","img/orange_2bandit_a2.png","70","70","test","1","178","178","8","",""
"null","364192","pSARL_v2","pSARL_v2flraxqo0","60b8242021561f7827855c02","freq_resp","img/orange_2bandit_a.png","70","70","test","","","","8","",""
"null","364349","pSARL_v2","pSARL_v2flraxqo0","60b8242021561f7827855c02","fixation","img/fixation.png","null","","test","","","","","",""
"345.09999990463257","364698","pSARL_v2","pSARL_v2flraxqo0","60b8242021561f7827855c02","freq","img/orange_2bandit_a2.png","70","70","test","1","179","179","8","",""
"null","365163","pSARL_v2","pSARL_v2flraxqo0","60b8242021561f7827855c02","freq_resp","img/orange_2bandit_a.png","70","70","test","","","","8","",""
"null","365319","pSARL_v2","pSARL_v2flraxqo0","60b8242021561f7827855c02","fixation","img/fixation.png","null","","test","","","","","",""
"311.19999980926514","365636","pSARL_v2","pSARL_v2flraxqo0","60b8242021561f7827855c02","freq","img/orange_2bandit_a2.png","70","70","test","1","180","180","8","",""
"null","366129","pSARL_v2","pSARL_v2flraxqo0","60b8242021561f7827855c02","freq_resp","img/orange_2bandit_a.png","70","70","test","","","","8","",""
"null","366288","pSARL_v2","pSARL_v2flraxqo0","60b8242021561f7827855c02","fixation","img/fixation.png","null","","test","","","","","",""
"285.89999985694885","366579","pSARL_v2","pSARL_v2flraxqo0","60b8242021561f7827855c02","freq","img/orange_2bandit_a2.png","70","70","test","1","181","181","8","",""
"null","367103","pSARL_v2","pSARL_v2flraxqo0","60b8242021561f7827855c02","freq_resp","img/orange_2bandit_a.png","70","70","test","","","","8","",""
"null","367260","pSARL_v2","pSARL_v2flraxqo0","60b8242021561f7827855c02","fixation","img/fixation.png","null","","test","","","","","",""
"306.60000014305115","367571","pSARL_v2","pSARL_v2flraxqo0","60b8242021561f7827855c02","freq","img/orange_2bandit_a2.png","70","70","test","1","182","182","8","",""
"null","368080","pSARL_v2","pSARL_v2flraxqo0","60b8242021561f7827855c02","freq_resp","img/orange_2bandit_a.png","70","70","test","","","","8","",""
"null","368238","pSARL_v2","pSARL_v2flraxqo0","60b8242021561f7827855c02","fixation","img/fixation.png","null","","test","","","","","",""
"344.2000000476837","368586","pSARL_v2","pSARL_v2flraxqo0","60b8242021561f7827855c02","freq","img/orange_2bandit_a2.png","70","70","test","1","183","183","8","",""
"null","369056","pSARL_v2","pSARL_v2flraxqo0","60b8242021561f7827855c02","freq_resp","img/orange_2bandit_a.png","70","70","test","","","","8","",""
"null","369212","pSARL_v2","pSARL_v2flraxqo0","60b8242021561f7827855c02","fixation","img/fixation.png","null","","test","","","","","",""
"338.80000019073486","369556","pSARL_v2","pSARL_v2flraxqo0","60b8242021561f7827855c02","freq","img/orange_2bandit_a2.png","70","70","test","1","184","184","8","",""
"null","370035","pSARL_v2","pSARL_v2flraxqo0","60b8242021561f7827855c02","freq_resp","img/orange_2bandit_a.png","70","70","test","","","","8","",""
"null","370194","pSARL_v2","pSARL_v2flraxqo0","60b8242021561f7827855c02","fixation","img/fixation.png","null","","test","","","","","",""
"461.5","370660","pSARL_v2","pSARL_v2flraxqo0","60b8242021561f7827855c02","infreq","img/green_2bandit_a2.png","68","68","test","1","185","185","8","",""
"null","371008","pSARL_v2","pSARL_v2flraxqo0","60b8242021561f7827855c02","infreq_resp","img/green_2bandit_a.png","68","68","test","","","","8","",""
"null","371166","pSARL_v2","pSARL_v2flraxqo0","60b8242021561f7827855c02","fixation","img/fixation.png","null","","test","","","","","",""
"496.7999999523163","371667","pSARL_v2","pSARL_v2flraxqo0","60b8242021561f7827855c02","freq","img/orange_2bandit_a2.png","70","70","test","1","186","186","8","",""
"null","371980","pSARL_v2","pSARL_v2flraxqo0","60b8242021561f7827855c02","freq_resp","img/orange_2bandit_a.png","70","70","test","","","","8","",""
"null","372137","pSARL_v2","pSARL_v2flraxqo0","60b8242021561f7827855c02","fixation","img/fixation.png","null","","test","","","","","",""
"366.40000009536743","372508","pSARL_v2","pSARL_v2flraxqo0","60b8242021561f7827855c02","freq","img/orange_2bandit_a2.png","70","70","test","1","187","187","8","",""
"null","372958","pSARL_v2","pSARL_v2flraxqo0","60b8242021561f7827855c02","freq_resp","img/orange_2bandit_a.png","70","70","test","","","","8","",""
"null","373115","pSARL_v2","pSARL_v2flraxqo0","60b8242021561f7827855c02","fixation","img/fixation.png","null","","test","","","","","",""
"453.2999999523163","373573","pSARL_v2","pSARL_v2flraxqo0","60b8242021561f7827855c02","freq","img/orange_2bandit_a2.png","70","70","test","1","188","188","8","",""
"null","373927","pSARL_v2","pSARL_v2flraxqo0","60b8242021561f7827855c02","freq_resp","img/orange_2bandit_a.png","70","70","test","","","","8","",""
"null","374083","pSARL_v2","pSARL_v2flraxqo0","60b8242021561f7827855c02","fixation","img/fixation.png","null","","test","","","","","",""
"516.8999998569489","374604","pSARL_v2","pSARL_v2flraxqo0","60b8242021561f7827855c02","reward","img/slot.png","74","","test","","","","","",""
"null","375374","pSARL_v2","pSARL_v2flraxqo0","60b8242021561f7827855c02","points","<div class=""verylowPoints""> -4 </div>","null","na","test","","","","8","-4","7"
"449.40000009536743","375829","pSARL_v2","pSARL_v2flraxqo0","60b8242021561f7827855c02","freq","img/orange_2bandit_a2.png","70","70","test","1","189","189","9","",""
"null","376192","pSARL_v2","pSARL_v2flraxqo0","60b8242021561f7827855c02","freq_resp","img/orange_2bandit_a.png","70","70","test","","","","9","",""
"null","376349","pSARL_v2","pSARL_v2flraxqo0","60b8242021561f7827855c02","fixation","img/fixation.png","null","","test","","","","","",""
"290","376643","pSARL_v2","pSARL_v2flraxqo0","60b8242021561f7827855c02","freq","img/orange_2bandit_a2.png","70","70","test","1","190","190","9","",""
"null","377165","pSARL_v2","pSARL_v2flraxqo0","60b8242021561f7827855c02","freq_resp","img/orange_2bandit_a.png","70","70","test","","","","9","",""
"null","377325","pSARL_v2","pSARL_v2flraxqo0","60b8242021561f7827855c02","fixation","img/fixation.png","null","","test","","","","","",""
"314.90000009536743","377645","pSARL_v2","pSARL_v2flraxqo0","60b8242021561f7827855c02","freq","img/orange_2bandit_a2.png","70","70","test","1","191","191","9","",""
"null","378146","pSARL_v2","pSARL_v2flraxqo0","60b8242021561f7827855c02","freq_resp","img/orange_2bandit_a.png","70","70","test","","","","9","",""
"null","378307","pSARL_v2","pSARL_v2flraxqo0","60b8242021561f7827855c02","fixation","img/fixation.png","null","","test","","","","","",""
"285.2999999523163","378596","pSARL_v2","pSARL_v2flraxqo0","60b8242021561f7827855c02","freq","img/orange_2bandit_a2.png","70","70","test","1","192","192","9","",""
"null","379124","pSARL_v2","pSARL_v2flraxqo0","60b8242021561f7827855c02","freq_resp","img/orange_2bandit_a.png","70","70","test","","","","9","",""
"null","379282","pSARL_v2","pSARL_v2flraxqo0","60b8242021561f7827855c02","fixation","img/fixation.png","null","","test","","","","","",""
"278.10000014305115","379563","pSARL_v2","pSARL_v2flraxqo0","60b8242021561f7827855c02","freq","img/orange_2bandit_a2.png","70","70","test","1","193","193","9","",""
"null","380092","pSARL_v2","pSARL_v2flraxqo0","60b8242021561f7827855c02","freq_resp","img/orange_2bandit_a.png","70","70","test","","","","9","",""
"null","380251","pSARL_v2","pSARL_v2flraxqo0","60b8242021561f7827855c02","fixation","img/fixation.png","null","","test","","","","","",""
"269.2000000476837","380525","pSARL_v2","pSARL_v2flraxqo0","60b8242021561f7827855c02","freq","img/orange_2bandit_a2.png","70","70","test","1","194","194","9","",""
"null","381067","pSARL_v2","pSARL_v2flraxqo0","60b8242021561f7827855c02","freq_resp","img/orange_2bandit_a.png","70","70","test","","","","9","",""
"null","381225","pSARL_v2","pSARL_v2flraxqo0","60b8242021561f7827855c02","fixation","img/fixation.png","null","","test","","","","","",""
"391.19999980926514","381621","pSARL_v2","pSARL_v2flraxqo0","60b8242021561f7827855c02","infreq","img/green_2bandit_a2.png","68","68","test","1","195","195","9","",""
"null","382039","pSARL_v2","pSARL_v2flraxqo0","60b8242021561f7827855c02","infreq_resp","img/green_2bandit_a.png","68","68","test","","","","9","",""
"null","382196","pSARL_v2","pSARL_v2flraxqo0","60b8242021561f7827855c02","fixation","img/fixation.png","null","","test","","","","","",""
"380.7999999523163","382581","pSARL_v2","pSARL_v2flraxqo0","60b8242021561f7827855c02","freq","img/orange_2bandit_a2.png","70","70","test","1","196","196","9","",""
"null","383013","pSARL_v2","pSARL_v2flraxqo0","60b8242021561f7827855c02","freq_resp","img/orange_2bandit_a.png","70","70","test","","","","9","",""
"null","383168","pSARL_v2","pSARL_v2flraxqo0","60b8242021561f7827855c02","fixation","img/fixation.png","null","","test","","","","","",""
"335.7999999523163","383509","pSARL_v2","pSARL_v2flraxqo0","60b8242021561f7827855c02","freq","img/orange_2bandit_a2.png","70","70","test","1","197","197","9","",""
"null","383984","pSARL_v2","pSARL_v2flraxqo0","60b8242021561f7827855c02","freq_resp","img/orange_2bandit_a.png","70","70","test","","","","9","",""
"null","384140","pSARL_v2","pSARL_v2flraxqo0","60b8242021561f7827855c02","fixation","img/fixation.png","null","","test","","","","","",""
"286.09999990463257","384430","pSARL_v2","pSARL_v2flraxqo0","60b8242021561f7827855c02","freq","img/orange_2bandit_a2.png","70","70","test","1","198","198","9","",""
"null","384950","pSARL_v2","pSARL_v2flraxqo0","60b8242021561f7827855c02","freq_resp","img/orange_2bandit_a.png","70","70","test","","","","9","",""
"null","385105","pSARL_v2","pSARL_v2flraxqo0","60b8242021561f7827855c02","fixation","img/fixation.png","null","","test","","","","","",""
"279.5","385390","pSARL_v2","pSARL_v2flraxqo0","60b8242021561f7827855c02","freq","img/orange_2bandit_a2.png","70","70","test","1","199","199","9","",""
"null","385919","pSARL_v2","pSARL_v2flraxqo0","60b8242021561f7827855c02","freq_resp","img/orange_2bandit_a.png","70","70","test","","","","9","",""
"null","386075","pSARL_v2","pSARL_v2flraxqo0","60b8242021561f7827855c02","fixation","img/fixation.png","null","","test","","","","","",""
"309.7000000476837","386390","pSARL_v2","pSARL_v2flraxqo0","60b8242021561f7827855c02","freq","img/orange_2bandit_a2.png","70","70","test","1","200","200","9","",""
"null","386896","pSARL_v2","pSARL_v2flraxqo0","60b8242021561f7827855c02","freq_resp","img/orange_2bandit_a.png","70","70","test","","","","9","",""
"null","387052","pSARL_v2","pSARL_v2flraxqo0","60b8242021561f7827855c02","fixation","img/fixation.png","null","","test","","","","","",""
"325.2000000476837","387382","pSARL_v2","pSARL_v2flraxqo0","60b8242021561f7827855c02","freq","img/orange_2bandit_a2.png","70","70","test","1","201","201","9","",""
"null","387872","pSARL_v2","pSARL_v2flraxqo0","60b8242021561f7827855c02","freq_resp","img/orange_2bandit_a.png","70","70","test","","","","9","",""
"null","388031","pSARL_v2","pSARL_v2flraxqo0","60b8242021561f7827855c02","fixation","img/fixation.png","null","","test","","","","","",""
"313.5","388350","pSARL_v2","pSARL_v2flraxqo0","60b8242021561f7827855c02","freq","img/orange_2bandit_a2.png","70","70","test","1","202","202","9","",""
"null","388846","pSARL_v2","pSARL_v2flraxqo0","60b8242021561f7827855c02","freq_resp","img/orange_2bandit_a.png","70","70","test","","","","9","",""
"null","389002","pSARL_v2","pSARL_v2flraxqo0","60b8242021561f7827855c02","fixation","img/fixation.png","null","","test","","","","","",""
"391.2999999523163","389398","pSARL_v2","pSARL_v2flraxqo0","60b8242021561f7827855c02","infreq","img/green_2bandit_a2.png","68","68","test","1","203","203","9","",""
"null","389816","pSARL_v2","pSARL_v2flraxqo0","60b8242021561f7827855c02","infreq_resp","img/green_2bandit_a.png","68","68","test","","","","9","",""
"null","389984","pSARL_v2","pSARL_v2flraxqo0","60b8242021561f7827855c02","fixation","img/fixation.png","null","","test","","","","","",""
"345.2999999523163","390334","pSARL_v2","pSARL_v2flraxqo0","60b8242021561f7827855c02","freq","img/orange_2bandit_a2.png","70","70","test","1","204","204","9","",""
"null","390808","pSARL_v2","pSARL_v2flraxqo0","60b8242021561f7827855c02","freq_resp","img/orange_2bandit_a.png","70","70","test","","","","9","",""
"null","390966","pSARL_v2","pSARL_v2flraxqo0","60b8242021561f7827855c02","fixation","img/fixation.png","null","","test","","","","","",""
"323.09999990463257","391293","pSARL_v2","pSARL_v2flraxqo0","60b8242021561f7827855c02","freq","img/orange_2bandit_a2.png","70","70","test","1","205","205","9","",""
"null","391775","pSARL_v2","pSARL_v2flraxqo0","60b8242021561f7827855c02","freq_resp","img/orange_2bandit_a.png","70","70","test","","","","9","",""
"null","391930","pSARL_v2","pSARL_v2flraxqo0","60b8242021561f7827855c02","fixation","img/fixation.png","null","","test","","","","","",""
