"rt","time_elapsed","expId","subject","prolificID","trialType","stimulus","key_press","corrresp","phase","corr","trialNum","attentionRunNum","blockNum","points","rlNum"
"173705.19999999925","173707","pSARL_v2","pSARL_v2wt5lnkze","62728f0c68b9ecf571a2dbd4","","","","","","","","","","",""
"","176434","pSARL_v2","pSARL_v2wt5lnkze","62728f0c68b9ecf571a2dbd4","fullscreen","","","","","","","","","",""
"78956.69999999925","255395","pSARL_v2","pSARL_v2wt5lnkze","62728f0c68b9ecf571a2dbd4","","","","","","","","","","",""
"null","256213","pSARL_v2","pSARL_v2wt5lnkze","62728f0c68b9ecf571a2dbd4","freqPrac","img/green_2bandit_a2.png","null","70","prac","0","","","","",""
"null","257219","pSARL_v2","pSARL_v2wt5lnkze","62728f0c68b9ecf571a2dbd4","feedback","img/tooSlow.png","null","na","prac","","","","","",""
"null","257376","pSARL_v2","pSARL_v2wt5lnkze","62728f0c68b9ecf571a2dbd4","fixation","img/fixation.png","null","","prac","","","","","",""
"334.40000000037253","257713","pSARL_v2","pSARL_v2wt5lnkze","62728f0c68b9ecf571a2dbd4","infreqPrac","img/orange_2bandit_a2.png","68","68","prac","1","","","","",""
"334.40000000037253","258198","pSARL_v2","pSARL_v2wt5lnkze","62728f0c68b9ecf571a2dbd4","infreqPrac_resp","img/orange_2bandit_a.png","68","68","prac","","","","","",""
"null","258354","pSARL_v2","pSARL_v2wt5lnkze","62728f0c68b9ecf571a2dbd4","fixation","img/fixation.png","null","","prac","","","","","",""
"372.59999999962747","258730","pSARL_v2","pSARL_v2wt5lnkze","62728f0c68b9ecf571a2dbd4","freqPrac","img/green_2bandit_a2.png","70","70","prac","1","","","","",""
"372.59999999962747","259162","pSARL_v2","pSARL_v2wt5lnkze","62728f0c68b9ecf571a2dbd4","freqPrac_resp","img/green_2bandit_a.png","70","70","prac","","","","","",""
"null","259317","pSARL_v2","pSARL_v2wt5lnkze","62728f0c68b9ecf571a2dbd4","fixation","img/fixation.png","null","","prac","","","","","",""
"336.80000000074506","259658","pSARL_v2","pSARL_v2wt5lnkze","62728f0c68b9ecf571a2dbd4","infreqPrac","img/orange_2bandit_a2.png","68","68","prac","1","","","","",""
"336.80000000074506","260138","pSARL_v2","pSARL_v2wt5lnkze","62728f0c68b9ecf571a2dbd4","infreqPrac_resp","img/orange_2bandit_a.png","68","68","prac","","","","","",""
"null","260292","pSARL_v2","pSARL_v2wt5lnkze","62728f0c68b9ecf571a2dbd4","fixation","img/fixation.png","null","","prac","","","","","",""
"333.2999999988824","260629","pSARL_v2","pSARL_v2wt5lnkze","62728f0c68b9ecf571a2dbd4","infreqPrac","img/orange_2bandit_a2.png","68","68","prac","1","","","","",""
"333.2999999988824","261101","pSARL_v2","pSARL_v2wt5lnkze","62728f0c68b9ecf571a2dbd4","infreqPrac_resp","img/orange_2bandit_a.png","68","68","prac","","","","","",""
"null","261258","pSARL_v2","pSARL_v2wt5lnkze","62728f0c68b9ecf571a2dbd4","fixation","img/fixation.png","null","","prac","","","","","",""
"293.40000000037253","261555","pSARL_v2","pSARL_v2wt5lnkze","62728f0c68b9ecf571a2dbd4","infreqPrac","img/orange_2bandit_a2.png","68","68","prac","1","","","","",""
"293.40000000037253","262065","pSARL_v2","pSARL_v2wt5lnkze","62728f0c68b9ecf571a2dbd4","infreqPrac_resp","img/orange_2bandit_a.png","68","68","prac","","","","","",""
"null","262219","pSARL_v2","pSARL_v2wt5lnkze","62728f0c68b9ecf571a2dbd4","fixation","img/fixation.png","null","","prac","","","","","",""
"303.1000000014901","262526","pSARL_v2","pSARL_v2wt5lnkze","62728f0c68b9ecf571a2dbd4","freqPrac","img/green_2bandit_a2.png","68","70","prac","0","","","","",""
"303.1000000014901","263038","pSARL_v2","pSARL_v2wt5lnkze","62728f0c68b9ecf571a2dbd4","freqPrac_resp","img/green_2bandit_a.png","68","70","prac","","","","","",""
"null","264042","pSARL_v2","pSARL_v2wt5lnkze","62728f0c68b9ecf571a2dbd4","feedback","img/wrongKey.png","null","na","prac","","","","","",""
"null","264197","pSARL_v2","pSARL_v2wt5lnkze","62728f0c68b9ecf571a2dbd4","fixation","img/fixation.png","null","","prac","","","","","",""
"432.59999999962747","264634","pSARL_v2","pSARL_v2wt5lnkze","62728f0c68b9ecf571a2dbd4","infreqPrac","img/orange_2bandit_a2.png","68","68","prac","1","","","","",""
"432.59999999962747","265015","pSARL_v2","pSARL_v2wt5lnkze","62728f0c68b9ecf571a2dbd4","infreqPrac_resp","img/orange_2bandit_a.png","68","68","prac","","","","","",""
"null","265170","pSARL_v2","pSARL_v2wt5lnkze","62728f0c68b9ecf571a2dbd4","fixation","img/fixation.png","null","","prac","","","","","",""
"301.69999999925494","265476","pSARL_v2","pSARL_v2wt5lnkze","62728f0c68b9ecf571a2dbd4","freqPrac","img/green_2bandit_a2.png","70","70","prac","1","","","","",""
"301.69999999925494","265982","pSARL_v2","pSARL_v2wt5lnkze","62728f0c68b9ecf571a2dbd4","freqPrac_resp","img/green_2bandit_a.png","70","70","prac","","","","","",""
"null","266137","pSARL_v2","pSARL_v2wt5lnkze","62728f0c68b9ecf571a2dbd4","fixation","img/fixation.png","null","","prac","","","","","",""
"366.90000000037253","266507","pSARL_v2","pSARL_v2wt5lnkze","62728f0c68b9ecf571a2dbd4","freqPrac","img/green_2bandit_a2.png","70","70","prac","1","","","","",""
"366.90000000037253","266957","pSARL_v2","pSARL_v2wt5lnkze","62728f0c68b9ecf571a2dbd4","freqPrac_resp","img/green_2bandit_a.png","70","70","prac","","","","","",""
"null","267111","pSARL_v2","pSARL_v2wt5lnkze","62728f0c68b9ecf571a2dbd4","fixation","img/fixation.png","null","","prac","","","","","",""
"28434.5","295548","pSARL_v2","pSARL_v2wt5lnkze","62728f0c68b9ecf571a2dbd4","","","","","prac","","","","","",""
"1151.7000000011176","296703","pSARL_v2","pSARL_v2wt5lnkze","62728f0c68b9ecf571a2dbd4","rewardPractice","img/slot.png","74","","prac","","","","","",""
"null","297468","pSARL_v2","pSARL_v2wt5lnkze","62728f0c68b9ecf571a2dbd4","feedback","<div class=""veryhighPoints""> +15 </div>","null","na","prac","","","","","",""
"null","297622","pSARL_v2","pSARL_v2wt5lnkze","62728f0c68b9ecf571a2dbd4","fixation","img/fixation.png","null","","prac","","","","","",""
"24116.900000000373","321742","pSARL_v2","pSARL_v2wt5lnkze","62728f0c68b9ecf571a2dbd4","","","","","prac","","","","","",""
"748.1999999992549","322494","pSARL_v2","pSARL_v2wt5lnkze","62728f0c68b9ecf571a2dbd4","freq","img/green_2bandit_a2.png","70","70","test","1","1","1","1","",""
"null","322561","pSARL_v2","pSARL_v2wt5lnkze","62728f0c68b9ecf571a2dbd4","freq_resp","img/green_2bandit_a.png","70","70","test","","","","1","",""
"null","322716","pSARL_v2","pSARL_v2wt5lnkze","62728f0c68b9ecf571a2dbd4","fixation","img/fixation.png","null","","test","","","","","",""
"425.2000000011176","323145","pSARL_v2","pSARL_v2wt5lnkze","62728f0c68b9ecf571a2dbd4","infreq","img/orange_2bandit_a2.png","68","68","test","1","2","2","1","",""
"null","323523","pSARL_v2","pSARL_v2wt5lnkze","62728f0c68b9ecf571a2dbd4","infreq_resp","img/orange_2bandit_a.png","68","68","test","","","","1","",""
"null","323679","pSARL_v2","pSARL_v2wt5lnkze","62728f0c68b9ecf571a2dbd4","fixation","img/fixation.png","null","","test","","","","","",""
"271.2000000011176","323954","pSARL_v2","pSARL_v2wt5lnkze","62728f0c68b9ecf571a2dbd4","freq","img/green_2bandit_a2.png","70","70","test","1","3","3","1","",""
"null","324486","pSARL_v2","pSARL_v2wt5lnkze","62728f0c68b9ecf571a2dbd4","freq_resp","img/green_2bandit_a.png","70","70","test","","","","1","",""
"null","324642","pSARL_v2","pSARL_v2wt5lnkze","62728f0c68b9ecf571a2dbd4","fixation","img/fixation.png","null","","test","","","","","",""
"294.5","324940","pSARL_v2","pSARL_v2wt5lnkze","62728f0c68b9ecf571a2dbd4","freq","img/green_2bandit_a2.png","70","70","test","1","4","4","1","",""
"null","325462","pSARL_v2","pSARL_v2wt5lnkze","62728f0c68b9ecf571a2dbd4","freq_resp","img/green_2bandit_a.png","70","70","test","","","","1","",""
"null","325617","pSARL_v2","pSARL_v2wt5lnkze","62728f0c68b9ecf571a2dbd4","fixation","img/fixation.png","null","","test","","","","","",""
"260","325880","pSARL_v2","pSARL_v2wt5lnkze","62728f0c68b9ecf571a2dbd4","freq","img/green_2bandit_a2.png","70","70","test","1","5","5","1","",""
"null","326438","pSARL_v2","pSARL_v2wt5lnkze","62728f0c68b9ecf571a2dbd4","freq_resp","img/green_2bandit_a.png","70","70","test","","","","1","",""
"null","326593","pSARL_v2","pSARL_v2wt5lnkze","62728f0c68b9ecf571a2dbd4","fixation","img/fixation.png","null","","test","","","","","",""
"242.19999999925494","326839","pSARL_v2","pSARL_v2wt5lnkze","62728f0c68b9ecf571a2dbd4","freq","img/green_2bandit_a2.png","70","70","test","1","6","6","1","",""
"null","327401","pSARL_v2","pSARL_v2wt5lnkze","62728f0c68b9ecf571a2dbd4","freq_resp","img/green_2bandit_a.png","70","70","test","","","","1","",""
"null","327556","pSARL_v2","pSARL_v2wt5lnkze","62728f0c68b9ecf571a2dbd4","fixation","img/fixation.png","null","","test","","","","","",""
"227.59999999962747","327787","pSARL_v2","pSARL_v2wt5lnkze","62728f0c68b9ecf571a2dbd4","freq","img/green_2bandit_a2.png","70","70","test","1","7","7","1","",""
"null","328376","pSARL_v2","pSARL_v2wt5lnkze","62728f0c68b9ecf571a2dbd4","freq_resp","img/green_2bandit_a.png","70","70","test","","","","1","",""
"null","328531","pSARL_v2","pSARL_v2wt5lnkze","62728f0c68b9ecf571a2dbd4","fixation","img/fixation.png","null","","test","","","","","",""
"236.5","328771","pSARL_v2","pSARL_v2wt5lnkze","62728f0c68b9ecf571a2dbd4","freq","img/green_2bandit_a2.png","70","70","test","1","8","8","1","",""
"null","329351","pSARL_v2","pSARL_v2wt5lnkze","62728f0c68b9ecf571a2dbd4","freq_resp","img/green_2bandit_a.png","70","70","test","","","","1","",""
"null","329505","pSARL_v2","pSARL_v2wt5lnkze","62728f0c68b9ecf571a2dbd4","fixation","img/fixation.png","null","","test","","","","","",""
"267.80000000074506","329777","pSARL_v2","pSARL_v2wt5lnkze","62728f0c68b9ecf571a2dbd4","freq","img/green_2bandit_a2.png","70","70","test","1","9","9","1","",""
"null","330325","pSARL_v2","pSARL_v2wt5lnkze","62728f0c68b9ecf571a2dbd4","freq_resp","img/green_2bandit_a.png","70","70","test","","","","1","",""
"null","330480","pSARL_v2","pSARL_v2wt5lnkze","62728f0c68b9ecf571a2dbd4","fixation","img/fixation.png","null","","test","","","","","",""
"225.5","330709","pSARL_v2","pSARL_v2wt5lnkze","62728f0c68b9ecf571a2dbd4","freq","img/green_2bandit_a2.png","70","70","test","1","10","10","1","",""
"null","331300","pSARL_v2","pSARL_v2wt5lnkze","62728f0c68b9ecf571a2dbd4","freq_resp","img/green_2bandit_a.png","70","70","test","","","","1","",""
"null","331456","pSARL_v2","pSARL_v2wt5lnkze","62728f0c68b9ecf571a2dbd4","fixation","img/fixation.png","null","","test","","","","","",""
"248.80000000074506","331708","pSARL_v2","pSARL_v2wt5lnkze","62728f0c68b9ecf571a2dbd4","infreq","img/orange_2bandit_a2.png","70","68","test","0","11","11","1","",""
"null","332275","pSARL_v2","pSARL_v2wt5lnkze","62728f0c68b9ecf571a2dbd4","infreq_resp","img/orange_2bandit_a.png","70","68","test","","","","1","",""
"null","332429","pSARL_v2","pSARL_v2wt5lnkze","62728f0c68b9ecf571a2dbd4","fixation","img/fixation.png","null","","test","","","","","",""
"454.09999999962747","332887","pSARL_v2","pSARL_v2wt5lnkze","62728f0c68b9ecf571a2dbd4","freq","img/green_2bandit_a2.png","70","70","test","1","12","12","1","",""
"null","333249","pSARL_v2","pSARL_v2wt5lnkze","62728f0c68b9ecf571a2dbd4","freq_resp","img/green_2bandit_a.png","70","70","test","","","","1","",""
"null","333403","pSARL_v2","pSARL_v2wt5lnkze","62728f0c68b9ecf571a2dbd4","fixation","img/fixation.png","null","","test","","","","","",""
"323.09999999962747","333730","pSARL_v2","pSARL_v2wt5lnkze","62728f0c68b9ecf571a2dbd4","freq","img/green_2bandit_a2.png","70","70","test","1","13","13","1","",""
"null","334213","pSARL_v2","pSARL_v2wt5lnkze","62728f0c68b9ecf571a2dbd4","freq_resp","img/green_2bandit_a.png","70","70","test","","","","1","",""
"null","334367","pSARL_v2","pSARL_v2wt5lnkze","62728f0c68b9ecf571a2dbd4","fixation","img/fixation.png","null","","test","","","","","",""
"289.5","334660","pSARL_v2","pSARL_v2wt5lnkze","62728f0c68b9ecf571a2dbd4","freq","img/green_2bandit_a2.png","70","70","test","1","14","14","1","",""
"null","335185","pSARL_v2","pSARL_v2wt5lnkze","62728f0c68b9ecf571a2dbd4","freq_resp","img/green_2bandit_a.png","70","70","test","","","","1","",""
"null","335353","pSARL_v2","pSARL_v2wt5lnkze","62728f0c68b9ecf571a2dbd4","fixation","img/fixation.png","null","","test","","","","","",""
"220.80000000074506","335577","pSARL_v2","pSARL_v2wt5lnkze","62728f0c68b9ecf571a2dbd4","freq","img/green_2bandit_a2.png","70","70","test","1","15","15","1","",""
"null","336173","pSARL_v2","pSARL_v2wt5lnkze","62728f0c68b9ecf571a2dbd4","freq_resp","img/green_2bandit_a.png","70","70","test","","","","1","",""
"null","336341","pSARL_v2","pSARL_v2wt5lnkze","62728f0c68b9ecf571a2dbd4","fixation","img/fixation.png","null","","test","","","","","",""
"285.40000000037253","336630","pSARL_v2","pSARL_v2wt5lnkze","62728f0c68b9ecf571a2dbd4","freq","img/green_2bandit_a2.png","70","70","test","1","16","16","1","",""
"null","337162","pSARL_v2","pSARL_v2wt5lnkze","62728f0c68b9ecf571a2dbd4","freq_resp","img/green_2bandit_a.png","70","70","test","","","","1","",""
"null","337317","pSARL_v2","pSARL_v2wt5lnkze","62728f0c68b9ecf571a2dbd4","fixation","img/fixation.png","null","","test","","","","","",""
"221.80000000074506","337542","pSARL_v2","pSARL_v2wt5lnkze","62728f0c68b9ecf571a2dbd4","freq","img/green_2bandit_a2.png","70","70","test","1","17","17","1","",""
"null","338136","pSARL_v2","pSARL_v2wt5lnkze","62728f0c68b9ecf571a2dbd4","freq_resp","img/green_2bandit_a.png","70","70","test","","","","1","",""
"null","338290","pSARL_v2","pSARL_v2wt5lnkze","62728f0c68b9ecf571a2dbd4","fixation","img/fixation.png","null","","test","","","","","",""
"209.09999999962747","338503","pSARL_v2","pSARL_v2wt5lnkze","62728f0c68b9ecf571a2dbd4","freq","img/green_2bandit_a2.png","70","70","test","1","18","18","1","",""
"null","339098","pSARL_v2","pSARL_v2wt5lnkze","62728f0c68b9ecf571a2dbd4","freq_resp","img/green_2bandit_a.png","70","70","test","","","","1","",""
"null","339254","pSARL_v2","pSARL_v2wt5lnkze","62728f0c68b9ecf571a2dbd4","fixation","img/fixation.png","null","","test","","","","","",""
"242.5","339500","pSARL_v2","pSARL_v2wt5lnkze","62728f0c68b9ecf571a2dbd4","freq","img/green_2bandit_a2.png","70","70","test","1","19","19","1","",""
"null","340062","pSARL_v2","pSARL_v2wt5lnkze","62728f0c68b9ecf571a2dbd4","freq_resp","img/green_2bandit_a.png","70","70","test","","","","1","",""
"null","340218","pSARL_v2","pSARL_v2wt5lnkze","62728f0c68b9ecf571a2dbd4","fixation","img/fixation.png","null","","test","","","","","",""
"224.59999999962747","340446","pSARL_v2","pSARL_v2wt5lnkze","62728f0c68b9ecf571a2dbd4","freq","img/green_2bandit_a2.png","70","70","test","1","20","20","1","",""
"null","341038","pSARL_v2","pSARL_v2wt5lnkze","62728f0c68b9ecf571a2dbd4","freq_resp","img/green_2bandit_a.png","70","70","test","","","","1","",""
"null","341193","pSARL_v2","pSARL_v2wt5lnkze","62728f0c68b9ecf571a2dbd4","fixation","img/fixation.png","null","","test","","","","","",""
"224.2000000011176","341421","pSARL_v2","pSARL_v2wt5lnkze","62728f0c68b9ecf571a2dbd4","freq","img/green_2bandit_a2.png","70","70","test","1","21","21","1","",""
"null","342001","pSARL_v2","pSARL_v2wt5lnkze","62728f0c68b9ecf571a2dbd4","freq_resp","img/green_2bandit_a.png","70","70","test","","","","1","",""
"null","342156","pSARL_v2","pSARL_v2wt5lnkze","62728f0c68b9ecf571a2dbd4","fixation","img/fixation.png","null","","test","","","","","",""
"247.7000000011176","342407","pSARL_v2","pSARL_v2wt5lnkze","62728f0c68b9ecf571a2dbd4","freq","img/green_2bandit_a2.png","70","70","test","1","22","22","1","",""
"null","342962","pSARL_v2","pSARL_v2wt5lnkze","62728f0c68b9ecf571a2dbd4","freq_resp","img/green_2bandit_a.png","70","70","test","","","","1","",""
"null","343118","pSARL_v2","pSARL_v2wt5lnkze","62728f0c68b9ecf571a2dbd4","fixation","img/fixation.png","null","","test","","","","","",""
"270.7000000011176","343392","pSARL_v2","pSARL_v2wt5lnkze","62728f0c68b9ecf571a2dbd4","freq","img/green_2bandit_a2.png","70","70","test","1","23","23","1","",""
"null","343933","pSARL_v2","pSARL_v2wt5lnkze","62728f0c68b9ecf571a2dbd4","freq_resp","img/green_2bandit_a.png","70","70","test","","","","1","",""
"null","344088","pSARL_v2","pSARL_v2wt5lnkze","62728f0c68b9ecf571a2dbd4","fixation","img/fixation.png","null","","test","","","","","",""
"232.7000000011176","344324","pSARL_v2","pSARL_v2wt5lnkze","62728f0c68b9ecf571a2dbd4","freq","img/green_2bandit_a2.png","70","70","test","1","24","24","1","",""
"null","344908","pSARL_v2","pSARL_v2wt5lnkze","62728f0c68b9ecf571a2dbd4","freq_resp","img/green_2bandit_a.png","70","70","test","","","","1","",""
"null","345063","pSARL_v2","pSARL_v2wt5lnkze","62728f0c68b9ecf571a2dbd4","fixation","img/fixation.png","null","","test","","","","","",""
"201","345268","pSARL_v2","pSARL_v2wt5lnkze","62728f0c68b9ecf571a2dbd4","freq","img/green_2bandit_a2.png","70","70","test","1","25","25","1","",""
"null","345872","pSARL_v2","pSARL_v2wt5lnkze","62728f0c68b9ecf571a2dbd4","freq_resp","img/green_2bandit_a.png","70","70","test","","","","1","",""
"null","346026","pSARL_v2","pSARL_v2wt5lnkze","62728f0c68b9ecf571a2dbd4","fixation","img/fixation.png","null","","test","","","","","",""
"215.5","346245","pSARL_v2","pSARL_v2wt5lnkze","62728f0c68b9ecf571a2dbd4","freq","img/green_2bandit_a2.png","70","70","test","1","26","26","1","",""
"null","346846","pSARL_v2","pSARL_v2wt5lnkze","62728f0c68b9ecf571a2dbd4","freq_resp","img/green_2bandit_a.png","70","70","test","","","","1","",""
"null","347001","pSARL_v2","pSARL_v2wt5lnkze","62728f0c68b9ecf571a2dbd4","fixation","img/fixation.png","null","","test","","","","","",""
"703.2999999988824","347708","pSARL_v2","pSARL_v2wt5lnkze","62728f0c68b9ecf571a2dbd4","reward","img/slot.png","74","","test","","","","","",""
"null","348475","pSARL_v2","pSARL_v2wt5lnkze","62728f0c68b9ecf571a2dbd4","points","<div class=""verylowPoints""> -6 </div>","null","na","test","","","","1","-6","0"
"685.2000000011176","349164","pSARL_v2","pSARL_v2wt5lnkze","62728f0c68b9ecf571a2dbd4","freq","img/green_2bandit_a2.png","70","70","test","1","27","27","2","",""
"null","349294","pSARL_v2","pSARL_v2wt5lnkze","62728f0c68b9ecf571a2dbd4","freq_resp","img/green_2bandit_a.png","70","70","test","","","","2","",""
"null","349448","pSARL_v2","pSARL_v2wt5lnkze","62728f0c68b9ecf571a2dbd4","fixation","img/fixation.png","null","","test","","","","","",""
"455.19999999925494","349906","pSARL_v2","pSARL_v2wt5lnkze","62728f0c68b9ecf571a2dbd4","freq","img/green_2bandit_a2.png","70","70","test","1","28","28","2","",""
"null","350254","pSARL_v2","pSARL_v2wt5lnkze","62728f0c68b9ecf571a2dbd4","freq_resp","img/green_2bandit_a.png","70","70","test","","","","2","",""
"null","350409","pSARL_v2","pSARL_v2wt5lnkze","62728f0c68b9ecf571a2dbd4","fixation","img/fixation.png","null","","test","","","","","",""
"433","350845","pSARL_v2","pSARL_v2wt5lnkze","62728f0c68b9ecf571a2dbd4","infreq","img/orange_2bandit_a2.png","68","68","test","1","29","29","2","",""
"null","351217","pSARL_v2","pSARL_v2wt5lnkze","62728f0c68b9ecf571a2dbd4","infreq_resp","img/orange_2bandit_a.png","68","68","test","","","","2","",""
"null","351373","pSARL_v2","pSARL_v2wt5lnkze","62728f0c68b9ecf571a2dbd4","fixation","img/fixation.png","null","","test","","","","","",""
"410.8999999985099","351787","pSARL_v2","pSARL_v2wt5lnkze","62728f0c68b9ecf571a2dbd4","freq","img/green_2bandit_a2.png","70","70","test","1","30","30","2","",""
"null","352182","pSARL_v2","pSARL_v2wt5lnkze","62728f0c68b9ecf571a2dbd4","freq_resp","img/green_2bandit_a.png","70","70","test","","","","2","",""
"null","352337","pSARL_v2","pSARL_v2wt5lnkze","62728f0c68b9ecf571a2dbd4","fixation","img/fixation.png","null","","test","","","","","",""
"374.59999999962747","352714","pSARL_v2","pSARL_v2wt5lnkze","62728f0c68b9ecf571a2dbd4","freq","img/green_2bandit_a2.png","70","70","test","1","31","31","2","",""
"null","353143","pSARL_v2","pSARL_v2wt5lnkze","62728f0c68b9ecf571a2dbd4","freq_resp","img/green_2bandit_a.png","70","70","test","","","","2","",""
"null","353299","pSARL_v2","pSARL_v2wt5lnkze","62728f0c68b9ecf571a2dbd4","fixation","img/fixation.png","null","","test","","","","","",""
"283.30000000074506","353586","pSARL_v2","pSARL_v2wt5lnkze","62728f0c68b9ecf571a2dbd4","freq","img/green_2bandit_a2.png","70","70","test","1","32","32","2","",""
"null","354115","pSARL_v2","pSARL_v2wt5lnkze","62728f0c68b9ecf571a2dbd4","freq_resp","img/green_2bandit_a.png","70","70","test","","","","2","",""
"null","354271","pSARL_v2","pSARL_v2wt5lnkze","62728f0c68b9ecf571a2dbd4","fixation","img/fixation.png","null","","test","","","","","",""
"256.40000000037253","354530","pSARL_v2","pSARL_v2wt5lnkze","62728f0c68b9ecf571a2dbd4","freq","img/green_2bandit_a2.png","70","70","test","1","33","33","2","",""
"null","355078","pSARL_v2","pSARL_v2wt5lnkze","62728f0c68b9ecf571a2dbd4","freq_resp","img/green_2bandit_a.png","70","70","test","","","","2","",""
"null","355233","pSARL_v2","pSARL_v2wt5lnkze","62728f0c68b9ecf571a2dbd4","fixation","img/fixation.png","null","","test","","","","","",""
"255.40000000037253","355492","pSARL_v2","pSARL_v2wt5lnkze","62728f0c68b9ecf571a2dbd4","freq","img/green_2bandit_a2.png","70","70","test","1","34","34","2","",""
"null","356053","pSARL_v2","pSARL_v2wt5lnkze","62728f0c68b9ecf571a2dbd4","freq_resp","img/green_2bandit_a.png","70","70","test","","","","2","",""
"null","356207","pSARL_v2","pSARL_v2wt5lnkze","62728f0c68b9ecf571a2dbd4","fixation","img/fixation.png","null","","test","","","","","",""
"224.09999999962747","356435","pSARL_v2","pSARL_v2wt5lnkze","62728f0c68b9ecf571a2dbd4","freq","img/green_2bandit_a2.png","70","70","test","1","35","35","2","",""
"null","357027","pSARL_v2","pSARL_v2wt5lnkze","62728f0c68b9ecf571a2dbd4","freq_resp","img/green_2bandit_a.png","70","70","test","","","","2","",""
"null","357182","pSARL_v2","pSARL_v2wt5lnkze","62728f0c68b9ecf571a2dbd4","fixation","img/fixation.png","null","","test","","","","","",""
"298.09999999962747","357483","pSARL_v2","pSARL_v2wt5lnkze","62728f0c68b9ecf571a2dbd4","freq","img/green_2bandit_a2.png","70","70","test","1","36","36","2","",""
"null","357988","pSARL_v2","pSARL_v2wt5lnkze","62728f0c68b9ecf571a2dbd4","freq_resp","img/green_2bandit_a.png","70","70","test","","","","2","",""
"null","358143","pSARL_v2","pSARL_v2wt5lnkze","62728f0c68b9ecf571a2dbd4","fixation","img/fixation.png","null","","test","","","","","",""
"198.10000000149012","358344","pSARL_v2","pSARL_v2wt5lnkze","62728f0c68b9ecf571a2dbd4","freq","img/green_2bandit_a2.png","70","70","test","1","37","37","2","",""
"null","358960","pSARL_v2","pSARL_v2wt5lnkze","62728f0c68b9ecf571a2dbd4","freq_resp","img/green_2bandit_a.png","70","70","test","","","","2","",""
"null","359113","pSARL_v2","pSARL_v2wt5lnkze","62728f0c68b9ecf571a2dbd4","fixation","img/fixation.png","null","","test","","","","","",""
"172.30000000074506","359288","pSARL_v2","pSARL_v2wt5lnkze","62728f0c68b9ecf571a2dbd4","freq","img/green_2bandit_a2.png","70","70","test","1","38","38","2","",""
"null","359933","pSARL_v2","pSARL_v2wt5lnkze","62728f0c68b9ecf571a2dbd4","freq_resp","img/green_2bandit_a.png","70","70","test","","","","2","",""
"null","360089","pSARL_v2","pSARL_v2wt5lnkze","62728f0c68b9ecf571a2dbd4","fixation","img/fixation.png","null","","test","","","","","",""
"142.5","360235","pSARL_v2","pSARL_v2wt5lnkze","62728f0c68b9ecf571a2dbd4","infreq","img/orange_2bandit_a2.png","70","68","test","0","39","39","2","",""
"null","360909","pSARL_v2","pSARL_v2wt5lnkze","62728f0c68b9ecf571a2dbd4","infreq_resp","img/orange_2bandit_a.png","70","68","test","","","","2","",""
"null","361063","pSARL_v2","pSARL_v2wt5lnkze","62728f0c68b9ecf571a2dbd4","fixation","img/fixation.png","null","","test","","","","","",""
"null","361875","pSARL_v2","pSARL_v2wt5lnkze","62728f0c68b9ecf571a2dbd4","freq","img/green_2bandit_a2.png","null","70","test","0","40","40","2","",""
"null","362029","pSARL_v2","pSARL_v2wt5lnkze","62728f0c68b9ecf571a2dbd4","fixation","img/fixation.png","null","","test","","","","","",""
"582.5","362615","pSARL_v2","pSARL_v2wt5lnkze","62728f0c68b9ecf571a2dbd4","freq","img/green_2bandit_a2.png","70","70","test","1","41","41","2","",""
"null","362850","pSARL_v2","pSARL_v2wt5lnkze","62728f0c68b9ecf571a2dbd4","freq_resp","img/green_2bandit_a.png","70","70","test","","","","2","",""
"null","363005","pSARL_v2","pSARL_v2wt5lnkze","62728f0c68b9ecf571a2dbd4","fixation","img/fixation.png","null","","test","","","","","",""
"393.09999999962747","363402","pSARL_v2","pSARL_v2wt5lnkze","62728f0c68b9ecf571a2dbd4","freq","img/green_2bandit_a2.png","70","70","test","1","42","42","2","",""
"null","363812","pSARL_v2","pSARL_v2wt5lnkze","62728f0c68b9ecf571a2dbd4","freq_resp","img/green_2bandit_a.png","70","70","test","","","","2","",""
"null","363968","pSARL_v2","pSARL_v2wt5lnkze","62728f0c68b9ecf571a2dbd4","fixation","img/fixation.png","null","","test","","","","","",""
"297.6000000014901","364269","pSARL_v2","pSARL_v2wt5lnkze","62728f0c68b9ecf571a2dbd4","freq","img/green_2bandit_a2.png","70","70","test","1","43","43","2","",""
"null","364788","pSARL_v2","pSARL_v2wt5lnkze","62728f0c68b9ecf571a2dbd4","freq_resp","img/green_2bandit_a.png","70","70","test","","","","2","",""
"null","364943","pSARL_v2","pSARL_v2wt5lnkze","62728f0c68b9ecf571a2dbd4","fixation","img/fixation.png","null","","test","","","","","",""
"201.5","365148","pSARL_v2","pSARL_v2wt5lnkze","62728f0c68b9ecf571a2dbd4","freq","img/green_2bandit_a2.png","70","70","test","1","44","44","2","",""
"null","365763","pSARL_v2","pSARL_v2wt5lnkze","62728f0c68b9ecf571a2dbd4","freq_resp","img/green_2bandit_a.png","70","70","test","","","","2","",""
"null","365918","pSARL_v2","pSARL_v2wt5lnkze","62728f0c68b9ecf571a2dbd4","fixation","img/fixation.png","null","","test","","","","","",""
"232.90000000037253","366153","pSARL_v2","pSARL_v2wt5lnkze","62728f0c68b9ecf571a2dbd4","freq","img/green_2bandit_a2.png","70","70","test","1","45","45","2","",""
"null","366737","pSARL_v2","pSARL_v2wt5lnkze","62728f0c68b9ecf571a2dbd4","freq_resp","img/green_2bandit_a.png","70","70","test","","","","2","",""
"null","366904","pSARL_v2","pSARL_v2wt5lnkze","62728f0c68b9ecf571a2dbd4","fixation","img/fixation.png","null","","test","","","","","",""
"456.2000000011176","367364","pSARL_v2","pSARL_v2wt5lnkze","62728f0c68b9ecf571a2dbd4","reward","img/slot.png","74","","test","","","","","",""
"null","368132","pSARL_v2","pSARL_v2wt5lnkze","62728f0c68b9ecf571a2dbd4","points","<div class=""verylowPoints""> -11 </div>","null","na","test","","","","2","-11","1"
"null","368939","pSARL_v2","pSARL_v2wt5lnkze","62728f0c68b9ecf571a2dbd4","freq","img/green_2bandit_a2.png","null","70","test","0","46","46","3","",""
"null","369094","pSARL_v2","pSARL_v2wt5lnkze","62728f0c68b9ecf571a2dbd4","fixation","img/fixation.png","null","","test","","","","","",""
"null","369898","pSARL_v2","pSARL_v2wt5lnkze","62728f0c68b9ecf571a2dbd4","freq","img/green_2bandit_a2.png","null","70","test","0","47","47","3","",""
"null","370053","pSARL_v2","pSARL_v2wt5lnkze","62728f0c68b9ecf571a2dbd4","fixation","img/fixation.png","null","","test","","","","","",""
"123","370179","pSARL_v2","pSARL_v2wt5lnkze","62728f0c68b9ecf571a2dbd4","freq","img/green_2bandit_a2.png","70","70","test","1","48","48","3","",""
"null","370860","pSARL_v2","pSARL_v2wt5lnkze","62728f0c68b9ecf571a2dbd4","freq_resp","img/green_2bandit_a.png","70","70","test","","","","3","",""
"null","371015","pSARL_v2","pSARL_v2wt5lnkze","62728f0c68b9ecf571a2dbd4","fixation","img/fixation.png","null","","test","","","","","",""
"227.59999999962747","371246","pSARL_v2","pSARL_v2wt5lnkze","62728f0c68b9ecf571a2dbd4","freq","img/green_2bandit_a2.png","70","70","test","1","49","49","3","",""
"null","371833","pSARL_v2","pSARL_v2wt5lnkze","62728f0c68b9ecf571a2dbd4","freq_resp","img/green_2bandit_a.png","70","70","test","","","","3","",""
"null","371989","pSARL_v2","pSARL_v2wt5lnkze","62728f0c68b9ecf571a2dbd4","fixation","img/fixation.png","null","","test","","","","","",""
"250.40000000037253","372243","pSARL_v2","pSARL_v2wt5lnkze","62728f0c68b9ecf571a2dbd4","freq","img/green_2bandit_a2.png","70","70","test","1","50","50","3","",""
"null","372810","pSARL_v2","pSARL_v2wt5lnkze","62728f0c68b9ecf571a2dbd4","freq_resp","img/green_2bandit_a.png","70","70","test","","","","3","",""
"null","372964","pSARL_v2","pSARL_v2wt5lnkze","62728f0c68b9ecf571a2dbd4","fixation","img/fixation.png","null","","test","","","","","",""
"300.59999999962747","373268","pSARL_v2","pSARL_v2wt5lnkze","62728f0c68b9ecf571a2dbd4","freq","img/green_2bandit_a2.png","70","70","test","1","51","51","3","",""
"null","373785","pSARL_v2","pSARL_v2wt5lnkze","62728f0c68b9ecf571a2dbd4","freq_resp","img/green_2bandit_a.png","70","70","test","","","","3","",""
"null","373938","pSARL_v2","pSARL_v2wt5lnkze","62728f0c68b9ecf571a2dbd4","fixation","img/fixation.png","null","","test","","","","","",""
"232.7999999988824","374175","pSARL_v2","pSARL_v2wt5lnkze","62728f0c68b9ecf571a2dbd4","freq","img/green_2bandit_a2.png","70","70","test","1","52","52","3","",""
"null","374758","pSARL_v2","pSARL_v2wt5lnkze","62728f0c68b9ecf571a2dbd4","freq_resp","img/green_2bandit_a.png","70","70","test","","","","3","",""
"null","374913","pSARL_v2","pSARL_v2wt5lnkze","62728f0c68b9ecf571a2dbd4","fixation","img/fixation.png","null","","test","","","","","",""
"206.2999999988824","375123","pSARL_v2","pSARL_v2wt5lnkze","62728f0c68b9ecf571a2dbd4","freq","img/green_2bandit_a2.png","70","70","test","1","53","53","3","",""
"null","375719","pSARL_v2","pSARL_v2wt5lnkze","62728f0c68b9ecf571a2dbd4","freq_resp","img/green_2bandit_a.png","70","70","test","","","","3","",""
"null","375874","pSARL_v2","pSARL_v2wt5lnkze","62728f0c68b9ecf571a2dbd4","fixation","img/fixation.png","null","","test","","","","","",""
"100","375978","pSARL_v2","pSARL_v2wt5lnkze","62728f0c68b9ecf571a2dbd4","freq","img/green_2bandit_a2.png","70","70","test","1","54","54","3","",""
"null","376697","pSARL_v2","pSARL_v2wt5lnkze","62728f0c68b9ecf571a2dbd4","freq_resp","img/green_2bandit_a.png","70","70","test","","","","3","",""
"null","376851","pSARL_v2","pSARL_v2wt5lnkze","62728f0c68b9ecf571a2dbd4","fixation","img/fixation.png","null","","test","","","","","",""
"115.39999999850988","376970","pSARL_v2","pSARL_v2wt5lnkze","62728f0c68b9ecf571a2dbd4","freq","img/green_2bandit_a2.png","70","70","test","1","55","55","3","",""
"null","377661","pSARL_v2","pSARL_v2wt5lnkze","62728f0c68b9ecf571a2dbd4","freq_resp","img/green_2bandit_a.png","70","70","test","","","","3","",""
"null","377816","pSARL_v2","pSARL_v2wt5lnkze","62728f0c68b9ecf571a2dbd4","fixation","img/fixation.png","null","","test","","","","","",""
"109.19999999925494","377929","pSARL_v2","pSARL_v2wt5lnkze","62728f0c68b9ecf571a2dbd4","infreq","img/orange_2bandit_a2.png","70","68","test","0","56","56","3","",""
"null","378635","pSARL_v2","pSARL_v2wt5lnkze","62728f0c68b9ecf571a2dbd4","infreq_resp","img/orange_2bandit_a.png","70","68","test","","","","3","",""
"null","378791","pSARL_v2","pSARL_v2wt5lnkze","62728f0c68b9ecf571a2dbd4","fixation","img/fixation.png","null","","test","","","","","",""
"676.3000000007451","379470","pSARL_v2","pSARL_v2wt5lnkze","62728f0c68b9ecf571a2dbd4","freq","img/green_2bandit_a2.png","70","70","test","1","57","57","3","",""
"null","379605","pSARL_v2","pSARL_v2wt5lnkze","62728f0c68b9ecf571a2dbd4","freq_resp","img/green_2bandit_a.png","70","70","test","","","","3","",""
"null","379767","pSARL_v2","pSARL_v2wt5lnkze","62728f0c68b9ecf571a2dbd4","fixation","img/fixation.png","null","","test","","","","","",""
"386.30000000074506","380157","pSARL_v2","pSARL_v2wt5lnkze","62728f0c68b9ecf571a2dbd4","freq","img/green_2bandit_a2.png","70","70","test","1","58","58","3","",""
"null","380577","pSARL_v2","pSARL_v2wt5lnkze","62728f0c68b9ecf571a2dbd4","freq_resp","img/green_2bandit_a.png","70","70","test","","","","3","",""
"null","380732","pSARL_v2","pSARL_v2wt5lnkze","62728f0c68b9ecf571a2dbd4","fixation","img/fixation.png","null","","test","","","","","",""
"366.40000000037253","381102","pSARL_v2","pSARL_v2wt5lnkze","62728f0c68b9ecf571a2dbd4","freq","img/green_2bandit_a2.png","70","70","test","1","59","59","3","",""
"null","381551","pSARL_v2","pSARL_v2wt5lnkze","62728f0c68b9ecf571a2dbd4","freq_resp","img/green_2bandit_a.png","70","70","test","","","","3","",""
"null","381704","pSARL_v2","pSARL_v2wt5lnkze","62728f0c68b9ecf571a2dbd4","fixation","img/fixation.png","null","","test","","","","","",""
"331.7999999988824","382040","pSARL_v2","pSARL_v2wt5lnkze","62728f0c68b9ecf571a2dbd4","freq","img/green_2bandit_a2.png","70","70","test","1","60","60","3","",""
"null","382525","pSARL_v2","pSARL_v2wt5lnkze","62728f0c68b9ecf571a2dbd4","freq_resp","img/green_2bandit_a.png","70","70","test","","","","3","",""
"null","382679","pSARL_v2","pSARL_v2wt5lnkze","62728f0c68b9ecf571a2dbd4","fixation","img/fixation.png","null","","test","","","","","",""
"372.40000000037253","383054","pSARL_v2","pSARL_v2wt5lnkze","62728f0c68b9ecf571a2dbd4","infreq","img/orange_2bandit_a2.png","68","68","test","1","61","61","3","",""
"null","383487","pSARL_v2","pSARL_v2wt5lnkze","62728f0c68b9ecf571a2dbd4","infreq_resp","img/orange_2bandit_a.png","68","68","test","","","","3","",""
"null","383641","pSARL_v2","pSARL_v2wt5lnkze","62728f0c68b9ecf571a2dbd4","fixation","img/fixation.png","null","","test","","","","","",""
"385.19999999925494","384030","pSARL_v2","pSARL_v2wt5lnkze","62728f0c68b9ecf571a2dbd4","freq","img/green_2bandit_a2.png","70","70","test","1","62","62","3","",""
"null","384462","pSARL_v2","pSARL_v2wt5lnkze","62728f0c68b9ecf571a2dbd4","freq_resp","img/green_2bandit_a.png","70","70","test","","","","3","",""
"null","384617","pSARL_v2","pSARL_v2wt5lnkze","62728f0c68b9ecf571a2dbd4","fixation","img/fixation.png","null","","test","","","","","",""
"347.90000000037253","384968","pSARL_v2","pSARL_v2wt5lnkze","62728f0c68b9ecf571a2dbd4","freq","img/green_2bandit_a2.png","70","70","test","1","63","63","3","",""
"null","385428","pSARL_v2","pSARL_v2wt5lnkze","62728f0c68b9ecf571a2dbd4","freq_resp","img/green_2bandit_a.png","70","70","test","","","","3","",""
"null","385597","pSARL_v2","pSARL_v2wt5lnkze","62728f0c68b9ecf571a2dbd4","fixation","img/fixation.png","null","","test","","","","","",""
"326.7000000011176","385927","pSARL_v2","pSARL_v2wt5lnkze","62728f0c68b9ecf571a2dbd4","freq","img/green_2bandit_a2.png","70","70","test","1","64","64","3","",""
"null","386418","pSARL_v2","pSARL_v2wt5lnkze","62728f0c68b9ecf571a2dbd4","freq_resp","img/green_2bandit_a.png","70","70","test","","","","3","",""
"null","386572","pSARL_v2","pSARL_v2wt5lnkze","62728f0c68b9ecf571a2dbd4","fixation","img/fixation.png","null","","test","","","","","",""
"347.09999999962747","386923","pSARL_v2","pSARL_v2wt5lnkze","62728f0c68b9ecf571a2dbd4","freq","img/green_2bandit_a2.png","70","70","test","1","65","65","3","",""
"null","387383","pSARL_v2","pSARL_v2wt5lnkze","62728f0c68b9ecf571a2dbd4","freq_resp","img/green_2bandit_a.png","70","70","test","","","","3","",""
"null","387538","pSARL_v2","pSARL_v2wt5lnkze","62728f0c68b9ecf571a2dbd4","fixation","img/fixation.png","null","","test","","","","","",""
"366.80000000074506","387908","pSARL_v2","pSARL_v2wt5lnkze","62728f0c68b9ecf571a2dbd4","freq","img/green_2bandit_a2.png","70","70","test","1","66","66","3","",""
"null","388345","pSARL_v2","pSARL_v2wt5lnkze","62728f0c68b9ecf571a2dbd4","freq_resp","img/green_2bandit_a.png","70","70","test","","","","3","",""
"null","388500","pSARL_v2","pSARL_v2wt5lnkze","62728f0c68b9ecf571a2dbd4","fixation","img/fixation.png","null","","test","","","","","",""
"297.90000000037253","388802","pSARL_v2","pSARL_v2wt5lnkze","62728f0c68b9ecf571a2dbd4","freq","img/green_2bandit_a2.png","70","70","test","1","67","67","3","",""
"null","389322","pSARL_v2","pSARL_v2wt5lnkze","62728f0c68b9ecf571a2dbd4","freq_resp","img/green_2bandit_a.png","70","70","test","","","","3","",""
"null","389475","pSARL_v2","pSARL_v2wt5lnkze","62728f0c68b9ecf571a2dbd4","fixation","img/fixation.png","null","","test","","","","","",""
"326.90000000037253","389806","pSARL_v2","pSARL_v2wt5lnkze","62728f0c68b9ecf571a2dbd4","freq","img/green_2bandit_a2.png","70","70","test","1","68","68","3","",""
"null","390297","pSARL_v2","pSARL_v2wt5lnkze","62728f0c68b9ecf571a2dbd4","freq_resp","img/green_2bandit_a.png","70","70","test","","","","3","",""
"null","390452","pSARL_v2","pSARL_v2wt5lnkze","62728f0c68b9ecf571a2dbd4","fixation","img/fixation.png","null","","test","","","","","",""
"470.2999999988824","390926","pSARL_v2","pSARL_v2wt5lnkze","62728f0c68b9ecf571a2dbd4","infreq","img/orange_2bandit_a2.png","68","68","test","1","69","69","3","",""
"null","391271","pSARL_v2","pSARL_v2wt5lnkze","62728f0c68b9ecf571a2dbd4","infreq_resp","img/orange_2bandit_a.png","68","68","test","","","","3","",""
"null","391425","pSARL_v2","pSARL_v2wt5lnkze","62728f0c68b9ecf571a2dbd4","fixation","img/fixation.png","null","","test","","","","","",""
"442.5","391871","pSARL_v2","pSARL_v2wt5lnkze","62728f0c68b9ecf571a2dbd4","freq","img/green_2bandit_a2.png","70","70","test","1","70","70","3","",""
"null","392233","pSARL_v2","pSARL_v2wt5lnkze","62728f0c68b9ecf571a2dbd4","freq_resp","img/green_2bandit_a.png","70","70","test","","","","3","",""
"null","392388","pSARL_v2","pSARL_v2wt5lnkze","62728f0c68b9ecf571a2dbd4","fixation","img/fixation.png","null","","test","","","","","",""
"492.59999999962747","392883","pSARL_v2","pSARL_v2wt5lnkze","62728f0c68b9ecf571a2dbd4","reward","img/slot.png","74","","test","","","","","",""
"null","393638","pSARL_v2","pSARL_v2wt5lnkze","62728f0c68b9ecf571a2dbd4","points","<div class=""verylowPoints""> -7 </div>","null","na","test","","","","3","-7","2"
"null","394445","pSARL_v2","pSARL_v2wt5lnkze","62728f0c68b9ecf571a2dbd4","freq","img/green_2bandit_a2.png","null","70","test","0","71","71","4","",""
"null","394600","pSARL_v2","pSARL_v2wt5lnkze","62728f0c68b9ecf571a2dbd4","fixation","img/fixation.png","null","","test","","","","","",""
"14.5","394618","pSARL_v2","pSARL_v2wt5lnkze","62728f0c68b9ecf571a2dbd4","freq","img/green_2bandit_a2.png","70","70","test","1","72","72","4","",""
"null","395420","pSARL_v2","pSARL_v2wt5lnkze","62728f0c68b9ecf571a2dbd4","freq_resp","img/green_2bandit_a.png","70","70","test","","","","4","",""
"null","395574","pSARL_v2","pSARL_v2wt5lnkze","62728f0c68b9ecf571a2dbd4","fixation","img/fixation.png","null","","test","","","","","",""
"29.600000001490116","395608","pSARL_v2","pSARL_v2wt5lnkze","62728f0c68b9ecf571a2dbd4","freq","img/green_2bandit_a2.png","70","70","test","1","73","73","4","",""
"null","396396","pSARL_v2","pSARL_v2wt5lnkze","62728f0c68b9ecf571a2dbd4","freq_resp","img/green_2bandit_a.png","70","70","test","","","","4","",""
"null","396550","pSARL_v2","pSARL_v2wt5lnkze","62728f0c68b9ecf571a2dbd4","fixation","img/fixation.png","null","","test","","","","","",""
"102.69999999925494","396656","pSARL_v2","pSARL_v2wt5lnkze","62728f0c68b9ecf571a2dbd4","freq","img/green_2bandit_a2.png","70","70","test","1","74","74","4","",""
"null","397361","pSARL_v2","pSARL_v2wt5lnkze","62728f0c68b9ecf571a2dbd4","freq_resp","img/green_2bandit_a.png","70","70","test","","","","4","",""
"null","397515","pSARL_v2","pSARL_v2wt5lnkze","62728f0c68b9ecf571a2dbd4","fixation","img/fixation.png","null","","test","","","","","",""
"213.2999999988824","397731","pSARL_v2","pSARL_v2wt5lnkze","62728f0c68b9ecf571a2dbd4","freq","img/green_2bandit_a2.png","70","70","test","1","75","75","4","",""
"null","398335","pSARL_v2","pSARL_v2wt5lnkze","62728f0c68b9ecf571a2dbd4","freq_resp","img/green_2bandit_a.png","70","70","test","","","","4","",""
"null","398490","pSARL_v2","pSARL_v2wt5lnkze","62728f0c68b9ecf571a2dbd4","fixation","img/fixation.png","null","","test","","","","","",""
"87.09999999962747","398581","pSARL_v2","pSARL_v2wt5lnkze","62728f0c68b9ecf571a2dbd4","freq","img/green_2bandit_a2.png","70","70","test","1","76","76","4","",""
"null","399296","pSARL_v2","pSARL_v2wt5lnkze","62728f0c68b9ecf571a2dbd4","freq_resp","img/green_2bandit_a.png","70","70","test","","","","4","",""
"null","399452","pSARL_v2","pSARL_v2wt5lnkze","62728f0c68b9ecf571a2dbd4","fixation","img/fixation.png","null","","test","","","","","",""
"36","399491","pSARL_v2","pSARL_v2wt5lnkze","62728f0c68b9ecf571a2dbd4","freq","img/green_2bandit_a2.png","70","70","test","1","77","77","4","",""
"null","400274","pSARL_v2","pSARL_v2wt5lnkze","62728f0c68b9ecf571a2dbd4","freq_resp","img/green_2bandit_a.png","70","70","test","","","","4","",""
"null","400428","pSARL_v2","pSARL_v2wt5lnkze","62728f0c68b9ecf571a2dbd4","fixation","img/fixation.png","null","","test","","","","","",""
"171.69999999925494","400603","pSARL_v2","pSARL_v2wt5lnkze","62728f0c68b9ecf571a2dbd4","infreq","img/orange_2bandit_a2.png","70","68","test","0","78","78","4","",""
"null","401249","pSARL_v2","pSARL_v2wt5lnkze","62728f0c68b9ecf571a2dbd4","infreq_resp","img/orange_2bandit_a.png","70","68","test","","","","4","",""
"null","401418","pSARL_v2","pSARL_v2wt5lnkze","62728f0c68b9ecf571a2dbd4","fixation","img/fixation.png","null","","test","","","","","",""
"366.80000000074506","401787","pSARL_v2","pSARL_v2wt5lnkze","62728f0c68b9ecf571a2dbd4","freq","img/green_2bandit_a2.png","70","70","test","1","79","79","4","",""
"null","402237","pSARL_v2","pSARL_v2wt5lnkze","62728f0c68b9ecf571a2dbd4","freq_resp","img/green_2bandit_a.png","70","70","test","","","","4","",""
"null","402405","pSARL_v2","pSARL_v2wt5lnkze","62728f0c68b9ecf571a2dbd4","fixation","img/fixation.png","null","","test","","","","","",""
"350.19999999925494","402758","pSARL_v2","pSARL_v2wt5lnkze","62728f0c68b9ecf571a2dbd4","infreq","img/orange_2bandit_a2.png","68","68","test","1","80","80","4","",""
"null","403227","pSARL_v2","pSARL_v2wt5lnkze","62728f0c68b9ecf571a2dbd4","infreq_resp","img/orange_2bandit_a.png","68","68","test","","","","4","",""
"null","403396","pSARL_v2","pSARL_v2wt5lnkze","62728f0c68b9ecf571a2dbd4","fixation","img/fixation.png","null","","test","","","","","",""
"242.40000000037253","403642","pSARL_v2","pSARL_v2wt5lnkze","62728f0c68b9ecf571a2dbd4","freq","img/green_2bandit_a2.png","70","70","test","1","81","81","4","",""
"null","404206","pSARL_v2","pSARL_v2wt5lnkze","62728f0c68b9ecf571a2dbd4","freq_resp","img/green_2bandit_a.png","70","70","test","","","","4","",""
"null","404359","pSARL_v2","pSARL_v2wt5lnkze","62728f0c68b9ecf571a2dbd4","fixation","img/fixation.png","null","","test","","","","","",""
"284.59999999962747","404647","pSARL_v2","pSARL_v2wt5lnkze","62728f0c68b9ecf571a2dbd4","freq","img/green_2bandit_a2.png","70","70","test","1","82","82","4","",""
"null","405178","pSARL_v2","pSARL_v2wt5lnkze","62728f0c68b9ecf571a2dbd4","freq_resp","img/green_2bandit_a.png","70","70","test","","","","4","",""
"null","405333","pSARL_v2","pSARL_v2wt5lnkze","62728f0c68b9ecf571a2dbd4","fixation","img/fixation.png","null","","test","","","","","",""
"217.59999999962747","405554","pSARL_v2","pSARL_v2wt5lnkze","62728f0c68b9ecf571a2dbd4","freq","img/green_2bandit_a2.png","70","70","test","1","83","83","4","",""
"null","406153","pSARL_v2","pSARL_v2wt5lnkze","62728f0c68b9ecf571a2dbd4","freq_resp","img/green_2bandit_a.png","70","70","test","","","","4","",""
"null","406308","pSARL_v2","pSARL_v2wt5lnkze","62728f0c68b9ecf571a2dbd4","fixation","img/fixation.png","null","","test","","","","","",""
"203.69999999925494","406515","pSARL_v2","pSARL_v2wt5lnkze","62728f0c68b9ecf571a2dbd4","freq","img/green_2bandit_a2.png","70","70","test","1","84","84","4","",""
"null","407129","pSARL_v2","pSARL_v2wt5lnkze","62728f0c68b9ecf571a2dbd4","freq_resp","img/green_2bandit_a.png","70","70","test","","","","4","",""
"null","407285","pSARL_v2","pSARL_v2wt5lnkze","62728f0c68b9ecf571a2dbd4","fixation","img/fixation.png","null","","test","","","","","",""
"284.80000000074506","407573","pSARL_v2","pSARL_v2wt5lnkze","62728f0c68b9ecf571a2dbd4","freq","img/green_2bandit_a2.png","70","70","test","1","85","85","4","",""
"null","408104","pSARL_v2","pSARL_v2wt5lnkze","62728f0c68b9ecf571a2dbd4","freq_resp","img/green_2bandit_a.png","70","70","test","","","","4","",""
"null","408258","pSARL_v2","pSARL_v2wt5lnkze","62728f0c68b9ecf571a2dbd4","fixation","img/fixation.png","null","","test","","","","","",""
"264.1000000014901","408526","pSARL_v2","pSARL_v2wt5lnkze","62728f0c68b9ecf571a2dbd4","freq","img/green_2bandit_a2.png","70","70","test","1","86","86","4","",""
"null","409065","pSARL_v2","pSARL_v2wt5lnkze","62728f0c68b9ecf571a2dbd4","freq_resp","img/green_2bandit_a.png","70","70","test","","","","4","",""
"null","409219","pSARL_v2","pSARL_v2wt5lnkze","62728f0c68b9ecf571a2dbd4","fixation","img/fixation.png","null","","test","","","","","",""
"202","409425","pSARL_v2","pSARL_v2wt5lnkze","62728f0c68b9ecf571a2dbd4","freq","img/green_2bandit_a2.png","70","70","test","1","87","87","4","",""
"null","410038","pSARL_v2","pSARL_v2wt5lnkze","62728f0c68b9ecf571a2dbd4","freq_resp","img/green_2bandit_a.png","70","70","test","","","","4","",""
"null","410194","pSARL_v2","pSARL_v2wt5lnkze","62728f0c68b9ecf571a2dbd4","fixation","img/fixation.png","null","","test","","","","","",""
"391.40000000037253","410589","pSARL_v2","pSARL_v2wt5lnkze","62728f0c68b9ecf571a2dbd4","freq","img/green_2bandit_a2.png","68","70","test","0","88","88","4","",""
"null","411011","pSARL_v2","pSARL_v2wt5lnkze","62728f0c68b9ecf571a2dbd4","freq_resp","img/green_2bandit_a.png","68","70","test","","","","4","",""
"null","411165","pSARL_v2","pSARL_v2wt5lnkze","62728f0c68b9ecf571a2dbd4","fixation","img/fixation.png","null","","test","","","","","",""
"349.59999999962747","411517","pSARL_v2","pSARL_v2wt5lnkze","62728f0c68b9ecf571a2dbd4","freq","img/green_2bandit_a2.png","70","70","test","1","89","89","4","",""
"null","411985","pSARL_v2","pSARL_v2wt5lnkze","62728f0c68b9ecf571a2dbd4","freq_resp","img/green_2bandit_a.png","70","70","test","","","","4","",""
"null","412141","pSARL_v2","pSARL_v2wt5lnkze","62728f0c68b9ecf571a2dbd4","fixation","img/fixation.png","null","","test","","","","","",""
"361.59999999962747","412506","pSARL_v2","pSARL_v2wt5lnkze","62728f0c68b9ecf571a2dbd4","reward","img/slot.png","74","","test","","","","","",""
"null","413270","pSARL_v2","pSARL_v2wt5lnkze","62728f0c68b9ecf571a2dbd4","points","<div class=""verylowPoints""> -3 </div>","null","na","test","","","","4","-3","3"
"424.59999999962747","413698","pSARL_v2","pSARL_v2wt5lnkze","62728f0c68b9ecf571a2dbd4","freq","img/green_2bandit_a2.png","70","70","test","1","90","90","5","",""
"null","414091","pSARL_v2","pSARL_v2wt5lnkze","62728f0c68b9ecf571a2dbd4","freq_resp","img/green_2bandit_a.png","70","70","test","","","","5","",""
"null","414245","pSARL_v2","pSARL_v2wt5lnkze","62728f0c68b9ecf571a2dbd4","fixation","img/fixation.png","null","","test","","","","","",""
"370.09999999962747","414620","pSARL_v2","pSARL_v2wt5lnkze","62728f0c68b9ecf571a2dbd4","freq","img/green_2bandit_a2.png","70","70","test","1","91","91","5","",""
"null","415061","pSARL_v2","pSARL_v2wt5lnkze","62728f0c68b9ecf571a2dbd4","freq_resp","img/green_2bandit_a.png","70","70","test","","","","5","",""
"null","415215","pSARL_v2","pSARL_v2wt5lnkze","62728f0c68b9ecf571a2dbd4","fixation","img/fixation.png","null","","test","","","","","",""
"414","415632","pSARL_v2","pSARL_v2wt5lnkze","62728f0c68b9ecf571a2dbd4","freq","img/green_2bandit_a2.png","70","70","test","1","92","92","5","",""
"null","416036","pSARL_v2","pSARL_v2wt5lnkze","62728f0c68b9ecf571a2dbd4","freq_resp","img/green_2bandit_a.png","70","70","test","","","","5","",""
"null","416192","pSARL_v2","pSARL_v2wt5lnkze","62728f0c68b9ecf571a2dbd4","fixation","img/fixation.png","null","","test","","","","","",""
"476.59999999962747","416671","pSARL_v2","pSARL_v2wt5lnkze","62728f0c68b9ecf571a2dbd4","infreq","img/orange_2bandit_a2.png","68","68","test","1","93","93","5","",""
"null","416998","pSARL_v2","pSARL_v2wt5lnkze","62728f0c68b9ecf571a2dbd4","infreq_resp","img/orange_2bandit_a.png","68","68","test","","","","5","",""
"null","417167","pSARL_v2","pSARL_v2wt5lnkze","62728f0c68b9ecf571a2dbd4","fixation","img/fixation.png","null","","test","","","","","",""
"347.90000000037253","417519","pSARL_v2","pSARL_v2wt5lnkze","62728f0c68b9ecf571a2dbd4","freq","img/green_2bandit_a2.png","70","70","test","1","94","94","5","",""
"null","417988","pSARL_v2","pSARL_v2wt5lnkze","62728f0c68b9ecf571a2dbd4","freq_resp","img/green_2bandit_a.png","70","70","test","","","","5","",""
"null","418144","pSARL_v2","pSARL_v2wt5lnkze","62728f0c68b9ecf571a2dbd4","fixation","img/fixation.png","null","","test","","","","","",""
"339.5","418487","pSARL_v2","pSARL_v2wt5lnkze","62728f0c68b9ecf571a2dbd4","freq","img/green_2bandit_a2.png","70","70","test","1","95","95","5","",""
"null","418966","pSARL_v2","pSARL_v2wt5lnkze","62728f0c68b9ecf571a2dbd4","freq_resp","img/green_2bandit_a.png","70","70","test","","","","5","",""
"null","419134","pSARL_v2","pSARL_v2wt5lnkze","62728f0c68b9ecf571a2dbd4","fixation","img/fixation.png","null","","test","","","","","",""
"340.30000000074506","419478","pSARL_v2","pSARL_v2wt5lnkze","62728f0c68b9ecf571a2dbd4","freq","img/green_2bandit_a2.png","70","70","test","1","96","96","5","",""
"null","419955","pSARL_v2","pSARL_v2wt5lnkze","62728f0c68b9ecf571a2dbd4","freq_resp","img/green_2bandit_a.png","70","70","test","","","","5","",""
"null","420109","pSARL_v2","pSARL_v2wt5lnkze","62728f0c68b9ecf571a2dbd4","fixation","img/fixation.png","null","","test","","","","","",""
"356.2999999988824","420469","pSARL_v2","pSARL_v2wt5lnkze","62728f0c68b9ecf571a2dbd4","freq","img/green_2bandit_a2.png","70","70","test","1","97","97","5","",""
"null","420928","pSARL_v2","pSARL_v2wt5lnkze","62728f0c68b9ecf571a2dbd4","freq_resp","img/green_2bandit_a.png","70","70","test","","","","5","",""
"null","421083","pSARL_v2","pSARL_v2wt5lnkze","62728f0c68b9ecf571a2dbd4","fixation","img/fixation.png","null","","test","","","","","",""
"331.5","421418","pSARL_v2","pSARL_v2wt5lnkze","62728f0c68b9ecf571a2dbd4","freq","img/green_2bandit_a2.png","70","70","test","1","98","98","5","",""
"null","421892","pSARL_v2","pSARL_v2wt5lnkze","62728f0c68b9ecf571a2dbd4","freq_resp","img/green_2bandit_a.png","70","70","test","","","","5","",""
"null","422059","pSARL_v2","pSARL_v2wt5lnkze","62728f0c68b9ecf571a2dbd4","fixation","img/fixation.png","null","","test","","","","","",""
"218.09999999962747","422280","pSARL_v2","pSARL_v2wt5lnkze","62728f0c68b9ecf571a2dbd4","freq","img/green_2bandit_a2.png","70","70","test","1","99","99","5","",""
"null","422877","pSARL_v2","pSARL_v2wt5lnkze","62728f0c68b9ecf571a2dbd4","freq_resp","img/green_2bandit_a.png","70","70","test","","","","5","",""
"null","423046","pSARL_v2","pSARL_v2wt5lnkze","62728f0c68b9ecf571a2dbd4","fixation","img/fixation.png","null","","test","","","","","",""
"262.30000000074506","423311","pSARL_v2","pSARL_v2wt5lnkze","62728f0c68b9ecf571a2dbd4","freq","img/green_2bandit_a2.png","70","70","test","1","100","100","5","",""
"null","423863","pSARL_v2","pSARL_v2wt5lnkze","62728f0c68b9ecf571a2dbd4","freq_resp","img/green_2bandit_a.png","70","70","test","","","","5","",""
"null","424018","pSARL_v2","pSARL_v2wt5lnkze","62728f0c68b9ecf571a2dbd4","fixation","img/fixation.png","null","","test","","","","","",""
"262.09999999962747","424284","pSARL_v2","pSARL_v2wt5lnkze","62728f0c68b9ecf571a2dbd4","freq","img/green_2bandit_a2.png","70","70","test","1","101","101","5","",""
"null","424826","pSARL_v2","pSARL_v2wt5lnkze","62728f0c68b9ecf571a2dbd4","freq_resp","img/green_2bandit_a.png","70","70","test","","","","5","",""
"null","424979","pSARL_v2","pSARL_v2wt5lnkze","62728f0c68b9ecf571a2dbd4","fixation","img/fixation.png","null","","test","","","","","",""
"182.5","425164","pSARL_v2","pSARL_v2wt5lnkze","62728f0c68b9ecf571a2dbd4","freq","img/green_2bandit_a2.png","70","70","test","1","102","102","5","",""
"null","425795","pSARL_v2","pSARL_v2wt5lnkze","62728f0c68b9ecf571a2dbd4","freq_resp","img/green_2bandit_a.png","70","70","test","","","","5","",""
"null","425949","pSARL_v2","pSARL_v2wt5lnkze","62728f0c68b9ecf571a2dbd4","fixation","img/fixation.png","null","","test","","","","","",""
"121.29999999888241","426073","pSARL_v2","pSARL_v2wt5lnkze","62728f0c68b9ecf571a2dbd4","freq","img/green_2bandit_a2.png","70","70","test","1","103","103","5","",""
"null","426767","pSARL_v2","pSARL_v2wt5lnkze","62728f0c68b9ecf571a2dbd4","freq_resp","img/green_2bandit_a.png","70","70","test","","","","5","",""
"null","426920","pSARL_v2","pSARL_v2wt5lnkze","62728f0c68b9ecf571a2dbd4","fixation","img/fixation.png","null","","test","","","","","",""
"122","427046","pSARL_v2","pSARL_v2wt5lnkze","62728f0c68b9ecf571a2dbd4","freq","img/green_2bandit_a2.png","70","70","test","1","104","104","5","",""
"null","427728","pSARL_v2","pSARL_v2wt5lnkze","62728f0c68b9ecf571a2dbd4","freq_resp","img/green_2bandit_a.png","70","70","test","","","","5","",""
"null","427883","pSARL_v2","pSARL_v2wt5lnkze","62728f0c68b9ecf571a2dbd4","fixation","img/fixation.png","null","","test","","","","","",""
"242.69999999925494","428129","pSARL_v2","pSARL_v2wt5lnkze","62728f0c68b9ecf571a2dbd4","freq","img/green_2bandit_a2.png","70","70","test","1","105","105","5","",""
"null","428703","pSARL_v2","pSARL_v2wt5lnkze","62728f0c68b9ecf571a2dbd4","freq_resp","img/green_2bandit_a.png","70","70","test","","","","5","",""
"null","428872","pSARL_v2","pSARL_v2wt5lnkze","62728f0c68b9ecf571a2dbd4","fixation","img/fixation.png","null","","test","","","","","",""
"228.5","429104","pSARL_v2","pSARL_v2wt5lnkze","62728f0c68b9ecf571a2dbd4","freq","img/green_2bandit_a2.png","70","70","test","1","106","106","5","",""
"null","429693","pSARL_v2","pSARL_v2wt5lnkze","62728f0c68b9ecf571a2dbd4","freq_resp","img/green_2bandit_a.png","70","70","test","","","","5","",""
"null","429848","pSARL_v2","pSARL_v2wt5lnkze","62728f0c68b9ecf571a2dbd4","fixation","img/fixation.png","null","","test","","","","","",""
"232.30000000074506","430084","pSARL_v2","pSARL_v2wt5lnkze","62728f0c68b9ecf571a2dbd4","freq","img/green_2bandit_a2.png","70","70","test","1","107","107","5","",""
"null","430655","pSARL_v2","pSARL_v2wt5lnkze","62728f0c68b9ecf571a2dbd4","freq_resp","img/green_2bandit_a.png","70","70","test","","","","5","",""
"null","430811","pSARL_v2","pSARL_v2wt5lnkze","62728f0c68b9ecf571a2dbd4","fixation","img/fixation.png","null","","test","","","","","",""
"230.40000000037253","431045","pSARL_v2","pSARL_v2wt5lnkze","62728f0c68b9ecf571a2dbd4","freq","img/green_2bandit_a2.png","70","70","test","1","108","108","5","",""
"null","431628","pSARL_v2","pSARL_v2wt5lnkze","62728f0c68b9ecf571a2dbd4","freq_resp","img/green_2bandit_a.png","70","70","test","","","","5","",""
"null","431781","pSARL_v2","pSARL_v2wt5lnkze","62728f0c68b9ecf571a2dbd4","fixation","img/fixation.png","null","","test","","","","","",""
"177.19999999925494","431962","pSARL_v2","pSARL_v2wt5lnkze","62728f0c68b9ecf571a2dbd4","infreq","img/orange_2bandit_a2.png","70","68","test","0","109","109","5","",""
"null","432600","pSARL_v2","pSARL_v2wt5lnkze","62728f0c68b9ecf571a2dbd4","infreq_resp","img/orange_2bandit_a.png","70","68","test","","","","5","",""
"null","432754","pSARL_v2","pSARL_v2wt5lnkze","62728f0c68b9ecf571a2dbd4","fixation","img/fixation.png","null","","test","","","","","",""
"331.40000000037253","433089","pSARL_v2","pSARL_v2wt5lnkze","62728f0c68b9ecf571a2dbd4","freq","img/green_2bandit_a2.png","70","70","test","1","110","110","5","",""
"null","433573","pSARL_v2","pSARL_v2wt5lnkze","62728f0c68b9ecf571a2dbd4","freq_resp","img/green_2bandit_a.png","70","70","test","","","","5","",""
"null","433729","pSARL_v2","pSARL_v2wt5lnkze","62728f0c68b9ecf571a2dbd4","fixation","img/fixation.png","null","","test","","","","","",""
"477.5","434210","pSARL_v2","pSARL_v2wt5lnkze","62728f0c68b9ecf571a2dbd4","freq","img/green_2bandit_a2.png","70","70","test","1","111","111","5","",""
"null","434549","pSARL_v2","pSARL_v2wt5lnkze","62728f0c68b9ecf571a2dbd4","freq_resp","img/green_2bandit_a.png","70","70","test","","","","5","",""
"null","434704","pSARL_v2","pSARL_v2wt5lnkze","62728f0c68b9ecf571a2dbd4","fixation","img/fixation.png","null","","test","","","","","",""
"359.2000000011176","435067","pSARL_v2","pSARL_v2wt5lnkze","62728f0c68b9ecf571a2dbd4","freq","img/green_2bandit_a2.png","70","70","test","1","112","112","5","",""
"null","435525","pSARL_v2","pSARL_v2wt5lnkze","62728f0c68b9ecf571a2dbd4","freq_resp","img/green_2bandit_a.png","70","70","test","","","","5","",""
"null","435681","pSARL_v2","pSARL_v2wt5lnkze","62728f0c68b9ecf571a2dbd4","fixation","img/fixation.png","null","","test","","","","","",""
"257.69999999925494","435942","pSARL_v2","pSARL_v2wt5lnkze","62728f0c68b9ecf571a2dbd4","freq","img/green_2bandit_a2.png","70","70","test","1","113","113","5","",""
"null","436499","pSARL_v2","pSARL_v2wt5lnkze","62728f0c68b9ecf571a2dbd4","freq_resp","img/green_2bandit_a.png","70","70","test","","","","5","",""
"null","436654","pSARL_v2","pSARL_v2wt5lnkze","62728f0c68b9ecf571a2dbd4","fixation","img/fixation.png","null","","test","","","","","",""
"233.30000000074506","436891","pSARL_v2","pSARL_v2wt5lnkze","62728f0c68b9ecf571a2dbd4","freq","img/green_2bandit_a2.png","70","70","test","1","114","114","5","",""
"null","437471","pSARL_v2","pSARL_v2wt5lnkze","62728f0c68b9ecf571a2dbd4","freq_resp","img/green_2bandit_a.png","70","70","test","","","","5","",""
"null","437625","pSARL_v2","pSARL_v2wt5lnkze","62728f0c68b9ecf571a2dbd4","fixation","img/fixation.png","null","","test","","","","","",""
"241.5","437870","pSARL_v2","pSARL_v2wt5lnkze","62728f0c68b9ecf571a2dbd4","freq","img/green_2bandit_a2.png","70","70","test","1","115","115","5","",""
"null","438431","pSARL_v2","pSARL_v2wt5lnkze","62728f0c68b9ecf571a2dbd4","freq_resp","img/green_2bandit_a.png","70","70","test","","","","5","",""
"null","438585","pSARL_v2","pSARL_v2wt5lnkze","62728f0c68b9ecf571a2dbd4","fixation","img/fixation.png","null","","test","","","","","",""
"612.0999999996275","439201","pSARL_v2","pSARL_v2wt5lnkze","62728f0c68b9ecf571a2dbd4","reward","img/slot.png","74","","test","","","","","",""
"null","439967","pSARL_v2","pSARL_v2wt5lnkze","62728f0c68b9ecf571a2dbd4","points","<div class=""veryhighPoints""> +1 </div>","null","na","test","","","","5","1","4"
"null","440776","pSARL_v2","pSARL_v2wt5lnkze","62728f0c68b9ecf571a2dbd4","freq","img/green_2bandit_a2.png","null","70","test","0","116","116","6","",""
"null","440930","pSARL_v2","pSARL_v2wt5lnkze","62728f0c68b9ecf571a2dbd4","fixation","img/fixation.png","null","","test","","","","","",""
"null","441737","pSARL_v2","pSARL_v2wt5lnkze","62728f0c68b9ecf571a2dbd4","freq","img/green_2bandit_a2.png","null","70","test","0","117","117","6","",""
"null","441892","pSARL_v2","pSARL_v2wt5lnkze","62728f0c68b9ecf571a2dbd4","fixation","img/fixation.png","null","","test","","","","","",""
"null","442696","pSARL_v2","pSARL_v2wt5lnkze","62728f0c68b9ecf571a2dbd4","freq","img/green_2bandit_a2.png","null","70","test","0","118","118","6","",""
"null","442851","pSARL_v2","pSARL_v2wt5lnkze","62728f0c68b9ecf571a2dbd4","fixation","img/fixation.png","null","","test","","","","","",""
"480.1000000014901","443334","pSARL_v2","pSARL_v2wt5lnkze","62728f0c68b9ecf571a2dbd4","infreq","img/orange_2bandit_a2.png","68","68","test","1","119","119","6","",""
"null","443656","pSARL_v2","pSARL_v2wt5lnkze","62728f0c68b9ecf571a2dbd4","infreq_resp","img/orange_2bandit_a.png","68","68","test","","","","6","",""
"null","443827","pSARL_v2","pSARL_v2wt5lnkze","62728f0c68b9ecf571a2dbd4","fixation","img/fixation.png","null","","test","","","","","",""
"346.19999999925494","444177","pSARL_v2","pSARL_v2wt5lnkze","62728f0c68b9ecf571a2dbd4","freq","img/green_2bandit_a2.png","70","70","test","1","120","120","6","",""
"null","444644","pSARL_v2","pSARL_v2wt5lnkze","62728f0c68b9ecf571a2dbd4","freq_resp","img/green_2bandit_a.png","70","70","test","","","","6","",""
"null","444801","pSARL_v2","pSARL_v2wt5lnkze","62728f0c68b9ecf571a2dbd4","fixation","img/fixation.png","null","","test","","","","","",""
"277.7000000011176","445082","pSARL_v2","pSARL_v2wt5lnkze","62728f0c68b9ecf571a2dbd4","freq","img/green_2bandit_a2.png","70","70","test","1","121","121","6","",""
"null","445621","pSARL_v2","pSARL_v2wt5lnkze","62728f0c68b9ecf571a2dbd4","freq_resp","img/green_2bandit_a.png","70","70","test","","","","6","",""
"null","445775","pSARL_v2","pSARL_v2wt5lnkze","62728f0c68b9ecf571a2dbd4","fixation","img/fixation.png","null","","test","","","","","",""
"250.19999999925494","446029","pSARL_v2","pSARL_v2wt5lnkze","62728f0c68b9ecf571a2dbd4","freq","img/green_2bandit_a2.png","70","70","test","1","122","122","6","",""
"null","446581","pSARL_v2","pSARL_v2wt5lnkze","62728f0c68b9ecf571a2dbd4","freq_resp","img/green_2bandit_a.png","70","70","test","","","","6","",""
"null","446736","pSARL_v2","pSARL_v2wt5lnkze","62728f0c68b9ecf571a2dbd4","fixation","img/fixation.png","null","","test","","","","","",""
"246.80000000074506","446987","pSARL_v2","pSARL_v2wt5lnkze","62728f0c68b9ecf571a2dbd4","freq","img/green_2bandit_a2.png","70","70","test","1","123","123","6","",""
"null","447557","pSARL_v2","pSARL_v2wt5lnkze","62728f0c68b9ecf571a2dbd4","freq_resp","img/green_2bandit_a.png","70","70","test","","","","6","",""
"null","447724","pSARL_v2","pSARL_v2wt5lnkze","62728f0c68b9ecf571a2dbd4","fixation","img/fixation.png","null","","test","","","","","",""
"186.7000000011176","447914","pSARL_v2","pSARL_v2wt5lnkze","62728f0c68b9ecf571a2dbd4","freq","img/green_2bandit_a2.png","70","70","test","1","124","124","6","",""
"null","448545","pSARL_v2","pSARL_v2wt5lnkze","62728f0c68b9ecf571a2dbd4","freq_resp","img/green_2bandit_a.png","70","70","test","","","","6","",""
"null","448699","pSARL_v2","pSARL_v2wt5lnkze","62728f0c68b9ecf571a2dbd4","fixation","img/fixation.png","null","","test","","","","","",""
"238.09999999962747","448941","pSARL_v2","pSARL_v2wt5lnkze","62728f0c68b9ecf571a2dbd4","freq","img/green_2bandit_a2.png","70","70","test","1","125","125","6","",""
"null","449516","pSARL_v2","pSARL_v2wt5lnkze","62728f0c68b9ecf571a2dbd4","freq_resp","img/green_2bandit_a.png","70","70","test","","","","6","",""
"null","449685","pSARL_v2","pSARL_v2wt5lnkze","62728f0c68b9ecf571a2dbd4","fixation","img/fixation.png","null","","test","","","","","",""
"253","449942","pSARL_v2","pSARL_v2wt5lnkze","62728f0c68b9ecf571a2dbd4","freq","img/green_2bandit_a2.png","70","70","test","1","126","126","6","",""
"null","450505","pSARL_v2","pSARL_v2wt5lnkze","62728f0c68b9ecf571a2dbd4","freq_resp","img/green_2bandit_a.png","70","70","test","","","","6","",""
"null","450659","pSARL_v2","pSARL_v2wt5lnkze","62728f0c68b9ecf571a2dbd4","fixation","img/fixation.png","null","","test","","","","","",""
"226","450889","pSARL_v2","pSARL_v2wt5lnkze","62728f0c68b9ecf571a2dbd4","freq","img/green_2bandit_a2.png","70","70","test","1","127","127","6","",""
"null","451479","pSARL_v2","pSARL_v2wt5lnkze","62728f0c68b9ecf571a2dbd4","freq_resp","img/green_2bandit_a.png","70","70","test","","","","6","",""
"null","451634","pSARL_v2","pSARL_v2wt5lnkze","62728f0c68b9ecf571a2dbd4","fixation","img/fixation.png","null","","test","","","","","",""
"316.5","451954","pSARL_v2","pSARL_v2wt5lnkze","62728f0c68b9ecf571a2dbd4","infreq","img/orange_2bandit_a2.png","68","68","test","1","128","128","6","",""
"null","452444","pSARL_v2","pSARL_v2wt5lnkze","62728f0c68b9ecf571a2dbd4","infreq_resp","img/orange_2bandit_a.png","68","68","test","","","","6","",""
"null","452601","pSARL_v2","pSARL_v2wt5lnkze","62728f0c68b9ecf571a2dbd4","fixation","img/fixation.png","null","","test","","","","","",""
"331.2000000011176","452936","pSARL_v2","pSARL_v2wt5lnkze","62728f0c68b9ecf571a2dbd4","freq","img/green_2bandit_a2.png","70","70","test","1","129","129","6","",""
"null","453419","pSARL_v2","pSARL_v2wt5lnkze","62728f0c68b9ecf571a2dbd4","freq_resp","img/green_2bandit_a.png","70","70","test","","","","6","",""
"null","453574","pSARL_v2","pSARL_v2wt5lnkze","62728f0c68b9ecf571a2dbd4","fixation","img/fixation.png","null","","test","","","","","",""
"257.80000000074506","453835","pSARL_v2","pSARL_v2wt5lnkze","62728f0c68b9ecf571a2dbd4","freq","img/green_2bandit_a2.png","70","70","test","1","130","130","6","",""
"null","454393","pSARL_v2","pSARL_v2wt5lnkze","62728f0c68b9ecf571a2dbd4","freq_resp","img/green_2bandit_a.png","70","70","test","","","","6","",""
"null","454549","pSARL_v2","pSARL_v2wt5lnkze","62728f0c68b9ecf571a2dbd4","fixation","img/fixation.png","null","","test","","","","","",""
"243.19999999925494","454795","pSARL_v2","pSARL_v2wt5lnkze","62728f0c68b9ecf571a2dbd4","freq","img/green_2bandit_a2.png","70","70","test","1","131","131","6","",""
"null","455369","pSARL_v2","pSARL_v2wt5lnkze","62728f0c68b9ecf571a2dbd4","freq_resp","img/green_2bandit_a.png","70","70","test","","","","6","",""
"null","455524","pSARL_v2","pSARL_v2wt5lnkze","62728f0c68b9ecf571a2dbd4","fixation","img/fixation.png","null","","test","","","","","",""
"295.09999999962747","455822","pSARL_v2","pSARL_v2wt5lnkze","62728f0c68b9ecf571a2dbd4","freq","img/green_2bandit_a2.png","70","70","test","1","132","132","6","",""
"null","456329","pSARL_v2","pSARL_v2wt5lnkze","62728f0c68b9ecf571a2dbd4","freq_resp","img/green_2bandit_a.png","70","70","test","","","","6","",""
"null","456484","pSARL_v2","pSARL_v2wt5lnkze","62728f0c68b9ecf571a2dbd4","fixation","img/fixation.png","null","","test","","","","","",""
"306.40000000037253","456794","pSARL_v2","pSARL_v2wt5lnkze","62728f0c68b9ecf571a2dbd4","freq","img/green_2bandit_a2.png","70","70","test","1","133","133","6","",""
"null","457304","pSARL_v2","pSARL_v2wt5lnkze","62728f0c68b9ecf571a2dbd4","freq_resp","img/green_2bandit_a.png","70","70","test","","","","6","",""
"null","457458","pSARL_v2","pSARL_v2wt5lnkze","62728f0c68b9ecf571a2dbd4","fixation","img/fixation.png","null","","test","","","","","",""
"245","457706","pSARL_v2","pSARL_v2wt5lnkze","62728f0c68b9ecf571a2dbd4","freq","img/green_2bandit_a2.png","70","70","test","1","134","134","6","",""
"null","458266","pSARL_v2","pSARL_v2wt5lnkze","62728f0c68b9ecf571a2dbd4","freq_resp","img/green_2bandit_a.png","70","70","test","","","","6","",""
"null","458421","pSARL_v2","pSARL_v2wt5lnkze","62728f0c68b9ecf571a2dbd4","fixation","img/fixation.png","null","","test","","","","","",""
"295.5","458720","pSARL_v2","pSARL_v2wt5lnkze","62728f0c68b9ecf571a2dbd4","freq","img/green_2bandit_a2.png","70","70","test","1","135","135","6","",""
"null","459241","pSARL_v2","pSARL_v2wt5lnkze","62728f0c68b9ecf571a2dbd4","freq_resp","img/green_2bandit_a.png","70","70","test","","","","6","",""
"null","459396","pSARL_v2","pSARL_v2wt5lnkze","62728f0c68b9ecf571a2dbd4","fixation","img/fixation.png","null","","test","","","","","",""
"685","460084","pSARL_v2","pSARL_v2wt5lnkze","62728f0c68b9ecf571a2dbd4","reward","img/slot.png","74","","test","","","","","",""
"null","460838","pSARL_v2","pSARL_v2wt5lnkze","62728f0c68b9ecf571a2dbd4","points","<div class=""verylowPoints""> -7 </div>","null","na","test","","","","6","-7","5"
"481.7000000011176","461323","pSARL_v2","pSARL_v2wt5lnkze","62728f0c68b9ecf571a2dbd4","freq","img/green_2bandit_a2.png","70","70","test","1","136","136","7","",""
"null","461659","pSARL_v2","pSARL_v2wt5lnkze","62728f0c68b9ecf571a2dbd4","freq_resp","img/green_2bandit_a.png","70","70","test","","","","7","",""
"null","461827","pSARL_v2","pSARL_v2wt5lnkze","62728f0c68b9ecf571a2dbd4","fixation","img/fixation.png","null","","test","","","","","",""
"null","462640","pSARL_v2","pSARL_v2wt5lnkze","62728f0c68b9ecf571a2dbd4","freq","img/green_2bandit_a2.png","null","70","test","0","137","137","7","",""
"null","462794","pSARL_v2","pSARL_v2wt5lnkze","62728f0c68b9ecf571a2dbd4","fixation","img/fixation.png","null","","test","","","","","",""
"22.5","462821","pSARL_v2","pSARL_v2wt5lnkze","62728f0c68b9ecf571a2dbd4","freq","img/green_2bandit_a2.png","70","70","test","1","138","138","7","",""
"null","463603","pSARL_v2","pSARL_v2wt5lnkze","62728f0c68b9ecf571a2dbd4","freq_resp","img/green_2bandit_a.png","70","70","test","","","","7","",""
"null","463758","pSARL_v2","pSARL_v2wt5lnkze","62728f0c68b9ecf571a2dbd4","fixation","img/fixation.png","null","","test","","","","","",""
"36.80000000074506","463799","pSARL_v2","pSARL_v2wt5lnkze","62728f0c68b9ecf571a2dbd4","freq","img/green_2bandit_a2.png","70","70","test","1","139","139","7","",""
"null","464579","pSARL_v2","pSARL_v2wt5lnkze","62728f0c68b9ecf571a2dbd4","freq_resp","img/green_2bandit_a.png","70","70","test","","","","7","",""
"null","464734","pSARL_v2","pSARL_v2wt5lnkze","62728f0c68b9ecf571a2dbd4","fixation","img/fixation.png","null","","test","","","","","",""
"211.40000000037253","464949","pSARL_v2","pSARL_v2wt5lnkze","62728f0c68b9ecf571a2dbd4","freq","img/green_2bandit_a2.png","70","70","test","1","140","140","7","",""
"null","465555","pSARL_v2","pSARL_v2wt5lnkze","62728f0c68b9ecf571a2dbd4","freq_resp","img/green_2bandit_a.png","70","70","test","","","","7","",""
"null","465709","pSARL_v2","pSARL_v2wt5lnkze","62728f0c68b9ecf571a2dbd4","fixation","img/fixation.png","null","","test","","","","","",""
"210.59999999962747","465923","pSARL_v2","pSARL_v2wt5lnkze","62728f0c68b9ecf571a2dbd4","freq","img/green_2bandit_a2.png","70","70","test","1","141","141","7","",""
"null","466530","pSARL_v2","pSARL_v2wt5lnkze","62728f0c68b9ecf571a2dbd4","freq_resp","img/green_2bandit_a.png","70","70","test","","","","7","",""
"null","466686","pSARL_v2","pSARL_v2wt5lnkze","62728f0c68b9ecf571a2dbd4","fixation","img/fixation.png","null","","test","","","","","",""
"206.09999999962747","466895","pSARL_v2","pSARL_v2wt5lnkze","62728f0c68b9ecf571a2dbd4","freq","img/green_2bandit_a2.png","70","70","test","1","142","142","7","",""
"null","467504","pSARL_v2","pSARL_v2wt5lnkze","62728f0c68b9ecf571a2dbd4","freq_resp","img/green_2bandit_a.png","70","70","test","","","","7","",""
"null","467660","pSARL_v2","pSARL_v2wt5lnkze","62728f0c68b9ecf571a2dbd4","fixation","img/fixation.png","null","","test","","","","","",""
"175.2999999988824","467839","pSARL_v2","pSARL_v2wt5lnkze","62728f0c68b9ecf571a2dbd4","freq","img/green_2bandit_a2.png","70","70","test","1","143","143","7","",""
"null","468479","pSARL_v2","pSARL_v2wt5lnkze","62728f0c68b9ecf571a2dbd4","freq_resp","img/green_2bandit_a.png","70","70","test","","","","7","",""
"null","468633","pSARL_v2","pSARL_v2wt5lnkze","62728f0c68b9ecf571a2dbd4","fixation","img/fixation.png","null","","test","","","","","",""
"195.40000000037253","468833","pSARL_v2","pSARL_v2wt5lnkze","62728f0c68b9ecf571a2dbd4","freq","img/green_2bandit_a2.png","70","70","test","1","144","144","7","",""
"null","469454","pSARL_v2","pSARL_v2wt5lnkze","62728f0c68b9ecf571a2dbd4","freq_resp","img/green_2bandit_a.png","70","70","test","","","","7","",""
"null","469610","pSARL_v2","pSARL_v2wt5lnkze","62728f0c68b9ecf571a2dbd4","fixation","img/fixation.png","null","","test","","","","","",""
"238.59999999962747","469853","pSARL_v2","pSARL_v2wt5lnkze","62728f0c68b9ecf571a2dbd4","freq","img/green_2bandit_a2.png","70","70","test","1","145","145","7","",""
"null","470430","pSARL_v2","pSARL_v2wt5lnkze","62728f0c68b9ecf571a2dbd4","freq_resp","img/green_2bandit_a.png","70","70","test","","","","7","",""
"null","470584","pSARL_v2","pSARL_v2wt5lnkze","62728f0c68b9ecf571a2dbd4","fixation","img/fixation.png","null","","test","","","","","",""
"156.59999999962747","470744","pSARL_v2","pSARL_v2wt5lnkze","62728f0c68b9ecf571a2dbd4","freq","img/green_2bandit_a2.png","70","70","test","1","146","146","7","",""
"null","471403","pSARL_v2","pSARL_v2wt5lnkze","62728f0c68b9ecf571a2dbd4","freq_resp","img/green_2bandit_a.png","70","70","test","","","","7","",""
"null","471559","pSARL_v2","pSARL_v2wt5lnkze","62728f0c68b9ecf571a2dbd4","fixation","img/fixation.png","null","","test","","","","","",""
"232.2000000011176","471794","pSARL_v2","pSARL_v2wt5lnkze","62728f0c68b9ecf571a2dbd4","freq","img/green_2bandit_a2.png","70","70","test","1","147","147","7","",""
"null","472378","pSARL_v2","pSARL_v2wt5lnkze","62728f0c68b9ecf571a2dbd4","freq_resp","img/green_2bandit_a.png","70","70","test","","","","7","",""
"null","472533","pSARL_v2","pSARL_v2wt5lnkze","62728f0c68b9ecf571a2dbd4","fixation","img/fixation.png","null","","test","","","","","",""
"259.5","472797","pSARL_v2","pSARL_v2wt5lnkze","62728f0c68b9ecf571a2dbd4","freq","img/green_2bandit_a2.png","70","70","test","1","148","148","7","",""
"null","473355","pSARL_v2","pSARL_v2wt5lnkze","62728f0c68b9ecf571a2dbd4","freq_resp","img/green_2bandit_a.png","70","70","test","","","","7","",""
"null","473510","pSARL_v2","pSARL_v2wt5lnkze","62728f0c68b9ecf571a2dbd4","fixation","img/fixation.png","null","","test","","","","","",""
"244.39999999850988","473759","pSARL_v2","pSARL_v2wt5lnkze","62728f0c68b9ecf571a2dbd4","freq","img/green_2bandit_a2.png","70","70","test","1","149","149","7","",""
"null","474329","pSARL_v2","pSARL_v2wt5lnkze","62728f0c68b9ecf571a2dbd4","freq_resp","img/green_2bandit_a.png","70","70","test","","","","7","",""
"null","474484","pSARL_v2","pSARL_v2wt5lnkze","62728f0c68b9ecf571a2dbd4","fixation","img/fixation.png","null","","test","","","","","",""
"347.40000000037253","474835","pSARL_v2","pSARL_v2wt5lnkze","62728f0c68b9ecf571a2dbd4","infreq","img/orange_2bandit_a2.png","68","68","test","1","150","150","7","",""
"null","475301","pSARL_v2","pSARL_v2wt5lnkze","62728f0c68b9ecf571a2dbd4","infreq_resp","img/orange_2bandit_a.png","68","68","test","","","","7","",""
"null","475453","pSARL_v2","pSARL_v2wt5lnkze","62728f0c68b9ecf571a2dbd4","fixation","img/fixation.png","null","","test","","","","","",""
"562.4000000003725","476019","pSARL_v2","pSARL_v2wt5lnkze","62728f0c68b9ecf571a2dbd4","freq","img/green_2bandit_a2.png","70","70","test","1","151","151","7","",""
"null","476260","pSARL_v2","pSARL_v2wt5lnkze","62728f0c68b9ecf571a2dbd4","freq_resp","img/green_2bandit_a.png","70","70","test","","","","7","",""
"null","476414","pSARL_v2","pSARL_v2wt5lnkze","62728f0c68b9ecf571a2dbd4","fixation","img/fixation.png","null","","test","","","","","",""
"370.90000000037253","476789","pSARL_v2","pSARL_v2wt5lnkze","62728f0c68b9ecf571a2dbd4","freq","img/green_2bandit_a2.png","70","70","test","1","152","152","7","",""
"null","477234","pSARL_v2","pSARL_v2wt5lnkze","62728f0c68b9ecf571a2dbd4","freq_resp","img/green_2bandit_a.png","70","70","test","","","","7","",""
"null","477391","pSARL_v2","pSARL_v2wt5lnkze","62728f0c68b9ecf571a2dbd4","fixation","img/fixation.png","null","","test","","","","","",""
"282.3999999985099","477676","pSARL_v2","pSARL_v2wt5lnkze","62728f0c68b9ecf571a2dbd4","freq","img/green_2bandit_a2.png","70","70","test","1","153","153","7","",""
"null","478199","pSARL_v2","pSARL_v2wt5lnkze","62728f0c68b9ecf571a2dbd4","freq_resp","img/green_2bandit_a.png","70","70","test","","","","7","",""
"null","478353","pSARL_v2","pSARL_v2wt5lnkze","62728f0c68b9ecf571a2dbd4","fixation","img/fixation.png","null","","test","","","","","",""
"301.3999999985099","478658","pSARL_v2","pSARL_v2wt5lnkze","62728f0c68b9ecf571a2dbd4","freq","img/green_2bandit_a2.png","70","70","test","1","154","154","7","",""
"null","479162","pSARL_v2","pSARL_v2wt5lnkze","62728f0c68b9ecf571a2dbd4","freq_resp","img/green_2bandit_a.png","70","70","test","","","","7","",""
"null","479317","pSARL_v2","pSARL_v2wt5lnkze","62728f0c68b9ecf571a2dbd4","fixation","img/fixation.png","null","","test","","","","","",""
"266.90000000037253","479588","pSARL_v2","pSARL_v2wt5lnkze","62728f0c68b9ecf571a2dbd4","freq","img/green_2bandit_a2.png","70","70","test","1","155","155","7","",""
"null","480137","pSARL_v2","pSARL_v2wt5lnkze","62728f0c68b9ecf571a2dbd4","freq_resp","img/green_2bandit_a.png","70","70","test","","","","7","",""
"null","480291","pSARL_v2","pSARL_v2wt5lnkze","62728f0c68b9ecf571a2dbd4","fixation","img/fixation.png","null","","test","","","","","",""
"265.69999999925494","480561","pSARL_v2","pSARL_v2wt5lnkze","62728f0c68b9ecf571a2dbd4","freq","img/green_2bandit_a2.png","70","70","test","1","156","156","7","",""
"null","481112","pSARL_v2","pSARL_v2wt5lnkze","62728f0c68b9ecf571a2dbd4","freq_resp","img/green_2bandit_a.png","70","70","test","","","","7","",""
"null","481266","pSARL_v2","pSARL_v2wt5lnkze","62728f0c68b9ecf571a2dbd4","fixation","img/fixation.png","null","","test","","","","","",""
"447.80000000074506","481717","pSARL_v2","pSARL_v2wt5lnkze","62728f0c68b9ecf571a2dbd4","infreq","img/orange_2bandit_a2.png","68","68","test","1","157","157","7","",""
"null","482087","pSARL_v2","pSARL_v2wt5lnkze","62728f0c68b9ecf571a2dbd4","infreq_resp","img/orange_2bandit_a.png","68","68","test","","","","7","",""
"null","482242","pSARL_v2","pSARL_v2wt5lnkze","62728f0c68b9ecf571a2dbd4","fixation","img/fixation.png","null","","test","","","","","",""
"299.5","482545","pSARL_v2","pSARL_v2wt5lnkze","62728f0c68b9ecf571a2dbd4","freq","img/green_2bandit_a2.png","70","70","test","1","158","158","7","",""
"null","483049","pSARL_v2","pSARL_v2wt5lnkze","62728f0c68b9ecf571a2dbd4","freq_resp","img/green_2bandit_a.png","70","70","test","","","","7","",""
"null","483204","pSARL_v2","pSARL_v2wt5lnkze","62728f0c68b9ecf571a2dbd4","fixation","img/fixation.png","null","","test","","","","","",""
"429.1000000014901","483637","pSARL_v2","pSARL_v2wt5lnkze","62728f0c68b9ecf571a2dbd4","freq","img/green_2bandit_a2.png","68","70","test","0","159","159","7","",""
"null","484011","pSARL_v2","pSARL_v2wt5lnkze","62728f0c68b9ecf571a2dbd4","freq_resp","img/green_2bandit_a.png","68","70","test","","","","7","",""
"null","484167","pSARL_v2","pSARL_v2wt5lnkze","62728f0c68b9ecf571a2dbd4","fixation","img/fixation.png","null","","test","","","","","",""
"402.80000000074506","484574","pSARL_v2","pSARL_v2wt5lnkze","62728f0c68b9ecf571a2dbd4","reward","img/slot.png","74","","test","","","","","",""
"null","485339","pSARL_v2","pSARL_v2wt5lnkze","62728f0c68b9ecf571a2dbd4","points","<div class=""verylowPoints""> -6 </div>","null","na","test","","","","7","-6","6"
"406.19999999925494","485749","pSARL_v2","pSARL_v2wt5lnkze","62728f0c68b9ecf571a2dbd4","freq","img/green_2bandit_a2.png","70","70","test","1","160","160","8","",""
"null","486158","pSARL_v2","pSARL_v2wt5lnkze","62728f0c68b9ecf571a2dbd4","freq_resp","img/green_2bandit_a.png","70","70","test","","","","8","",""
"null","486314","pSARL_v2","pSARL_v2wt5lnkze","62728f0c68b9ecf571a2dbd4","fixation","img/fixation.png","null","","test","","","","","",""
"351.09999999962747","486668","pSARL_v2","pSARL_v2wt5lnkze","62728f0c68b9ecf571a2dbd4","freq","img/green_2bandit_a2.png","70","70","test","1","161","161","8","",""
"null","487131","pSARL_v2","pSARL_v2wt5lnkze","62728f0c68b9ecf571a2dbd4","freq_resp","img/green_2bandit_a.png","70","70","test","","","","8","",""
"null","487287","pSARL_v2","pSARL_v2wt5lnkze","62728f0c68b9ecf571a2dbd4","fixation","img/fixation.png","null","","test","","","","","",""
"482.19999999925494","487772","pSARL_v2","pSARL_v2wt5lnkze","62728f0c68b9ecf571a2dbd4","infreq","img/orange_2bandit_a2.png","68","68","test","1","162","162","8","",""
"null","488103","pSARL_v2","pSARL_v2wt5lnkze","62728f0c68b9ecf571a2dbd4","infreq_resp","img/orange_2bandit_a.png","68","68","test","","","","8","",""
"null","488258","pSARL_v2","pSARL_v2wt5lnkze","62728f0c68b9ecf571a2dbd4","fixation","img/fixation.png","null","","test","","","","","",""
"317.5","488580","pSARL_v2","pSARL_v2wt5lnkze","62728f0c68b9ecf571a2dbd4","freq","img/green_2bandit_a2.png","70","70","test","1","163","163","8","",""
"null","489077","pSARL_v2","pSARL_v2wt5lnkze","62728f0c68b9ecf571a2dbd4","freq_resp","img/green_2bandit_a.png","70","70","test","","","","8","",""
"null","489233","pSARL_v2","pSARL_v2wt5lnkze","62728f0c68b9ecf571a2dbd4","fixation","img/fixation.png","null","","test","","","","","",""
"418.30000000074506","489655","pSARL_v2","pSARL_v2wt5lnkze","62728f0c68b9ecf571a2dbd4","freq","img/green_2bandit_a2.png","70","70","test","1","164","164","8","",""
"null","490052","pSARL_v2","pSARL_v2wt5lnkze","62728f0c68b9ecf571a2dbd4","freq_resp","img/green_2bandit_a.png","70","70","test","","","","8","",""
"null","490206","pSARL_v2","pSARL_v2wt5lnkze","62728f0c68b9ecf571a2dbd4","fixation","img/fixation.png","null","","test","","","","","",""
"280.09999999962747","490489","pSARL_v2","pSARL_v2wt5lnkze","62728f0c68b9ecf571a2dbd4","freq","img/green_2bandit_a2.png","70","70","test","1","165","165","8","",""
"null","491014","pSARL_v2","pSARL_v2wt5lnkze","62728f0c68b9ecf571a2dbd4","freq_resp","img/green_2bandit_a.png","70","70","test","","","","8","",""
"null","491171","pSARL_v2","pSARL_v2wt5lnkze","62728f0c68b9ecf571a2dbd4","fixation","img/fixation.png","null","","test","","","","","",""
"77.60000000149012","491252","pSARL_v2","pSARL_v2wt5lnkze","62728f0c68b9ecf571a2dbd4","freq","img/green_2bandit_a2.png","70","70","test","1","166","166","8","",""
"null","491990","pSARL_v2","pSARL_v2wt5lnkze","62728f0c68b9ecf571a2dbd4","freq_resp","img/green_2bandit_a.png","70","70","test","","","","8","",""
"null","492145","pSARL_v2","pSARL_v2wt5lnkze","62728f0c68b9ecf571a2dbd4","fixation","img/fixation.png","null","","test","","","","","",""
"179.2000000011176","492328","pSARL_v2","pSARL_v2wt5lnkze","62728f0c68b9ecf571a2dbd4","infreq","img/orange_2bandit_a2.png","70","68","test","0","167","167","8","",""
"null","492965","pSARL_v2","pSARL_v2wt5lnkze","62728f0c68b9ecf571a2dbd4","infreq_resp","img/orange_2bandit_a.png","70","68","test","","","","8","",""
"null","493119","pSARL_v2","pSARL_v2wt5lnkze","62728f0c68b9ecf571a2dbd4","fixation","img/fixation.png","null","","test","","","","","",""
"422.7000000011176","493546","pSARL_v2","pSARL_v2wt5lnkze","62728f0c68b9ecf571a2dbd4","infreq","img/orange_2bandit_a2.png","68","68","test","1","168","168","8","",""
"null","493926","pSARL_v2","pSARL_v2wt5lnkze","62728f0c68b9ecf571a2dbd4","infreq_resp","img/orange_2bandit_a.png","68","68","test","","","","8","",""
"null","494094","pSARL_v2","pSARL_v2wt5lnkze","62728f0c68b9ecf571a2dbd4","fixation","img/fixation.png","null","","test","","","","","",""
"392.09999999962747","494490","pSARL_v2","pSARL_v2wt5lnkze","62728f0c68b9ecf571a2dbd4","freq","img/green_2bandit_a2.png","70","70","test","1","169","169","8","",""
"null","494900","pSARL_v2","pSARL_v2wt5lnkze","62728f0c68b9ecf571a2dbd4","freq_resp","img/green_2bandit_a.png","70","70","test","","","","8","",""
"null","495056","pSARL_v2","pSARL_v2wt5lnkze","62728f0c68b9ecf571a2dbd4","fixation","img/fixation.png","null","","test","","","","","",""
"318","495378","pSARL_v2","pSARL_v2wt5lnkze","62728f0c68b9ecf571a2dbd4","freq","img/green_2bandit_a2.png","70","70","test","1","170","170","8","",""
"null","495864","pSARL_v2","pSARL_v2wt5lnkze","62728f0c68b9ecf571a2dbd4","freq_resp","img/green_2bandit_a.png","70","70","test","","","","8","",""
"null","496019","pSARL_v2","pSARL_v2wt5lnkze","62728f0c68b9ecf571a2dbd4","fixation","img/fixation.png","null","","test","","","","","",""
"391.30000000074506","496414","pSARL_v2","pSARL_v2wt5lnkze","62728f0c68b9ecf571a2dbd4","freq","img/green_2bandit_a2.png","70","70","test","1","171","171","8","",""
"null","496827","pSARL_v2","pSARL_v2wt5lnkze","62728f0c68b9ecf571a2dbd4","freq_resp","img/green_2bandit_a.png","70","70","test","","","","8","",""
"null","496984","pSARL_v2","pSARL_v2wt5lnkze","62728f0c68b9ecf571a2dbd4","fixation","img/fixation.png","null","","test","","","","","",""
"394.30000000074506","497382","pSARL_v2","pSARL_v2wt5lnkze","62728f0c68b9ecf571a2dbd4","freq","img/green_2bandit_a2.png","70","70","test","1","172","172","8","",""
"null","497805","pSARL_v2","pSARL_v2wt5lnkze","62728f0c68b9ecf571a2dbd4","freq_resp","img/green_2bandit_a.png","70","70","test","","","","8","",""
"null","497959","pSARL_v2","pSARL_v2wt5lnkze","62728f0c68b9ecf571a2dbd4","fixation","img/fixation.png","null","","test","","","","","",""
"318.09999999962747","498280","pSARL_v2","pSARL_v2wt5lnkze","62728f0c68b9ecf571a2dbd4","freq","img/green_2bandit_a2.png","70","70","test","1","173","173","8","",""
"null","498768","pSARL_v2","pSARL_v2wt5lnkze","62728f0c68b9ecf571a2dbd4","freq_resp","img/green_2bandit_a.png","70","70","test","","","","8","",""
"null","498923","pSARL_v2","pSARL_v2wt5lnkze","62728f0c68b9ecf571a2dbd4","fixation","img/fixation.png","null","","test","","","","","",""
"271.5","499198","pSARL_v2","pSARL_v2wt5lnkze","62728f0c68b9ecf571a2dbd4","freq","img/green_2bandit_a2.png","70","70","test","1","174","174","8","",""
"null","499741","pSARL_v2","pSARL_v2wt5lnkze","62728f0c68b9ecf571a2dbd4","freq_resp","img/green_2bandit_a.png","70","70","test","","","","8","",""
"null","499897","pSARL_v2","pSARL_v2wt5lnkze","62728f0c68b9ecf571a2dbd4","fixation","img/fixation.png","null","","test","","","","","",""
"302.59999999962747","500204","pSARL_v2","pSARL_v2wt5lnkze","62728f0c68b9ecf571a2dbd4","freq","img/green_2bandit_a2.png","70","70","test","1","175","175","8","",""
"null","500705","pSARL_v2","pSARL_v2wt5lnkze","62728f0c68b9ecf571a2dbd4","freq_resp","img/green_2bandit_a.png","70","70","test","","","","8","",""
"null","500860","pSARL_v2","pSARL_v2wt5lnkze","62728f0c68b9ecf571a2dbd4","fixation","img/fixation.png","null","","test","","","","","",""
"358.40000000037253","501222","pSARL_v2","pSARL_v2wt5lnkze","62728f0c68b9ecf571a2dbd4","freq","img/green_2bandit_a2.png","70","70","test","1","176","176","8","",""
"null","501680","pSARL_v2","pSARL_v2wt5lnkze","62728f0c68b9ecf571a2dbd4","freq_resp","img/green_2bandit_a.png","70","70","test","","","","8","",""
"null","501847","pSARL_v2","pSARL_v2wt5lnkze","62728f0c68b9ecf571a2dbd4","fixation","img/fixation.png","null","","test","","","","","",""
"476.80000000074506","502327","pSARL_v2","pSARL_v2wt5lnkze","62728f0c68b9ecf571a2dbd4","freq","img/green_2bandit_a2.png","70","70","test","1","177","177","8","",""
"null","502662","pSARL_v2","pSARL_v2wt5lnkze","62728f0c68b9ecf571a2dbd4","freq_resp","img/green_2bandit_a.png","70","70","test","","","","8","",""
"null","502816","pSARL_v2","pSARL_v2wt5lnkze","62728f0c68b9ecf571a2dbd4","fixation","img/fixation.png","null","","test","","","","","",""
"372.09999999962747","503191","pSARL_v2","pSARL_v2wt5lnkze","62728f0c68b9ecf571a2dbd4","freq","img/green_2bandit_a2.png","70","70","test","1","178","178","8","",""
"null","503634","pSARL_v2","pSARL_v2wt5lnkze","62728f0c68b9ecf571a2dbd4","freq_resp","img/green_2bandit_a.png","70","70","test","","","","8","",""
"null","503789","pSARL_v2","pSARL_v2wt5lnkze","62728f0c68b9ecf571a2dbd4","fixation","img/fixation.png","null","","test","","","","","",""
"240.7000000011176","504033","pSARL_v2","pSARL_v2wt5lnkze","62728f0c68b9ecf571a2dbd4","freq","img/green_2bandit_a2.png","70","70","test","1","179","179","8","",""
"null","504607","pSARL_v2","pSARL_v2wt5lnkze","62728f0c68b9ecf571a2dbd4","freq_resp","img/green_2bandit_a.png","70","70","test","","","","8","",""
"null","504776","pSARL_v2","pSARL_v2wt5lnkze","62728f0c68b9ecf571a2dbd4","fixation","img/fixation.png","null","","test","","","","","",""
"239.09999999962747","505018","pSARL_v2","pSARL_v2wt5lnkze","62728f0c68b9ecf571a2dbd4","freq","img/green_2bandit_a2.png","70","70","test","1","180","180","8","",""
"null","505584","pSARL_v2","pSARL_v2wt5lnkze","62728f0c68b9ecf571a2dbd4","freq_resp","img/green_2bandit_a.png","70","70","test","","","","8","",""
"null","505738","pSARL_v2","pSARL_v2wt5lnkze","62728f0c68b9ecf571a2dbd4","fixation","img/fixation.png","null","","test","","","","","",""
"209.39999999850988","505951","pSARL_v2","pSARL_v2wt5lnkze","62728f0c68b9ecf571a2dbd4","freq","img/green_2bandit_a2.png","70","70","test","1","181","181","8","",""
"null","506556","pSARL_v2","pSARL_v2wt5lnkze","62728f0c68b9ecf571a2dbd4","freq_resp","img/green_2bandit_a.png","70","70","test","","","","8","",""
"null","506725","pSARL_v2","pSARL_v2wt5lnkze","62728f0c68b9ecf571a2dbd4","fixation","img/fixation.png","null","","test","","","","","",""
"221.40000000037253","506950","pSARL_v2","pSARL_v2wt5lnkze","62728f0c68b9ecf571a2dbd4","freq","img/green_2bandit_a2.png","70","70","test","1","182","182","8","",""
"null","507540","pSARL_v2","pSARL_v2wt5lnkze","62728f0c68b9ecf571a2dbd4","freq_resp","img/green_2bandit_a.png","70","70","test","","","","8","",""
"null","507695","pSARL_v2","pSARL_v2wt5lnkze","62728f0c68b9ecf571a2dbd4","fixation","img/fixation.png","null","","test","","","","","",""
"381.1000000014901","508079","pSARL_v2","pSARL_v2wt5lnkze","62728f0c68b9ecf571a2dbd4","reward","img/slot.png","74","","test","","","","","",""
"null","508843","pSARL_v2","pSARL_v2wt5lnkze","62728f0c68b9ecf571a2dbd4","points","<div class=""verylowPoints""> -4 </div>","null","na","test","","","","8","-4","7"
"287","509134","pSARL_v2","pSARL_v2wt5lnkze","62728f0c68b9ecf571a2dbd4","freq","img/green_2bandit_a2.png","70","70","test","1","183","183","9","",""
"null","509651","pSARL_v2","pSARL_v2wt5lnkze","62728f0c68b9ecf571a2dbd4","freq_resp","img/green_2bandit_a.png","70","70","test","","","","9","",""
"null","509806","pSARL_v2","pSARL_v2wt5lnkze","62728f0c68b9ecf571a2dbd4","fixation","img/fixation.png","null","","test","","","","","",""
"360.80000000074506","510171","pSARL_v2","pSARL_v2wt5lnkze","62728f0c68b9ecf571a2dbd4","freq","img/green_2bandit_a2.png","70","70","test","1","184","184","9","",""
"null","510629","pSARL_v2","pSARL_v2wt5lnkze","62728f0c68b9ecf571a2dbd4","freq_resp","img/green_2bandit_a.png","70","70","test","","","","9","",""
"null","510783","pSARL_v2","pSARL_v2wt5lnkze","62728f0c68b9ecf571a2dbd4","fixation","img/fixation.png","null","","test","","","","","",""
"341.7999999988824","511128","pSARL_v2","pSARL_v2wt5lnkze","62728f0c68b9ecf571a2dbd4","freq","img/green_2bandit_a2.png","70","70","test","1","185","185","9","",""
"null","511605","pSARL_v2","pSARL_v2wt5lnkze","62728f0c68b9ecf571a2dbd4","freq_resp","img/green_2bandit_a.png","70","70","test","","","","9","",""
"null","511759","pSARL_v2","pSARL_v2wt5lnkze","62728f0c68b9ecf571a2dbd4","fixation","img/fixation.png","null","","test","","","","","",""
"492.19999999925494","512255","pSARL_v2","pSARL_v2wt5lnkze","62728f0c68b9ecf571a2dbd4","freq","img/green_2bandit_a2.png","70","70","test","1","186","186","9","",""
"null","512580","pSARL_v2","pSARL_v2wt5lnkze","62728f0c68b9ecf571a2dbd4","freq_resp","img/green_2bandit_a.png","70","70","test","","","","9","",""
"null","512734","pSARL_v2","pSARL_v2wt5lnkze","62728f0c68b9ecf571a2dbd4","fixation","img/fixation.png","null","","test","","","","","",""
"375","513112","pSARL_v2","pSARL_v2wt5lnkze","62728f0c68b9ecf571a2dbd4","freq","img/green_2bandit_a2.png","70","70","test","1","187","187","9","",""
"null","513553","pSARL_v2","pSARL_v2wt5lnkze","62728f0c68b9ecf571a2dbd4","freq_resp","img/green_2bandit_a.png","70","70","test","","","","9","",""
"null","513708","pSARL_v2","pSARL_v2wt5lnkze","62728f0c68b9ecf571a2dbd4","fixation","img/fixation.png","null","","test","","","","","",""
"445.69999999925494","514158","pSARL_v2","pSARL_v2wt5lnkze","62728f0c68b9ecf571a2dbd4","infreq","img/orange_2bandit_a2.png","68","68","test","1","188","188","9","",""
"null","514528","pSARL_v2","pSARL_v2wt5lnkze","62728f0c68b9ecf571a2dbd4","infreq_resp","img/orange_2bandit_a.png","68","68","test","","","","9","",""
"null","514684","pSARL_v2","pSARL_v2wt5lnkze","62728f0c68b9ecf571a2dbd4","fixation","img/fixation.png","null","","test","","","","","",""
"null","515488","pSARL_v2","pSARL_v2wt5lnkze","62728f0c68b9ecf571a2dbd4","freq","img/green_2bandit_a2.png","null","70","test","0","189","189","9","",""
"null","515655","pSARL_v2","pSARL_v2wt5lnkze","62728f0c68b9ecf571a2dbd4","fixation","img/fixation.png","null","","test","","","","","",""
"497.40000000037253","516156","pSARL_v2","pSARL_v2wt5lnkze","62728f0c68b9ecf571a2dbd4","freq","img/green_2bandit_a2.png","70","70","test","1","190","190","9","",""
"null","516474","pSARL_v2","pSARL_v2wt5lnkze","62728f0c68b9ecf571a2dbd4","freq_resp","img/green_2bandit_a.png","70","70","test","","","","9","",""
"null","516629","pSARL_v2","pSARL_v2wt5lnkze","62728f0c68b9ecf571a2dbd4","fixation","img/fixation.png","null","","test","","","","","",""
"406.5","517039","pSARL_v2","pSARL_v2wt5lnkze","62728f0c68b9ecf571a2dbd4","freq","img/green_2bandit_a2.png","70","70","test","1","191","191","9","",""
"null","517449","pSARL_v2","pSARL_v2wt5lnkze","62728f0c68b9ecf571a2dbd4","freq_resp","img/green_2bandit_a.png","70","70","test","","","","9","",""
"null","517603","pSARL_v2","pSARL_v2wt5lnkze","62728f0c68b9ecf571a2dbd4","fixation","img/fixation.png","null","","test","","","","","",""
"327.09999999962747","517933","pSARL_v2","pSARL_v2wt5lnkze","62728f0c68b9ecf571a2dbd4","freq","img/green_2bandit_a2.png","70","70","test","1","192","192","9","",""
"null","518422","pSARL_v2","pSARL_v2wt5lnkze","62728f0c68b9ecf571a2dbd4","freq_resp","img/green_2bandit_a.png","70","70","test","","","","9","",""
"null","518578","pSARL_v2","pSARL_v2wt5lnkze","62728f0c68b9ecf571a2dbd4","fixation","img/fixation.png","null","","test","","","","","",""
"318.80000000074506","518900","pSARL_v2","pSARL_v2wt5lnkze","62728f0c68b9ecf571a2dbd4","freq","img/green_2bandit_a2.png","70","70","test","1","193","193","9","",""
"null","519399","pSARL_v2","pSARL_v2wt5lnkze","62728f0c68b9ecf571a2dbd4","freq_resp","img/green_2bandit_a.png","70","70","test","","","","9","",""
"null","519554","pSARL_v2","pSARL_v2wt5lnkze","62728f0c68b9ecf571a2dbd4","fixation","img/fixation.png","null","","test","","","","","",""
"405.09999999962747","519962","pSARL_v2","pSARL_v2wt5lnkze","62728f0c68b9ecf571a2dbd4","freq","img/green_2bandit_a2.png","70","70","test","1","194","194","9","",""
"null","520361","pSARL_v2","pSARL_v2wt5lnkze","62728f0c68b9ecf571a2dbd4","freq_resp","img/green_2bandit_a.png","70","70","test","","","","9","",""
"null","520516","pSARL_v2","pSARL_v2wt5lnkze","62728f0c68b9ecf571a2dbd4","fixation","img/fixation.png","null","","test","","","","","",""
"315.90000000037253","520835","pSARL_v2","pSARL_v2wt5lnkze","62728f0c68b9ecf571a2dbd4","freq","img/green_2bandit_a2.png","70","70","test","1","195","195","9","",""
"null","521333","pSARL_v2","pSARL_v2wt5lnkze","62728f0c68b9ecf571a2dbd4","freq_resp","img/green_2bandit_a.png","70","70","test","","","","9","",""
"null","521487","pSARL_v2","pSARL_v2wt5lnkze","62728f0c68b9ecf571a2dbd4","fixation","img/fixation.png","null","","test","","","","","",""
"212.69999999925494","521703","pSARL_v2","pSARL_v2wt5lnkze","62728f0c68b9ecf571a2dbd4","freq","img/green_2bandit_a2.png","70","70","test","1","196","196","9","",""
"null","522308","pSARL_v2","pSARL_v2wt5lnkze","62728f0c68b9ecf571a2dbd4","freq_resp","img/green_2bandit_a.png","70","70","test","","","","9","",""
"null","522464","pSARL_v2","pSARL_v2wt5lnkze","62728f0c68b9ecf571a2dbd4","fixation","img/fixation.png","null","","test","","","","","",""
"225.59999999962747","522693","pSARL_v2","pSARL_v2wt5lnkze","62728f0c68b9ecf571a2dbd4","freq","img/green_2bandit_a2.png","70","70","test","1","197","197","9","",""
"null","523286","pSARL_v2","pSARL_v2wt5lnkze","62728f0c68b9ecf571a2dbd4","freq_resp","img/green_2bandit_a.png","70","70","test","","","","9","",""
"null","523441","pSARL_v2","pSARL_v2wt5lnkze","62728f0c68b9ecf571a2dbd4","fixation","img/fixation.png","null","","test","","","","","",""
"108","523553","pSARL_v2","pSARL_v2wt5lnkze","62728f0c68b9ecf571a2dbd4","freq","img/green_2bandit_a2.png","70","70","test","1","198","198","9","",""
"null","524257","pSARL_v2","pSARL_v2wt5lnkze","62728f0c68b9ecf571a2dbd4","freq_resp","img/green_2bandit_a.png","70","70","test","","","","9","",""
"null","524413","pSARL_v2","pSARL_v2wt5lnkze","62728f0c68b9ecf571a2dbd4","fixation","img/fixation.png","null","","test","","","","","",""
"151.5","524567","pSARL_v2","pSARL_v2wt5lnkze","62728f0c68b9ecf571a2dbd4","infreq","img/orange_2bandit_a2.png","70","68","test","0","199","199","9","",""
"null","525232","pSARL_v2","pSARL_v2wt5lnkze","62728f0c68b9ecf571a2dbd4","infreq_resp","img/orange_2bandit_a.png","70","68","test","","","","9","",""
"null","525387","pSARL_v2","pSARL_v2wt5lnkze","62728f0c68b9ecf571a2dbd4","fixation","img/fixation.png","null","","test","","","","","",""
"781.4000000003725","526173","pSARL_v2","pSARL_v2wt5lnkze","62728f0c68b9ecf571a2dbd4","freq","img/green_2bandit_a2.png","70","70","test","1","200","200","9","",""
"null","526196","pSARL_v2","pSARL_v2wt5lnkze","62728f0c68b9ecf571a2dbd4","freq_resp","img/green_2bandit_a.png","70","70","test","","","","9","",""
"null","526348","pSARL_v2","pSARL_v2wt5lnkze","62728f0c68b9ecf571a2dbd4","fixation","img/fixation.png","null","","test","","","","","",""
"682.3999999985099","527034","pSARL_v2","pSARL_v2wt5lnkze","62728f0c68b9ecf571a2dbd4","freq","img/green_2bandit_a2.png","70","70","test","1","201","201","9","",""
"null","527157","pSARL_v2","pSARL_v2wt5lnkze","62728f0c68b9ecf571a2dbd4","freq_resp","img/green_2bandit_a.png","70","70","test","","","","9","",""
"null","527310","pSARL_v2","pSARL_v2wt5lnkze","62728f0c68b9ecf571a2dbd4","fixation","img/fixation.png","null","","test","","","","","",""
"655.7000000011176","527969","pSARL_v2","pSARL_v2wt5lnkze","62728f0c68b9ecf571a2dbd4","freq","img/green_2bandit_a2.png","70","70","test","1","202","202","9","",""
"null","528120","pSARL_v2","pSARL_v2wt5lnkze","62728f0c68b9ecf571a2dbd4","freq_resp","img/green_2bandit_a.png","70","70","test","","","","9","",""
"null","528274","pSARL_v2","pSARL_v2wt5lnkze","62728f0c68b9ecf571a2dbd4","fixation","img/fixation.png","null","","test","","","","","",""
"391.09999999962747","528668","pSARL_v2","pSARL_v2wt5lnkze","62728f0c68b9ecf571a2dbd4","reward","img/slot.png","74","","test","","","","","",""
"null","529432","pSARL_v2","pSARL_v2wt5lnkze","62728f0c68b9ecf571a2dbd4","points","<div class=""verylowPoints""> -3 </div>","null","na","test","","","","9","-3","8"
"407.1000000014901","529843","pSARL_v2","pSARL_v2wt5lnkze","62728f0c68b9ecf571a2dbd4","freq","img/green_2bandit_a2.png","70","70","test","1","203","203","10","",""
"null","530239","pSARL_v2","pSARL_v2wt5lnkze","62728f0c68b9ecf571a2dbd4","freq_resp","img/green_2bandit_a.png","70","70","test","","","","10","",""
"null","530394","pSARL_v2","pSARL_v2wt5lnkze","62728f0c68b9ecf571a2dbd4","fixation","img/fixation.png","null","","test","","","","","",""
"515.9000000003725","530914","pSARL_v2","pSARL_v2wt5lnkze","62728f0c68b9ecf571a2dbd4","freq","img/green_2bandit_a2.png","70","70","test","1","204","204","10","",""
"null","531217","pSARL_v2","pSARL_v2wt5lnkze","62728f0c68b9ecf571a2dbd4","freq_resp","img/green_2bandit_a.png","70","70","test","","","","10","",""
"null","531372","pSARL_v2","pSARL_v2wt5lnkze","62728f0c68b9ecf571a2dbd4","fixation","img/fixation.png","null","","test","","","","","",""
"388.8999999985099","531765","pSARL_v2","pSARL_v2wt5lnkze","62728f0c68b9ecf571a2dbd4","freq","img/green_2bandit_a2.png","70","70","test","1","205","205","10","",""
"null","532189","pSARL_v2","pSARL_v2wt5lnkze","62728f0c68b9ecf571a2dbd4","freq_resp","img/green_2bandit_a.png","70","70","test","","","","10","",""
"null","532345","pSARL_v2","pSARL_v2wt5lnkze","62728f0c68b9ecf571a2dbd4","fixation","img/fixation.png","null","","test","","","","","",""
"460.30000000074506","532809","pSARL_v2","pSARL_v2wt5lnkze","62728f0c68b9ecf571a2dbd4","infreq","img/orange_2bandit_a2.png","68","68","test","1","206","206","10","",""
"null","533154","pSARL_v2","pSARL_v2wt5lnkze","62728f0c68b9ecf571a2dbd4","infreq_resp","img/orange_2bandit_a.png","68","68","test","","","","10","",""
"null","533308","pSARL_v2","pSARL_v2wt5lnkze","62728f0c68b9ecf571a2dbd4","fixation","img/fixation.png","null","","test","","","","","",""
"435.7000000011176","533748","pSARL_v2","pSARL_v2wt5lnkze","62728f0c68b9ecf571a2dbd4","freq","img/green_2bandit_a2.png","68","70","test","0","207","207","10","",""
"null","534128","pSARL_v2","pSARL_v2wt5lnkze","62728f0c68b9ecf571a2dbd4","freq_resp","img/green_2bandit_a.png","68","70","test","","","","10","",""
"null","534284","pSARL_v2","pSARL_v2wt5lnkze","62728f0c68b9ecf571a2dbd4","fixation","img/fixation.png","null","","test","","","","","",""
"303.30000000074506","534591","pSARL_v2","pSARL_v2wt5lnkze","62728f0c68b9ecf571a2dbd4","freq","img/green_2bandit_a2.png","70","70","test","1","208","208","10","",""
"null","535090","pSARL_v2","pSARL_v2wt5lnkze","62728f0c68b9ecf571a2dbd4","freq_resp","img/green_2bandit_a.png","70","70","test","","","","10","",""
"null","535245","pSARL_v2","pSARL_v2wt5lnkze","62728f0c68b9ecf571a2dbd4","fixation","img/fixation.png","null","","test","","","","","",""
