"rt","time_elapsed","expId","subject","prolificID","trialType","stimulus","key_press","corrresp","phase","corr","trialNum","attentionRunNum","blockNum","points","rlNum"
"8462","8471","pSARL_v2","pSARL_v2mkq4wg1j","62dfdd3c61b792d28de9d0e3","","","","","","","","","","",""
"","10989","pSARL_v2","pSARL_v2mkq4wg1j","62dfdd3c61b792d28de9d0e3","fullscreen","","","","","","","","","",""
"94729","105724","pSARL_v2","pSARL_v2mkq4wg1j","62dfdd3c61b792d28de9d0e3","","","","","","","","","","",""
"null","106535","pSARL_v2","pSARL_v2mkq4wg1j","62dfdd3c61b792d28de9d0e3","freqPrac","img/orange_2bandit_a2.png","null","70","prac","0","","","","",""
"null","107548","pSARL_v2","pSARL_v2mkq4wg1j","62dfdd3c61b792d28de9d0e3","feedback","img/tooSlow.png","null","na","prac","","","","","",""
"null","107707","pSARL_v2","pSARL_v2mkq4wg1j","62dfdd3c61b792d28de9d0e3","fixation","img/fixation.png","null","","prac","","","","","",""
"null","108519","pSARL_v2","pSARL_v2mkq4wg1j","62dfdd3c61b792d28de9d0e3","infreqPrac","img/green_2bandit_a2.png","null","68","prac","0","","","","",""
"null","109533","pSARL_v2","pSARL_v2mkq4wg1j","62dfdd3c61b792d28de9d0e3","feedback","img/tooSlow.png","null","na","prac","","","","","",""
"null","109692","pSARL_v2","pSARL_v2mkq4wg1j","62dfdd3c61b792d28de9d0e3","fixation","img/fixation.png","null","","prac","","","","","",""
"298","109998","pSARL_v2","pSARL_v2mkq4wg1j","62dfdd3c61b792d28de9d0e3","freqPrac","img/orange_2bandit_a2.png","68","70","prac","0","","","","",""
"298","110517","pSARL_v2","pSARL_v2mkq4wg1j","62dfdd3c61b792d28de9d0e3","freqPrac_resp","img/orange_2bandit_a.png","68","70","prac","","","","","",""
"null","111533","pSARL_v2","pSARL_v2mkq4wg1j","62dfdd3c61b792d28de9d0e3","feedback","img/wrongKey.png","null","na","prac","","","","","",""
"null","111696","pSARL_v2","pSARL_v2mkq4wg1j","62dfdd3c61b792d28de9d0e3","fixation","img/fixation.png","null","","prac","","","","","",""
"723","112427","pSARL_v2","pSARL_v2mkq4wg1j","62dfdd3c61b792d28de9d0e3","infreqPrac","img/green_2bandit_a2.png","68","68","prac","1","","","","",""
"723","112518","pSARL_v2","pSARL_v2mkq4wg1j","62dfdd3c61b792d28de9d0e3","infreqPrac_resp","img/green_2bandit_a.png","68","68","prac","","","","","",""
"null","112682","pSARL_v2","pSARL_v2mkq4wg1j","62dfdd3c61b792d28de9d0e3","fixation","img/fixation.png","null","","prac","","","","","",""
"null","113494","pSARL_v2","pSARL_v2mkq4wg1j","62dfdd3c61b792d28de9d0e3","infreqPrac","img/green_2bandit_a2.png","null","68","prac","0","","","","",""
"null","114507","pSARL_v2","pSARL_v2mkq4wg1j","62dfdd3c61b792d28de9d0e3","feedback","img/tooSlow.png","null","na","prac","","","","","",""
"null","114664","pSARL_v2","pSARL_v2mkq4wg1j","62dfdd3c61b792d28de9d0e3","fixation","img/fixation.png","null","","prac","","","","","",""
"392","115061","pSARL_v2","pSARL_v2mkq4wg1j","62dfdd3c61b792d28de9d0e3","infreqPrac","img/green_2bandit_a2.png","68","68","prac","1","","","","",""
"392","115483","pSARL_v2","pSARL_v2mkq4wg1j","62dfdd3c61b792d28de9d0e3","infreqPrac_resp","img/green_2bandit_a.png","68","68","prac","","","","","",""
"null","115639","pSARL_v2","pSARL_v2mkq4wg1j","62dfdd3c61b792d28de9d0e3","fixation","img/fixation.png","null","","prac","","","","","",""
"639","116287","pSARL_v2","pSARL_v2mkq4wg1j","62dfdd3c61b792d28de9d0e3","freqPrac","img/orange_2bandit_a2.png","68","70","prac","0","","","","",""
"639","116462","pSARL_v2","pSARL_v2mkq4wg1j","62dfdd3c61b792d28de9d0e3","freqPrac_resp","img/orange_2bandit_a.png","68","70","prac","","","","","",""
"null","117475","pSARL_v2","pSARL_v2mkq4wg1j","62dfdd3c61b792d28de9d0e3","feedback","img/wrongKey.png","null","na","prac","","","","","",""
"null","117631","pSARL_v2","pSARL_v2mkq4wg1j","62dfdd3c61b792d28de9d0e3","fixation","img/fixation.png","null","","prac","","","","","",""
"348","117985","pSARL_v2","pSARL_v2mkq4wg1j","62dfdd3c61b792d28de9d0e3","infreqPrac","img/green_2bandit_a2.png","68","68","prac","1","","","","",""
"348","118444","pSARL_v2","pSARL_v2mkq4wg1j","62dfdd3c61b792d28de9d0e3","infreqPrac_resp","img/green_2bandit_a.png","68","68","prac","","","","","",""
"null","118604","pSARL_v2","pSARL_v2mkq4wg1j","62dfdd3c61b792d28de9d0e3","fixation","img/fixation.png","null","","prac","","","","","",""
"404","119016","pSARL_v2","pSARL_v2mkq4wg1j","62dfdd3c61b792d28de9d0e3","freqPrac","img/orange_2bandit_a2.png","70","70","prac","1","","","","",""
"404","119425","pSARL_v2","pSARL_v2mkq4wg1j","62dfdd3c61b792d28de9d0e3","freqPrac_resp","img/orange_2bandit_a.png","70","70","prac","","","","","",""
"null","119583","pSARL_v2","pSARL_v2mkq4wg1j","62dfdd3c61b792d28de9d0e3","fixation","img/fixation.png","null","","prac","","","","","",""
"406.00000000001455","119995","pSARL_v2","pSARL_v2mkq4wg1j","62dfdd3c61b792d28de9d0e3","freqPrac","img/orange_2bandit_a2.png","70","70","prac","1","","","","",""
"406.00000000001455","120399","pSARL_v2","pSARL_v2mkq4wg1j","62dfdd3c61b792d28de9d0e3","freqPrac_resp","img/orange_2bandit_a.png","70","70","prac","","","","","",""
"null","120563","pSARL_v2","pSARL_v2mkq4wg1j","62dfdd3c61b792d28de9d0e3","fixation","img/fixation.png","null","","prac","","","","","",""
"152000","272568","pSARL_v2","pSARL_v2mkq4wg1j","62dfdd3c61b792d28de9d0e3","","","","","prac","","","","","",""
"222","272794","pSARL_v2","pSARL_v2mkq4wg1j","62dfdd3c61b792d28de9d0e3","rewardPractice","img/slot.png","74","","prac","","","","","",""
"null","273553","pSARL_v2","pSARL_v2mkq4wg1j","62dfdd3c61b792d28de9d0e3","feedback","<div class=""veryhighPoints""> +15 </div>","null","na","prac","","","","","",""
"null","273717","pSARL_v2","pSARL_v2mkq4wg1j","62dfdd3c61b792d28de9d0e3","fixation","img/fixation.png","null","","prac","","","","","",""
"65135","338856","pSARL_v2","pSARL_v2mkq4wg1j","62dfdd3c61b792d28de9d0e3","","","","","prac","","","","","",""
"469","339330","pSARL_v2","pSARL_v2mkq4wg1j","62dfdd3c61b792d28de9d0e3","freq","img/orange_2bandit_a2.png","68","70","test","0","1","1","1","",""
"null","339677","pSARL_v2","pSARL_v2mkq4wg1j","62dfdd3c61b792d28de9d0e3","freq_resp","img/orange_2bandit_a.png","68","70","test","","","","1","",""
"null","339832","pSARL_v2","pSARL_v2mkq4wg1j","62dfdd3c61b792d28de9d0e3","fixation","img/fixation.png","null","","test","","","","","",""
"386","340225","pSARL_v2","pSARL_v2mkq4wg1j","62dfdd3c61b792d28de9d0e3","freq","img/orange_2bandit_a2.png","70","70","test","1","2","2","1","",""
"null","340653","pSARL_v2","pSARL_v2mkq4wg1j","62dfdd3c61b792d28de9d0e3","freq_resp","img/orange_2bandit_a.png","70","70","test","","","","1","",""
"null","340809","pSARL_v2","pSARL_v2mkq4wg1j","62dfdd3c61b792d28de9d0e3","fixation","img/fixation.png","null","","test","","","","","",""
"351","341166","pSARL_v2","pSARL_v2mkq4wg1j","62dfdd3c61b792d28de9d0e3","freq","img/orange_2bandit_a2.png","70","70","test","1","3","3","1","",""
"null","341632","pSARL_v2","pSARL_v2mkq4wg1j","62dfdd3c61b792d28de9d0e3","freq_resp","img/orange_2bandit_a.png","70","70","test","","","","1","",""
"null","341793","pSARL_v2","pSARL_v2mkq4wg1j","62dfdd3c61b792d28de9d0e3","fixation","img/fixation.png","null","","test","","","","","",""
"430","342229","pSARL_v2","pSARL_v2mkq4wg1j","62dfdd3c61b792d28de9d0e3","infreq","img/green_2bandit_a2.png","68","68","test","1","4","4","1","",""
"null","342611","pSARL_v2","pSARL_v2mkq4wg1j","62dfdd3c61b792d28de9d0e3","infreq_resp","img/green_2bandit_a.png","68","68","test","","","","1","",""
"null","342774","pSARL_v2","pSARL_v2mkq4wg1j","62dfdd3c61b792d28de9d0e3","fixation","img/fixation.png","null","","test","","","","","",""
"377","343163","pSARL_v2","pSARL_v2mkq4wg1j","62dfdd3c61b792d28de9d0e3","freq","img/orange_2bandit_a2.png","70","70","test","1","5","5","1","",""
"null","343594","pSARL_v2","pSARL_v2mkq4wg1j","62dfdd3c61b792d28de9d0e3","freq_resp","img/orange_2bandit_a.png","70","70","test","","","","1","",""
"null","343753","pSARL_v2","pSARL_v2mkq4wg1j","62dfdd3c61b792d28de9d0e3","fixation","img/fixation.png","null","","test","","","","","",""
"531","344294","pSARL_v2","pSARL_v2mkq4wg1j","62dfdd3c61b792d28de9d0e3","infreq","img/green_2bandit_a2.png","68","68","test","1","6","6","1","",""
"null","344575","pSARL_v2","pSARL_v2mkq4wg1j","62dfdd3c61b792d28de9d0e3","infreq_resp","img/green_2bandit_a.png","68","68","test","","","","1","",""
"null","344731","pSARL_v2","pSARL_v2mkq4wg1j","62dfdd3c61b792d28de9d0e3","fixation","img/fixation.png","null","","test","","","","","",""
"325","345062","pSARL_v2","pSARL_v2mkq4wg1j","62dfdd3c61b792d28de9d0e3","freq","img/orange_2bandit_a2.png","70","70","test","1","7","7","1","",""
"null","345547","pSARL_v2","pSARL_v2mkq4wg1j","62dfdd3c61b792d28de9d0e3","freq_resp","img/orange_2bandit_a.png","70","70","test","","","","1","",""
"null","345708","pSARL_v2","pSARL_v2mkq4wg1j","62dfdd3c61b792d28de9d0e3","fixation","img/fixation.png","null","","test","","","","","",""
"347.0000000000582","346060","pSARL_v2","pSARL_v2mkq4wg1j","62dfdd3c61b792d28de9d0e3","freq","img/orange_2bandit_a2.png","70","70","test","1","8","8","1","",""
"null","346525","pSARL_v2","pSARL_v2mkq4wg1j","62dfdd3c61b792d28de9d0e3","freq_resp","img/orange_2bandit_a.png","70","70","test","","","","1","",""
"null","346681","pSARL_v2","pSARL_v2mkq4wg1j","62dfdd3c61b792d28de9d0e3","fixation","img/fixation.png","null","","test","","","","","",""
"253","346940","pSARL_v2","pSARL_v2mkq4wg1j","62dfdd3c61b792d28de9d0e3","freq","img/orange_2bandit_a2.png","70","70","test","1","9","9","1","",""
"null","347497","pSARL_v2","pSARL_v2mkq4wg1j","62dfdd3c61b792d28de9d0e3","freq_resp","img/orange_2bandit_a.png","70","70","test","","","","1","",""
"null","347654","pSARL_v2","pSARL_v2mkq4wg1j","62dfdd3c61b792d28de9d0e3","fixation","img/fixation.png","null","","test","","","","","",""
"308","347968","pSARL_v2","pSARL_v2mkq4wg1j","62dfdd3c61b792d28de9d0e3","freq","img/orange_2bandit_a2.png","70","70","test","1","10","10","1","",""
"null","348474","pSARL_v2","pSARL_v2mkq4wg1j","62dfdd3c61b792d28de9d0e3","freq_resp","img/orange_2bandit_a.png","70","70","test","","","","1","",""
"null","348629","pSARL_v2","pSARL_v2mkq4wg1j","62dfdd3c61b792d28de9d0e3","fixation","img/fixation.png","null","","test","","","","","",""
"327","348962","pSARL_v2","pSARL_v2mkq4wg1j","62dfdd3c61b792d28de9d0e3","freq","img/orange_2bandit_a2.png","70","70","test","1","11","11","1","",""
"null","349448","pSARL_v2","pSARL_v2mkq4wg1j","62dfdd3c61b792d28de9d0e3","freq_resp","img/orange_2bandit_a.png","70","70","test","","","","1","",""
"null","349609","pSARL_v2","pSARL_v2mkq4wg1j","62dfdd3c61b792d28de9d0e3","fixation","img/fixation.png","null","","test","","","","","",""
"295","349911","pSARL_v2","pSARL_v2mkq4wg1j","62dfdd3c61b792d28de9d0e3","freq","img/orange_2bandit_a2.png","70","70","test","1","12","12","1","",""
"null","350428","pSARL_v2","pSARL_v2mkq4wg1j","62dfdd3c61b792d28de9d0e3","freq_resp","img/orange_2bandit_a.png","70","70","test","","","","1","",""
"null","350586","pSARL_v2","pSARL_v2mkq4wg1j","62dfdd3c61b792d28de9d0e3","fixation","img/fixation.png","null","","test","","","","","",""
"334","350926","pSARL_v2","pSARL_v2mkq4wg1j","62dfdd3c61b792d28de9d0e3","freq","img/orange_2bandit_a2.png","70","70","test","1","13","13","1","",""
"null","351401","pSARL_v2","pSARL_v2mkq4wg1j","62dfdd3c61b792d28de9d0e3","freq_resp","img/orange_2bandit_a.png","70","70","test","","","","1","",""
"null","351564","pSARL_v2","pSARL_v2mkq4wg1j","62dfdd3c61b792d28de9d0e3","fixation","img/fixation.png","null","","test","","","","","",""
"277","351845","pSARL_v2","pSARL_v2mkq4wg1j","62dfdd3c61b792d28de9d0e3","freq","img/orange_2bandit_a2.png","70","70","test","1","14","14","1","",""
"null","352380","pSARL_v2","pSARL_v2mkq4wg1j","62dfdd3c61b792d28de9d0e3","freq_resp","img/orange_2bandit_a.png","70","70","test","","","","1","",""
"null","352539","pSARL_v2","pSARL_v2mkq4wg1j","62dfdd3c61b792d28de9d0e3","fixation","img/fixation.png","null","","test","","","","","",""
"267","352811","pSARL_v2","pSARL_v2mkq4wg1j","62dfdd3c61b792d28de9d0e3","freq","img/orange_2bandit_a2.png","70","70","test","1","15","15","1","",""
"null","353357","pSARL_v2","pSARL_v2mkq4wg1j","62dfdd3c61b792d28de9d0e3","freq_resp","img/orange_2bandit_a.png","70","70","test","","","","1","",""
"null","353517","pSARL_v2","pSARL_v2mkq4wg1j","62dfdd3c61b792d28de9d0e3","fixation","img/fixation.png","null","","test","","","","","",""
"240","353763","pSARL_v2","pSARL_v2mkq4wg1j","62dfdd3c61b792d28de9d0e3","freq","img/orange_2bandit_a2.png","70","70","test","1","16","16","1","",""
"null","354332","pSARL_v2","pSARL_v2mkq4wg1j","62dfdd3c61b792d28de9d0e3","freq_resp","img/orange_2bandit_a.png","70","70","test","","","","1","",""
"null","354494","pSARL_v2","pSARL_v2mkq4wg1j","62dfdd3c61b792d28de9d0e3","fixation","img/fixation.png","null","","test","","","","","",""
"262","354762","pSARL_v2","pSARL_v2mkq4wg1j","62dfdd3c61b792d28de9d0e3","freq","img/orange_2bandit_a2.png","70","70","test","1","17","17","1","",""
"null","355313","pSARL_v2","pSARL_v2mkq4wg1j","62dfdd3c61b792d28de9d0e3","freq_resp","img/orange_2bandit_a.png","70","70","test","","","","1","",""
"null","355479","pSARL_v2","pSARL_v2mkq4wg1j","62dfdd3c61b792d28de9d0e3","fixation","img/fixation.png","null","","test","","","","","",""
"251","355734","pSARL_v2","pSARL_v2mkq4wg1j","62dfdd3c61b792d28de9d0e3","freq","img/orange_2bandit_a2.png","70","70","test","1","18","18","1","",""
"null","356297","pSARL_v2","pSARL_v2mkq4wg1j","62dfdd3c61b792d28de9d0e3","freq_resp","img/orange_2bandit_a.png","70","70","test","","","","1","",""
"null","356452","pSARL_v2","pSARL_v2mkq4wg1j","62dfdd3c61b792d28de9d0e3","fixation","img/fixation.png","null","","test","","","","","",""
"231","356689","pSARL_v2","pSARL_v2mkq4wg1j","62dfdd3c61b792d28de9d0e3","freq","img/orange_2bandit_a2.png","70","70","test","1","19","19","1","",""
"null","357266","pSARL_v2","pSARL_v2mkq4wg1j","62dfdd3c61b792d28de9d0e3","freq_resp","img/orange_2bandit_a.png","70","70","test","","","","1","",""
"null","357429","pSARL_v2","pSARL_v2mkq4wg1j","62dfdd3c61b792d28de9d0e3","fixation","img/fixation.png","null","","test","","","","","",""
"260.9999999999418","357696","pSARL_v2","pSARL_v2mkq4wg1j","62dfdd3c61b792d28de9d0e3","freq","img/orange_2bandit_a2.png","70","70","test","1","20","20","1","",""
"null","358244","pSARL_v2","pSARL_v2mkq4wg1j","62dfdd3c61b792d28de9d0e3","freq_resp","img/orange_2bandit_a.png","70","70","test","","","","1","",""
"null","358406","pSARL_v2","pSARL_v2mkq4wg1j","62dfdd3c61b792d28de9d0e3","fixation","img/fixation.png","null","","test","","","","","",""
"1183","359596","pSARL_v2","pSARL_v2mkq4wg1j","62dfdd3c61b792d28de9d0e3","reward","img/slot.png","74","","test","","","","","",""
"null","360353","pSARL_v2","pSARL_v2mkq4wg1j","62dfdd3c61b792d28de9d0e3","points","<div class=""verylowPoints""> -6 </div>","null","na","test","","","","1","-6","0"
"786","361149","pSARL_v2","pSARL_v2mkq4wg1j","62dfdd3c61b792d28de9d0e3","freq","img/orange_2bandit_a2.png","70","70","test","1","21","21","2","",""
"null","361169","pSARL_v2","pSARL_v2mkq4wg1j","62dfdd3c61b792d28de9d0e3","freq_resp","img/orange_2bandit_a.png","70","70","test","","","","2","",""
"null","361329","pSARL_v2","pSARL_v2mkq4wg1j","62dfdd3c61b792d28de9d0e3","fixation","img/fixation.png","null","","test","","","","","",""
"557","361893","pSARL_v2","pSARL_v2mkq4wg1j","62dfdd3c61b792d28de9d0e3","freq","img/orange_2bandit_a2.png","70","70","test","1","22","22","2","",""
"null","362152","pSARL_v2","pSARL_v2mkq4wg1j","62dfdd3c61b792d28de9d0e3","freq_resp","img/orange_2bandit_a.png","70","70","test","","","","2","",""
"null","362316","pSARL_v2","pSARL_v2mkq4wg1j","62dfdd3c61b792d28de9d0e3","fixation","img/fixation.png","null","","test","","","","","",""
"748.9999999999418","363076","pSARL_v2","pSARL_v2mkq4wg1j","62dfdd3c61b792d28de9d0e3","freq","img/orange_2bandit_a2.png","70","70","test","1","23","23","2","",""
"null","363136","pSARL_v2","pSARL_v2mkq4wg1j","62dfdd3c61b792d28de9d0e3","freq_resp","img/orange_2bandit_a.png","70","70","test","","","","2","",""
"null","363298","pSARL_v2","pSARL_v2mkq4wg1j","62dfdd3c61b792d28de9d0e3","fixation","img/fixation.png","null","","test","","","","","",""
"607.0000000000582","363912","pSARL_v2","pSARL_v2mkq4wg1j","62dfdd3c61b792d28de9d0e3","freq","img/orange_2bandit_a2.png","70","70","test","1","24","24","2","",""
"null","364114","pSARL_v2","pSARL_v2mkq4wg1j","62dfdd3c61b792d28de9d0e3","freq_resp","img/orange_2bandit_a.png","70","70","test","","","","2","",""
"null","364273","pSARL_v2","pSARL_v2mkq4wg1j","62dfdd3c61b792d28de9d0e3","fixation","img/fixation.png","null","","test","","","","","",""
"556.9999999999418","364837","pSARL_v2","pSARL_v2mkq4wg1j","62dfdd3c61b792d28de9d0e3","freq","img/orange_2bandit_a2.png","70","70","test","1","25","25","2","",""
"null","365092","pSARL_v2","pSARL_v2mkq4wg1j","62dfdd3c61b792d28de9d0e3","freq_resp","img/orange_2bandit_a.png","70","70","test","","","","2","",""
"null","365254","pSARL_v2","pSARL_v2mkq4wg1j","62dfdd3c61b792d28de9d0e3","fixation","img/fixation.png","null","","test","","","","","",""
"318.0000000000582","365579","pSARL_v2","pSARL_v2mkq4wg1j","62dfdd3c61b792d28de9d0e3","freq","img/orange_2bandit_a2.png","70","70","test","1","26","26","2","",""
"null","366069","pSARL_v2","pSARL_v2mkq4wg1j","62dfdd3c61b792d28de9d0e3","freq_resp","img/orange_2bandit_a.png","70","70","test","","","","2","",""
"null","366231","pSARL_v2","pSARL_v2mkq4wg1j","62dfdd3c61b792d28de9d0e3","fixation","img/fixation.png","null","","test","","","","","",""
"281","366518","pSARL_v2","pSARL_v2mkq4wg1j","62dfdd3c61b792d28de9d0e3","freq","img/orange_2bandit_a2.png","70","70","test","1","27","27","2","",""
"null","367045","pSARL_v2","pSARL_v2mkq4wg1j","62dfdd3c61b792d28de9d0e3","freq_resp","img/orange_2bandit_a.png","70","70","test","","","","2","",""
"null","367202","pSARL_v2","pSARL_v2mkq4wg1j","62dfdd3c61b792d28de9d0e3","fixation","img/fixation.png","null","","test","","","","","",""
"231","367441","pSARL_v2","pSARL_v2mkq4wg1j","62dfdd3c61b792d28de9d0e3","freq","img/orange_2bandit_a2.png","70","70","test","1","28","28","2","",""
"null","368021","pSARL_v2","pSARL_v2mkq4wg1j","62dfdd3c61b792d28de9d0e3","freq_resp","img/orange_2bandit_a.png","70","70","test","","","","2","",""
"null","368183","pSARL_v2","pSARL_v2mkq4wg1j","62dfdd3c61b792d28de9d0e3","fixation","img/fixation.png","null","","test","","","","","",""
"208","368397","pSARL_v2","pSARL_v2mkq4wg1j","62dfdd3c61b792d28de9d0e3","freq","img/orange_2bandit_a2.png","70","70","test","1","29","29","2","",""
"null","369002","pSARL_v2","pSARL_v2mkq4wg1j","62dfdd3c61b792d28de9d0e3","freq_resp","img/orange_2bandit_a.png","70","70","test","","","","2","",""
"null","369166","pSARL_v2","pSARL_v2mkq4wg1j","62dfdd3c61b792d28de9d0e3","fixation","img/fixation.png","null","","test","","","","","",""
"156.0000000000582","369327","pSARL_v2","pSARL_v2mkq4wg1j","62dfdd3c61b792d28de9d0e3","freq","img/orange_2bandit_a2.png","70","70","test","1","30","30","2","",""
"null","369980","pSARL_v2","pSARL_v2mkq4wg1j","62dfdd3c61b792d28de9d0e3","freq_resp","img/orange_2bandit_a.png","70","70","test","","","","2","",""
"null","370139","pSARL_v2","pSARL_v2mkq4wg1j","62dfdd3c61b792d28de9d0e3","fixation","img/fixation.png","null","","test","","","","","",""
"95","370241","pSARL_v2","pSARL_v2mkq4wg1j","62dfdd3c61b792d28de9d0e3","infreq","img/green_2bandit_a2.png","70","68","test","0","31","31","2","",""
"null","370959","pSARL_v2","pSARL_v2mkq4wg1j","62dfdd3c61b792d28de9d0e3","infreq_resp","img/green_2bandit_a.png","70","68","test","","","","2","",""
"null","371119","pSARL_v2","pSARL_v2mkq4wg1j","62dfdd3c61b792d28de9d0e3","fixation","img/fixation.png","null","","test","","","","","",""
"410","371535","pSARL_v2","pSARL_v2mkq4wg1j","62dfdd3c61b792d28de9d0e3","freq","img/orange_2bandit_a2.png","70","70","test","1","32","32","2","",""
"null","371938","pSARL_v2","pSARL_v2mkq4wg1j","62dfdd3c61b792d28de9d0e3","freq_resp","img/orange_2bandit_a.png","70","70","test","","","","2","",""
"null","372103","pSARL_v2","pSARL_v2mkq4wg1j","62dfdd3c61b792d28de9d0e3","fixation","img/fixation.png","null","","test","","","","","",""
"303.0000000000582","372412","pSARL_v2","pSARL_v2mkq4wg1j","62dfdd3c61b792d28de9d0e3","freq","img/orange_2bandit_a2.png","70","70","test","1","33","33","2","",""
"null","372919","pSARL_v2","pSARL_v2mkq4wg1j","62dfdd3c61b792d28de9d0e3","freq_resp","img/orange_2bandit_a.png","70","70","test","","","","2","",""
"null","373079","pSARL_v2","pSARL_v2mkq4wg1j","62dfdd3c61b792d28de9d0e3","fixation","img/fixation.png","null","","test","","","","","",""
"310","373405","pSARL_v2","pSARL_v2mkq4wg1j","62dfdd3c61b792d28de9d0e3","freq","img/orange_2bandit_a2.png","70","70","test","1","34","34","2","",""
"null","373908","pSARL_v2","pSARL_v2mkq4wg1j","62dfdd3c61b792d28de9d0e3","freq_resp","img/orange_2bandit_a.png","70","70","test","","","","2","",""
"null","374063","pSARL_v2","pSARL_v2mkq4wg1j","62dfdd3c61b792d28de9d0e3","fixation","img/fixation.png","null","","test","","","","","",""
"276","374346","pSARL_v2","pSARL_v2mkq4wg1j","62dfdd3c61b792d28de9d0e3","freq","img/orange_2bandit_a2.png","70","70","test","1","35","35","2","",""
"null","374881","pSARL_v2","pSARL_v2mkq4wg1j","62dfdd3c61b792d28de9d0e3","freq_resp","img/orange_2bandit_a.png","70","70","test","","","","2","",""
"null","375040","pSARL_v2","pSARL_v2mkq4wg1j","62dfdd3c61b792d28de9d0e3","fixation","img/fixation.png","null","","test","","","","","",""
"277","375324","pSARL_v2","pSARL_v2mkq4wg1j","62dfdd3c61b792d28de9d0e3","freq","img/orange_2bandit_a2.png","70","70","test","1","36","36","2","",""
"null","375857","pSARL_v2","pSARL_v2mkq4wg1j","62dfdd3c61b792d28de9d0e3","freq_resp","img/orange_2bandit_a.png","70","70","test","","","","2","",""
"null","376024","pSARL_v2","pSARL_v2mkq4wg1j","62dfdd3c61b792d28de9d0e3","fixation","img/fixation.png","null","","test","","","","","",""
"290","376319","pSARL_v2","pSARL_v2mkq4wg1j","62dfdd3c61b792d28de9d0e3","freq","img/orange_2bandit_a2.png","70","70","test","1","37","37","2","",""
"null","376839","pSARL_v2","pSARL_v2mkq4wg1j","62dfdd3c61b792d28de9d0e3","freq_resp","img/orange_2bandit_a.png","70","70","test","","","","2","",""
"null","376995","pSARL_v2","pSARL_v2mkq4wg1j","62dfdd3c61b792d28de9d0e3","fixation","img/fixation.png","null","","test","","","","","",""
"263","377264","pSARL_v2","pSARL_v2mkq4wg1j","62dfdd3c61b792d28de9d0e3","freq","img/orange_2bandit_a2.png","70","70","test","1","38","38","2","",""
"null","377810","pSARL_v2","pSARL_v2mkq4wg1j","62dfdd3c61b792d28de9d0e3","freq_resp","img/orange_2bandit_a.png","70","70","test","","","","2","",""
"null","377969","pSARL_v2","pSARL_v2mkq4wg1j","62dfdd3c61b792d28de9d0e3","fixation","img/fixation.png","null","","test","","","","","",""
"234","378210","pSARL_v2","pSARL_v2mkq4wg1j","62dfdd3c61b792d28de9d0e3","freq","img/orange_2bandit_a2.png","70","70","test","1","39","39","2","",""
"null","378789","pSARL_v2","pSARL_v2mkq4wg1j","62dfdd3c61b792d28de9d0e3","freq_resp","img/orange_2bandit_a.png","70","70","test","","","","2","",""
"null","378945","pSARL_v2","pSARL_v2mkq4wg1j","62dfdd3c61b792d28de9d0e3","fixation","img/fixation.png","null","","test","","","","","",""
"196","379148","pSARL_v2","pSARL_v2mkq4wg1j","62dfdd3c61b792d28de9d0e3","freq","img/orange_2bandit_a2.png","70","70","test","1","40","40","2","",""
"null","379761","pSARL_v2","pSARL_v2mkq4wg1j","62dfdd3c61b792d28de9d0e3","freq_resp","img/orange_2bandit_a.png","70","70","test","","","","2","",""
"null","379924","pSARL_v2","pSARL_v2mkq4wg1j","62dfdd3c61b792d28de9d0e3","fixation","img/fixation.png","null","","test","","","","","",""
"252","380182","pSARL_v2","pSARL_v2mkq4wg1j","62dfdd3c61b792d28de9d0e3","infreq","img/green_2bandit_a2.png","70","68","test","0","41","41","2","",""
"null","380740","pSARL_v2","pSARL_v2mkq4wg1j","62dfdd3c61b792d28de9d0e3","infreq_resp","img/green_2bandit_a.png","70","68","test","","","","2","",""
"null","380901","pSARL_v2","pSARL_v2mkq4wg1j","62dfdd3c61b792d28de9d0e3","fixation","img/fixation.png","null","","test","","","","","",""
"459","381366","pSARL_v2","pSARL_v2mkq4wg1j","62dfdd3c61b792d28de9d0e3","freq","img/orange_2bandit_a2.png","70","70","test","1","42","42","2","",""
"null","381721","pSARL_v2","pSARL_v2mkq4wg1j","62dfdd3c61b792d28de9d0e3","freq_resp","img/orange_2bandit_a.png","70","70","test","","","","2","",""
"null","381883","pSARL_v2","pSARL_v2mkq4wg1j","62dfdd3c61b792d28de9d0e3","fixation","img/fixation.png","null","","test","","","","","",""
"546","382443","pSARL_v2","pSARL_v2mkq4wg1j","62dfdd3c61b792d28de9d0e3","reward","img/slot.png","74","","test","","","","","",""
"null","383210","pSARL_v2","pSARL_v2mkq4wg1j","62dfdd3c61b792d28de9d0e3","points","<div class=""verylowPoints""> -11 </div>","null","na","test","","","","2","-11","1"
"641","383856","pSARL_v2","pSARL_v2mkq4wg1j","62dfdd3c61b792d28de9d0e3","freq","img/orange_2bandit_a2.png","70","70","test","1","43","43","3","",""
"null","384026","pSARL_v2","pSARL_v2mkq4wg1j","62dfdd3c61b792d28de9d0e3","freq_resp","img/orange_2bandit_a.png","70","70","test","","","","3","",""
"null","384189","pSARL_v2","pSARL_v2mkq4wg1j","62dfdd3c61b792d28de9d0e3","fixation","img/fixation.png","null","","test","","","","","",""
"null","384998","pSARL_v2","pSARL_v2mkq4wg1j","62dfdd3c61b792d28de9d0e3","freq","img/orange_2bandit_a2.png","null","70","test","0","44","44","3","",""
"null","385156","pSARL_v2","pSARL_v2mkq4wg1j","62dfdd3c61b792d28de9d0e3","fixation","img/fixation.png","null","","test","","","","","",""
"711","385874","pSARL_v2","pSARL_v2mkq4wg1j","62dfdd3c61b792d28de9d0e3","freq","img/orange_2bandit_a2.png","70","70","test","1","45","45","3","",""
"null","385973","pSARL_v2","pSARL_v2mkq4wg1j","62dfdd3c61b792d28de9d0e3","freq_resp","img/orange_2bandit_a.png","70","70","test","","","","3","",""
"null","386135","pSARL_v2","pSARL_v2mkq4wg1j","62dfdd3c61b792d28de9d0e3","fixation","img/fixation.png","null","","test","","","","","",""
"380","386520","pSARL_v2","pSARL_v2mkq4wg1j","62dfdd3c61b792d28de9d0e3","freq","img/orange_2bandit_a2.png","70","70","test","1","46","46","3","",""
"null","386950","pSARL_v2","pSARL_v2mkq4wg1j","62dfdd3c61b792d28de9d0e3","freq_resp","img/orange_2bandit_a.png","70","70","test","","","","3","",""
"null","387108","pSARL_v2","pSARL_v2mkq4wg1j","62dfdd3c61b792d28de9d0e3","fixation","img/fixation.png","null","","test","","","","","",""
"203","387317","pSARL_v2","pSARL_v2mkq4wg1j","62dfdd3c61b792d28de9d0e3","freq","img/orange_2bandit_a2.png","70","70","test","1","47","47","3","",""
"null","387923","pSARL_v2","pSARL_v2mkq4wg1j","62dfdd3c61b792d28de9d0e3","freq_resp","img/orange_2bandit_a.png","70","70","test","","","","3","",""
"null","388083","pSARL_v2","pSARL_v2mkq4wg1j","62dfdd3c61b792d28de9d0e3","fixation","img/fixation.png","null","","test","","","","","",""
"89","388179","pSARL_v2","pSARL_v2mkq4wg1j","62dfdd3c61b792d28de9d0e3","freq","img/orange_2bandit_a2.png","70","70","test","1","48","48","3","",""
"null","388901","pSARL_v2","pSARL_v2mkq4wg1j","62dfdd3c61b792d28de9d0e3","freq_resp","img/orange_2bandit_a.png","70","70","test","","","","3","",""
"null","389060","pSARL_v2","pSARL_v2mkq4wg1j","62dfdd3c61b792d28de9d0e3","fixation","img/fixation.png","null","","test","","","","","",""
"32","389099","pSARL_v2","pSARL_v2mkq4wg1j","62dfdd3c61b792d28de9d0e3","infreq","img/green_2bandit_a2.png","70","68","test","0","49","49","3","",""
"null","389877","pSARL_v2","pSARL_v2mkq4wg1j","62dfdd3c61b792d28de9d0e3","infreq_resp","img/green_2bandit_a.png","70","68","test","","","","3","",""
"null","390036","pSARL_v2","pSARL_v2mkq4wg1j","62dfdd3c61b792d28de9d0e3","fixation","img/fixation.png","null","","test","","","","","",""
"287","390328","pSARL_v2","pSARL_v2mkq4wg1j","62dfdd3c61b792d28de9d0e3","freq","img/orange_2bandit_a2.png","70","70","test","1","50","50","3","",""
"null","390853","pSARL_v2","pSARL_v2mkq4wg1j","62dfdd3c61b792d28de9d0e3","freq_resp","img/orange_2bandit_a.png","70","70","test","","","","3","",""
"null","391016","pSARL_v2","pSARL_v2mkq4wg1j","62dfdd3c61b792d28de9d0e3","fixation","img/fixation.png","null","","test","","","","","",""
"140","391162","pSARL_v2","pSARL_v2mkq4wg1j","62dfdd3c61b792d28de9d0e3","freq","img/orange_2bandit_a2.png","70","70","test","1","51","51","3","",""
"null","391831","pSARL_v2","pSARL_v2mkq4wg1j","62dfdd3c61b792d28de9d0e3","freq_resp","img/orange_2bandit_a.png","70","70","test","","","","3","",""
"null","391993","pSARL_v2","pSARL_v2mkq4wg1j","62dfdd3c61b792d28de9d0e3","fixation","img/fixation.png","null","","test","","","","","",""
"46","392046","pSARL_v2","pSARL_v2mkq4wg1j","62dfdd3c61b792d28de9d0e3","freq","img/orange_2bandit_a2.png","70","70","test","1","52","52","3","",""
"null","392809","pSARL_v2","pSARL_v2mkq4wg1j","62dfdd3c61b792d28de9d0e3","freq_resp","img/orange_2bandit_a.png","70","70","test","","","","3","",""
"null","392968","pSARL_v2","pSARL_v2mkq4wg1j","62dfdd3c61b792d28de9d0e3","fixation","img/fixation.png","null","","test","","","","","",""
"40","393012","pSARL_v2","pSARL_v2mkq4wg1j","62dfdd3c61b792d28de9d0e3","freq","img/orange_2bandit_a2.png","70","70","test","1","53","53","3","",""
"null","393779","pSARL_v2","pSARL_v2mkq4wg1j","62dfdd3c61b792d28de9d0e3","freq_resp","img/orange_2bandit_a.png","70","70","test","","","","3","",""
"null","393940","pSARL_v2","pSARL_v2mkq4wg1j","62dfdd3c61b792d28de9d0e3","fixation","img/fixation.png","null","","test","","","","","",""
"119.00000000005821","394063","pSARL_v2","pSARL_v2mkq4wg1j","62dfdd3c61b792d28de9d0e3","freq","img/orange_2bandit_a2.png","70","70","test","1","54","54","3","",""
"null","394755","pSARL_v2","pSARL_v2mkq4wg1j","62dfdd3c61b792d28de9d0e3","freq_resp","img/orange_2bandit_a.png","70","70","test","","","","3","",""
"null","394914","pSARL_v2","pSARL_v2mkq4wg1j","62dfdd3c61b792d28de9d0e3","fixation","img/fixation.png","null","","test","","","","","",""
"236","395159","pSARL_v2","pSARL_v2mkq4wg1j","62dfdd3c61b792d28de9d0e3","infreq","img/green_2bandit_a2.png","70","68","test","0","55","55","3","",""
"null","395733","pSARL_v2","pSARL_v2mkq4wg1j","62dfdd3c61b792d28de9d0e3","infreq_resp","img/green_2bandit_a.png","70","68","test","","","","3","",""
"null","395892","pSARL_v2","pSARL_v2mkq4wg1j","62dfdd3c61b792d28de9d0e3","fixation","img/fixation.png","null","","test","","","","","",""
"395","396294","pSARL_v2","pSARL_v2mkq4wg1j","62dfdd3c61b792d28de9d0e3","freq","img/orange_2bandit_a2.png","70","70","test","1","56","56","3","",""
"null","396710","pSARL_v2","pSARL_v2mkq4wg1j","62dfdd3c61b792d28de9d0e3","freq_resp","img/orange_2bandit_a.png","70","70","test","","","","3","",""
"null","396868","pSARL_v2","pSARL_v2mkq4wg1j","62dfdd3c61b792d28de9d0e3","fixation","img/fixation.png","null","","test","","","","","",""
"270","397143","pSARL_v2","pSARL_v2mkq4wg1j","62dfdd3c61b792d28de9d0e3","freq","img/orange_2bandit_a2.png","70","70","test","1","57","57","3","",""
"null","397682","pSARL_v2","pSARL_v2mkq4wg1j","62dfdd3c61b792d28de9d0e3","freq_resp","img/orange_2bandit_a.png","70","70","test","","","","3","",""
"null","397837","pSARL_v2","pSARL_v2mkq4wg1j","62dfdd3c61b792d28de9d0e3","fixation","img/fixation.png","null","","test","","","","","",""
"221","398063","pSARL_v2","pSARL_v2mkq4wg1j","62dfdd3c61b792d28de9d0e3","freq","img/orange_2bandit_a2.png","70","70","test","1","58","58","3","",""
"null","398652","pSARL_v2","pSARL_v2mkq4wg1j","62dfdd3c61b792d28de9d0e3","freq_resp","img/orange_2bandit_a.png","70","70","test","","","","3","",""
"null","398812","pSARL_v2","pSARL_v2mkq4wg1j","62dfdd3c61b792d28de9d0e3","fixation","img/fixation.png","null","","test","","","","","",""
"349.0000000000582","399167","pSARL_v2","pSARL_v2mkq4wg1j","62dfdd3c61b792d28de9d0e3","freq","img/orange_2bandit_a2.png","70","70","test","1","59","59","3","",""
"null","399626","pSARL_v2","pSARL_v2mkq4wg1j","62dfdd3c61b792d28de9d0e3","freq_resp","img/orange_2bandit_a.png","70","70","test","","","","3","",""
"null","399785","pSARL_v2","pSARL_v2mkq4wg1j","62dfdd3c61b792d28de9d0e3","fixation","img/fixation.png","null","","test","","","","","",""
"372.9999999999418","400165","pSARL_v2","pSARL_v2mkq4wg1j","62dfdd3c61b792d28de9d0e3","freq","img/orange_2bandit_a2.png","70","70","test","1","60","60","3","",""
"null","400601","pSARL_v2","pSARL_v2mkq4wg1j","62dfdd3c61b792d28de9d0e3","freq_resp","img/orange_2bandit_a.png","70","70","test","","","","3","",""
"null","400759","pSARL_v2","pSARL_v2mkq4wg1j","62dfdd3c61b792d28de9d0e3","fixation","img/fixation.png","null","","test","","","","","",""
"565","401330","pSARL_v2","pSARL_v2mkq4wg1j","62dfdd3c61b792d28de9d0e3","freq","img/orange_2bandit_a2.png","70","70","test","1","61","61","3","",""
"null","401579","pSARL_v2","pSARL_v2mkq4wg1j","62dfdd3c61b792d28de9d0e3","freq_resp","img/orange_2bandit_a.png","70","70","test","","","","3","",""
"null","401734","pSARL_v2","pSARL_v2mkq4wg1j","62dfdd3c61b792d28de9d0e3","fixation","img/fixation.png","null","","test","","","","","",""
"408","402148","pSARL_v2","pSARL_v2mkq4wg1j","62dfdd3c61b792d28de9d0e3","freq","img/orange_2bandit_a2.png","70","70","test","1","62","62","3","",""
"null","402554","pSARL_v2","pSARL_v2mkq4wg1j","62dfdd3c61b792d28de9d0e3","freq_resp","img/orange_2bandit_a.png","70","70","test","","","","3","",""
"null","402709","pSARL_v2","pSARL_v2mkq4wg1j","62dfdd3c61b792d28de9d0e3","fixation","img/fixation.png","null","","test","","","","","",""
"379","403102","pSARL_v2","pSARL_v2mkq4wg1j","62dfdd3c61b792d28de9d0e3","freq","img/orange_2bandit_a2.png","70","70","test","1","63","63","3","",""
"null","403536","pSARL_v2","pSARL_v2mkq4wg1j","62dfdd3c61b792d28de9d0e3","freq_resp","img/orange_2bandit_a.png","70","70","test","","","","3","",""
"null","403694","pSARL_v2","pSARL_v2mkq4wg1j","62dfdd3c61b792d28de9d0e3","fixation","img/fixation.png","null","","test","","","","","",""
"312.0000000000582","404012","pSARL_v2","pSARL_v2mkq4wg1j","62dfdd3c61b792d28de9d0e3","freq","img/orange_2bandit_a2.png","70","70","test","1","64","64","3","",""
"null","404509","pSARL_v2","pSARL_v2mkq4wg1j","62dfdd3c61b792d28de9d0e3","freq_resp","img/orange_2bandit_a.png","70","70","test","","","","3","",""
"null","404672","pSARL_v2","pSARL_v2mkq4wg1j","62dfdd3c61b792d28de9d0e3","fixation","img/fixation.png","null","","test","","","","","",""
"530","405207","pSARL_v2","pSARL_v2mkq4wg1j","62dfdd3c61b792d28de9d0e3","reward","img/slot.png","74","","test","","","","","",""
"null","405967","pSARL_v2","pSARL_v2mkq4wg1j","62dfdd3c61b792d28de9d0e3","points","<div class=""verylowPoints""> -7 </div>","null","na","test","","","","3","-7","2"
"589","406565","pSARL_v2","pSARL_v2mkq4wg1j","62dfdd3c61b792d28de9d0e3","freq","img/orange_2bandit_a2.png","70","70","test","1","65","65","4","",""
"null","406789","pSARL_v2","pSARL_v2mkq4wg1j","62dfdd3c61b792d28de9d0e3","freq_resp","img/orange_2bandit_a.png","70","70","test","","","","4","",""
"null","406945","pSARL_v2","pSARL_v2mkq4wg1j","62dfdd3c61b792d28de9d0e3","fixation","img/fixation.png","null","","test","","","","","",""
"375","407332","pSARL_v2","pSARL_v2mkq4wg1j","62dfdd3c61b792d28de9d0e3","freq","img/orange_2bandit_a2.png","70","70","test","1","66","66","4","",""
"null","407774","pSARL_v2","pSARL_v2mkq4wg1j","62dfdd3c61b792d28de9d0e3","freq_resp","img/orange_2bandit_a.png","70","70","test","","","","4","",""
"null","407934","pSARL_v2","pSARL_v2mkq4wg1j","62dfdd3c61b792d28de9d0e3","fixation","img/fixation.png","null","","test","","","","","",""
"431.9999999999418","408372","pSARL_v2","pSARL_v2mkq4wg1j","62dfdd3c61b792d28de9d0e3","freq","img/orange_2bandit_a2.png","70","70","test","1","67","67","4","",""
"null","408752","pSARL_v2","pSARL_v2mkq4wg1j","62dfdd3c61b792d28de9d0e3","freq_resp","img/orange_2bandit_a.png","70","70","test","","","","4","",""
"null","408914","pSARL_v2","pSARL_v2mkq4wg1j","62dfdd3c61b792d28de9d0e3","fixation","img/fixation.png","null","","test","","","","","",""
"411","409331","pSARL_v2","pSARL_v2mkq4wg1j","62dfdd3c61b792d28de9d0e3","freq","img/orange_2bandit_a2.png","70","70","test","1","68","68","4","",""
"null","409730","pSARL_v2","pSARL_v2mkq4wg1j","62dfdd3c61b792d28de9d0e3","freq_resp","img/orange_2bandit_a.png","70","70","test","","","","4","",""
"null","409888","pSARL_v2","pSARL_v2mkq4wg1j","62dfdd3c61b792d28de9d0e3","fixation","img/fixation.png","null","","test","","","","","",""
"255","410150","pSARL_v2","pSARL_v2mkq4wg1j","62dfdd3c61b792d28de9d0e3","freq","img/orange_2bandit_a2.png","70","70","test","1","69","69","4","",""
"null","410704","pSARL_v2","pSARL_v2mkq4wg1j","62dfdd3c61b792d28de9d0e3","freq_resp","img/orange_2bandit_a.png","70","70","test","","","","4","",""
"null","410863","pSARL_v2","pSARL_v2mkq4wg1j","62dfdd3c61b792d28de9d0e3","fixation","img/fixation.png","null","","test","","","","","",""
"219","411088","pSARL_v2","pSARL_v2mkq4wg1j","62dfdd3c61b792d28de9d0e3","freq","img/orange_2bandit_a2.png","70","70","test","1","70","70","4","",""
"null","411680","pSARL_v2","pSARL_v2mkq4wg1j","62dfdd3c61b792d28de9d0e3","freq_resp","img/orange_2bandit_a.png","70","70","test","","","","4","",""
"null","411839","pSARL_v2","pSARL_v2mkq4wg1j","62dfdd3c61b792d28de9d0e3","fixation","img/fixation.png","null","","test","","","","","",""
"339","412184","pSARL_v2","pSARL_v2mkq4wg1j","62dfdd3c61b792d28de9d0e3","freq","img/orange_2bandit_a2.png","70","70","test","1","71","71","4","",""
"null","412661","pSARL_v2","pSARL_v2mkq4wg1j","62dfdd3c61b792d28de9d0e3","freq_resp","img/orange_2bandit_a.png","70","70","test","","","","4","",""
"null","412819","pSARL_v2","pSARL_v2mkq4wg1j","62dfdd3c61b792d28de9d0e3","fixation","img/fixation.png","null","","test","","","","","",""
"332","413157","pSARL_v2","pSARL_v2mkq4wg1j","62dfdd3c61b792d28de9d0e3","freq","img/orange_2bandit_a2.png","70","70","test","1","72","72","4","",""
"null","413634","pSARL_v2","pSARL_v2mkq4wg1j","62dfdd3c61b792d28de9d0e3","freq_resp","img/orange_2bandit_a.png","70","70","test","","","","4","",""
"null","413794","pSARL_v2","pSARL_v2mkq4wg1j","62dfdd3c61b792d28de9d0e3","fixation","img/fixation.png","null","","test","","","","","",""
"312","414111","pSARL_v2","pSARL_v2mkq4wg1j","62dfdd3c61b792d28de9d0e3","freq","img/orange_2bandit_a2.png","70","70","test","1","73","73","4","",""
"null","414610","pSARL_v2","pSARL_v2mkq4wg1j","62dfdd3c61b792d28de9d0e3","freq_resp","img/orange_2bandit_a.png","70","70","test","","","","4","",""
"null","414768","pSARL_v2","pSARL_v2mkq4wg1j","62dfdd3c61b792d28de9d0e3","fixation","img/fixation.png","null","","test","","","","","",""
"263.9999999999418","415038","pSARL_v2","pSARL_v2mkq4wg1j","62dfdd3c61b792d28de9d0e3","freq","img/orange_2bandit_a2.png","70","70","test","1","74","74","4","",""
"null","415588","pSARL_v2","pSARL_v2mkq4wg1j","62dfdd3c61b792d28de9d0e3","freq_resp","img/orange_2bandit_a.png","70","70","test","","","","4","",""
"null","415755","pSARL_v2","pSARL_v2mkq4wg1j","62dfdd3c61b792d28de9d0e3","fixation","img/fixation.png","null","","test","","","","","",""
"260","416022","pSARL_v2","pSARL_v2mkq4wg1j","62dfdd3c61b792d28de9d0e3","infreq","img/green_2bandit_a2.png","70","68","test","0","75","75","4","",""
"null","416575","pSARL_v2","pSARL_v2mkq4wg1j","62dfdd3c61b792d28de9d0e3","infreq_resp","img/green_2bandit_a.png","70","68","test","","","","4","",""
"null","416731","pSARL_v2","pSARL_v2mkq4wg1j","62dfdd3c61b792d28de9d0e3","fixation","img/fixation.png","null","","test","","","","","",""
"286","417022","pSARL_v2","pSARL_v2mkq4wg1j","62dfdd3c61b792d28de9d0e3","freq","img/orange_2bandit_a2.png","70","70","test","1","76","76","4","",""
"null","417549","pSARL_v2","pSARL_v2mkq4wg1j","62dfdd3c61b792d28de9d0e3","freq_resp","img/orange_2bandit_a.png","70","70","test","","","","4","",""
"null","417704","pSARL_v2","pSARL_v2mkq4wg1j","62dfdd3c61b792d28de9d0e3","fixation","img/fixation.png","null","","test","","","","","",""
"231","417941","pSARL_v2","pSARL_v2mkq4wg1j","62dfdd3c61b792d28de9d0e3","freq","img/orange_2bandit_a2.png","70","70","test","1","77","77","4","",""
"null","418518","pSARL_v2","pSARL_v2mkq4wg1j","62dfdd3c61b792d28de9d0e3","freq_resp","img/orange_2bandit_a.png","70","70","test","","","","4","",""
"null","418677","pSARL_v2","pSARL_v2mkq4wg1j","62dfdd3c61b792d28de9d0e3","fixation","img/fixation.png","null","","test","","","","","",""
"249","418933","pSARL_v2","pSARL_v2mkq4wg1j","62dfdd3c61b792d28de9d0e3","freq","img/orange_2bandit_a2.png","70","70","test","1","78","78","4","",""
"null","419496","pSARL_v2","pSARL_v2mkq4wg1j","62dfdd3c61b792d28de9d0e3","freq_resp","img/orange_2bandit_a.png","70","70","test","","","","4","",""
"null","419656","pSARL_v2","pSARL_v2mkq4wg1j","62dfdd3c61b792d28de9d0e3","fixation","img/fixation.png","null","","test","","","","","",""
"142","419804","pSARL_v2","pSARL_v2mkq4wg1j","62dfdd3c61b792d28de9d0e3","infreq","img/green_2bandit_a2.png","70","68","test","0","79","79","4","",""
"null","420475","pSARL_v2","pSARL_v2mkq4wg1j","62dfdd3c61b792d28de9d0e3","infreq_resp","img/green_2bandit_a.png","70","68","test","","","","4","",""
"null","420630","pSARL_v2","pSARL_v2mkq4wg1j","62dfdd3c61b792d28de9d0e3","fixation","img/fixation.png","null","","test","","","","","",""
"288","420924","pSARL_v2","pSARL_v2mkq4wg1j","62dfdd3c61b792d28de9d0e3","freq","img/orange_2bandit_a2.png","70","70","test","1","80","80","4","",""
"null","421446","pSARL_v2","pSARL_v2mkq4wg1j","62dfdd3c61b792d28de9d0e3","freq_resp","img/orange_2bandit_a.png","70","70","test","","","","4","",""
"null","421606","pSARL_v2","pSARL_v2mkq4wg1j","62dfdd3c61b792d28de9d0e3","fixation","img/fixation.png","null","","test","","","","","",""
"255","421866","pSARL_v2","pSARL_v2mkq4wg1j","62dfdd3c61b792d28de9d0e3","freq","img/orange_2bandit_a2.png","70","70","test","1","81","81","4","",""
"null","422424","pSARL_v2","pSARL_v2mkq4wg1j","62dfdd3c61b792d28de9d0e3","freq_resp","img/orange_2bandit_a.png","70","70","test","","","","4","",""
"null","422579","pSARL_v2","pSARL_v2mkq4wg1j","62dfdd3c61b792d28de9d0e3","fixation","img/fixation.png","null","","test","","","","","",""
"234","422817","pSARL_v2","pSARL_v2mkq4wg1j","62dfdd3c61b792d28de9d0e3","freq","img/orange_2bandit_a2.png","70","70","test","1","82","82","4","",""
"null","423392","pSARL_v2","pSARL_v2mkq4wg1j","62dfdd3c61b792d28de9d0e3","freq_resp","img/orange_2bandit_a.png","70","70","test","","","","4","",""
"null","423558","pSARL_v2","pSARL_v2mkq4wg1j","62dfdd3c61b792d28de9d0e3","fixation","img/fixation.png","null","","test","","","","","",""
"235","423798","pSARL_v2","pSARL_v2mkq4wg1j","62dfdd3c61b792d28de9d0e3","freq","img/orange_2bandit_a2.png","70","70","test","1","83","83","4","",""
"null","424372","pSARL_v2","pSARL_v2mkq4wg1j","62dfdd3c61b792d28de9d0e3","freq_resp","img/orange_2bandit_a.png","70","70","test","","","","4","",""
"null","424533","pSARL_v2","pSARL_v2mkq4wg1j","62dfdd3c61b792d28de9d0e3","fixation","img/fixation.png","null","","test","","","","","",""
"213","424752","pSARL_v2","pSARL_v2mkq4wg1j","62dfdd3c61b792d28de9d0e3","freq","img/orange_2bandit_a2.png","70","70","test","1","84","84","4","",""
"null","425353","pSARL_v2","pSARL_v2mkq4wg1j","62dfdd3c61b792d28de9d0e3","freq_resp","img/orange_2bandit_a.png","70","70","test","","","","4","",""
"null","425508","pSARL_v2","pSARL_v2mkq4wg1j","62dfdd3c61b792d28de9d0e3","fixation","img/fixation.png","null","","test","","","","","",""
"236.0000000000582","425750","pSARL_v2","pSARL_v2mkq4wg1j","62dfdd3c61b792d28de9d0e3","freq","img/orange_2bandit_a2.png","70","70","test","1","85","85","4","",""
"null","426324","pSARL_v2","pSARL_v2mkq4wg1j","62dfdd3c61b792d28de9d0e3","freq_resp","img/orange_2bandit_a.png","70","70","test","","","","4","",""
"null","426484","pSARL_v2","pSARL_v2mkq4wg1j","62dfdd3c61b792d28de9d0e3","fixation","img/fixation.png","null","","test","","","","","",""
"149","426638","pSARL_v2","pSARL_v2mkq4wg1j","62dfdd3c61b792d28de9d0e3","freq","img/orange_2bandit_a2.png","70","70","test","1","86","86","4","",""
"null","427302","pSARL_v2","pSARL_v2mkq4wg1j","62dfdd3c61b792d28de9d0e3","freq_resp","img/orange_2bandit_a.png","70","70","test","","","","4","",""
"null","427466","pSARL_v2","pSARL_v2mkq4wg1j","62dfdd3c61b792d28de9d0e3","fixation","img/fixation.png","null","","test","","","","","",""
"275","427747","pSARL_v2","pSARL_v2mkq4wg1j","62dfdd3c61b792d28de9d0e3","freq","img/orange_2bandit_a2.png","70","70","test","1","87","87","4","",""
"null","428282","pSARL_v2","pSARL_v2mkq4wg1j","62dfdd3c61b792d28de9d0e3","freq_resp","img/orange_2bandit_a.png","70","70","test","","","","4","",""
"null","428440","pSARL_v2","pSARL_v2mkq4wg1j","62dfdd3c61b792d28de9d0e3","fixation","img/fixation.png","null","","test","","","","","",""
"260","428706","pSARL_v2","pSARL_v2mkq4wg1j","62dfdd3c61b792d28de9d0e3","freq","img/orange_2bandit_a2.png","70","70","test","1","88","88","4","",""
"null","429256","pSARL_v2","pSARL_v2mkq4wg1j","62dfdd3c61b792d28de9d0e3","freq_resp","img/orange_2bandit_a.png","70","70","test","","","","4","",""
"null","429419","pSARL_v2","pSARL_v2mkq4wg1j","62dfdd3c61b792d28de9d0e3","fixation","img/fixation.png","null","","test","","","","","",""
"483","429908","pSARL_v2","pSARL_v2mkq4wg1j","62dfdd3c61b792d28de9d0e3","reward","img/slot.png","74","","test","","","","","",""
"null","430671","pSARL_v2","pSARL_v2mkq4wg1j","62dfdd3c61b792d28de9d0e3","points","<div class=""verylowPoints""> -3 </div>","null","na","test","","","","4","-3","3"
"477.0000000000582","431155","pSARL_v2","pSARL_v2mkq4wg1j","62dfdd3c61b792d28de9d0e3","freq","img/orange_2bandit_a2.png","70","70","test","1","89","89","5","",""
"null","431491","pSARL_v2","pSARL_v2mkq4wg1j","62dfdd3c61b792d28de9d0e3","freq_resp","img/orange_2bandit_a.png","70","70","test","","","","5","",""
"null","431646","pSARL_v2","pSARL_v2mkq4wg1j","62dfdd3c61b792d28de9d0e3","fixation","img/fixation.png","null","","test","","","","","",""
"280","431932","pSARL_v2","pSARL_v2mkq4wg1j","62dfdd3c61b792d28de9d0e3","freq","img/orange_2bandit_a2.png","70","70","test","1","90","90","5","",""
"null","432462","pSARL_v2","pSARL_v2mkq4wg1j","62dfdd3c61b792d28de9d0e3","freq_resp","img/orange_2bandit_a.png","70","70","test","","","","5","",""
"null","432625","pSARL_v2","pSARL_v2mkq4wg1j","62dfdd3c61b792d28de9d0e3","fixation","img/fixation.png","null","","test","","","","","",""
"233.0000000000582","432863","pSARL_v2","pSARL_v2mkq4wg1j","62dfdd3c61b792d28de9d0e3","freq","img/orange_2bandit_a2.png","70","70","test","1","91","91","5","",""
"null","433442","pSARL_v2","pSARL_v2mkq4wg1j","62dfdd3c61b792d28de9d0e3","freq_resp","img/orange_2bandit_a.png","70","70","test","","","","5","",""
"null","433598","pSARL_v2","pSARL_v2mkq4wg1j","62dfdd3c61b792d28de9d0e3","fixation","img/fixation.png","null","","test","","","","","",""
"272.0000000000582","433874","pSARL_v2","pSARL_v2mkq4wg1j","62dfdd3c61b792d28de9d0e3","freq","img/orange_2bandit_a2.png","70","70","test","1","92","92","5","",""
"null","434418","pSARL_v2","pSARL_v2mkq4wg1j","62dfdd3c61b792d28de9d0e3","freq_resp","img/orange_2bandit_a.png","70","70","test","","","","5","",""
"null","434582","pSARL_v2","pSARL_v2mkq4wg1j","62dfdd3c61b792d28de9d0e3","fixation","img/fixation.png","null","","test","","","","","",""
"118","434706","pSARL_v2","pSARL_v2mkq4wg1j","62dfdd3c61b792d28de9d0e3","freq","img/orange_2bandit_a2.png","70","70","test","1","93","93","5","",""
"null","435401","pSARL_v2","pSARL_v2mkq4wg1j","62dfdd3c61b792d28de9d0e3","freq_resp","img/orange_2bandit_a.png","70","70","test","","","","5","",""
"null","435557","pSARL_v2","pSARL_v2mkq4wg1j","62dfdd3c61b792d28de9d0e3","fixation","img/fixation.png","null","","test","","","","","",""
"172","435737","pSARL_v2","pSARL_v2mkq4wg1j","62dfdd3c61b792d28de9d0e3","freq","img/orange_2bandit_a2.png","70","70","test","1","94","94","5","",""
"null","436375","pSARL_v2","pSARL_v2mkq4wg1j","62dfdd3c61b792d28de9d0e3","freq_resp","img/orange_2bandit_a.png","70","70","test","","","","5","",""
"null","436533","pSARL_v2","pSARL_v2mkq4wg1j","62dfdd3c61b792d28de9d0e3","fixation","img/fixation.png","null","","test","","","","","",""
"99","436637","pSARL_v2","pSARL_v2mkq4wg1j","62dfdd3c61b792d28de9d0e3","freq","img/orange_2bandit_a2.png","70","70","test","1","95","95","5","",""
"null","437352","pSARL_v2","pSARL_v2mkq4wg1j","62dfdd3c61b792d28de9d0e3","freq_resp","img/orange_2bandit_a.png","70","70","test","","","","5","",""
"null","437507","pSARL_v2","pSARL_v2mkq4wg1j","62dfdd3c61b792d28de9d0e3","fixation","img/fixation.png","null","","test","","","","","",""
"217","437731","pSARL_v2","pSARL_v2mkq4wg1j","62dfdd3c61b792d28de9d0e3","freq","img/orange_2bandit_a2.png","70","70","test","1","96","96","5","",""
"null","438331","pSARL_v2","pSARL_v2mkq4wg1j","62dfdd3c61b792d28de9d0e3","freq_resp","img/orange_2bandit_a.png","70","70","test","","","","5","",""
"null","438495","pSARL_v2","pSARL_v2mkq4wg1j","62dfdd3c61b792d28de9d0e3","fixation","img/fixation.png","null","","test","","","","","",""
"209","438709","pSARL_v2","pSARL_v2mkq4wg1j","62dfdd3c61b792d28de9d0e3","freq","img/orange_2bandit_a2.png","70","70","test","1","97","97","5","",""
"null","439309","pSARL_v2","pSARL_v2mkq4wg1j","62dfdd3c61b792d28de9d0e3","freq_resp","img/orange_2bandit_a.png","70","70","test","","","","5","",""
"null","439465","pSARL_v2","pSARL_v2mkq4wg1j","62dfdd3c61b792d28de9d0e3","fixation","img/fixation.png","null","","test","","","","","",""
"240.9999999999418","439713","pSARL_v2","pSARL_v2mkq4wg1j","62dfdd3c61b792d28de9d0e3","freq","img/orange_2bandit_a2.png","70","70","test","1","98","98","5","",""
"null","440286","pSARL_v2","pSARL_v2mkq4wg1j","62dfdd3c61b792d28de9d0e3","freq_resp","img/orange_2bandit_a.png","70","70","test","","","","5","",""
"null","440440","pSARL_v2","pSARL_v2mkq4wg1j","62dfdd3c61b792d28de9d0e3","fixation","img/fixation.png","null","","test","","","","","",""
"433","440879","pSARL_v2","pSARL_v2mkq4wg1j","62dfdd3c61b792d28de9d0e3","infreq","img/green_2bandit_a2.png","68","68","test","1","99","99","5","",""
"null","441258","pSARL_v2","pSARL_v2mkq4wg1j","62dfdd3c61b792d28de9d0e3","infreq_resp","img/green_2bandit_a.png","68","68","test","","","","5","",""
"null","441420","pSARL_v2","pSARL_v2mkq4wg1j","62dfdd3c61b792d28de9d0e3","fixation","img/fixation.png","null","","test","","","","","",""
"427","441854","pSARL_v2","pSARL_v2mkq4wg1j","62dfdd3c61b792d28de9d0e3","infreq","img/green_2bandit_a2.png","68","68","test","1","100","100","5","",""
"null","442240","pSARL_v2","pSARL_v2mkq4wg1j","62dfdd3c61b792d28de9d0e3","infreq_resp","img/green_2bandit_a.png","68","68","test","","","","5","",""
"null","442398","pSARL_v2","pSARL_v2mkq4wg1j","62dfdd3c61b792d28de9d0e3","fixation","img/fixation.png","null","","test","","","","","",""
"563.9999999999418","442968","pSARL_v2","pSARL_v2mkq4wg1j","62dfdd3c61b792d28de9d0e3","freq","img/orange_2bandit_a2.png","70","70","test","1","101","101","5","",""
"null","443212","pSARL_v2","pSARL_v2mkq4wg1j","62dfdd3c61b792d28de9d0e3","freq_resp","img/orange_2bandit_a.png","70","70","test","","","","5","",""
"null","443376","pSARL_v2","pSARL_v2mkq4wg1j","62dfdd3c61b792d28de9d0e3","fixation","img/fixation.png","null","","test","","","","","",""
"300","443682","pSARL_v2","pSARL_v2mkq4wg1j","62dfdd3c61b792d28de9d0e3","freq","img/orange_2bandit_a2.png","70","70","test","1","102","102","5","",""
"null","444195","pSARL_v2","pSARL_v2mkq4wg1j","62dfdd3c61b792d28de9d0e3","freq_resp","img/orange_2bandit_a.png","70","70","test","","","","5","",""
"null","444351","pSARL_v2","pSARL_v2mkq4wg1j","62dfdd3c61b792d28de9d0e3","fixation","img/fixation.png","null","","test","","","","","",""
"266","444623","pSARL_v2","pSARL_v2mkq4wg1j","62dfdd3c61b792d28de9d0e3","freq","img/orange_2bandit_a2.png","70","70","test","1","103","103","5","",""
"null","445170","pSARL_v2","pSARL_v2mkq4wg1j","62dfdd3c61b792d28de9d0e3","freq_resp","img/orange_2bandit_a.png","70","70","test","","","","5","",""
"null","445325","pSARL_v2","pSARL_v2mkq4wg1j","62dfdd3c61b792d28de9d0e3","fixation","img/fixation.png","null","","test","","","","","",""
"245","445574","pSARL_v2","pSARL_v2mkq4wg1j","62dfdd3c61b792d28de9d0e3","freq","img/orange_2bandit_a2.png","70","70","test","1","104","104","5","",""
"null","446137","pSARL_v2","pSARL_v2mkq4wg1j","62dfdd3c61b792d28de9d0e3","freq_resp","img/orange_2bandit_a.png","70","70","test","","","","5","",""
"null","446294","pSARL_v2","pSARL_v2mkq4wg1j","62dfdd3c61b792d28de9d0e3","fixation","img/fixation.png","null","","test","","","","","",""
"232","446532","pSARL_v2","pSARL_v2mkq4wg1j","62dfdd3c61b792d28de9d0e3","freq","img/orange_2bandit_a2.png","70","70","test","1","105","105","5","",""
"null","447110","pSARL_v2","pSARL_v2mkq4wg1j","62dfdd3c61b792d28de9d0e3","freq_resp","img/orange_2bandit_a.png","70","70","test","","","","5","",""
"null","447273","pSARL_v2","pSARL_v2mkq4wg1j","62dfdd3c61b792d28de9d0e3","fixation","img/fixation.png","null","","test","","","","","",""
"242.9999999999418","447521","pSARL_v2","pSARL_v2mkq4wg1j","62dfdd3c61b792d28de9d0e3","freq","img/orange_2bandit_a2.png","70","70","test","1","106","106","5","",""
"null","448087","pSARL_v2","pSARL_v2mkq4wg1j","62dfdd3c61b792d28de9d0e3","freq_resp","img/orange_2bandit_a.png","70","70","test","","","","5","",""
"null","448246","pSARL_v2","pSARL_v2mkq4wg1j","62dfdd3c61b792d28de9d0e3","fixation","img/fixation.png","null","","test","","","","","",""
"312","448563","pSARL_v2","pSARL_v2mkq4wg1j","62dfdd3c61b792d28de9d0e3","freq","img/orange_2bandit_a2.png","70","70","test","1","107","107","5","",""
"null","449064","pSARL_v2","pSARL_v2mkq4wg1j","62dfdd3c61b792d28de9d0e3","freq_resp","img/orange_2bandit_a.png","70","70","test","","","","5","",""
"null","449220","pSARL_v2","pSARL_v2mkq4wg1j","62dfdd3c61b792d28de9d0e3","fixation","img/fixation.png","null","","test","","","","","",""
"269","449502","pSARL_v2","pSARL_v2mkq4wg1j","62dfdd3c61b792d28de9d0e3","freq","img/orange_2bandit_a2.png","70","70","test","1","108","108","5","",""
"null","450043","pSARL_v2","pSARL_v2mkq4wg1j","62dfdd3c61b792d28de9d0e3","freq_resp","img/orange_2bandit_a.png","70","70","test","","","","5","",""
"null","450202","pSARL_v2","pSARL_v2mkq4wg1j","62dfdd3c61b792d28de9d0e3","fixation","img/fixation.png","null","","test","","","","","",""
"350","450560","pSARL_v2","pSARL_v2mkq4wg1j","62dfdd3c61b792d28de9d0e3","freq","img/orange_2bandit_a2.png","70","70","test","1","109","109","5","",""
"null","451027","pSARL_v2","pSARL_v2mkq4wg1j","62dfdd3c61b792d28de9d0e3","freq_resp","img/orange_2bandit_a.png","70","70","test","","","","5","",""
"null","451191","pSARL_v2","pSARL_v2mkq4wg1j","62dfdd3c61b792d28de9d0e3","fixation","img/fixation.png","null","","test","","","","","",""
"255","451451","pSARL_v2","pSARL_v2mkq4wg1j","62dfdd3c61b792d28de9d0e3","freq","img/orange_2bandit_a2.png","70","70","test","1","110","110","5","",""
"null","452003","pSARL_v2","pSARL_v2mkq4wg1j","62dfdd3c61b792d28de9d0e3","freq_resp","img/orange_2bandit_a.png","70","70","test","","","","5","",""
"null","452161","pSARL_v2","pSARL_v2mkq4wg1j","62dfdd3c61b792d28de9d0e3","fixation","img/fixation.png","null","","test","","","","","",""
"151","452319","pSARL_v2","pSARL_v2mkq4wg1j","62dfdd3c61b792d28de9d0e3","freq","img/orange_2bandit_a2.png","70","70","test","1","111","111","5","",""
"null","452981","pSARL_v2","pSARL_v2mkq4wg1j","62dfdd3c61b792d28de9d0e3","freq_resp","img/orange_2bandit_a.png","70","70","test","","","","5","",""
"null","453143","pSARL_v2","pSARL_v2mkq4wg1j","62dfdd3c61b792d28de9d0e3","fixation","img/fixation.png","null","","test","","","","","",""
"442.9999999999418","453594","pSARL_v2","pSARL_v2mkq4wg1j","62dfdd3c61b792d28de9d0e3","reward","img/slot.png","74","","test","","","","","",""
"null","454357","pSARL_v2","pSARL_v2mkq4wg1j","62dfdd3c61b792d28de9d0e3","points","<div class=""veryhighPoints""> +1 </div>","null","na","test","","","","5","1","4"
"704.9999999999418","455069","pSARL_v2","pSARL_v2mkq4wg1j","62dfdd3c61b792d28de9d0e3","freq","img/orange_2bandit_a2.png","70","70","test","1","112","112","6","",""
"null","455174","pSARL_v2","pSARL_v2mkq4wg1j","62dfdd3c61b792d28de9d0e3","freq_resp","img/orange_2bandit_a.png","70","70","test","","","","6","",""
"null","455332","pSARL_v2","pSARL_v2mkq4wg1j","62dfdd3c61b792d28de9d0e3","fixation","img/fixation.png","null","","test","","","","","",""
"585.0000000000582","455922","pSARL_v2","pSARL_v2mkq4wg1j","62dfdd3c61b792d28de9d0e3","freq","img/orange_2bandit_a2.png","70","70","test","1","113","113","6","",""
"null","456143","pSARL_v2","pSARL_v2mkq4wg1j","62dfdd3c61b792d28de9d0e3","freq_resp","img/orange_2bandit_a.png","70","70","test","","","","6","",""
"null","456301","pSARL_v2","pSARL_v2mkq4wg1j","62dfdd3c61b792d28de9d0e3","fixation","img/fixation.png","null","","test","","","","","",""
"343","456650","pSARL_v2","pSARL_v2mkq4wg1j","62dfdd3c61b792d28de9d0e3","freq","img/orange_2bandit_a2.png","70","70","test","1","114","114","6","",""
"null","457115","pSARL_v2","pSARL_v2mkq4wg1j","62dfdd3c61b792d28de9d0e3","freq_resp","img/orange_2bandit_a.png","70","70","test","","","","6","",""
"null","457276","pSARL_v2","pSARL_v2mkq4wg1j","62dfdd3c61b792d28de9d0e3","fixation","img/fixation.png","null","","test","","","","","",""
"356","457640","pSARL_v2","pSARL_v2mkq4wg1j","62dfdd3c61b792d28de9d0e3","freq","img/orange_2bandit_a2.png","70","70","test","1","115","115","6","",""
"null","458095","pSARL_v2","pSARL_v2mkq4wg1j","62dfdd3c61b792d28de9d0e3","freq_resp","img/orange_2bandit_a.png","70","70","test","","","","6","",""
"null","458255","pSARL_v2","pSARL_v2mkq4wg1j","62dfdd3c61b792d28de9d0e3","fixation","img/fixation.png","null","","test","","","","","",""
"461.0000000000582","458721","pSARL_v2","pSARL_v2mkq4wg1j","62dfdd3c61b792d28de9d0e3","infreq","img/green_2bandit_a2.png","68","68","test","1","116","116","6","",""
"null","459073","pSARL_v2","pSARL_v2mkq4wg1j","62dfdd3c61b792d28de9d0e3","infreq_resp","img/green_2bandit_a.png","68","68","test","","","","6","",""
"null","459227","pSARL_v2","pSARL_v2mkq4wg1j","62dfdd3c61b792d28de9d0e3","fixation","img/fixation.png","null","","test","","","","","",""
"512.9999999999418","459749","pSARL_v2","pSARL_v2mkq4wg1j","62dfdd3c61b792d28de9d0e3","freq","img/orange_2bandit_a2.png","70","70","test","1","117","117","6","",""
"null","460049","pSARL_v2","pSARL_v2mkq4wg1j","62dfdd3c61b792d28de9d0e3","freq_resp","img/orange_2bandit_a.png","70","70","test","","","","6","",""
"null","460202","pSARL_v2","pSARL_v2mkq4wg1j","62dfdd3c61b792d28de9d0e3","fixation","img/fixation.png","null","","test","","","","","",""
"319","460527","pSARL_v2","pSARL_v2mkq4wg1j","62dfdd3c61b792d28de9d0e3","freq","img/orange_2bandit_a2.png","70","70","test","1","118","118","6","",""
"null","461020","pSARL_v2","pSARL_v2mkq4wg1j","62dfdd3c61b792d28de9d0e3","freq_resp","img/orange_2bandit_a.png","70","70","test","","","","6","",""
"null","461181","pSARL_v2","pSARL_v2mkq4wg1j","62dfdd3c61b792d28de9d0e3","fixation","img/fixation.png","null","","test","","","","","",""
"255","461441","pSARL_v2","pSARL_v2mkq4wg1j","62dfdd3c61b792d28de9d0e3","freq","img/orange_2bandit_a2.png","70","70","test","1","119","119","6","",""
"null","462000","pSARL_v2","pSARL_v2mkq4wg1j","62dfdd3c61b792d28de9d0e3","freq_resp","img/orange_2bandit_a.png","70","70","test","","","","6","",""
"null","462158","pSARL_v2","pSARL_v2mkq4wg1j","62dfdd3c61b792d28de9d0e3","fixation","img/fixation.png","null","","test","","","","","",""
"268","462431","pSARL_v2","pSARL_v2mkq4wg1j","62dfdd3c61b792d28de9d0e3","freq","img/orange_2bandit_a2.png","70","70","test","1","120","120","6","",""
"null","462976","pSARL_v2","pSARL_v2mkq4wg1j","62dfdd3c61b792d28de9d0e3","freq_resp","img/orange_2bandit_a.png","70","70","test","","","","6","",""
"null","463135","pSARL_v2","pSARL_v2mkq4wg1j","62dfdd3c61b792d28de9d0e3","fixation","img/fixation.png","null","","test","","","","","",""
"239","463380","pSARL_v2","pSARL_v2mkq4wg1j","62dfdd3c61b792d28de9d0e3","freq","img/orange_2bandit_a2.png","70","70","test","1","121","121","6","",""
"null","463948","pSARL_v2","pSARL_v2mkq4wg1j","62dfdd3c61b792d28de9d0e3","freq_resp","img/orange_2bandit_a.png","70","70","test","","","","6","",""
"null","464106","pSARL_v2","pSARL_v2mkq4wg1j","62dfdd3c61b792d28de9d0e3","fixation","img/fixation.png","null","","test","","","","","",""
"253","464363","pSARL_v2","pSARL_v2mkq4wg1j","62dfdd3c61b792d28de9d0e3","infreq","img/green_2bandit_a2.png","70","68","test","0","122","122","6","",""
"null","464927","pSARL_v2","pSARL_v2mkq4wg1j","62dfdd3c61b792d28de9d0e3","infreq_resp","img/green_2bandit_a.png","70","68","test","","","","6","",""
"null","465089","pSARL_v2","pSARL_v2mkq4wg1j","62dfdd3c61b792d28de9d0e3","fixation","img/fixation.png","null","","test","","","","","",""
"223","465318","pSARL_v2","pSARL_v2mkq4wg1j","62dfdd3c61b792d28de9d0e3","freq","img/orange_2bandit_a2.png","70","70","test","1","123","123","6","",""
"null","465907","pSARL_v2","pSARL_v2mkq4wg1j","62dfdd3c61b792d28de9d0e3","freq_resp","img/orange_2bandit_a.png","70","70","test","","","","6","",""
"null","466070","pSARL_v2","pSARL_v2mkq4wg1j","62dfdd3c61b792d28de9d0e3","fixation","img/fixation.png","null","","test","","","","","",""
"108","466184","pSARL_v2","pSARL_v2mkq4wg1j","62dfdd3c61b792d28de9d0e3","infreq","img/green_2bandit_a2.png","70","68","test","0","124","124","6","",""
"null","466892","pSARL_v2","pSARL_v2mkq4wg1j","62dfdd3c61b792d28de9d0e3","infreq_resp","img/green_2bandit_a.png","70","68","test","","","","6","",""
"null","467056","pSARL_v2","pSARL_v2mkq4wg1j","62dfdd3c61b792d28de9d0e3","fixation","img/fixation.png","null","","test","","","","","",""
"318","467380","pSARL_v2","pSARL_v2mkq4wg1j","62dfdd3c61b792d28de9d0e3","freq","img/orange_2bandit_a2.png","70","70","test","1","125","125","6","",""
"null","467875","pSARL_v2","pSARL_v2mkq4wg1j","62dfdd3c61b792d28de9d0e3","freq_resp","img/orange_2bandit_a.png","70","70","test","","","","6","",""
"null","468034","pSARL_v2","pSARL_v2mkq4wg1j","62dfdd3c61b792d28de9d0e3","fixation","img/fixation.png","null","","test","","","","","",""
"281","468323","pSARL_v2","pSARL_v2mkq4wg1j","62dfdd3c61b792d28de9d0e3","freq","img/orange_2bandit_a2.png","70","70","test","1","126","126","6","",""
"null","468855","pSARL_v2","pSARL_v2mkq4wg1j","62dfdd3c61b792d28de9d0e3","freq_resp","img/orange_2bandit_a.png","70","70","test","","","","6","",""
"null","469014","pSARL_v2","pSARL_v2mkq4wg1j","62dfdd3c61b792d28de9d0e3","fixation","img/fixation.png","null","","test","","","","","",""
"270","469297","pSARL_v2","pSARL_v2mkq4wg1j","62dfdd3c61b792d28de9d0e3","freq","img/orange_2bandit_a2.png","70","70","test","1","127","127","6","",""
"null","469838","pSARL_v2","pSARL_v2mkq4wg1j","62dfdd3c61b792d28de9d0e3","freq_resp","img/orange_2bandit_a.png","70","70","test","","","","6","",""
"null","469997","pSARL_v2","pSARL_v2mkq4wg1j","62dfdd3c61b792d28de9d0e3","fixation","img/fixation.png","null","","test","","","","","",""
"260","470269","pSARL_v2","pSARL_v2mkq4wg1j","62dfdd3c61b792d28de9d0e3","freq","img/orange_2bandit_a2.png","70","70","test","1","128","128","6","",""
"null","470824","pSARL_v2","pSARL_v2mkq4wg1j","62dfdd3c61b792d28de9d0e3","freq_resp","img/orange_2bandit_a.png","70","70","test","","","","6","",""
"null","470984","pSARL_v2","pSARL_v2mkq4wg1j","62dfdd3c61b792d28de9d0e3","fixation","img/fixation.png","null","","test","","","","","",""
"267","471256","pSARL_v2","pSARL_v2mkq4wg1j","62dfdd3c61b792d28de9d0e3","freq","img/orange_2bandit_a2.png","70","70","test","1","129","129","6","",""
"null","471802","pSARL_v2","pSARL_v2mkq4wg1j","62dfdd3c61b792d28de9d0e3","freq_resp","img/orange_2bandit_a.png","70","70","test","","","","6","",""
"null","471957","pSARL_v2","pSARL_v2mkq4wg1j","62dfdd3c61b792d28de9d0e3","fixation","img/fixation.png","null","","test","","","","","",""
"233","472195","pSARL_v2","pSARL_v2mkq4wg1j","62dfdd3c61b792d28de9d0e3","freq","img/orange_2bandit_a2.png","70","70","test","1","130","130","6","",""
"null","472769","pSARL_v2","pSARL_v2mkq4wg1j","62dfdd3c61b792d28de9d0e3","freq_resp","img/orange_2bandit_a.png","70","70","test","","","","6","",""
"null","472927","pSARL_v2","pSARL_v2mkq4wg1j","62dfdd3c61b792d28de9d0e3","fixation","img/fixation.png","null","","test","","","","","",""
"274","473205","pSARL_v2","pSARL_v2mkq4wg1j","62dfdd3c61b792d28de9d0e3","freq","img/orange_2bandit_a2.png","70","70","test","1","131","131","6","",""
"null","473749","pSARL_v2","pSARL_v2mkq4wg1j","62dfdd3c61b792d28de9d0e3","freq_resp","img/orange_2bandit_a.png","70","70","test","","","","6","",""
"null","473913","pSARL_v2","pSARL_v2mkq4wg1j","62dfdd3c61b792d28de9d0e3","fixation","img/fixation.png","null","","test","","","","","",""
"270","474188","pSARL_v2","pSARL_v2mkq4wg1j","62dfdd3c61b792d28de9d0e3","freq","img/orange_2bandit_a2.png","70","70","test","1","132","132","6","",""
"null","474730","pSARL_v2","pSARL_v2mkq4wg1j","62dfdd3c61b792d28de9d0e3","freq_resp","img/orange_2bandit_a.png","70","70","test","","","","6","",""
"null","474891","pSARL_v2","pSARL_v2mkq4wg1j","62dfdd3c61b792d28de9d0e3","fixation","img/fixation.png","null","","test","","","","","",""
"268","475169","pSARL_v2","pSARL_v2mkq4wg1j","62dfdd3c61b792d28de9d0e3","freq","img/orange_2bandit_a2.png","70","70","test","1","133","133","6","",""
"null","475714","pSARL_v2","pSARL_v2mkq4wg1j","62dfdd3c61b792d28de9d0e3","freq_resp","img/orange_2bandit_a.png","70","70","test","","","","6","",""
"null","475878","pSARL_v2","pSARL_v2mkq4wg1j","62dfdd3c61b792d28de9d0e3","fixation","img/fixation.png","null","","test","","","","","",""
"406","476290","pSARL_v2","pSARL_v2mkq4wg1j","62dfdd3c61b792d28de9d0e3","reward","img/slot.png","74","","test","","","","","",""
"null","477046","pSARL_v2","pSARL_v2mkq4wg1j","62dfdd3c61b792d28de9d0e3","points","<div class=""verylowPoints""> -7 </div>","null","na","test","","","","6","-7","5"
"528","477581","pSARL_v2","pSARL_v2mkq4wg1j","62dfdd3c61b792d28de9d0e3","freq","img/orange_2bandit_a2.png","70","70","test","1","134","134","7","",""
"null","477867","pSARL_v2","pSARL_v2mkq4wg1j","62dfdd3c61b792d28de9d0e3","freq_resp","img/orange_2bandit_a.png","70","70","test","","","","7","",""
"null","478030","pSARL_v2","pSARL_v2mkq4wg1j","62dfdd3c61b792d28de9d0e3","fixation","img/fixation.png","null","","test","","","","","",""
"310","478354","pSARL_v2","pSARL_v2mkq4wg1j","62dfdd3c61b792d28de9d0e3","freq","img/orange_2bandit_a2.png","70","70","test","1","135","135","7","",""
"null","478858","pSARL_v2","pSARL_v2mkq4wg1j","62dfdd3c61b792d28de9d0e3","freq_resp","img/orange_2bandit_a.png","70","70","test","","","","7","",""
"null","479024","pSARL_v2","pSARL_v2mkq4wg1j","62dfdd3c61b792d28de9d0e3","fixation","img/fixation.png","null","","test","","","","","",""
"308.0000000000582","479340","pSARL_v2","pSARL_v2mkq4wg1j","62dfdd3c61b792d28de9d0e3","freq","img/orange_2bandit_a2.png","70","70","test","1","136","136","7","",""
"null","479844","pSARL_v2","pSARL_v2mkq4wg1j","62dfdd3c61b792d28de9d0e3","freq_resp","img/orange_2bandit_a.png","70","70","test","","","","7","",""
"null","480001","pSARL_v2","pSARL_v2mkq4wg1j","62dfdd3c61b792d28de9d0e3","fixation","img/fixation.png","null","","test","","","","","",""
"440.9999999999418","480449","pSARL_v2","pSARL_v2mkq4wg1j","62dfdd3c61b792d28de9d0e3","freq","img/orange_2bandit_a2.png","70","70","test","1","137","137","7","",""
"null","480820","pSARL_v2","pSARL_v2mkq4wg1j","62dfdd3c61b792d28de9d0e3","freq_resp","img/orange_2bandit_a.png","70","70","test","","","","7","",""
"null","480978","pSARL_v2","pSARL_v2mkq4wg1j","62dfdd3c61b792d28de9d0e3","fixation","img/fixation.png","null","","test","","","","","",""
"262","481246","pSARL_v2","pSARL_v2mkq4wg1j","62dfdd3c61b792d28de9d0e3","freq","img/orange_2bandit_a2.png","70","70","test","1","138","138","7","",""
"null","481799","pSARL_v2","pSARL_v2mkq4wg1j","62dfdd3c61b792d28de9d0e3","freq_resp","img/orange_2bandit_a.png","70","70","test","","","","7","",""
"null","481959","pSARL_v2","pSARL_v2mkq4wg1j","62dfdd3c61b792d28de9d0e3","fixation","img/fixation.png","null","","test","","","","","",""
"92","482056","pSARL_v2","pSARL_v2mkq4wg1j","62dfdd3c61b792d28de9d0e3","freq","img/orange_2bandit_a2.png","70","70","test","1","139","139","7","",""
"null","482775","pSARL_v2","pSARL_v2mkq4wg1j","62dfdd3c61b792d28de9d0e3","freq_resp","img/orange_2bandit_a.png","70","70","test","","","","7","",""
"null","482933","pSARL_v2","pSARL_v2mkq4wg1j","62dfdd3c61b792d28de9d0e3","fixation","img/fixation.png","null","","test","","","","","",""
"265","483205","pSARL_v2","pSARL_v2mkq4wg1j","62dfdd3c61b792d28de9d0e3","freq","img/orange_2bandit_a2.png","70","70","test","1","140","140","7","",""
"null","483749","pSARL_v2","pSARL_v2mkq4wg1j","62dfdd3c61b792d28de9d0e3","freq_resp","img/orange_2bandit_a.png","70","70","test","","","","7","",""
"null","483910","pSARL_v2","pSARL_v2mkq4wg1j","62dfdd3c61b792d28de9d0e3","fixation","img/fixation.png","null","","test","","","","","",""
"242.9999999999418","484161","pSARL_v2","pSARL_v2mkq4wg1j","62dfdd3c61b792d28de9d0e3","freq","img/orange_2bandit_a2.png","70","70","test","1","141","141","7","",""
"null","484736","pSARL_v2","pSARL_v2mkq4wg1j","62dfdd3c61b792d28de9d0e3","freq_resp","img/orange_2bandit_a.png","70","70","test","","","","7","",""
"null","484899","pSARL_v2","pSARL_v2mkq4wg1j","62dfdd3c61b792d28de9d0e3","fixation","img/fixation.png","null","","test","","","","","",""
"252.9999999999418","485159","pSARL_v2","pSARL_v2mkq4wg1j","62dfdd3c61b792d28de9d0e3","freq","img/orange_2bandit_a2.png","70","70","test","1","142","142","7","",""
"null","485719","pSARL_v2","pSARL_v2mkq4wg1j","62dfdd3c61b792d28de9d0e3","freq_resp","img/orange_2bandit_a.png","70","70","test","","","","7","",""
"null","485880","pSARL_v2","pSARL_v2mkq4wg1j","62dfdd3c61b792d28de9d0e3","fixation","img/fixation.png","null","","test","","","","","",""
"318","486206","pSARL_v2","pSARL_v2mkq4wg1j","62dfdd3c61b792d28de9d0e3","freq","img/orange_2bandit_a2.png","70","70","test","1","143","143","7","",""
"null","486700","pSARL_v2","pSARL_v2mkq4wg1j","62dfdd3c61b792d28de9d0e3","freq_resp","img/orange_2bandit_a.png","70","70","test","","","","7","",""
"null","486855","pSARL_v2","pSARL_v2mkq4wg1j","62dfdd3c61b792d28de9d0e3","fixation","img/fixation.png","null","","test","","","","","",""
"235.0000000000582","487096","pSARL_v2","pSARL_v2mkq4wg1j","62dfdd3c61b792d28de9d0e3","freq","img/orange_2bandit_a2.png","70","70","test","1","144","144","7","",""
"null","487673","pSARL_v2","pSARL_v2mkq4wg1j","62dfdd3c61b792d28de9d0e3","freq_resp","img/orange_2bandit_a.png","70","70","test","","","","7","",""
"null","487831","pSARL_v2","pSARL_v2mkq4wg1j","62dfdd3c61b792d28de9d0e3","fixation","img/fixation.png","null","","test","","","","","",""
"283.0000000000582","488120","pSARL_v2","pSARL_v2mkq4wg1j","62dfdd3c61b792d28de9d0e3","freq","img/orange_2bandit_a2.png","70","70","test","1","145","145","7","",""
"null","488654","pSARL_v2","pSARL_v2mkq4wg1j","62dfdd3c61b792d28de9d0e3","freq_resp","img/orange_2bandit_a.png","70","70","test","","","","7","",""
"null","488817","pSARL_v2","pSARL_v2mkq4wg1j","62dfdd3c61b792d28de9d0e3","fixation","img/fixation.png","null","","test","","","","","",""
"247","489071","pSARL_v2","pSARL_v2mkq4wg1j","62dfdd3c61b792d28de9d0e3","freq","img/orange_2bandit_a2.png","70","70","test","1","146","146","7","",""
"null","489634","pSARL_v2","pSARL_v2mkq4wg1j","62dfdd3c61b792d28de9d0e3","freq_resp","img/orange_2bandit_a.png","70","70","test","","","","7","",""
"null","489793","pSARL_v2","pSARL_v2mkq4wg1j","62dfdd3c61b792d28de9d0e3","fixation","img/fixation.png","null","","test","","","","","",""
"279","490077","pSARL_v2","pSARL_v2mkq4wg1j","62dfdd3c61b792d28de9d0e3","freq","img/orange_2bandit_a2.png","70","70","test","1","147","147","7","",""
"null","490610","pSARL_v2","pSARL_v2mkq4wg1j","62dfdd3c61b792d28de9d0e3","freq_resp","img/orange_2bandit_a.png","70","70","test","","","","7","",""
"null","490773","pSARL_v2","pSARL_v2mkq4wg1j","62dfdd3c61b792d28de9d0e3","fixation","img/fixation.png","null","","test","","","","","",""
"257.9999999999418","491037","pSARL_v2","pSARL_v2mkq4wg1j","62dfdd3c61b792d28de9d0e3","freq","img/orange_2bandit_a2.png","70","70","test","1","148","148","7","",""
"null","491592","pSARL_v2","pSARL_v2mkq4wg1j","62dfdd3c61b792d28de9d0e3","freq_resp","img/orange_2bandit_a.png","70","70","test","","","","7","",""
"null","491746","pSARL_v2","pSARL_v2mkq4wg1j","62dfdd3c61b792d28de9d0e3","fixation","img/fixation.png","null","","test","","","","","",""
"217","491969","pSARL_v2","pSARL_v2mkq4wg1j","62dfdd3c61b792d28de9d0e3","infreq","img/green_2bandit_a2.png","70","68","test","0","149","149","7","",""
"null","492564","pSARL_v2","pSARL_v2mkq4wg1j","62dfdd3c61b792d28de9d0e3","infreq_resp","img/green_2bandit_a.png","70","68","test","","","","7","",""
"null","492726","pSARL_v2","pSARL_v2mkq4wg1j","62dfdd3c61b792d28de9d0e3","fixation","img/fixation.png","null","","test","","","","","",""
"524","493256","pSARL_v2","pSARL_v2mkq4wg1j","62dfdd3c61b792d28de9d0e3","infreq","img/green_2bandit_a2.png","68","68","test","1","150","150","7","",""
"null","493541","pSARL_v2","pSARL_v2mkq4wg1j","62dfdd3c61b792d28de9d0e3","infreq_resp","img/green_2bandit_a.png","68","68","test","","","","7","",""
"null","493697","pSARL_v2","pSARL_v2mkq4wg1j","62dfdd3c61b792d28de9d0e3","fixation","img/fixation.png","null","","test","","","","","",""
"382","494086","pSARL_v2","pSARL_v2mkq4wg1j","62dfdd3c61b792d28de9d0e3","freq","img/orange_2bandit_a2.png","70","70","test","1","151","151","7","",""
"null","494514","pSARL_v2","pSARL_v2mkq4wg1j","62dfdd3c61b792d28de9d0e3","freq_resp","img/orange_2bandit_a.png","70","70","test","","","","7","",""
"null","494677","pSARL_v2","pSARL_v2mkq4wg1j","62dfdd3c61b792d28de9d0e3","fixation","img/fixation.png","null","","test","","","","","",""
"261","494946","pSARL_v2","pSARL_v2mkq4wg1j","62dfdd3c61b792d28de9d0e3","freq","img/orange_2bandit_a2.png","70","70","test","1","152","152","7","",""
"null","495496","pSARL_v2","pSARL_v2mkq4wg1j","62dfdd3c61b792d28de9d0e3","freq_resp","img/orange_2bandit_a.png","70","70","test","","","","7","",""
"null","495657","pSARL_v2","pSARL_v2mkq4wg1j","62dfdd3c61b792d28de9d0e3","fixation","img/fixation.png","null","","test","","","","","",""
"237","495901","pSARL_v2","pSARL_v2mkq4wg1j","62dfdd3c61b792d28de9d0e3","freq","img/orange_2bandit_a2.png","70","70","test","1","153","153","7","",""
"null","496473","pSARL_v2","pSARL_v2mkq4wg1j","62dfdd3c61b792d28de9d0e3","freq_resp","img/orange_2bandit_a.png","70","70","test","","","","7","",""
"null","496637","pSARL_v2","pSARL_v2mkq4wg1j","62dfdd3c61b792d28de9d0e3","fixation","img/fixation.png","null","","test","","","","","",""
"271","496914","pSARL_v2","pSARL_v2mkq4wg1j","62dfdd3c61b792d28de9d0e3","freq","img/orange_2bandit_a2.png","70","70","test","1","154","154","7","",""
"null","497455","pSARL_v2","pSARL_v2mkq4wg1j","62dfdd3c61b792d28de9d0e3","freq_resp","img/orange_2bandit_a.png","70","70","test","","","","7","",""
"null","497619","pSARL_v2","pSARL_v2mkq4wg1j","62dfdd3c61b792d28de9d0e3","fixation","img/fixation.png","null","","test","","","","","",""
"301.9999999999418","497929","pSARL_v2","pSARL_v2mkq4wg1j","62dfdd3c61b792d28de9d0e3","freq","img/orange_2bandit_a2.png","70","70","test","1","155","155","7","",""
"null","498436","pSARL_v2","pSARL_v2mkq4wg1j","62dfdd3c61b792d28de9d0e3","freq_resp","img/orange_2bandit_a.png","70","70","test","","","","7","",""
"null","498600","pSARL_v2","pSARL_v2mkq4wg1j","62dfdd3c61b792d28de9d0e3","fixation","img/fixation.png","null","","test","","","","","",""
"296","498901","pSARL_v2","pSARL_v2mkq4wg1j","62dfdd3c61b792d28de9d0e3","freq","img/orange_2bandit_a2.png","70","70","test","1","156","156","7","",""
"null","499419","pSARL_v2","pSARL_v2mkq4wg1j","62dfdd3c61b792d28de9d0e3","freq_resp","img/orange_2bandit_a.png","70","70","test","","","","7","",""
"null","499577","pSARL_v2","pSARL_v2mkq4wg1j","62dfdd3c61b792d28de9d0e3","fixation","img/fixation.png","null","","test","","","","","",""
"281","499864","pSARL_v2","pSARL_v2mkq4wg1j","62dfdd3c61b792d28de9d0e3","freq","img/orange_2bandit_a2.png","70","70","test","1","157","157","7","",""
"null","500396","pSARL_v2","pSARL_v2mkq4wg1j","62dfdd3c61b792d28de9d0e3","freq_resp","img/orange_2bandit_a.png","70","70","test","","","","7","",""
"null","500560","pSARL_v2","pSARL_v2mkq4wg1j","62dfdd3c61b792d28de9d0e3","fixation","img/fixation.png","null","","test","","","","","",""
"483","501049","pSARL_v2","pSARL_v2mkq4wg1j","62dfdd3c61b792d28de9d0e3","reward","img/slot.png","74","","test","","","","","",""
"null","501812","pSARL_v2","pSARL_v2mkq4wg1j","62dfdd3c61b792d28de9d0e3","points","<div class=""verylowPoints""> -6 </div>","null","na","test","","","","7","-6","6"
"396.0000000000582","502214","pSARL_v2","pSARL_v2mkq4wg1j","62dfdd3c61b792d28de9d0e3","freq","img/orange_2bandit_a2.png","70","70","test","1","158","158","8","",""
"null","502635","pSARL_v2","pSARL_v2mkq4wg1j","62dfdd3c61b792d28de9d0e3","freq_resp","img/orange_2bandit_a.png","70","70","test","","","","8","",""
"null","502796","pSARL_v2","pSARL_v2mkq4wg1j","62dfdd3c61b792d28de9d0e3","fixation","img/fixation.png","null","","test","","","","","",""
"259","503061","pSARL_v2","pSARL_v2mkq4wg1j","62dfdd3c61b792d28de9d0e3","freq","img/orange_2bandit_a2.png","70","70","test","1","159","159","8","",""
"null","503613","pSARL_v2","pSARL_v2mkq4wg1j","62dfdd3c61b792d28de9d0e3","freq_resp","img/orange_2bandit_a.png","70","70","test","","","","8","",""
"null","503774","pSARL_v2","pSARL_v2mkq4wg1j","62dfdd3c61b792d28de9d0e3","fixation","img/fixation.png","null","","test","","","","","",""
"230.9999999999418","504010","pSARL_v2","pSARL_v2mkq4wg1j","62dfdd3c61b792d28de9d0e3","freq","img/orange_2bandit_a2.png","70","70","test","1","160","160","8","",""
"null","504591","pSARL_v2","pSARL_v2mkq4wg1j","62dfdd3c61b792d28de9d0e3","freq_resp","img/orange_2bandit_a.png","70","70","test","","","","8","",""
"null","504750","pSARL_v2","pSARL_v2mkq4wg1j","62dfdd3c61b792d28de9d0e3","fixation","img/fixation.png","null","","test","","","","","",""
"198","504955","pSARL_v2","pSARL_v2mkq4wg1j","62dfdd3c61b792d28de9d0e3","freq","img/orange_2bandit_a2.png","70","70","test","1","161","161","8","",""
"null","505566","pSARL_v2","pSARL_v2mkq4wg1j","62dfdd3c61b792d28de9d0e3","freq_resp","img/orange_2bandit_a.png","70","70","test","","","","8","",""
"null","505725","pSARL_v2","pSARL_v2mkq4wg1j","62dfdd3c61b792d28de9d0e3","fixation","img/fixation.png","null","","test","","","","","",""
"206","505936","pSARL_v2","pSARL_v2mkq4wg1j","62dfdd3c61b792d28de9d0e3","infreq","img/green_2bandit_a2.png","70","68","test","0","162","162","8","",""
"null","506544","pSARL_v2","pSARL_v2mkq4wg1j","62dfdd3c61b792d28de9d0e3","infreq_resp","img/green_2bandit_a.png","70","68","test","","","","8","",""
"null","506703","pSARL_v2","pSARL_v2mkq4wg1j","62dfdd3c61b792d28de9d0e3","fixation","img/fixation.png","null","","test","","","","","",""
"200.9999999999418","506916","pSARL_v2","pSARL_v2mkq4wg1j","62dfdd3c61b792d28de9d0e3","freq","img/orange_2bandit_a2.png","70","70","test","1","163","163","8","",""
"null","507522","pSARL_v2","pSARL_v2mkq4wg1j","62dfdd3c61b792d28de9d0e3","freq_resp","img/orange_2bandit_a.png","70","70","test","","","","8","",""
"null","507682","pSARL_v2","pSARL_v2mkq4wg1j","62dfdd3c61b792d28de9d0e3","fixation","img/fixation.png","null","","test","","","","","",""
"225","507914","pSARL_v2","pSARL_v2mkq4wg1j","62dfdd3c61b792d28de9d0e3","freq","img/orange_2bandit_a2.png","70","70","test","1","164","164","8","",""
"null","508497","pSARL_v2","pSARL_v2mkq4wg1j","62dfdd3c61b792d28de9d0e3","freq_resp","img/orange_2bandit_a.png","70","70","test","","","","8","",""
"null","508656","pSARL_v2","pSARL_v2mkq4wg1j","62dfdd3c61b792d28de9d0e3","fixation","img/fixation.png","null","","test","","","","","",""
"220.0000000000582","508887","pSARL_v2","pSARL_v2mkq4wg1j","62dfdd3c61b792d28de9d0e3","freq","img/orange_2bandit_a2.png","70","70","test","1","165","165","8","",""
"null","509477","pSARL_v2","pSARL_v2mkq4wg1j","62dfdd3c61b792d28de9d0e3","freq_resp","img/orange_2bandit_a.png","70","70","test","","","","8","",""
"null","509635","pSARL_v2","pSARL_v2mkq4wg1j","62dfdd3c61b792d28de9d0e3","fixation","img/fixation.png","null","","test","","","","","",""
"256","509897","pSARL_v2","pSARL_v2mkq4wg1j","62dfdd3c61b792d28de9d0e3","freq","img/orange_2bandit_a2.png","70","70","test","1","166","166","8","",""
"null","510451","pSARL_v2","pSARL_v2mkq4wg1j","62dfdd3c61b792d28de9d0e3","freq_resp","img/orange_2bandit_a.png","70","70","test","","","","8","",""
"null","510610","pSARL_v2","pSARL_v2mkq4wg1j","62dfdd3c61b792d28de9d0e3","fixation","img/fixation.png","null","","test","","","","","",""
"186","510802","pSARL_v2","pSARL_v2mkq4wg1j","62dfdd3c61b792d28de9d0e3","freq","img/orange_2bandit_a2.png","70","70","test","1","167","167","8","",""
"null","511426","pSARL_v2","pSARL_v2mkq4wg1j","62dfdd3c61b792d28de9d0e3","freq_resp","img/orange_2bandit_a.png","70","70","test","","","","8","",""
"null","511586","pSARL_v2","pSARL_v2mkq4wg1j","62dfdd3c61b792d28de9d0e3","fixation","img/fixation.png","null","","test","","","","","",""
"135.00000000011642","511727","pSARL_v2","pSARL_v2mkq4wg1j","62dfdd3c61b792d28de9d0e3","freq","img/orange_2bandit_a2.png","70","70","test","1","168","168","8","",""
"null","512400","pSARL_v2","pSARL_v2mkq4wg1j","62dfdd3c61b792d28de9d0e3","freq_resp","img/orange_2bandit_a.png","70","70","test","","","","8","",""
"null","512559","pSARL_v2","pSARL_v2mkq4wg1j","62dfdd3c61b792d28de9d0e3","fixation","img/fixation.png","null","","test","","","","","",""
"77.99999999994179","512642","pSARL_v2","pSARL_v2mkq4wg1j","62dfdd3c61b792d28de9d0e3","freq","img/orange_2bandit_a2.png","70","70","test","1","169","169","8","",""
"null","513372","pSARL_v2","pSARL_v2mkq4wg1j","62dfdd3c61b792d28de9d0e3","freq_resp","img/orange_2bandit_a.png","70","70","test","","","","8","",""
"null","513533","pSARL_v2","pSARL_v2mkq4wg1j","62dfdd3c61b792d28de9d0e3","fixation","img/fixation.png","null","","test","","","","","",""
"173.9999999999418","513713","pSARL_v2","pSARL_v2mkq4wg1j","62dfdd3c61b792d28de9d0e3","freq","img/orange_2bandit_a2.png","70","70","test","1","170","170","8","",""
"null","514348","pSARL_v2","pSARL_v2mkq4wg1j","62dfdd3c61b792d28de9d0e3","freq_resp","img/orange_2bandit_a.png","70","70","test","","","","8","",""
"null","514504","pSARL_v2","pSARL_v2mkq4wg1j","62dfdd3c61b792d28de9d0e3","fixation","img/fixation.png","null","","test","","","","","",""
"137.0000000000582","514646","pSARL_v2","pSARL_v2mkq4wg1j","62dfdd3c61b792d28de9d0e3","infreq","img/green_2bandit_a2.png","70","68","test","0","171","171","8","",""
"null","515320","pSARL_v2","pSARL_v2mkq4wg1j","62dfdd3c61b792d28de9d0e3","infreq_resp","img/green_2bandit_a.png","70","68","test","","","","8","",""
"null","515484","pSARL_v2","pSARL_v2mkq4wg1j","62dfdd3c61b792d28de9d0e3","fixation","img/fixation.png","null","","test","","","","","",""
"277","515768","pSARL_v2","pSARL_v2mkq4wg1j","62dfdd3c61b792d28de9d0e3","freq","img/orange_2bandit_a2.png","70","70","test","1","172","172","8","",""
"null","516300","pSARL_v2","pSARL_v2mkq4wg1j","62dfdd3c61b792d28de9d0e3","freq_resp","img/orange_2bandit_a.png","70","70","test","","","","8","",""
"null","516460","pSARL_v2","pSARL_v2mkq4wg1j","62dfdd3c61b792d28de9d0e3","fixation","img/fixation.png","null","","test","","","","","",""
"332","516797","pSARL_v2","pSARL_v2mkq4wg1j","62dfdd3c61b792d28de9d0e3","freq","img/orange_2bandit_a2.png","70","70","test","1","173","173","8","",""
"null","517276","pSARL_v2","pSARL_v2mkq4wg1j","62dfdd3c61b792d28de9d0e3","freq_resp","img/orange_2bandit_a.png","70","70","test","","","","8","",""
"null","517437","pSARL_v2","pSARL_v2mkq4wg1j","62dfdd3c61b792d28de9d0e3","fixation","img/fixation.png","null","","test","","","","","",""
"271.0000000001164","517714","pSARL_v2","pSARL_v2mkq4wg1j","62dfdd3c61b792d28de9d0e3","freq","img/orange_2bandit_a2.png","70","70","test","1","174","174","8","",""
"null","518255","pSARL_v2","pSARL_v2mkq4wg1j","62dfdd3c61b792d28de9d0e3","freq_resp","img/orange_2bandit_a.png","70","70","test","","","","8","",""
"null","518414","pSARL_v2","pSARL_v2mkq4wg1j","62dfdd3c61b792d28de9d0e3","fixation","img/fixation.png","null","","test","","","","","",""
"299.9999999999418","518719","pSARL_v2","pSARL_v2mkq4wg1j","62dfdd3c61b792d28de9d0e3","freq","img/orange_2bandit_a2.png","70","70","test","1","175","175","8","",""
"null","519232","pSARL_v2","pSARL_v2mkq4wg1j","62dfdd3c61b792d28de9d0e3","freq_resp","img/orange_2bandit_a.png","70","70","test","","","","8","",""
"null","519392","pSARL_v2","pSARL_v2mkq4wg1j","62dfdd3c61b792d28de9d0e3","fixation","img/fixation.png","null","","test","","","","","",""
"302","519700","pSARL_v2","pSARL_v2mkq4wg1j","62dfdd3c61b792d28de9d0e3","freq","img/orange_2bandit_a2.png","70","70","test","1","176","176","8","",""
"null","520211","pSARL_v2","pSARL_v2mkq4wg1j","62dfdd3c61b792d28de9d0e3","freq_resp","img/orange_2bandit_a.png","70","70","test","","","","8","",""
"null","520374","pSARL_v2","pSARL_v2mkq4wg1j","62dfdd3c61b792d28de9d0e3","fixation","img/fixation.png","null","","test","","","","","",""
"405.0000000000582","520786","pSARL_v2","pSARL_v2mkq4wg1j","62dfdd3c61b792d28de9d0e3","freq","img/orange_2bandit_a2.png","70","70","test","1","177","177","8","",""
"null","521193","pSARL_v2","pSARL_v2mkq4wg1j","62dfdd3c61b792d28de9d0e3","freq_resp","img/orange_2bandit_a.png","70","70","test","","","","8","",""
"null","521359","pSARL_v2","pSARL_v2mkq4wg1j","62dfdd3c61b792d28de9d0e3","fixation","img/fixation.png","null","","test","","","","","",""
"306.0000000000582","521672","pSARL_v2","pSARL_v2mkq4wg1j","62dfdd3c61b792d28de9d0e3","freq","img/orange_2bandit_a2.png","70","70","test","1","178","178","8","",""
"null","522180","pSARL_v2","pSARL_v2mkq4wg1j","62dfdd3c61b792d28de9d0e3","freq_resp","img/orange_2bandit_a.png","70","70","test","","","","8","",""
"null","522339","pSARL_v2","pSARL_v2mkq4wg1j","62dfdd3c61b792d28de9d0e3","fixation","img/fixation.png","null","","test","","","","","",""
"325.0000000000582","522668","pSARL_v2","pSARL_v2mkq4wg1j","62dfdd3c61b792d28de9d0e3","freq","img/orange_2bandit_a2.png","70","70","test","1","179","179","8","",""
"null","523156","pSARL_v2","pSARL_v2mkq4wg1j","62dfdd3c61b792d28de9d0e3","freq_resp","img/orange_2bandit_a.png","70","70","test","","","","8","",""
"null","523312","pSARL_v2","pSARL_v2mkq4wg1j","62dfdd3c61b792d28de9d0e3","fixation","img/fixation.png","null","","test","","","","","",""
"274.9999999999418","523593","pSARL_v2","pSARL_v2mkq4wg1j","62dfdd3c61b792d28de9d0e3","freq","img/orange_2bandit_a2.png","70","70","test","1","180","180","8","",""
"null","524131","pSARL_v2","pSARL_v2mkq4wg1j","62dfdd3c61b792d28de9d0e3","freq_resp","img/orange_2bandit_a.png","70","70","test","","","","8","",""
"null","524286","pSARL_v2","pSARL_v2mkq4wg1j","62dfdd3c61b792d28de9d0e3","fixation","img/fixation.png","null","","test","","","","","",""
"273","524565","pSARL_v2","pSARL_v2mkq4wg1j","62dfdd3c61b792d28de9d0e3","freq","img/orange_2bandit_a2.png","70","70","test","1","181","181","8","",""
"null","525103","pSARL_v2","pSARL_v2mkq4wg1j","62dfdd3c61b792d28de9d0e3","freq_resp","img/orange_2bandit_a.png","70","70","test","","","","8","",""
"null","525262","pSARL_v2","pSARL_v2mkq4wg1j","62dfdd3c61b792d28de9d0e3","fixation","img/fixation.png","null","","test","","","","","",""
"318","525586","pSARL_v2","pSARL_v2mkq4wg1j","62dfdd3c61b792d28de9d0e3","freq","img/orange_2bandit_a2.png","70","70","test","1","182","182","8","",""
"null","526078","pSARL_v2","pSARL_v2mkq4wg1j","62dfdd3c61b792d28de9d0e3","freq_resp","img/orange_2bandit_a.png","70","70","test","","","","8","",""
"null","526238","pSARL_v2","pSARL_v2mkq4wg1j","62dfdd3c61b792d28de9d0e3","fixation","img/fixation.png","null","","test","","","","","",""
"358","526603","pSARL_v2","pSARL_v2mkq4wg1j","62dfdd3c61b792d28de9d0e3","freq","img/orange_2bandit_a2.png","70","70","test","1","183","183","8","",""
"null","527052","pSARL_v2","pSARL_v2mkq4wg1j","62dfdd3c61b792d28de9d0e3","freq_resp","img/orange_2bandit_a.png","70","70","test","","","","8","",""
"null","527217","pSARL_v2","pSARL_v2mkq4wg1j","62dfdd3c61b792d28de9d0e3","fixation","img/fixation.png","null","","test","","","","","",""
"396","527619","pSARL_v2","pSARL_v2mkq4wg1j","62dfdd3c61b792d28de9d0e3","reward","img/slot.png","74","","test","","","","","",""
"null","528381","pSARL_v2","pSARL_v2mkq4wg1j","62dfdd3c61b792d28de9d0e3","points","<div class=""verylowPoints""> -4 </div>","null","na","test","","","","8","-4","7"
"335","528726","pSARL_v2","pSARL_v2mkq4wg1j","62dfdd3c61b792d28de9d0e3","freq","img/orange_2bandit_a2.png","70","70","test","1","184","184","9","",""
"null","529204","pSARL_v2","pSARL_v2mkq4wg1j","62dfdd3c61b792d28de9d0e3","freq_resp","img/orange_2bandit_a.png","70","70","test","","","","9","",""
"null","529360","pSARL_v2","pSARL_v2mkq4wg1j","62dfdd3c61b792d28de9d0e3","fixation","img/fixation.png","null","","test","","","","","",""
"257","529626","pSARL_v2","pSARL_v2mkq4wg1j","62dfdd3c61b792d28de9d0e3","freq","img/orange_2bandit_a2.png","70","70","test","1","185","185","9","",""
"null","530178","pSARL_v2","pSARL_v2mkq4wg1j","62dfdd3c61b792d28de9d0e3","freq_resp","img/orange_2bandit_a.png","70","70","test","","","","9","",""
"null","530337","pSARL_v2","pSARL_v2mkq4wg1j","62dfdd3c61b792d28de9d0e3","fixation","img/fixation.png","null","","test","","","","","",""
"248","530590","pSARL_v2","pSARL_v2mkq4wg1j","62dfdd3c61b792d28de9d0e3","freq","img/orange_2bandit_a2.png","70","70","test","1","186","186","9","",""
"null","531148","pSARL_v2","pSARL_v2mkq4wg1j","62dfdd3c61b792d28de9d0e3","freq_resp","img/orange_2bandit_a.png","70","70","test","","","","9","",""
"null","531309","pSARL_v2","pSARL_v2mkq4wg1j","62dfdd3c61b792d28de9d0e3","fixation","img/fixation.png","null","","test","","","","","",""
"280","531595","pSARL_v2","pSARL_v2mkq4wg1j","62dfdd3c61b792d28de9d0e3","freq","img/orange_2bandit_a2.png","70","70","test","1","187","187","9","",""
"null","532131","pSARL_v2","pSARL_v2mkq4wg1j","62dfdd3c61b792d28de9d0e3","freq_resp","img/orange_2bandit_a.png","70","70","test","","","","9","",""
"null","532289","pSARL_v2","pSARL_v2mkq4wg1j","62dfdd3c61b792d28de9d0e3","fixation","img/fixation.png","null","","test","","","","","",""
"326","532621","pSARL_v2","pSARL_v2mkq4wg1j","62dfdd3c61b792d28de9d0e3","infreq","img/green_2bandit_a2.png","68","68","test","1","188","188","9","",""
"null","533105","pSARL_v2","pSARL_v2mkq4wg1j","62dfdd3c61b792d28de9d0e3","infreq_resp","img/green_2bandit_a.png","68","68","test","","","","9","",""
"null","533264","pSARL_v2","pSARL_v2mkq4wg1j","62dfdd3c61b792d28de9d0e3","fixation","img/fixation.png","null","","test","","","","","",""
"327","533599","pSARL_v2","pSARL_v2mkq4wg1j","62dfdd3c61b792d28de9d0e3","freq","img/orange_2bandit_a2.png","70","70","test","1","189","189","9","",""
"null","534083","pSARL_v2","pSARL_v2mkq4wg1j","62dfdd3c61b792d28de9d0e3","freq_resp","img/orange_2bandit_a.png","70","70","test","","","","9","",""
"null","534243","pSARL_v2","pSARL_v2mkq4wg1j","62dfdd3c61b792d28de9d0e3","fixation","img/fixation.png","null","","test","","","","","",""
"209","534457","pSARL_v2","pSARL_v2mkq4wg1j","62dfdd3c61b792d28de9d0e3","infreq","img/green_2bandit_a2.png","70","68","test","0","190","190","9","",""
"null","535059","pSARL_v2","pSARL_v2mkq4wg1j","62dfdd3c61b792d28de9d0e3","infreq_resp","img/green_2bandit_a.png","70","68","test","","","","9","",""
"null","535217","pSARL_v2","pSARL_v2mkq4wg1j","62dfdd3c61b792d28de9d0e3","fixation","img/fixation.png","null","","test","","","","","",""
"98","535321","pSARL_v2","pSARL_v2mkq4wg1j","62dfdd3c61b792d28de9d0e3","freq","img/orange_2bandit_a2.png","70","70","test","1","191","191","9","",""
"null","536034","pSARL_v2","pSARL_v2mkq4wg1j","62dfdd3c61b792d28de9d0e3","freq_resp","img/orange_2bandit_a.png","70","70","test","","","","9","",""
"null","536192","pSARL_v2","pSARL_v2mkq4wg1j","62dfdd3c61b792d28de9d0e3","fixation","img/fixation.png","null","","test","","","","","",""
"236.00000000011642","536434","pSARL_v2","pSARL_v2mkq4wg1j","62dfdd3c61b792d28de9d0e3","freq","img/orange_2bandit_a2.png","70","70","test","1","192","192","9","",""
"null","537006","pSARL_v2","pSARL_v2mkq4wg1j","62dfdd3c61b792d28de9d0e3","freq_resp","img/orange_2bandit_a.png","70","70","test","","","","9","",""
"null","537167","pSARL_v2","pSARL_v2mkq4wg1j","62dfdd3c61b792d28de9d0e3","fixation","img/fixation.png","null","","test","","","","","",""
"213","537387","pSARL_v2","pSARL_v2mkq4wg1j","62dfdd3c61b792d28de9d0e3","freq","img/orange_2bandit_a2.png","70","70","test","1","193","193","9","",""
"null","537985","pSARL_v2","pSARL_v2mkq4wg1j","62dfdd3c61b792d28de9d0e3","freq_resp","img/orange_2bandit_a.png","70","70","test","","","","9","",""
"null","538145","pSARL_v2","pSARL_v2mkq4wg1j","62dfdd3c61b792d28de9d0e3","fixation","img/fixation.png","null","","test","","","","","",""
"241","538390","pSARL_v2","pSARL_v2mkq4wg1j","62dfdd3c61b792d28de9d0e3","freq","img/orange_2bandit_a2.png","70","70","test","1","194","194","9","",""
"null","538959","pSARL_v2","pSARL_v2mkq4wg1j","62dfdd3c61b792d28de9d0e3","freq_resp","img/orange_2bandit_a.png","70","70","test","","","","9","",""
"null","539123","pSARL_v2","pSARL_v2mkq4wg1j","62dfdd3c61b792d28de9d0e3","fixation","img/fixation.png","null","","test","","","","","",""
"264","539392","pSARL_v2","pSARL_v2mkq4wg1j","62dfdd3c61b792d28de9d0e3","freq","img/orange_2bandit_a2.png","70","70","test","1","195","195","9","",""
"null","539942","pSARL_v2","pSARL_v2mkq4wg1j","62dfdd3c61b792d28de9d0e3","freq_resp","img/orange_2bandit_a.png","70","70","test","","","","9","",""
"null","540104","pSARL_v2","pSARL_v2mkq4wg1j","62dfdd3c61b792d28de9d0e3","fixation","img/fixation.png","null","","test","","","","","",""
"180","540290","pSARL_v2","pSARL_v2mkq4wg1j","62dfdd3c61b792d28de9d0e3","freq","img/orange_2bandit_a2.png","70","70","test","1","196","196","9","",""
"null","540920","pSARL_v2","pSARL_v2mkq4wg1j","62dfdd3c61b792d28de9d0e3","freq_resp","img/orange_2bandit_a.png","70","70","test","","","","9","",""
"null","541083","pSARL_v2","pSARL_v2mkq4wg1j","62dfdd3c61b792d28de9d0e3","fixation","img/fixation.png","null","","test","","","","","",""
"86","541178","pSARL_v2","pSARL_v2mkq4wg1j","62dfdd3c61b792d28de9d0e3","freq","img/orange_2bandit_a2.png","70","70","test","1","197","197","9","",""
"null","541905","pSARL_v2","pSARL_v2mkq4wg1j","62dfdd3c61b792d28de9d0e3","freq_resp","img/orange_2bandit_a.png","70","70","test","","","","9","",""
"null","542060","pSARL_v2","pSARL_v2mkq4wg1j","62dfdd3c61b792d28de9d0e3","fixation","img/fixation.png","null","","test","","","","","",""
"87","542154","pSARL_v2","pSARL_v2mkq4wg1j","62dfdd3c61b792d28de9d0e3","freq","img/orange_2bandit_a2.png","70","70","test","1","198","198","9","",""
"null","542880","pSARL_v2","pSARL_v2mkq4wg1j","62dfdd3c61b792d28de9d0e3","freq_resp","img/orange_2bandit_a.png","70","70","test","","","","9","",""
"null","543037","pSARL_v2","pSARL_v2mkq4wg1j","62dfdd3c61b792d28de9d0e3","fixation","img/fixation.png","null","","test","","","","","",""
"206","543254","pSARL_v2","pSARL_v2mkq4wg1j","62dfdd3c61b792d28de9d0e3","freq","img/orange_2bandit_a2.png","70","70","test","1","199","199","9","",""
"null","543857","pSARL_v2","pSARL_v2mkq4wg1j","62dfdd3c61b792d28de9d0e3","freq_resp","img/orange_2bandit_a.png","70","70","test","","","","9","",""
"null","544021","pSARL_v2","pSARL_v2mkq4wg1j","62dfdd3c61b792d28de9d0e3","fixation","img/fixation.png","null","","test","","","","","",""
"181.00000000011642","544209","pSARL_v2","pSARL_v2mkq4wg1j","62dfdd3c61b792d28de9d0e3","freq","img/orange_2bandit_a2.png","70","70","test","1","200","200","9","",""
"null","544837","pSARL_v2","pSARL_v2mkq4wg1j","62dfdd3c61b792d28de9d0e3","freq_resp","img/orange_2bandit_a.png","70","70","test","","","","9","",""
"null","545000","pSARL_v2","pSARL_v2mkq4wg1j","62dfdd3c61b792d28de9d0e3","fixation","img/fixation.png","null","","test","","","","","",""
"241.99999999988358","545248","pSARL_v2","pSARL_v2mkq4wg1j","62dfdd3c61b792d28de9d0e3","freq","img/orange_2bandit_a2.png","70","70","test","1","201","201","9","",""
"null","545820","pSARL_v2","pSARL_v2mkq4wg1j","62dfdd3c61b792d28de9d0e3","freq_resp","img/orange_2bandit_a.png","70","70","test","","","","9","",""
"null","545980","pSARL_v2","pSARL_v2mkq4wg1j","62dfdd3c61b792d28de9d0e3","fixation","img/fixation.png","null","","test","","","","","",""
"197","546188","pSARL_v2","pSARL_v2mkq4wg1j","62dfdd3c61b792d28de9d0e3","freq","img/orange_2bandit_a2.png","70","70","test","1","202","202","9","",""
"null","546805","pSARL_v2","pSARL_v2mkq4wg1j","62dfdd3c61b792d28de9d0e3","freq_resp","img/orange_2bandit_a.png","70","70","test","","","","9","",""
"null","546960","pSARL_v2","pSARL_v2mkq4wg1j","62dfdd3c61b792d28de9d0e3","fixation","img/fixation.png","null","","test","","","","","",""
"292","547258","pSARL_v2","pSARL_v2mkq4wg1j","62dfdd3c61b792d28de9d0e3","freq","img/orange_2bandit_a2.png","70","70","test","1","203","203","9","",""
"null","547774","pSARL_v2","pSARL_v2mkq4wg1j","62dfdd3c61b792d28de9d0e3","freq_resp","img/orange_2bandit_a.png","70","70","test","","","","9","",""
"null","547930","pSARL_v2","pSARL_v2mkq4wg1j","62dfdd3c61b792d28de9d0e3","fixation","img/fixation.png","null","","test","","","","","",""
"214","548149","pSARL_v2","pSARL_v2mkq4wg1j","62dfdd3c61b792d28de9d0e3","infreq","img/green_2bandit_a2.png","70","68","test","0","204","204","9","",""
"null","548748","pSARL_v2","pSARL_v2mkq4wg1j","62dfdd3c61b792d28de9d0e3","infreq_resp","img/green_2bandit_a.png","70","68","test","","","","9","",""
"null","548909","pSARL_v2","pSARL_v2mkq4wg1j","62dfdd3c61b792d28de9d0e3","fixation","img/fixation.png","null","","test","","","","","",""
"222","549138","pSARL_v2","pSARL_v2mkq4wg1j","62dfdd3c61b792d28de9d0e3","freq","img/orange_2bandit_a2.png","70","70","test","1","205","205","9","",""
"null","549730","pSARL_v2","pSARL_v2mkq4wg1j","62dfdd3c61b792d28de9d0e3","freq_resp","img/orange_2bandit_a.png","70","70","test","","","","9","",""
"null","549889","pSARL_v2","pSARL_v2mkq4wg1j","62dfdd3c61b792d28de9d0e3","fixation","img/fixation.png","null","","test","","","","","",""
"224","550120","pSARL_v2","pSARL_v2mkq4wg1j","62dfdd3c61b792d28de9d0e3","freq","img/orange_2bandit_a2.png","70","70","test","1","206","206","9","",""
"null","550709","pSARL_v2","pSARL_v2mkq4wg1j","62dfdd3c61b792d28de9d0e3","freq_resp","img/orange_2bandit_a.png","70","70","test","","","","9","",""
"null","550869","pSARL_v2","pSARL_v2mkq4wg1j","62dfdd3c61b792d28de9d0e3","fixation","img/fixation.png","null","","test","","","","","",""
"463","551338","pSARL_v2","pSARL_v2mkq4wg1j","62dfdd3c61b792d28de9d0e3","reward","img/slot.png","74","","test","","","","","",""
"null","552094","pSARL_v2","pSARL_v2mkq4wg1j","62dfdd3c61b792d28de9d0e3","points","<div class=""verylowPoints""> -3 </div>","null","na","test","","","","9","-3","8"
"293","552393","pSARL_v2","pSARL_v2mkq4wg1j","62dfdd3c61b792d28de9d0e3","freq","img/orange_2bandit_a2.png","70","70","test","1","207","207","10","",""
"null","552908","pSARL_v2","pSARL_v2mkq4wg1j","62dfdd3c61b792d28de9d0e3","freq_resp","img/orange_2bandit_a.png","70","70","test","","","","10","",""
"null","553066","pSARL_v2","pSARL_v2mkq4wg1j","62dfdd3c61b792d28de9d0e3","fixation","img/fixation.png","null","","test","","","","","",""
"233","553305","pSARL_v2","pSARL_v2mkq4wg1j","62dfdd3c61b792d28de9d0e3","freq","img/orange_2bandit_a2.png","70","70","test","1","208","208","10","",""
"null","553881","pSARL_v2","pSARL_v2mkq4wg1j","62dfdd3c61b792d28de9d0e3","freq_resp","img/orange_2bandit_a.png","70","70","test","","","","10","",""
"null","554039","pSARL_v2","pSARL_v2mkq4wg1j","62dfdd3c61b792d28de9d0e3","fixation","img/fixation.png","null","","test","","","","","",""
"96","554141","pSARL_v2","pSARL_v2mkq4wg1j","62dfdd3c61b792d28de9d0e3","freq","img/orange_2bandit_a2.png","70","70","test","1","209","209","10","",""
"null","554854","pSARL_v2","pSARL_v2mkq4wg1j","62dfdd3c61b792d28de9d0e3","freq_resp","img/orange_2bandit_a.png","70","70","test","","","","10","",""
"null","555017","pSARL_v2","pSARL_v2mkq4wg1j","62dfdd3c61b792d28de9d0e3","fixation","img/fixation.png","null","","test","","","","","",""
