"rt","time_elapsed","expId","subject","prolificID","trialType","stimulus","key_press","corrresp","phase","corr","trialNum","attentionRunNum","blockNum","points","rlNum"
"3225.899999999907","3290","pSARL_v2","pSARL_v2x24mpxjn","60fcc085e84772374cdbb26d","","","","","","","","","","",""
"","12227","pSARL_v2","pSARL_v2x24mpxjn","60fcc085e84772374cdbb26d","fullscreen","","","","","","","","","",""
"39330.40000000037","51588","pSARL_v2","pSARL_v2x24mpxjn","60fcc085e84772374cdbb26d","","","","","","","","","","",""
"null","52419","pSARL_v2","pSARL_v2x24mpxjn","60fcc085e84772374cdbb26d","freqPrac","img/green_2bandit_b2.png","null","70","prac","0","","","","",""
"null","53442","pSARL_v2","pSARL_v2x24mpxjn","60fcc085e84772374cdbb26d","feedback","img/tooSlow.png","null","na","prac","","","","","",""
"null","53612","pSARL_v2","pSARL_v2x24mpxjn","60fcc085e84772374cdbb26d","fixation","img/fixation.png","null","","prac","","","","","",""
"null","54435","pSARL_v2","pSARL_v2x24mpxjn","60fcc085e84772374cdbb26d","infreqPrac","img/orange_2bandit_b2.png","null","68","prac","0","","","","",""
"null","55460","pSARL_v2","pSARL_v2x24mpxjn","60fcc085e84772374cdbb26d","feedback","img/tooSlow.png","null","na","prac","","","","","",""
"null","55630","pSARL_v2","pSARL_v2x24mpxjn","60fcc085e84772374cdbb26d","fixation","img/fixation.png","null","","prac","","","","","",""
"381.79999999981374","56035","pSARL_v2","pSARL_v2x24mpxjn","60fcc085e84772374cdbb26d","freqPrac","img/green_2bandit_b2.png","70","70","prac","1","","","","",""
"381.79999999981374","56477","pSARL_v2","pSARL_v2x24mpxjn","60fcc085e84772374cdbb26d","freqPrac_resp","img/green_2bandit_b.png","70","70","prac","","","","","",""
"null","56650","pSARL_v2","pSARL_v2x24mpxjn","60fcc085e84772374cdbb26d","fixation","img/fixation.png","null","","prac","","","","","",""
"435.5","57109","pSARL_v2","pSARL_v2x24mpxjn","60fcc085e84772374cdbb26d","infreqPrac","img/orange_2bandit_b2.png","68","68","prac","1","","","","",""
"435.5","57499","pSARL_v2","pSARL_v2x24mpxjn","60fcc085e84772374cdbb26d","infreqPrac_resp","img/orange_2bandit_b.png","68","68","prac","","","","","",""
"null","57675","pSARL_v2","pSARL_v2x24mpxjn","60fcc085e84772374cdbb26d","fixation","img/fixation.png","null","","prac","","","","","",""
"17","57713","pSARL_v2","pSARL_v2x24mpxjn","60fcc085e84772374cdbb26d","infreqPrac","img/orange_2bandit_b2.png","68","68","prac","1","","","","",""
"17","58520","pSARL_v2","pSARL_v2x24mpxjn","60fcc085e84772374cdbb26d","infreqPrac_resp","img/orange_2bandit_b.png","68","68","prac","","","","","",""
"null","58690","pSARL_v2","pSARL_v2x24mpxjn","60fcc085e84772374cdbb26d","fixation","img/fixation.png","null","","prac","","","","","",""
"252.60000000009313","58965","pSARL_v2","pSARL_v2x24mpxjn","60fcc085e84772374cdbb26d","infreqPrac","img/orange_2bandit_b2.png","68","68","prac","1","","","","",""
"252.60000000009313","59537","pSARL_v2","pSARL_v2x24mpxjn","60fcc085e84772374cdbb26d","infreqPrac_resp","img/orange_2bandit_b.png","68","68","prac","","","","","",""
"null","59706","pSARL_v2","pSARL_v2x24mpxjn","60fcc085e84772374cdbb26d","fixation","img/fixation.png","null","","prac","","","","","",""
"417.60000000009313","60147","pSARL_v2","pSARL_v2x24mpxjn","60fcc085e84772374cdbb26d","freqPrac","img/green_2bandit_b2.png","70","70","prac","1","","","","",""
"417.60000000009313","60553","pSARL_v2","pSARL_v2x24mpxjn","60fcc085e84772374cdbb26d","freqPrac_resp","img/green_2bandit_b.png","70","70","prac","","","","","",""
"null","60727","pSARL_v2","pSARL_v2x24mpxjn","60fcc085e84772374cdbb26d","fixation","img/fixation.png","null","","prac","","","","","",""
"401.3000000002794","61152","pSARL_v2","pSARL_v2x24mpxjn","60fcc085e84772374cdbb26d","infreqPrac","img/orange_2bandit_b2.png","68","68","prac","1","","","","",""
"401.3000000002794","61575","pSARL_v2","pSARL_v2x24mpxjn","60fcc085e84772374cdbb26d","infreqPrac_resp","img/orange_2bandit_b.png","68","68","prac","","","","","",""
"null","61749","pSARL_v2","pSARL_v2x24mpxjn","60fcc085e84772374cdbb26d","fixation","img/fixation.png","null","","prac","","","","","",""
"379.39999999990687","62153","pSARL_v2","pSARL_v2x24mpxjn","60fcc085e84772374cdbb26d","freqPrac","img/green_2bandit_b2.png","68","70","prac","0","","","","",""
"379.39999999990687","62624","pSARL_v2","pSARL_v2x24mpxjn","60fcc085e84772374cdbb26d","freqPrac_resp","img/green_2bandit_b.png","68","70","prac","","","","","",""
"null","63651","pSARL_v2","pSARL_v2x24mpxjn","60fcc085e84772374cdbb26d","feedback","img/wrongKey.png","null","na","prac","","","","","",""
"null","63822","pSARL_v2","pSARL_v2x24mpxjn","60fcc085e84772374cdbb26d","fixation","img/fixation.png","null","","prac","","","","","",""
"582","64424","pSARL_v2","pSARL_v2x24mpxjn","60fcc085e84772374cdbb26d","freqPrac","img/green_2bandit_b2.png","70","70","prac","1","","","","",""
"582","64662","pSARL_v2","pSARL_v2x24mpxjn","60fcc085e84772374cdbb26d","freqPrac_resp","img/green_2bandit_b.png","70","70","prac","","","","","",""
"null","64841","pSARL_v2","pSARL_v2x24mpxjn","60fcc085e84772374cdbb26d","fixation","img/fixation.png","null","","prac","","","","","",""
"14504.799999999814","79363","pSARL_v2","pSARL_v2x24mpxjn","60fcc085e84772374cdbb26d","","","","","prac","","","","","",""
"545","79930","pSARL_v2","pSARL_v2x24mpxjn","60fcc085e84772374cdbb26d","rewardPractice","img/slot.png","74","","prac","","","","","",""
"null","80704","pSARL_v2","pSARL_v2x24mpxjn","60fcc085e84772374cdbb26d","feedback","<div class=""veryhighPoints""> +15 </div>","null","na","prac","","","","","",""
"null","80875","pSARL_v2","pSARL_v2x24mpxjn","60fcc085e84772374cdbb26d","fixation","img/fixation.png","null","","prac","","","","","",""
"10622.299999999814","91519","pSARL_v2","pSARL_v2x24mpxjn","60fcc085e84772374cdbb26d","","","","","prac","","","","","",""
"418.8000000002794","91962","pSARL_v2","pSARL_v2x24mpxjn","60fcc085e84772374cdbb26d","freq","img/green_2bandit_b2.png","70","70","test","1","1","1","1","",""
"null","92366","pSARL_v2","pSARL_v2x24mpxjn","60fcc085e84772374cdbb26d","freq_resp","img/green_2bandit_b.png","70","70","test","","","","1","",""
"null","92539","pSARL_v2","pSARL_v2x24mpxjn","60fcc085e84772374cdbb26d","fixation","img/fixation.png","null","","test","","","","","",""
"320.40000000037253","92881","pSARL_v2","pSARL_v2x24mpxjn","60fcc085e84772374cdbb26d","freq","img/green_2bandit_b2.png","70","70","test","1","2","2","1","",""
"null","93384","pSARL_v2","pSARL_v2x24mpxjn","60fcc085e84772374cdbb26d","freq_resp","img/green_2bandit_b.png","70","70","test","","","","1","",""
"null","93559","pSARL_v2","pSARL_v2x24mpxjn","60fcc085e84772374cdbb26d","fixation","img/fixation.png","null","","test","","","","","",""
"296.20000000018626","93877","pSARL_v2","pSARL_v2x24mpxjn","60fcc085e84772374cdbb26d","freq","img/green_2bandit_b2.png","70","70","test","1","3","3","1","",""
"null","94401","pSARL_v2","pSARL_v2x24mpxjn","60fcc085e84772374cdbb26d","freq_resp","img/green_2bandit_b.png","70","70","test","","","","1","",""
"null","94575","pSARL_v2","pSARL_v2x24mpxjn","60fcc085e84772374cdbb26d","fixation","img/fixation.png","null","","test","","","","","",""
"352","94951","pSARL_v2","pSARL_v2x24mpxjn","60fcc085e84772374cdbb26d","freq","img/green_2bandit_b2.png","70","70","test","1","4","4","1","",""
"null","95421","pSARL_v2","pSARL_v2x24mpxjn","60fcc085e84772374cdbb26d","freq_resp","img/green_2bandit_b.png","70","70","test","","","","1","",""
"null","95591","pSARL_v2","pSARL_v2x24mpxjn","60fcc085e84772374cdbb26d","fixation","img/fixation.png","null","","test","","","","","",""
"279.20000000018626","95894","pSARL_v2","pSARL_v2x24mpxjn","60fcc085e84772374cdbb26d","freq","img/green_2bandit_b2.png","70","70","test","1","5","5","1","",""
"null","96435","pSARL_v2","pSARL_v2x24mpxjn","60fcc085e84772374cdbb26d","freq_resp","img/green_2bandit_b.png","70","70","test","","","","1","",""
"null","96609","pSARL_v2","pSARL_v2x24mpxjn","60fcc085e84772374cdbb26d","fixation","img/fixation.png","null","","test","","","","","",""
"265.89999999990687","96896","pSARL_v2","pSARL_v2x24mpxjn","60fcc085e84772374cdbb26d","freq","img/green_2bandit_b2.png","70","70","test","1","6","6","1","",""
"null","97456","pSARL_v2","pSARL_v2x24mpxjn","60fcc085e84772374cdbb26d","freq_resp","img/green_2bandit_b.png","70","70","test","","","","1","",""
"null","97628","pSARL_v2","pSARL_v2x24mpxjn","60fcc085e84772374cdbb26d","fixation","img/fixation.png","null","","test","","","","","",""
"320","97971","pSARL_v2","pSARL_v2x24mpxjn","60fcc085e84772374cdbb26d","freq","img/green_2bandit_b2.png","70","70","test","1","7","7","1","",""
"null","98472","pSARL_v2","pSARL_v2x24mpxjn","60fcc085e84772374cdbb26d","freq_resp","img/green_2bandit_b.png","70","70","test","","","","1","",""
"null","98644","pSARL_v2","pSARL_v2x24mpxjn","60fcc085e84772374cdbb26d","fixation","img/fixation.png","null","","test","","","","","",""
"270.29999999981374","98938","pSARL_v2","pSARL_v2x24mpxjn","60fcc085e84772374cdbb26d","freq","img/green_2bandit_b2.png","70","70","test","1","8","8","1","",""
"null","99489","pSARL_v2","pSARL_v2x24mpxjn","60fcc085e84772374cdbb26d","freq_resp","img/green_2bandit_b.png","70","70","test","","","","1","",""
"null","99662","pSARL_v2","pSARL_v2x24mpxjn","60fcc085e84772374cdbb26d","fixation","img/fixation.png","null","","test","","","","","",""
"267.70000000018626","99954","pSARL_v2","pSARL_v2x24mpxjn","60fcc085e84772374cdbb26d","freq","img/green_2bandit_b2.png","70","70","test","1","9","9","1","",""
"null","100509","pSARL_v2","pSARL_v2x24mpxjn","60fcc085e84772374cdbb26d","freq_resp","img/green_2bandit_b.png","70","70","test","","","","1","",""
"null","100682","pSARL_v2","pSARL_v2x24mpxjn","60fcc085e84772374cdbb26d","fixation","img/fixation.png","null","","test","","","","","",""
"263.10000000009313","100969","pSARL_v2","pSARL_v2x24mpxjn","60fcc085e84772374cdbb26d","freq","img/green_2bandit_b2.png","70","70","test","1","10","10","1","",""
"null","101530","pSARL_v2","pSARL_v2x24mpxjn","60fcc085e84772374cdbb26d","freq_resp","img/green_2bandit_b.png","70","70","test","","","","1","",""
"null","101705","pSARL_v2","pSARL_v2x24mpxjn","60fcc085e84772374cdbb26d","fixation","img/fixation.png","null","","test","","","","","",""
"246.90000000037253","101976","pSARL_v2","pSARL_v2x24mpxjn","60fcc085e84772374cdbb26d","freq","img/green_2bandit_b2.png","70","70","test","1","11","11","1","",""
"null","102554","pSARL_v2","pSARL_v2x24mpxjn","60fcc085e84772374cdbb26d","freq_resp","img/green_2bandit_b.png","70","70","test","","","","1","",""
"null","102725","pSARL_v2","pSARL_v2x24mpxjn","60fcc085e84772374cdbb26d","fixation","img/fixation.png","null","","test","","","","","",""
"273","103019","pSARL_v2","pSARL_v2x24mpxjn","60fcc085e84772374cdbb26d","freq","img/green_2bandit_b2.png","70","70","test","1","12","12","1","",""
"null","103570","pSARL_v2","pSARL_v2x24mpxjn","60fcc085e84772374cdbb26d","freq_resp","img/green_2bandit_b.png","70","70","test","","","","1","",""
"null","103743","pSARL_v2","pSARL_v2x24mpxjn","60fcc085e84772374cdbb26d","fixation","img/fixation.png","null","","test","","","","","",""
"261.10000000009313","104026","pSARL_v2","pSARL_v2x24mpxjn","60fcc085e84772374cdbb26d","freq","img/green_2bandit_b2.png","70","70","test","1","13","13","1","",""
"null","104589","pSARL_v2","pSARL_v2x24mpxjn","60fcc085e84772374cdbb26d","freq_resp","img/green_2bandit_b.png","70","70","test","","","","1","",""
"null","104762","pSARL_v2","pSARL_v2x24mpxjn","60fcc085e84772374cdbb26d","fixation","img/fixation.png","null","","test","","","","","",""
"272.3000000002794","105056","pSARL_v2","pSARL_v2x24mpxjn","60fcc085e84772374cdbb26d","freq","img/green_2bandit_b2.png","70","70","test","1","14","14","1","",""
"null","105607","pSARL_v2","pSARL_v2x24mpxjn","60fcc085e84772374cdbb26d","freq_resp","img/green_2bandit_b.png","70","70","test","","","","1","",""
"null","105781","pSARL_v2","pSARL_v2x24mpxjn","60fcc085e84772374cdbb26d","fixation","img/fixation.png","null","","test","","","","","",""
"245.8000000002794","106048","pSARL_v2","pSARL_v2x24mpxjn","60fcc085e84772374cdbb26d","freq","img/green_2bandit_b2.png","70","70","test","1","15","15","1","",""
"null","106627","pSARL_v2","pSARL_v2x24mpxjn","60fcc085e84772374cdbb26d","freq_resp","img/green_2bandit_b.png","70","70","test","","","","1","",""
"null","106801","pSARL_v2","pSARL_v2x24mpxjn","60fcc085e84772374cdbb26d","fixation","img/fixation.png","null","","test","","","","","",""
"279.3000000002794","107100","pSARL_v2","pSARL_v2x24mpxjn","60fcc085e84772374cdbb26d","freq","img/green_2bandit_b2.png","70","70","test","1","16","16","1","",""
"null","107646","pSARL_v2","pSARL_v2x24mpxjn","60fcc085e84772374cdbb26d","freq_resp","img/green_2bandit_b.png","70","70","test","","","","1","",""
"null","107817","pSARL_v2","pSARL_v2x24mpxjn","60fcc085e84772374cdbb26d","fixation","img/fixation.png","null","","test","","","","","",""
"126.29999999981374","107963","pSARL_v2","pSARL_v2x24mpxjn","60fcc085e84772374cdbb26d","infreq","img/orange_2bandit_b2.png","70","68","test","0","17","17","1","",""
"null","108666","pSARL_v2","pSARL_v2x24mpxjn","60fcc085e84772374cdbb26d","infreq_resp","img/orange_2bandit_b.png","70","68","test","","","","1","",""
"null","108849","pSARL_v2","pSARL_v2x24mpxjn","60fcc085e84772374cdbb26d","fixation","img/fixation.png","null","","test","","","","","",""
"428.5","109300","pSARL_v2","pSARL_v2x24mpxjn","60fcc085e84772374cdbb26d","infreq","img/orange_2bandit_b2.png","68","68","test","1","18","18","1","",""
"null","109696","pSARL_v2","pSARL_v2x24mpxjn","60fcc085e84772374cdbb26d","infreq_resp","img/orange_2bandit_b.png","68","68","test","","","","1","",""
"null","109865","pSARL_v2","pSARL_v2x24mpxjn","60fcc085e84772374cdbb26d","fixation","img/fixation.png","null","","test","","","","","",""
"457.60000000009313","110344","pSARL_v2","pSARL_v2x24mpxjn","60fcc085e84772374cdbb26d","freq","img/green_2bandit_b2.png","70","70","test","1","19","19","1","",""
"null","110711","pSARL_v2","pSARL_v2x24mpxjn","60fcc085e84772374cdbb26d","freq_resp","img/green_2bandit_b.png","70","70","test","","","","1","",""
"null","110883","pSARL_v2","pSARL_v2x24mpxjn","60fcc085e84772374cdbb26d","fixation","img/fixation.png","null","","test","","","","","",""
"524.1000000000931","111426","pSARL_v2","pSARL_v2x24mpxjn","60fcc085e84772374cdbb26d","reward","img/slot.png","74","","test","","","","","",""
"null","112205","pSARL_v2","pSARL_v2x24mpxjn","60fcc085e84772374cdbb26d","points","<div class=""verylowPoints""> -6 </div>","null","na","test","","","","1","-6","0"
"null","113034","pSARL_v2","pSARL_v2x24mpxjn","60fcc085e84772374cdbb26d","freq","img/green_2bandit_b2.png","null","70","test","0","20","20","2","",""
"null","113208","pSARL_v2","pSARL_v2x24mpxjn","60fcc085e84772374cdbb26d","fixation","img/fixation.png","null","","test","","","","","",""
"0.3000000002793968","113228","pSARL_v2","pSARL_v2x24mpxjn","60fcc085e84772374cdbb26d","freq","img/green_2bandit_b2.png","68","70","test","0","21","21","2","",""
"null","114048","pSARL_v2","pSARL_v2x24mpxjn","60fcc085e84772374cdbb26d","freq_resp","img/green_2bandit_b.png","68","70","test","","","","2","",""
"null","114220","pSARL_v2","pSARL_v2x24mpxjn","60fcc085e84772374cdbb26d","fixation","img/fixation.png","null","","test","","","","","",""
"241.89999999990687","114486","pSARL_v2","pSARL_v2x24mpxjn","60fcc085e84772374cdbb26d","freq","img/green_2bandit_b2.png","70","70","test","1","22","22","2","",""
"null","115069","pSARL_v2","pSARL_v2x24mpxjn","60fcc085e84772374cdbb26d","freq_resp","img/green_2bandit_b.png","70","70","test","","","","2","",""
"null","115243","pSARL_v2","pSARL_v2x24mpxjn","60fcc085e84772374cdbb26d","fixation","img/fixation.png","null","","test","","","","","",""
"54","115319","pSARL_v2","pSARL_v2x24mpxjn","60fcc085e84772374cdbb26d","freq","img/green_2bandit_b2.png","70","70","test","1","23","23","2","",""
"null","116093","pSARL_v2","pSARL_v2x24mpxjn","60fcc085e84772374cdbb26d","freq_resp","img/green_2bandit_b.png","70","70","test","","","","2","",""
"null","116267","pSARL_v2","pSARL_v2x24mpxjn","60fcc085e84772374cdbb26d","fixation","img/fixation.png","null","","test","","","","","",""
"77.39999999990687","116368","pSARL_v2","pSARL_v2x24mpxjn","60fcc085e84772374cdbb26d","freq","img/green_2bandit_b2.png","70","70","test","1","24","24","2","",""
"null","117111","pSARL_v2","pSARL_v2x24mpxjn","60fcc085e84772374cdbb26d","freq_resp","img/green_2bandit_b.png","70","70","test","","","","2","",""
"null","117286","pSARL_v2","pSARL_v2x24mpxjn","60fcc085e84772374cdbb26d","fixation","img/fixation.png","null","","test","","","","","",""
"280","117589","pSARL_v2","pSARL_v2x24mpxjn","60fcc085e84772374cdbb26d","freq","img/green_2bandit_b2.png","70","70","test","1","25","25","2","",""
"null","118131","pSARL_v2","pSARL_v2x24mpxjn","60fcc085e84772374cdbb26d","freq_resp","img/green_2bandit_b.png","70","70","test","","","","2","",""
"null","118302","pSARL_v2","pSARL_v2x24mpxjn","60fcc085e84772374cdbb26d","fixation","img/fixation.png","null","","test","","","","","",""
"239.89999999990687","118564","pSARL_v2","pSARL_v2x24mpxjn","60fcc085e84772374cdbb26d","freq","img/green_2bandit_b2.png","70","70","test","1","26","26","2","",""
"null","119148","pSARL_v2","pSARL_v2x24mpxjn","60fcc085e84772374cdbb26d","freq_resp","img/green_2bandit_b.png","70","70","test","","","","2","",""
"null","119322","pSARL_v2","pSARL_v2x24mpxjn","60fcc085e84772374cdbb26d","fixation","img/fixation.png","null","","test","","","","","",""
"291","119632","pSARL_v2","pSARL_v2x24mpxjn","60fcc085e84772374cdbb26d","freq","img/green_2bandit_b2.png","70","70","test","1","27","27","2","",""
"null","120166","pSARL_v2","pSARL_v2x24mpxjn","60fcc085e84772374cdbb26d","freq_resp","img/green_2bandit_b.png","70","70","test","","","","2","",""
"null","120340","pSARL_v2","pSARL_v2x24mpxjn","60fcc085e84772374cdbb26d","fixation","img/fixation.png","null","","test","","","","","",""
"268.5","120632","pSARL_v2","pSARL_v2x24mpxjn","60fcc085e84772374cdbb26d","freq","img/green_2bandit_b2.png","70","70","test","1","28","28","2","",""
"null","121188","pSARL_v2","pSARL_v2x24mpxjn","60fcc085e84772374cdbb26d","freq_resp","img/green_2bandit_b.png","70","70","test","","","","2","",""
"null","121361","pSARL_v2","pSARL_v2x24mpxjn","60fcc085e84772374cdbb26d","fixation","img/fixation.png","null","","test","","","","","",""
"441.89999999990687","121825","pSARL_v2","pSARL_v2x24mpxjn","60fcc085e84772374cdbb26d","infreq","img/orange_2bandit_b2.png","68","68","test","1","29","29","2","",""
"null","122207","pSARL_v2","pSARL_v2x24mpxjn","60fcc085e84772374cdbb26d","infreq_resp","img/orange_2bandit_b.png","68","68","test","","","","2","",""
"null","122381","pSARL_v2","pSARL_v2x24mpxjn","60fcc085e84772374cdbb26d","fixation","img/fixation.png","null","","test","","","","","",""
"336.8000000002794","122740","pSARL_v2","pSARL_v2x24mpxjn","60fcc085e84772374cdbb26d","infreq","img/orange_2bandit_b2.png","68","68","test","1","30","30","2","",""
"null","123227","pSARL_v2","pSARL_v2x24mpxjn","60fcc085e84772374cdbb26d","infreq_resp","img/orange_2bandit_b.png","68","68","test","","","","2","",""
"null","123400","pSARL_v2","pSARL_v2x24mpxjn","60fcc085e84772374cdbb26d","fixation","img/fixation.png","null","","test","","","","","",""
"463.5","123884","pSARL_v2","pSARL_v2x24mpxjn","60fcc085e84772374cdbb26d","freq","img/green_2bandit_b2.png","70","70","test","1","31","31","2","",""
"null","124243","pSARL_v2","pSARL_v2x24mpxjn","60fcc085e84772374cdbb26d","freq_resp","img/green_2bandit_b.png","70","70","test","","","","2","",""
"null","124416","pSARL_v2","pSARL_v2x24mpxjn","60fcc085e84772374cdbb26d","fixation","img/fixation.png","null","","test","","","","","",""
"749.3000000002794","125186","pSARL_v2","pSARL_v2x24mpxjn","60fcc085e84772374cdbb26d","freq","img/green_2bandit_b2.png","70","70","test","1","32","32","2","",""
"null","125260","pSARL_v2","pSARL_v2x24mpxjn","60fcc085e84772374cdbb26d","freq_resp","img/green_2bandit_b.png","70","70","test","","","","2","",""
"null","125430","pSARL_v2","pSARL_v2x24mpxjn","60fcc085e84772374cdbb26d","fixation","img/fixation.png","null","","test","","","","","",""
"673.4000000003725","126125","pSARL_v2","pSARL_v2x24mpxjn","60fcc085e84772374cdbb26d","freq","img/green_2bandit_b2.png","70","70","test","1","33","33","2","",""
"null","126283","pSARL_v2","pSARL_v2x24mpxjn","60fcc085e84772374cdbb26d","freq_resp","img/green_2bandit_b.png","70","70","test","","","","2","",""
"null","126455","pSARL_v2","pSARL_v2x24mpxjn","60fcc085e84772374cdbb26d","fixation","img/fixation.png","null","","test","","","","","",""
"789.4000000003725","127268","pSARL_v2","pSARL_v2x24mpxjn","60fcc085e84772374cdbb26d","infreq","img/orange_2bandit_b2.png","68","68","test","1","34","34","2","",""
"null","127298","pSARL_v2","pSARL_v2x24mpxjn","60fcc085e84772374cdbb26d","infreq_resp","img/orange_2bandit_b.png","68","68","test","","","","2","",""
"null","127469","pSARL_v2","pSARL_v2x24mpxjn","60fcc085e84772374cdbb26d","fixation","img/fixation.png","null","","test","","","","","",""
"null","128292","pSARL_v2","pSARL_v2x24mpxjn","60fcc085e84772374cdbb26d","freq","img/green_2bandit_b2.png","null","70","test","0","35","35","2","",""
"null","128464","pSARL_v2","pSARL_v2x24mpxjn","60fcc085e84772374cdbb26d","fixation","img/fixation.png","null","","test","","","","","",""
"316.79999999981374","128802","pSARL_v2","pSARL_v2x24mpxjn","60fcc085e84772374cdbb26d","freq","img/green_2bandit_b2.png","70","70","test","1","36","36","2","",""
"null","129308","pSARL_v2","pSARL_v2x24mpxjn","60fcc085e84772374cdbb26d","freq_resp","img/green_2bandit_b.png","70","70","test","","","","2","",""
"null","129481","pSARL_v2","pSARL_v2x24mpxjn","60fcc085e84772374cdbb26d","fixation","img/fixation.png","null","","test","","","","","",""
"222.8000000002794","129727","pSARL_v2","pSARL_v2x24mpxjn","60fcc085e84772374cdbb26d","freq","img/green_2bandit_b2.png","70","70","test","1","37","37","2","",""
"null","130327","pSARL_v2","pSARL_v2x24mpxjn","60fcc085e84772374cdbb26d","freq_resp","img/green_2bandit_b.png","70","70","test","","","","2","",""
"null","130502","pSARL_v2","pSARL_v2x24mpxjn","60fcc085e84772374cdbb26d","fixation","img/fixation.png","null","","test","","","","","",""
"279.6999999997206","130802","pSARL_v2","pSARL_v2x24mpxjn","60fcc085e84772374cdbb26d","freq","img/green_2bandit_b2.png","70","70","test","1","38","38","2","",""
"null","131345","pSARL_v2","pSARL_v2x24mpxjn","60fcc085e84772374cdbb26d","freq_resp","img/green_2bandit_b.png","70","70","test","","","","2","",""
"null","131518","pSARL_v2","pSARL_v2x24mpxjn","60fcc085e84772374cdbb26d","fixation","img/fixation.png","null","","test","","","","","",""
"662.9000000003725","132204","pSARL_v2","pSARL_v2x24mpxjn","60fcc085e84772374cdbb26d","freq","img/green_2bandit_b2.png","70","70","test","1","39","39","2","",""
"null","132366","pSARL_v2","pSARL_v2x24mpxjn","60fcc085e84772374cdbb26d","freq_resp","img/green_2bandit_b.png","70","70","test","","","","2","",""
"null","132540","pSARL_v2","pSARL_v2x24mpxjn","60fcc085e84772374cdbb26d","fixation","img/fixation.png","null","","test","","","","","",""
"466.5","133030","pSARL_v2","pSARL_v2x24mpxjn","60fcc085e84772374cdbb26d","freq","img/green_2bandit_b2.png","70","70","test","1","40","40","2","",""
"null","133388","pSARL_v2","pSARL_v2x24mpxjn","60fcc085e84772374cdbb26d","freq_resp","img/green_2bandit_b.png","70","70","test","","","","2","",""
"null","133559","pSARL_v2","pSARL_v2x24mpxjn","60fcc085e84772374cdbb26d","fixation","img/fixation.png","null","","test","","","","","",""
"null","134385","pSARL_v2","pSARL_v2x24mpxjn","60fcc085e84772374cdbb26d","freq","img/green_2bandit_b2.png","null","70","test","0","41","41","2","",""
"null","134554","pSARL_v2","pSARL_v2x24mpxjn","60fcc085e84772374cdbb26d","fixation","img/fixation.png","null","","test","","","","","",""
"862.1000000000931","135436","pSARL_v2","pSARL_v2x24mpxjn","60fcc085e84772374cdbb26d","reward","img/slot.png","74","","test","","","","","",""
"null","136212","pSARL_v2","pSARL_v2x24mpxjn","60fcc085e84772374cdbb26d","points","<div class=""verylowPoints""> -11 </div>","null","na","test","","","","2","-11","1"
"null","137038","pSARL_v2","pSARL_v2x24mpxjn","60fcc085e84772374cdbb26d","freq","img/green_2bandit_b2.png","null","70","test","0","42","42","3","",""
"null","137213","pSARL_v2","pSARL_v2x24mpxjn","60fcc085e84772374cdbb26d","fixation","img/fixation.png","null","","test","","","","","",""
"649","137883","pSARL_v2","pSARL_v2x24mpxjn","60fcc085e84772374cdbb26d","freq","img/green_2bandit_b2.png","70","70","test","1","43","43","3","",""
"null","138059","pSARL_v2","pSARL_v2x24mpxjn","60fcc085e84772374cdbb26d","freq_resp","img/green_2bandit_b.png","70","70","test","","","","3","",""
"null","138233","pSARL_v2","pSARL_v2x24mpxjn","60fcc085e84772374cdbb26d","fixation","img/fixation.png","null","","test","","","","","",""
"331.89999999990687","138588","pSARL_v2","pSARL_v2x24mpxjn","60fcc085e84772374cdbb26d","freq","img/green_2bandit_b2.png","70","70","test","1","44","44","3","",""
"null","139082","pSARL_v2","pSARL_v2x24mpxjn","60fcc085e84772374cdbb26d","freq_resp","img/green_2bandit_b.png","70","70","test","","","","3","",""
"null","139256","pSARL_v2","pSARL_v2x24mpxjn","60fcc085e84772374cdbb26d","fixation","img/fixation.png","null","","test","","","","","",""
"146.79999999981374","139425","pSARL_v2","pSARL_v2x24mpxjn","60fcc085e84772374cdbb26d","freq","img/green_2bandit_b2.png","70","70","test","1","45","45","3","",""
"null","140102","pSARL_v2","pSARL_v2x24mpxjn","60fcc085e84772374cdbb26d","freq_resp","img/green_2bandit_b.png","70","70","test","","","","3","",""
"null","140282","pSARL_v2","pSARL_v2x24mpxjn","60fcc085e84772374cdbb26d","fixation","img/fixation.png","null","","test","","","","","",""
"42.10000000009313","140345","pSARL_v2","pSARL_v2x24mpxjn","60fcc085e84772374cdbb26d","freq","img/green_2bandit_b2.png","70","70","test","1","46","46","3","",""
"null","141127","pSARL_v2","pSARL_v2x24mpxjn","60fcc085e84772374cdbb26d","freq_resp","img/green_2bandit_b.png","70","70","test","","","","3","",""
"null","141302","pSARL_v2","pSARL_v2x24mpxjn","60fcc085e84772374cdbb26d","fixation","img/fixation.png","null","","test","","","","","",""
"275.20000000018626","141601","pSARL_v2","pSARL_v2x24mpxjn","60fcc085e84772374cdbb26d","freq","img/green_2bandit_b2.png","70","70","test","1","47","47","3","",""
"null","142150","pSARL_v2","pSARL_v2x24mpxjn","60fcc085e84772374cdbb26d","freq_resp","img/green_2bandit_b.png","70","70","test","","","","3","",""
"null","142323","pSARL_v2","pSARL_v2x24mpxjn","60fcc085e84772374cdbb26d","fixation","img/fixation.png","null","","test","","","","","",""
"268.1999999997206","142615","pSARL_v2","pSARL_v2x24mpxjn","60fcc085e84772374cdbb26d","freq","img/green_2bandit_b2.png","70","70","test","1","48","48","3","",""
"null","143168","pSARL_v2","pSARL_v2x24mpxjn","60fcc085e84772374cdbb26d","freq_resp","img/green_2bandit_b.png","70","70","test","","","","3","",""
"null","143346","pSARL_v2","pSARL_v2x24mpxjn","60fcc085e84772374cdbb26d","fixation","img/fixation.png","null","","test","","","","","",""
"176.10000000009313","143543","pSARL_v2","pSARL_v2x24mpxjn","60fcc085e84772374cdbb26d","freq","img/green_2bandit_b2.png","70","70","test","1","49","49","3","",""
"null","144188","pSARL_v2","pSARL_v2x24mpxjn","60fcc085e84772374cdbb26d","freq_resp","img/green_2bandit_b.png","70","70","test","","","","3","",""
"null","144360","pSARL_v2","pSARL_v2x24mpxjn","60fcc085e84772374cdbb26d","fixation","img/fixation.png","null","","test","","","","","",""
"36.10000000009313","144417","pSARL_v2","pSARL_v2x24mpxjn","60fcc085e84772374cdbb26d","freq","img/green_2bandit_b2.png","70","70","test","1","50","50","3","",""
"null","145203","pSARL_v2","pSARL_v2x24mpxjn","60fcc085e84772374cdbb26d","freq_resp","img/green_2bandit_b.png","70","70","test","","","","3","",""
"null","145377","pSARL_v2","pSARL_v2x24mpxjn","60fcc085e84772374cdbb26d","fixation","img/fixation.png","null","","test","","","","","",""
"null","146202","pSARL_v2","pSARL_v2x24mpxjn","60fcc085e84772374cdbb26d","freq","img/green_2bandit_b2.png","null","70","test","0","51","51","3","",""
"null","146376","pSARL_v2","pSARL_v2x24mpxjn","60fcc085e84772374cdbb26d","fixation","img/fixation.png","null","","test","","","","","",""
"62.8000000002794","146462","pSARL_v2","pSARL_v2x24mpxjn","60fcc085e84772374cdbb26d","freq","img/green_2bandit_b2.png","70","70","test","1","52","52","3","",""
"null","147223","pSARL_v2","pSARL_v2x24mpxjn","60fcc085e84772374cdbb26d","freq_resp","img/green_2bandit_b.png","70","70","test","","","","3","",""
"null","147397","pSARL_v2","pSARL_v2x24mpxjn","60fcc085e84772374cdbb26d","fixation","img/fixation.png","null","","test","","","","","",""
"null","148223","pSARL_v2","pSARL_v2x24mpxjn","60fcc085e84772374cdbb26d","freq","img/green_2bandit_b2.png","null","70","test","0","53","53","3","",""
"null","148396","pSARL_v2","pSARL_v2x24mpxjn","60fcc085e84772374cdbb26d","fixation","img/fixation.png","null","","test","","","","","",""
"585","149003","pSARL_v2","pSARL_v2x24mpxjn","60fcc085e84772374cdbb26d","infreq","img/orange_2bandit_b2.png","68","68","test","1","54","54","3","",""
"null","149244","pSARL_v2","pSARL_v2x24mpxjn","60fcc085e84772374cdbb26d","infreq_resp","img/orange_2bandit_b.png","68","68","test","","","","3","",""
"null","149415","pSARL_v2","pSARL_v2x24mpxjn","60fcc085e84772374cdbb26d","fixation","img/fixation.png","null","","test","","","","","",""
"318.3000000002794","149756","pSARL_v2","pSARL_v2x24mpxjn","60fcc085e84772374cdbb26d","infreq","img/orange_2bandit_b2.png","68","68","test","1","55","55","3","",""
"null","150263","pSARL_v2","pSARL_v2x24mpxjn","60fcc085e84772374cdbb26d","infreq_resp","img/orange_2bandit_b.png","68","68","test","","","","3","",""
"null","150432","pSARL_v2","pSARL_v2x24mpxjn","60fcc085e84772374cdbb26d","fixation","img/fixation.png","null","","test","","","","","",""
"null","151258","pSARL_v2","pSARL_v2x24mpxjn","60fcc085e84772374cdbb26d","freq","img/green_2bandit_b2.png","null","70","test","0","56","56","3","",""
"null","151426","pSARL_v2","pSARL_v2x24mpxjn","60fcc085e84772374cdbb26d","fixation","img/fixation.png","null","","test","","","","","",""
"239.20000000018626","151690","pSARL_v2","pSARL_v2x24mpxjn","60fcc085e84772374cdbb26d","freq","img/green_2bandit_b2.png","68","70","test","0","57","57","3","",""
"null","152279","pSARL_v2","pSARL_v2x24mpxjn","60fcc085e84772374cdbb26d","freq_resp","img/green_2bandit_b.png","68","70","test","","","","3","",""
"null","152450","pSARL_v2","pSARL_v2x24mpxjn","60fcc085e84772374cdbb26d","fixation","img/fixation.png","null","","test","","","","","",""
"427.89999999990687","152902","pSARL_v2","pSARL_v2x24mpxjn","60fcc085e84772374cdbb26d","infreq","img/orange_2bandit_b2.png","68","68","test","1","58","58","3","",""
"null","153300","pSARL_v2","pSARL_v2x24mpxjn","60fcc085e84772374cdbb26d","infreq_resp","img/orange_2bandit_b.png","68","68","test","","","","3","",""
"null","153472","pSARL_v2","pSARL_v2x24mpxjn","60fcc085e84772374cdbb26d","fixation","img/fixation.png","null","","test","","","","","",""
"645.1000000000931","154139","pSARL_v2","pSARL_v2x24mpxjn","60fcc085e84772374cdbb26d","freq","img/green_2bandit_b2.png","70","70","test","1","59","59","3","",""
"null","154315","pSARL_v2","pSARL_v2x24mpxjn","60fcc085e84772374cdbb26d","freq_resp","img/green_2bandit_b.png","70","70","test","","","","3","",""
"null","154487","pSARL_v2","pSARL_v2x24mpxjn","60fcc085e84772374cdbb26d","fixation","img/fixation.png","null","","test","","","","","",""
"305.60000000009313","154815","pSARL_v2","pSARL_v2x24mpxjn","60fcc085e84772374cdbb26d","freq","img/green_2bandit_b2.png","70","70","test","1","60","60","3","",""
"null","155331","pSARL_v2","pSARL_v2x24mpxjn","60fcc085e84772374cdbb26d","freq_resp","img/green_2bandit_b.png","70","70","test","","","","3","",""
"null","155505","pSARL_v2","pSARL_v2x24mpxjn","60fcc085e84772374cdbb26d","fixation","img/fixation.png","null","","test","","","","","",""
"243.70000000018626","155770","pSARL_v2","pSARL_v2x24mpxjn","60fcc085e84772374cdbb26d","freq","img/green_2bandit_b2.png","70","70","test","1","61","61","3","",""
"null","156349","pSARL_v2","pSARL_v2x24mpxjn","60fcc085e84772374cdbb26d","freq_resp","img/green_2bandit_b.png","70","70","test","","","","3","",""
"null","156523","pSARL_v2","pSARL_v2x24mpxjn","60fcc085e84772374cdbb26d","fixation","img/fixation.png","null","","test","","","","","",""
"258.09999999962747","156801","pSARL_v2","pSARL_v2x24mpxjn","60fcc085e84772374cdbb26d","freq","img/green_2bandit_b2.png","70","70","test","1","62","62","3","",""
"null","157367","pSARL_v2","pSARL_v2x24mpxjn","60fcc085e84772374cdbb26d","freq_resp","img/green_2bandit_b.png","70","70","test","","","","3","",""
"null","157539","pSARL_v2","pSARL_v2x24mpxjn","60fcc085e84772374cdbb26d","fixation","img/fixation.png","null","","test","","","","","",""
"643.3999999999069","158204","pSARL_v2","pSARL_v2x24mpxjn","60fcc085e84772374cdbb26d","reward","img/slot.png","74","","test","","","","","",""
"null","158979","pSARL_v2","pSARL_v2x24mpxjn","60fcc085e84772374cdbb26d","points","<div class=""verylowPoints""> -7 </div>","null","na","test","","","","3","-7","2"
"null","159802","pSARL_v2","pSARL_v2x24mpxjn","60fcc085e84772374cdbb26d","freq","img/green_2bandit_b2.png","null","70","test","0","63","63","4","",""
"null","159972","pSARL_v2","pSARL_v2x24mpxjn","60fcc085e84772374cdbb26d","fixation","img/fixation.png","null","","test","","","","","",""
"724.8999999999069","160719","pSARL_v2","pSARL_v2x24mpxjn","60fcc085e84772374cdbb26d","freq","img/green_2bandit_b2.png","70","70","test","1","64","64","4","",""
"null","160818","pSARL_v2","pSARL_v2x24mpxjn","60fcc085e84772374cdbb26d","freq_resp","img/green_2bandit_b.png","70","70","test","","","","4","",""
"null","160994","pSARL_v2","pSARL_v2x24mpxjn","60fcc085e84772374cdbb26d","fixation","img/fixation.png","null","","test","","","","","",""
"311.79999999981374","161328","pSARL_v2","pSARL_v2x24mpxjn","60fcc085e84772374cdbb26d","freq","img/green_2bandit_b2.png","70","70","test","1","65","65","4","",""
"null","161841","pSARL_v2","pSARL_v2x24mpxjn","60fcc085e84772374cdbb26d","freq_resp","img/green_2bandit_b.png","70","70","test","","","","4","",""
"null","162016","pSARL_v2","pSARL_v2x24mpxjn","60fcc085e84772374cdbb26d","fixation","img/fixation.png","null","","test","","","","","",""
"208.10000000009313","162246","pSARL_v2","pSARL_v2x24mpxjn","60fcc085e84772374cdbb26d","freq","img/green_2bandit_b2.png","70","70","test","1","66","66","4","",""
"null","162857","pSARL_v2","pSARL_v2x24mpxjn","60fcc085e84772374cdbb26d","freq_resp","img/green_2bandit_b.png","70","70","test","","","","4","",""
"null","163037","pSARL_v2","pSARL_v2x24mpxjn","60fcc085e84772374cdbb26d","fixation","img/fixation.png","null","","test","","","","","",""
"203.5","163266","pSARL_v2","pSARL_v2x24mpxjn","60fcc085e84772374cdbb26d","freq","img/green_2bandit_b2.png","70","70","test","1","67","67","4","",""
"null","163883","pSARL_v2","pSARL_v2x24mpxjn","60fcc085e84772374cdbb26d","freq_resp","img/green_2bandit_b.png","70","70","test","","","","4","",""
"null","164057","pSARL_v2","pSARL_v2x24mpxjn","60fcc085e84772374cdbb26d","fixation","img/fixation.png","null","","test","","","","","",""
"287.6999999997206","164364","pSARL_v2","pSARL_v2x24mpxjn","60fcc085e84772374cdbb26d","freq","img/green_2bandit_b2.png","70","70","test","1","68","68","4","",""
"null","164900","pSARL_v2","pSARL_v2x24mpxjn","60fcc085e84772374cdbb26d","freq_resp","img/green_2bandit_b.png","70","70","test","","","","4","",""
"null","165072","pSARL_v2","pSARL_v2x24mpxjn","60fcc085e84772374cdbb26d","fixation","img/fixation.png","null","","test","","","","","",""
"91.70000000018626","165189","pSARL_v2","pSARL_v2x24mpxjn","60fcc085e84772374cdbb26d","infreq","img/orange_2bandit_b2.png","70","68","test","0","69","69","4","",""
"null","165923","pSARL_v2","pSARL_v2x24mpxjn","60fcc085e84772374cdbb26d","infreq_resp","img/orange_2bandit_b.png","70","68","test","","","","4","",""
"null","166096","pSARL_v2","pSARL_v2x24mpxjn","60fcc085e84772374cdbb26d","fixation","img/fixation.png","null","","test","","","","","",""
"527.2999999998137","166645","pSARL_v2","pSARL_v2x24mpxjn","60fcc085e84772374cdbb26d","freq","img/green_2bandit_b2.png","70","70","test","1","70","70","4","",""
"null","166941","pSARL_v2","pSARL_v2x24mpxjn","60fcc085e84772374cdbb26d","freq_resp","img/green_2bandit_b.png","70","70","test","","","","4","",""
"null","167114","pSARL_v2","pSARL_v2x24mpxjn","60fcc085e84772374cdbb26d","fixation","img/fixation.png","null","","test","","","","","",""
"317.79999999981374","167453","pSARL_v2","pSARL_v2x24mpxjn","60fcc085e84772374cdbb26d","infreq","img/orange_2bandit_b2.png","68","68","test","1","71","71","4","",""
"null","167958","pSARL_v2","pSARL_v2x24mpxjn","60fcc085e84772374cdbb26d","infreq_resp","img/orange_2bandit_b.png","68","68","test","","","","4","",""
"null","168132","pSARL_v2","pSARL_v2x24mpxjn","60fcc085e84772374cdbb26d","fixation","img/fixation.png","null","","test","","","","","",""
"323.39999999990687","168476","pSARL_v2","pSARL_v2x24mpxjn","60fcc085e84772374cdbb26d","freq","img/green_2bandit_b2.png","68","70","test","0","72","72","4","",""
"null","168974","pSARL_v2","pSARL_v2x24mpxjn","60fcc085e84772374cdbb26d","freq_resp","img/green_2bandit_b.png","68","70","test","","","","4","",""
"null","169149","pSARL_v2","pSARL_v2x24mpxjn","60fcc085e84772374cdbb26d","fixation","img/fixation.png","null","","test","","","","","",""
"626.3999999999069","169796","pSARL_v2","pSARL_v2x24mpxjn","60fcc085e84772374cdbb26d","freq","img/green_2bandit_b2.png","70","70","test","1","73","73","4","",""
"null","169994","pSARL_v2","pSARL_v2x24mpxjn","60fcc085e84772374cdbb26d","freq_resp","img/green_2bandit_b.png","70","70","test","","","","4","",""
"null","170168","pSARL_v2","pSARL_v2x24mpxjn","60fcc085e84772374cdbb26d","fixation","img/fixation.png","null","","test","","","","","",""
"296.89999999990687","170487","pSARL_v2","pSARL_v2x24mpxjn","60fcc085e84772374cdbb26d","freq","img/green_2bandit_b2.png","70","70","test","1","74","74","4","",""
"null","171015","pSARL_v2","pSARL_v2x24mpxjn","60fcc085e84772374cdbb26d","freq_resp","img/green_2bandit_b.png","70","70","test","","","","4","",""
"null","171190","pSARL_v2","pSARL_v2x24mpxjn","60fcc085e84772374cdbb26d","fixation","img/fixation.png","null","","test","","","","","",""
"126","171346","pSARL_v2","pSARL_v2x24mpxjn","60fcc085e84772374cdbb26d","freq","img/green_2bandit_b2.png","70","70","test","1","75","75","4","",""
"null","172040","pSARL_v2","pSARL_v2x24mpxjn","60fcc085e84772374cdbb26d","freq_resp","img/green_2bandit_b.png","70","70","test","","","","4","",""
"null","172208","pSARL_v2","pSARL_v2x24mpxjn","60fcc085e84772374cdbb26d","fixation","img/fixation.png","null","","test","","","","","",""
"253.70000000018626","172485","pSARL_v2","pSARL_v2x24mpxjn","60fcc085e84772374cdbb26d","freq","img/green_2bandit_b2.png","70","70","test","1","76","76","4","",""
"null","173053","pSARL_v2","pSARL_v2x24mpxjn","60fcc085e84772374cdbb26d","freq_resp","img/green_2bandit_b.png","70","70","test","","","","4","",""
"null","173228","pSARL_v2","pSARL_v2x24mpxjn","60fcc085e84772374cdbb26d","fixation","img/fixation.png","null","","test","","","","","",""
"211.39999999990687","173462","pSARL_v2","pSARL_v2x24mpxjn","60fcc085e84772374cdbb26d","freq","img/green_2bandit_b2.png","70","70","test","1","77","77","4","",""
"null","174075","pSARL_v2","pSARL_v2x24mpxjn","60fcc085e84772374cdbb26d","freq_resp","img/green_2bandit_b.png","70","70","test","","","","4","",""
"null","174249","pSARL_v2","pSARL_v2x24mpxjn","60fcc085e84772374cdbb26d","fixation","img/fixation.png","null","","test","","","","","",""
"258.5","174531","pSARL_v2","pSARL_v2x24mpxjn","60fcc085e84772374cdbb26d","freq","img/green_2bandit_b2.png","70","70","test","1","78","78","4","",""
"null","175095","pSARL_v2","pSARL_v2x24mpxjn","60fcc085e84772374cdbb26d","freq_resp","img/green_2bandit_b.png","70","70","test","","","","4","",""
"null","175268","pSARL_v2","pSARL_v2x24mpxjn","60fcc085e84772374cdbb26d","fixation","img/fixation.png","null","","test","","","","","",""
"419.09999999962747","175710","pSARL_v2","pSARL_v2x24mpxjn","60fcc085e84772374cdbb26d","freq","img/green_2bandit_b2.png","70","70","test","1","79","79","4","",""
"null","176116","pSARL_v2","pSARL_v2x24mpxjn","60fcc085e84772374cdbb26d","freq_resp","img/green_2bandit_b.png","70","70","test","","","","4","",""
"null","176286","pSARL_v2","pSARL_v2x24mpxjn","60fcc085e84772374cdbb26d","fixation","img/fixation.png","null","","test","","","","","",""
"294.20000000018626","176602","pSARL_v2","pSARL_v2x24mpxjn","60fcc085e84772374cdbb26d","freq","img/green_2bandit_b2.png","70","70","test","1","80","80","4","",""
"null","177132","pSARL_v2","pSARL_v2x24mpxjn","60fcc085e84772374cdbb26d","freq_resp","img/green_2bandit_b.png","70","70","test","","","","4","",""
"null","177305","pSARL_v2","pSARL_v2x24mpxjn","60fcc085e84772374cdbb26d","fixation","img/fixation.png","null","","test","","","","","",""
"265.89999999990687","177593","pSARL_v2","pSARL_v2x24mpxjn","60fcc085e84772374cdbb26d","freq","img/green_2bandit_b2.png","70","70","test","1","81","81","4","",""
"null","178150","pSARL_v2","pSARL_v2x24mpxjn","60fcc085e84772374cdbb26d","freq_resp","img/green_2bandit_b.png","70","70","test","","","","4","",""
"null","178320","pSARL_v2","pSARL_v2x24mpxjn","60fcc085e84772374cdbb26d","fixation","img/fixation.png","null","","test","","","","","",""
"134.5","178477","pSARL_v2","pSARL_v2x24mpxjn","60fcc085e84772374cdbb26d","freq","img/green_2bandit_b2.png","70","70","test","1","82","82","4","",""
"null","179164","pSARL_v2","pSARL_v2x24mpxjn","60fcc085e84772374cdbb26d","freq_resp","img/green_2bandit_b.png","70","70","test","","","","4","",""
"null","179339","pSARL_v2","pSARL_v2x24mpxjn","60fcc085e84772374cdbb26d","fixation","img/fixation.png","null","","test","","","","","",""
"317.39999999990687","179680","pSARL_v2","pSARL_v2x24mpxjn","60fcc085e84772374cdbb26d","freq","img/green_2bandit_b2.png","70","70","test","1","83","83","4","",""
"null","180184","pSARL_v2","pSARL_v2x24mpxjn","60fcc085e84772374cdbb26d","freq_resp","img/green_2bandit_b.png","70","70","test","","","","4","",""
"null","180357","pSARL_v2","pSARL_v2x24mpxjn","60fcc085e84772374cdbb26d","fixation","img/fixation.png","null","","test","","","","","",""
"437.90000000037253","180819","pSARL_v2","pSARL_v2x24mpxjn","60fcc085e84772374cdbb26d","infreq","img/orange_2bandit_b2.png","68","68","test","1","84","84","4","",""
"null","181208","pSARL_v2","pSARL_v2x24mpxjn","60fcc085e84772374cdbb26d","infreq_resp","img/orange_2bandit_b.png","68","68","test","","","","4","",""
"null","181381","pSARL_v2","pSARL_v2x24mpxjn","60fcc085e84772374cdbb26d","fixation","img/fixation.png","null","","test","","","","","",""
"374.59999999962747","181778","pSARL_v2","pSARL_v2x24mpxjn","60fcc085e84772374cdbb26d","freq","img/green_2bandit_b2.png","70","70","test","1","85","85","4","",""
"null","182222","pSARL_v2","pSARL_v2x24mpxjn","60fcc085e84772374cdbb26d","freq_resp","img/green_2bandit_b.png","70","70","test","","","","4","",""
"null","182395","pSARL_v2","pSARL_v2x24mpxjn","60fcc085e84772374cdbb26d","fixation","img/fixation.png","null","","test","","","","","",""
"346.5","182763","pSARL_v2","pSARL_v2x24mpxjn","60fcc085e84772374cdbb26d","freq","img/green_2bandit_b2.png","70","70","test","1","86","86","4","",""
"null","183241","pSARL_v2","pSARL_v2x24mpxjn","60fcc085e84772374cdbb26d","freq_resp","img/green_2bandit_b.png","70","70","test","","","","4","",""
"null","183411","pSARL_v2","pSARL_v2x24mpxjn","60fcc085e84772374cdbb26d","fixation","img/fixation.png","null","","test","","","","","",""
"88.5","183523","pSARL_v2","pSARL_v2x24mpxjn","60fcc085e84772374cdbb26d","freq","img/green_2bandit_b2.png","70","70","test","1","87","87","4","",""
"null","184258","pSARL_v2","pSARL_v2x24mpxjn","60fcc085e84772374cdbb26d","freq_resp","img/green_2bandit_b.png","70","70","test","","","","4","",""
"null","184427","pSARL_v2","pSARL_v2x24mpxjn","60fcc085e84772374cdbb26d","fixation","img/fixation.png","null","","test","","","","","",""
"null","185251","pSARL_v2","pSARL_v2x24mpxjn","60fcc085e84772374cdbb26d","freq","img/green_2bandit_b2.png","null","70","test","0","88","88","4","",""
"null","185421","pSARL_v2","pSARL_v2x24mpxjn","60fcc085e84772374cdbb26d","fixation","img/fixation.png","null","","test","","","","","",""
"138.5","185581","pSARL_v2","pSARL_v2x24mpxjn","60fcc085e84772374cdbb26d","freq","img/green_2bandit_b2.png","70","70","test","1","89","89","4","",""
"null","186267","pSARL_v2","pSARL_v2x24mpxjn","60fcc085e84772374cdbb26d","freq_resp","img/green_2bandit_b.png","70","70","test","","","","4","",""
"null","186438","pSARL_v2","pSARL_v2x24mpxjn","60fcc085e84772374cdbb26d","fixation","img/fixation.png","null","","test","","","","","",""
"905.2999999998137","187365","pSARL_v2","pSARL_v2x24mpxjn","60fcc085e84772374cdbb26d","reward","img/slot.png","74","","test","","","","","",""
"null","188134","pSARL_v2","pSARL_v2x24mpxjn","60fcc085e84772374cdbb26d","points","<div class=""verylowPoints""> -3 </div>","null","na","test","","","","4","-3","3"
"null","188958","pSARL_v2","pSARL_v2x24mpxjn","60fcc085e84772374cdbb26d","freq","img/green_2bandit_b2.png","null","70","test","0","90","90","5","",""
"null","189131","pSARL_v2","pSARL_v2x24mpxjn","60fcc085e84772374cdbb26d","fixation","img/fixation.png","null","","test","","","","","",""
"439.29999999981374","189592","pSARL_v2","pSARL_v2x24mpxjn","60fcc085e84772374cdbb26d","freq","img/green_2bandit_b2.png","70","70","test","1","91","91","5","",""
"null","189971","pSARL_v2","pSARL_v2x24mpxjn","60fcc085e84772374cdbb26d","freq_resp","img/green_2bandit_b.png","70","70","test","","","","5","",""
"null","190139","pSARL_v2","pSARL_v2x24mpxjn","60fcc085e84772374cdbb26d","fixation","img/fixation.png","null","","test","","","","","",""
"285.60000000009313","190443","pSARL_v2","pSARL_v2x24mpxjn","60fcc085e84772374cdbb26d","freq","img/green_2bandit_b2.png","70","70","test","1","92","92","5","",""
"null","190982","pSARL_v2","pSARL_v2x24mpxjn","60fcc085e84772374cdbb26d","freq_resp","img/green_2bandit_b.png","70","70","test","","","","5","",""
"null","191165","pSARL_v2","pSARL_v2x24mpxjn","60fcc085e84772374cdbb26d","fixation","img/fixation.png","null","","test","","","","","",""
"273.20000000018626","191462","pSARL_v2","pSARL_v2x24mpxjn","60fcc085e84772374cdbb26d","freq","img/green_2bandit_b2.png","70","70","test","1","93","93","5","",""
"null","192014","pSARL_v2","pSARL_v2x24mpxjn","60fcc085e84772374cdbb26d","freq_resp","img/green_2bandit_b.png","70","70","test","","","","5","",""
"null","192188","pSARL_v2","pSARL_v2x24mpxjn","60fcc085e84772374cdbb26d","fixation","img/fixation.png","null","","test","","","","","",""
"261.79999999981374","192472","pSARL_v2","pSARL_v2x24mpxjn","60fcc085e84772374cdbb26d","freq","img/green_2bandit_b2.png","70","70","test","1","94","94","5","",""
"null","193034","pSARL_v2","pSARL_v2x24mpxjn","60fcc085e84772374cdbb26d","freq_resp","img/green_2bandit_b.png","70","70","test","","","","5","",""
"null","193208","pSARL_v2","pSARL_v2x24mpxjn","60fcc085e84772374cdbb26d","fixation","img/fixation.png","null","","test","","","","","",""
"402.89999999990687","193631","pSARL_v2","pSARL_v2x24mpxjn","60fcc085e84772374cdbb26d","infreq","img/orange_2bandit_b2.png","68","68","test","1","95","95","5","",""
"null","194052","pSARL_v2","pSARL_v2x24mpxjn","60fcc085e84772374cdbb26d","infreq_resp","img/orange_2bandit_b.png","68","68","test","","","","5","",""
"null","194230","pSARL_v2","pSARL_v2x24mpxjn","60fcc085e84772374cdbb26d","fixation","img/fixation.png","null","","test","","","","","",""
"380.29999999981374","194633","pSARL_v2","pSARL_v2x24mpxjn","60fcc085e84772374cdbb26d","freq","img/green_2bandit_b2.png","70","70","test","1","96","96","5","",""
"null","195074","pSARL_v2","pSARL_v2x24mpxjn","60fcc085e84772374cdbb26d","freq_resp","img/green_2bandit_b.png","70","70","test","","","","5","",""
"null","195245","pSARL_v2","pSARL_v2x24mpxjn","60fcc085e84772374cdbb26d","fixation","img/fixation.png","null","","test","","","","","",""
"391.5","195657","pSARL_v2","pSARL_v2x24mpxjn","60fcc085e84772374cdbb26d","freq","img/green_2bandit_b2.png","70","70","test","1","97","97","5","",""
"null","196090","pSARL_v2","pSARL_v2x24mpxjn","60fcc085e84772374cdbb26d","freq_resp","img/green_2bandit_b.png","70","70","test","","","","5","",""
"null","196263","pSARL_v2","pSARL_v2x24mpxjn","60fcc085e84772374cdbb26d","fixation","img/fixation.png","null","","test","","","","","",""
"273.5","196559","pSARL_v2","pSARL_v2x24mpxjn","60fcc085e84772374cdbb26d","freq","img/green_2bandit_b2.png","70","70","test","1","98","98","5","",""
"null","197111","pSARL_v2","pSARL_v2x24mpxjn","60fcc085e84772374cdbb26d","freq_resp","img/green_2bandit_b.png","70","70","test","","","","5","",""
"null","197285","pSARL_v2","pSARL_v2x24mpxjn","60fcc085e84772374cdbb26d","fixation","img/fixation.png","null","","test","","","","","",""
"260.59999999962747","197566","pSARL_v2","pSARL_v2x24mpxjn","60fcc085e84772374cdbb26d","freq","img/green_2bandit_b2.png","70","70","test","1","99","99","5","",""
"null","198128","pSARL_v2","pSARL_v2x24mpxjn","60fcc085e84772374cdbb26d","freq_resp","img/green_2bandit_b.png","70","70","test","","","","5","",""
"null","198296","pSARL_v2","pSARL_v2x24mpxjn","60fcc085e84772374cdbb26d","fixation","img/fixation.png","null","","test","","","","","",""
"243.29999999981374","198561","pSARL_v2","pSARL_v2x24mpxjn","60fcc085e84772374cdbb26d","freq","img/green_2bandit_b2.png","70","70","test","1","100","100","5","",""
"null","199141","pSARL_v2","pSARL_v2x24mpxjn","60fcc085e84772374cdbb26d","freq_resp","img/green_2bandit_b.png","70","70","test","","","","5","",""
"null","199311","pSARL_v2","pSARL_v2x24mpxjn","60fcc085e84772374cdbb26d","fixation","img/fixation.png","null","","test","","","","","",""
"284.5","199620","pSARL_v2","pSARL_v2x24mpxjn","60fcc085e84772374cdbb26d","freq","img/green_2bandit_b2.png","70","70","test","1","101","101","5","",""
"null","200159","pSARL_v2","pSARL_v2x24mpxjn","60fcc085e84772374cdbb26d","freq_resp","img/green_2bandit_b.png","70","70","test","","","","5","",""
"null","200334","pSARL_v2","pSARL_v2x24mpxjn","60fcc085e84772374cdbb26d","fixation","img/fixation.png","null","","test","","","","","",""
"289","200646","pSARL_v2","pSARL_v2x24mpxjn","60fcc085e84772374cdbb26d","freq","img/green_2bandit_b2.png","70","70","test","1","102","102","5","",""
"null","201180","pSARL_v2","pSARL_v2x24mpxjn","60fcc085e84772374cdbb26d","freq_resp","img/green_2bandit_b.png","70","70","test","","","","5","",""
"null","201353","pSARL_v2","pSARL_v2x24mpxjn","60fcc085e84772374cdbb26d","fixation","img/fixation.png","null","","test","","","","","",""
"395.89999999990687","201773","pSARL_v2","pSARL_v2x24mpxjn","60fcc085e84772374cdbb26d","infreq","img/orange_2bandit_b2.png","68","68","test","1","103","103","5","",""
"null","202204","pSARL_v2","pSARL_v2x24mpxjn","60fcc085e84772374cdbb26d","infreq_resp","img/orange_2bandit_b.png","68","68","test","","","","5","",""
"null","202377","pSARL_v2","pSARL_v2x24mpxjn","60fcc085e84772374cdbb26d","fixation","img/fixation.png","null","","test","","","","","",""
"410","202814","pSARL_v2","pSARL_v2x24mpxjn","60fcc085e84772374cdbb26d","freq","img/green_2bandit_b2.png","70","70","test","1","104","104","5","",""
"null","203230","pSARL_v2","pSARL_v2x24mpxjn","60fcc085e84772374cdbb26d","freq_resp","img/green_2bandit_b.png","70","70","test","","","","5","",""
"null","203407","pSARL_v2","pSARL_v2x24mpxjn","60fcc085e84772374cdbb26d","fixation","img/fixation.png","null","","test","","","","","",""
"283.5","203714","pSARL_v2","pSARL_v2x24mpxjn","60fcc085e84772374cdbb26d","freq","img/green_2bandit_b2.png","70","70","test","1","105","105","5","",""
"null","204257","pSARL_v2","pSARL_v2x24mpxjn","60fcc085e84772374cdbb26d","freq_resp","img/green_2bandit_b.png","70","70","test","","","","5","",""
"null","204426","pSARL_v2","pSARL_v2x24mpxjn","60fcc085e84772374cdbb26d","fixation","img/fixation.png","null","","test","","","","","",""
"271.79999999981374","204720","pSARL_v2","pSARL_v2x24mpxjn","60fcc085e84772374cdbb26d","freq","img/green_2bandit_b2.png","70","70","test","1","106","106","5","",""
"null","205267","pSARL_v2","pSARL_v2x24mpxjn","60fcc085e84772374cdbb26d","freq_resp","img/green_2bandit_b.png","70","70","test","","","","5","",""
"null","205437","pSARL_v2","pSARL_v2x24mpxjn","60fcc085e84772374cdbb26d","fixation","img/fixation.png","null","","test","","","","","",""
"270.8000000002794","205733","pSARL_v2","pSARL_v2x24mpxjn","60fcc085e84772374cdbb26d","freq","img/green_2bandit_b2.png","70","70","test","1","107","107","5","",""
"null","206284","pSARL_v2","pSARL_v2x24mpxjn","60fcc085e84772374cdbb26d","freq_resp","img/green_2bandit_b.png","70","70","test","","","","5","",""
"null","206455","pSARL_v2","pSARL_v2x24mpxjn","60fcc085e84772374cdbb26d","fixation","img/fixation.png","null","","test","","","","","",""
"280","206758","pSARL_v2","pSARL_v2x24mpxjn","60fcc085e84772374cdbb26d","freq","img/green_2bandit_b2.png","70","70","test","1","108","108","5","",""
"null","207303","pSARL_v2","pSARL_v2x24mpxjn","60fcc085e84772374cdbb26d","freq_resp","img/green_2bandit_b.png","70","70","test","","","","5","",""
"null","207477","pSARL_v2","pSARL_v2x24mpxjn","60fcc085e84772374cdbb26d","fixation","img/fixation.png","null","","test","","","","","",""
"266.89999999990687","207766","pSARL_v2","pSARL_v2x24mpxjn","60fcc085e84772374cdbb26d","freq","img/green_2bandit_b2.png","70","70","test","1","109","109","5","",""
"null","208323","pSARL_v2","pSARL_v2x24mpxjn","60fcc085e84772374cdbb26d","freq_resp","img/green_2bandit_b.png","70","70","test","","","","5","",""
"null","208494","pSARL_v2","pSARL_v2x24mpxjn","60fcc085e84772374cdbb26d","fixation","img/fixation.png","null","","test","","","","","",""
"298.29999999981374","208815","pSARL_v2","pSARL_v2x24mpxjn","60fcc085e84772374cdbb26d","freq","img/green_2bandit_b2.png","70","70","test","1","110","110","5","",""
"null","209340","pSARL_v2","pSARL_v2x24mpxjn","60fcc085e84772374cdbb26d","freq_resp","img/green_2bandit_b.png","70","70","test","","","","5","",""
"null","209515","pSARL_v2","pSARL_v2x24mpxjn","60fcc085e84772374cdbb26d","fixation","img/fixation.png","null","","test","","","","","",""
"356","209892","pSARL_v2","pSARL_v2x24mpxjn","60fcc085e84772374cdbb26d","freq","img/green_2bandit_b2.png","70","70","test","1","111","111","5","",""
"null","210361","pSARL_v2","pSARL_v2x24mpxjn","60fcc085e84772374cdbb26d","freq_resp","img/green_2bandit_b.png","70","70","test","","","","5","",""
"null","210537","pSARL_v2","pSARL_v2x24mpxjn","60fcc085e84772374cdbb26d","fixation","img/fixation.png","null","","test","","","","","",""
"282.5","210842","pSARL_v2","pSARL_v2x24mpxjn","60fcc085e84772374cdbb26d","freq","img/green_2bandit_b2.png","70","70","test","1","112","112","5","",""
"null","211385","pSARL_v2","pSARL_v2x24mpxjn","60fcc085e84772374cdbb26d","freq_resp","img/green_2bandit_b.png","70","70","test","","","","5","",""
"null","211560","pSARL_v2","pSARL_v2x24mpxjn","60fcc085e84772374cdbb26d","fixation","img/fixation.png","null","","test","","","","","",""
"273.89999999990687","211859","pSARL_v2","pSARL_v2x24mpxjn","60fcc085e84772374cdbb26d","freq","img/green_2bandit_b2.png","70","70","test","1","113","113","5","",""
"null","212409","pSARL_v2","pSARL_v2x24mpxjn","60fcc085e84772374cdbb26d","freq_resp","img/green_2bandit_b.png","70","70","test","","","","5","",""
"null","212580","pSARL_v2","pSARL_v2x24mpxjn","60fcc085e84772374cdbb26d","fixation","img/fixation.png","null","","test","","","","","",""
"255.5","212859","pSARL_v2","pSARL_v2x24mpxjn","60fcc085e84772374cdbb26d","freq","img/green_2bandit_b2.png","70","70","test","1","114","114","5","",""
"null","213422","pSARL_v2","pSARL_v2x24mpxjn","60fcc085e84772374cdbb26d","freq_resp","img/green_2bandit_b.png","70","70","test","","","","5","",""
"null","213596","pSARL_v2","pSARL_v2x24mpxjn","60fcc085e84772374cdbb26d","fixation","img/fixation.png","null","","test","","","","","",""
"268.5","213885","pSARL_v2","pSARL_v2x24mpxjn","60fcc085e84772374cdbb26d","freq","img/green_2bandit_b2.png","70","70","test","1","115","115","5","",""
"null","214438","pSARL_v2","pSARL_v2x24mpxjn","60fcc085e84772374cdbb26d","freq_resp","img/green_2bandit_b.png","70","70","test","","","","5","",""
"null","214612","pSARL_v2","pSARL_v2x24mpxjn","60fcc085e84772374cdbb26d","fixation","img/fixation.png","null","","test","","","","","",""
"726.3000000002794","215360","pSARL_v2","pSARL_v2x24mpxjn","60fcc085e84772374cdbb26d","reward","img/slot.png","74","","test","","","","","",""
"null","216137","pSARL_v2","pSARL_v2x24mpxjn","60fcc085e84772374cdbb26d","points","<div class=""veryhighPoints""> +1 </div>","null","na","test","","","","5","1","4"
"432.5","216594","pSARL_v2","pSARL_v2x24mpxjn","60fcc085e84772374cdbb26d","freq","img/green_2bandit_b2.png","70","70","test","1","116","116","6","",""
"null","216985","pSARL_v2","pSARL_v2x24mpxjn","60fcc085e84772374cdbb26d","freq_resp","img/green_2bandit_b.png","70","70","test","","","","6","",""
"null","217159","pSARL_v2","pSARL_v2x24mpxjn","60fcc085e84772374cdbb26d","fixation","img/fixation.png","null","","test","","","","","",""
"272.5","217454","pSARL_v2","pSARL_v2x24mpxjn","60fcc085e84772374cdbb26d","freq","img/green_2bandit_b2.png","70","70","test","1","117","117","6","",""
"null","218005","pSARL_v2","pSARL_v2x24mpxjn","60fcc085e84772374cdbb26d","freq_resp","img/green_2bandit_b.png","70","70","test","","","","6","",""
"null","218179","pSARL_v2","pSARL_v2x24mpxjn","60fcc085e84772374cdbb26d","fixation","img/fixation.png","null","","test","","","","","",""
"455.20000000018626","218657","pSARL_v2","pSARL_v2x24mpxjn","60fcc085e84772374cdbb26d","infreq","img/orange_2bandit_b2.png","68","68","test","1","118","118","6","",""
"null","219025","pSARL_v2","pSARL_v2x24mpxjn","60fcc085e84772374cdbb26d","infreq_resp","img/orange_2bandit_b.png","68","68","test","","","","6","",""
"null","219199","pSARL_v2","pSARL_v2x24mpxjn","60fcc085e84772374cdbb26d","fixation","img/fixation.png","null","","test","","","","","",""
"431.79999999981374","219654","pSARL_v2","pSARL_v2x24mpxjn","60fcc085e84772374cdbb26d","freq","img/green_2bandit_b2.png","70","70","test","1","119","119","6","",""
"null","220044","pSARL_v2","pSARL_v2x24mpxjn","60fcc085e84772374cdbb26d","freq_resp","img/green_2bandit_b.png","70","70","test","","","","6","",""
"null","220219","pSARL_v2","pSARL_v2x24mpxjn","60fcc085e84772374cdbb26d","fixation","img/fixation.png","null","","test","","","","","",""
"323.90000000037253","220565","pSARL_v2","pSARL_v2x24mpxjn","60fcc085e84772374cdbb26d","freq","img/green_2bandit_b2.png","70","70","test","1","120","120","6","",""
"null","221065","pSARL_v2","pSARL_v2x24mpxjn","60fcc085e84772374cdbb26d","freq_resp","img/green_2bandit_b.png","70","70","test","","","","6","",""
"null","221238","pSARL_v2","pSARL_v2x24mpxjn","60fcc085e84772374cdbb26d","fixation","img/fixation.png","null","","test","","","","","",""
"266.39999999990687","221527","pSARL_v2","pSARL_v2x24mpxjn","60fcc085e84772374cdbb26d","freq","img/green_2bandit_b2.png","70","70","test","1","121","121","6","",""
"null","222085","pSARL_v2","pSARL_v2x24mpxjn","60fcc085e84772374cdbb26d","freq_resp","img/green_2bandit_b.png","70","70","test","","","","6","",""
"null","222258","pSARL_v2","pSARL_v2x24mpxjn","60fcc085e84772374cdbb26d","fixation","img/fixation.png","null","","test","","","","","",""
"259.8000000002794","222542","pSARL_v2","pSARL_v2x24mpxjn","60fcc085e84772374cdbb26d","freq","img/green_2bandit_b2.png","70","70","test","1","122","122","6","",""
"null","223104","pSARL_v2","pSARL_v2x24mpxjn","60fcc085e84772374cdbb26d","freq_resp","img/green_2bandit_b.png","70","70","test","","","","6","",""
"null","223285","pSARL_v2","pSARL_v2x24mpxjn","60fcc085e84772374cdbb26d","fixation","img/fixation.png","null","","test","","","","","",""
"293.5","223601","pSARL_v2","pSARL_v2x24mpxjn","60fcc085e84772374cdbb26d","freq","img/green_2bandit_b2.png","70","70","test","1","123","123","6","",""
"null","224133","pSARL_v2","pSARL_v2x24mpxjn","60fcc085e84772374cdbb26d","freq_resp","img/green_2bandit_b.png","70","70","test","","","","6","",""
"null","224305","pSARL_v2","pSARL_v2x24mpxjn","60fcc085e84772374cdbb26d","fixation","img/fixation.png","null","","test","","","","","",""
"406","224732","pSARL_v2","pSARL_v2x24mpxjn","60fcc085e84772374cdbb26d","infreq","img/orange_2bandit_b2.png","68","68","test","1","124","124","6","",""
"null","225151","pSARL_v2","pSARL_v2x24mpxjn","60fcc085e84772374cdbb26d","infreq_resp","img/orange_2bandit_b.png","68","68","test","","","","6","",""
"null","225323","pSARL_v2","pSARL_v2x24mpxjn","60fcc085e84772374cdbb26d","fixation","img/fixation.png","null","","test","","","","","",""
"379.5","225727","pSARL_v2","pSARL_v2x24mpxjn","60fcc085e84772374cdbb26d","freq","img/green_2bandit_b2.png","70","70","test","1","125","125","6","",""
"null","226170","pSARL_v2","pSARL_v2x24mpxjn","60fcc085e84772374cdbb26d","freq_resp","img/green_2bandit_b.png","70","70","test","","","","6","",""
"null","226346","pSARL_v2","pSARL_v2x24mpxjn","60fcc085e84772374cdbb26d","fixation","img/fixation.png","null","","test","","","","","",""
"234.29999999981374","226603","pSARL_v2","pSARL_v2x24mpxjn","60fcc085e84772374cdbb26d","freq","img/green_2bandit_b2.png","70","70","test","1","126","126","6","",""
"null","227193","pSARL_v2","pSARL_v2x24mpxjn","60fcc085e84772374cdbb26d","freq_resp","img/green_2bandit_b.png","70","70","test","","","","6","",""
"null","227365","pSARL_v2","pSARL_v2x24mpxjn","60fcc085e84772374cdbb26d","fixation","img/fixation.png","null","","test","","","","","",""
"168.20000000018626","227556","pSARL_v2","pSARL_v2x24mpxjn","60fcc085e84772374cdbb26d","freq","img/green_2bandit_b2.png","70","70","test","1","127","127","6","",""
"null","228211","pSARL_v2","pSARL_v2x24mpxjn","60fcc085e84772374cdbb26d","freq_resp","img/green_2bandit_b.png","70","70","test","","","","6","",""
"null","228384","pSARL_v2","pSARL_v2x24mpxjn","60fcc085e84772374cdbb26d","fixation","img/fixation.png","null","","test","","","","","",""
"241.39999999990687","228648","pSARL_v2","pSARL_v2x24mpxjn","60fcc085e84772374cdbb26d","freq","img/green_2bandit_b2.png","70","70","test","1","128","128","6","",""
"null","229231","pSARL_v2","pSARL_v2x24mpxjn","60fcc085e84772374cdbb26d","freq_resp","img/green_2bandit_b.png","70","70","test","","","","6","",""
"null","229407","pSARL_v2","pSARL_v2x24mpxjn","60fcc085e84772374cdbb26d","fixation","img/fixation.png","null","","test","","","","","",""
"173.5","229603","pSARL_v2","pSARL_v2x24mpxjn","60fcc085e84772374cdbb26d","freq","img/green_2bandit_b2.png","70","70","test","1","129","129","6","",""
"null","230251","pSARL_v2","pSARL_v2x24mpxjn","60fcc085e84772374cdbb26d","freq_resp","img/green_2bandit_b.png","70","70","test","","","","6","",""
"null","230422","pSARL_v2","pSARL_v2x24mpxjn","60fcc085e84772374cdbb26d","fixation","img/fixation.png","null","","test","","","","","",""
"248.10000000009313","230700","pSARL_v2","pSARL_v2x24mpxjn","60fcc085e84772374cdbb26d","freq","img/green_2bandit_b2.png","70","70","test","1","130","130","6","",""
"null","231276","pSARL_v2","pSARL_v2x24mpxjn","60fcc085e84772374cdbb26d","freq_resp","img/green_2bandit_b.png","70","70","test","","","","6","",""
"null","231448","pSARL_v2","pSARL_v2x24mpxjn","60fcc085e84772374cdbb26d","fixation","img/fixation.png","null","","test","","","","","",""
"282.10000000009313","231754","pSARL_v2","pSARL_v2x24mpxjn","60fcc085e84772374cdbb26d","freq","img/green_2bandit_b2.png","70","70","test","1","131","131","6","",""
"null","232292","pSARL_v2","pSARL_v2x24mpxjn","60fcc085e84772374cdbb26d","freq_resp","img/green_2bandit_b.png","70","70","test","","","","6","",""
"null","232464","pSARL_v2","pSARL_v2x24mpxjn","60fcc085e84772374cdbb26d","fixation","img/fixation.png","null","","test","","","","","",""
"312.09999999962747","232799","pSARL_v2","pSARL_v2x24mpxjn","60fcc085e84772374cdbb26d","freq","img/green_2bandit_b2.png","70","70","test","1","132","132","6","",""
"null","233309","pSARL_v2","pSARL_v2x24mpxjn","60fcc085e84772374cdbb26d","freq_resp","img/green_2bandit_b.png","70","70","test","","","","6","",""
"null","233482","pSARL_v2","pSARL_v2x24mpxjn","60fcc085e84772374cdbb26d","fixation","img/fixation.png","null","","test","","","","","",""
"290.70000000018626","233796","pSARL_v2","pSARL_v2x24mpxjn","60fcc085e84772374cdbb26d","freq","img/green_2bandit_b2.png","70","70","test","1","133","133","6","",""
"null","234327","pSARL_v2","pSARL_v2x24mpxjn","60fcc085e84772374cdbb26d","freq_resp","img/green_2bandit_b.png","70","70","test","","","","6","",""
"null","234500","pSARL_v2","pSARL_v2x24mpxjn","60fcc085e84772374cdbb26d","fixation","img/fixation.png","null","","test","","","","","",""
"256.89999999990687","234780","pSARL_v2","pSARL_v2x24mpxjn","60fcc085e84772374cdbb26d","freq","img/green_2bandit_b2.png","70","70","test","1","134","134","6","",""
"null","235346","pSARL_v2","pSARL_v2x24mpxjn","60fcc085e84772374cdbb26d","freq_resp","img/green_2bandit_b.png","70","70","test","","","","6","",""
"null","235523","pSARL_v2","pSARL_v2x24mpxjn","60fcc085e84772374cdbb26d","fixation","img/fixation.png","null","","test","","","","","",""
"282.3000000002794","235826","pSARL_v2","pSARL_v2x24mpxjn","60fcc085e84772374cdbb26d","freq","img/green_2bandit_b2.png","70","70","test","1","135","135","6","",""
"null","236369","pSARL_v2","pSARL_v2x24mpxjn","60fcc085e84772374cdbb26d","freq_resp","img/green_2bandit_b.png","70","70","test","","","","6","",""
"null","236542","pSARL_v2","pSARL_v2x24mpxjn","60fcc085e84772374cdbb26d","fixation","img/fixation.png","null","","test","","","","","",""
"247.5","236811","pSARL_v2","pSARL_v2x24mpxjn","60fcc085e84772374cdbb26d","freq","img/green_2bandit_b2.png","70","70","test","1","136","136","6","",""
"null","237388","pSARL_v2","pSARL_v2x24mpxjn","60fcc085e84772374cdbb26d","freq_resp","img/green_2bandit_b.png","70","70","test","","","","6","",""
"null","237561","pSARL_v2","pSARL_v2x24mpxjn","60fcc085e84772374cdbb26d","fixation","img/fixation.png","null","","test","","","","","",""
"280.3000000002794","237862","pSARL_v2","pSARL_v2x24mpxjn","60fcc085e84772374cdbb26d","freq","img/green_2bandit_b2.png","70","70","test","1","137","137","6","",""
"null","238404","pSARL_v2","pSARL_v2x24mpxjn","60fcc085e84772374cdbb26d","freq_resp","img/green_2bandit_b.png","70","70","test","","","","6","",""
"null","238576","pSARL_v2","pSARL_v2x24mpxjn","60fcc085e84772374cdbb26d","fixation","img/fixation.png","null","","test","","","","","",""
"282.79999999981374","238879","pSARL_v2","pSARL_v2x24mpxjn","60fcc085e84772374cdbb26d","freq","img/green_2bandit_b2.png","70","70","test","1","138","138","6","",""
"null","239417","pSARL_v2","pSARL_v2x24mpxjn","60fcc085e84772374cdbb26d","freq_resp","img/green_2bandit_b.png","70","70","test","","","","6","",""
"null","239589","pSARL_v2","pSARL_v2x24mpxjn","60fcc085e84772374cdbb26d","fixation","img/fixation.png","null","","test","","","","","",""
"276.5","239886","pSARL_v2","pSARL_v2x24mpxjn","60fcc085e84772374cdbb26d","freq","img/green_2bandit_b2.png","70","70","test","1","139","139","6","",""
"null","240429","pSARL_v2","pSARL_v2x24mpxjn","60fcc085e84772374cdbb26d","freq_resp","img/green_2bandit_b.png","70","70","test","","","","6","",""
"null","240604","pSARL_v2","pSARL_v2x24mpxjn","60fcc085e84772374cdbb26d","fixation","img/fixation.png","null","","test","","","","","",""
"517.3999999999069","241141","pSARL_v2","pSARL_v2x24mpxjn","60fcc085e84772374cdbb26d","reward","img/slot.png","74","","test","","","","","",""
"null","241917","pSARL_v2","pSARL_v2x24mpxjn","60fcc085e84772374cdbb26d","points","<div class=""verylowPoints""> -7 </div>","null","na","test","","","","6","-7","5"
"524","242463","pSARL_v2","pSARL_v2x24mpxjn","60fcc085e84772374cdbb26d","freq","img/green_2bandit_b2.png","70","70","test","1","140","140","7","",""
"null","242765","pSARL_v2","pSARL_v2x24mpxjn","60fcc085e84772374cdbb26d","freq_resp","img/green_2bandit_b.png","70","70","test","","","","7","",""
"null","242938","pSARL_v2","pSARL_v2x24mpxjn","60fcc085e84772374cdbb26d","fixation","img/fixation.png","null","","test","","","","","",""
"255.60000000009313","243216","pSARL_v2","pSARL_v2x24mpxjn","60fcc085e84772374cdbb26d","freq","img/green_2bandit_b2.png","70","70","test","1","141","141","7","",""
"null","243784","pSARL_v2","pSARL_v2x24mpxjn","60fcc085e84772374cdbb26d","freq_resp","img/green_2bandit_b.png","70","70","test","","","","7","",""
"null","243954","pSARL_v2","pSARL_v2x24mpxjn","60fcc085e84772374cdbb26d","fixation","img/fixation.png","null","","test","","","","","",""
"81","244057","pSARL_v2","pSARL_v2x24mpxjn","60fcc085e84772374cdbb26d","freq","img/green_2bandit_b2.png","70","70","test","1","142","142","7","",""
"null","244800","pSARL_v2","pSARL_v2x24mpxjn","60fcc085e84772374cdbb26d","freq_resp","img/green_2bandit_b.png","70","70","test","","","","7","",""
"null","244975","pSARL_v2","pSARL_v2x24mpxjn","60fcc085e84772374cdbb26d","fixation","img/fixation.png","null","","test","","","","","",""
"58.10000000009313","245055","pSARL_v2","pSARL_v2x24mpxjn","60fcc085e84772374cdbb26d","infreq","img/orange_2bandit_b2.png","70","68","test","0","143","143","7","",""
"null","245820","pSARL_v2","pSARL_v2x24mpxjn","60fcc085e84772374cdbb26d","infreq_resp","img/orange_2bandit_b.png","70","68","test","","","","7","",""
"null","245993","pSARL_v2","pSARL_v2x24mpxjn","60fcc085e84772374cdbb26d","fixation","img/fixation.png","null","","test","","","","","",""
"556.7999999998137","246572","pSARL_v2","pSARL_v2x24mpxjn","60fcc085e84772374cdbb26d","freq","img/green_2bandit_b2.png","70","70","test","1","144","144","7","",""
"null","246839","pSARL_v2","pSARL_v2x24mpxjn","60fcc085e84772374cdbb26d","freq_resp","img/green_2bandit_b.png","70","70","test","","","","7","",""
"null","247023","pSARL_v2","pSARL_v2x24mpxjn","60fcc085e84772374cdbb26d","fixation","img/fixation.png","null","","test","","","","","",""
"518.1999999997206","247564","pSARL_v2","pSARL_v2x24mpxjn","60fcc085e84772374cdbb26d","freq","img/green_2bandit_b2.png","70","70","test","1","145","145","7","",""
"null","247868","pSARL_v2","pSARL_v2x24mpxjn","60fcc085e84772374cdbb26d","freq_resp","img/green_2bandit_b.png","70","70","test","","","","7","",""
"null","248042","pSARL_v2","pSARL_v2x24mpxjn","60fcc085e84772374cdbb26d","fixation","img/fixation.png","null","","test","","","","","",""
"253.5","248320","pSARL_v2","pSARL_v2x24mpxjn","60fcc085e84772374cdbb26d","freq","img/green_2bandit_b2.png","70","70","test","1","146","146","7","",""
"null","248888","pSARL_v2","pSARL_v2x24mpxjn","60fcc085e84772374cdbb26d","freq_resp","img/green_2bandit_b.png","70","70","test","","","","7","",""
"null","249062","pSARL_v2","pSARL_v2x24mpxjn","60fcc085e84772374cdbb26d","fixation","img/fixation.png","null","","test","","","","","",""
"474.20000000018626","249559","pSARL_v2","pSARL_v2x24mpxjn","60fcc085e84772374cdbb26d","infreq","img/orange_2bandit_b2.png","68","68","test","1","147","147","7","",""
"null","249908","pSARL_v2","pSARL_v2x24mpxjn","60fcc085e84772374cdbb26d","infreq_resp","img/orange_2bandit_b.png","68","68","test","","","","7","",""
"null","250080","pSARL_v2","pSARL_v2x24mpxjn","60fcc085e84772374cdbb26d","fixation","img/fixation.png","null","","test","","","","","",""
"null","250905","pSARL_v2","pSARL_v2x24mpxjn","60fcc085e84772374cdbb26d","freq","img/green_2bandit_b2.png","null","70","test","0","148","148","7","",""
"null","251078","pSARL_v2","pSARL_v2x24mpxjn","60fcc085e84772374cdbb26d","fixation","img/fixation.png","null","","test","","","","","",""
"392.60000000009313","251493","pSARL_v2","pSARL_v2x24mpxjn","60fcc085e84772374cdbb26d","freq","img/green_2bandit_b2.png","70","70","test","1","149","149","7","",""
"null","251922","pSARL_v2","pSARL_v2x24mpxjn","60fcc085e84772374cdbb26d","freq_resp","img/green_2bandit_b.png","70","70","test","","","","7","",""
"null","252095","pSARL_v2","pSARL_v2x24mpxjn","60fcc085e84772374cdbb26d","fixation","img/fixation.png","null","","test","","","","","",""
"47","252165","pSARL_v2","pSARL_v2x24mpxjn","60fcc085e84772374cdbb26d","freq","img/green_2bandit_b2.png","70","70","test","1","150","150","7","",""
"null","252941","pSARL_v2","pSARL_v2x24mpxjn","60fcc085e84772374cdbb26d","freq_resp","img/green_2bandit_b.png","70","70","test","","","","7","",""
"null","253115","pSARL_v2","pSARL_v2x24mpxjn","60fcc085e84772374cdbb26d","fixation","img/fixation.png","null","","test","","","","","",""
"265.3000000002794","253403","pSARL_v2","pSARL_v2x24mpxjn","60fcc085e84772374cdbb26d","freq","img/green_2bandit_b2.png","70","70","test","1","151","151","7","",""
"null","253960","pSARL_v2","pSARL_v2x24mpxjn","60fcc085e84772374cdbb26d","freq_resp","img/green_2bandit_b.png","70","70","test","","","","7","",""
"null","254132","pSARL_v2","pSARL_v2x24mpxjn","60fcc085e84772374cdbb26d","fixation","img/fixation.png","null","","test","","","","","",""
"270.6999999997206","254422","pSARL_v2","pSARL_v2x24mpxjn","60fcc085e84772374cdbb26d","freq","img/green_2bandit_b2.png","70","70","test","1","152","152","7","",""
"null","254975","pSARL_v2","pSARL_v2x24mpxjn","60fcc085e84772374cdbb26d","freq_resp","img/green_2bandit_b.png","70","70","test","","","","7","",""
"null","255151","pSARL_v2","pSARL_v2x24mpxjn","60fcc085e84772374cdbb26d","fixation","img/fixation.png","null","","test","","","","","",""
"337.5","255511","pSARL_v2","pSARL_v2x24mpxjn","60fcc085e84772374cdbb26d","freq","img/green_2bandit_b2.png","70","70","test","1","153","153","7","",""
"null","255997","pSARL_v2","pSARL_v2x24mpxjn","60fcc085e84772374cdbb26d","freq_resp","img/green_2bandit_b.png","70","70","test","","","","7","",""
"null","256172","pSARL_v2","pSARL_v2x24mpxjn","60fcc085e84772374cdbb26d","fixation","img/fixation.png","null","","test","","","","","",""
"399.09999999962747","256595","pSARL_v2","pSARL_v2x24mpxjn","60fcc085e84772374cdbb26d","freq","img/green_2bandit_b2.png","70","70","test","1","154","154","7","",""
"null","257022","pSARL_v2","pSARL_v2x24mpxjn","60fcc085e84772374cdbb26d","freq_resp","img/green_2bandit_b.png","70","70","test","","","","7","",""
"null","257195","pSARL_v2","pSARL_v2x24mpxjn","60fcc085e84772374cdbb26d","fixation","img/fixation.png","null","","test","","","","","",""
"263.8000000002794","257482","pSARL_v2","pSARL_v2x24mpxjn","60fcc085e84772374cdbb26d","freq","img/green_2bandit_b2.png","70","70","test","1","155","155","7","",""
"null","258042","pSARL_v2","pSARL_v2x24mpxjn","60fcc085e84772374cdbb26d","freq_resp","img/green_2bandit_b.png","70","70","test","","","","7","",""
"null","258217","pSARL_v2","pSARL_v2x24mpxjn","60fcc085e84772374cdbb26d","fixation","img/fixation.png","null","","test","","","","","",""
"310.10000000009313","258548","pSARL_v2","pSARL_v2x24mpxjn","60fcc085e84772374cdbb26d","freq","img/green_2bandit_b2.png","70","70","test","1","156","156","7","",""
"null","259061","pSARL_v2","pSARL_v2x24mpxjn","60fcc085e84772374cdbb26d","freq_resp","img/green_2bandit_b.png","70","70","test","","","","7","",""
"null","259236","pSARL_v2","pSARL_v2x24mpxjn","60fcc085e84772374cdbb26d","fixation","img/fixation.png","null","","test","","","","","",""
"563","259822","pSARL_v2","pSARL_v2x24mpxjn","60fcc085e84772374cdbb26d","freq","img/green_2bandit_b2.png","70","70","test","1","157","157","7","",""
"null","260081","pSARL_v2","pSARL_v2x24mpxjn","60fcc085e84772374cdbb26d","freq_resp","img/green_2bandit_b.png","70","70","test","","","","7","",""
"null","260254","pSARL_v2","pSARL_v2x24mpxjn","60fcc085e84772374cdbb26d","fixation","img/fixation.png","null","","test","","","","","",""
"448.89999999990687","260728","pSARL_v2","pSARL_v2x24mpxjn","60fcc085e84772374cdbb26d","infreq","img/orange_2bandit_b2.png","68","68","test","1","158","158","7","",""
"null","261103","pSARL_v2","pSARL_v2x24mpxjn","60fcc085e84772374cdbb26d","infreq_resp","img/orange_2bandit_b.png","68","68","test","","","","7","",""
"null","261275","pSARL_v2","pSARL_v2x24mpxjn","60fcc085e84772374cdbb26d","fixation","img/fixation.png","null","","test","","","","","",""
"383.59999999962747","261680","pSARL_v2","pSARL_v2x24mpxjn","60fcc085e84772374cdbb26d","freq","img/green_2bandit_b2.png","70","70","test","1","159","159","7","",""
"null","262120","pSARL_v2","pSARL_v2x24mpxjn","60fcc085e84772374cdbb26d","freq_resp","img/green_2bandit_b.png","70","70","test","","","","7","",""
"null","262293","pSARL_v2","pSARL_v2x24mpxjn","60fcc085e84772374cdbb26d","fixation","img/fixation.png","null","","test","","","","","",""
"272.89999999990687","262589","pSARL_v2","pSARL_v2x24mpxjn","60fcc085e84772374cdbb26d","freq","img/green_2bandit_b2.png","70","70","test","1","160","160","7","",""
"null","263140","pSARL_v2","pSARL_v2x24mpxjn","60fcc085e84772374cdbb26d","freq_resp","img/green_2bandit_b.png","70","70","test","","","","7","",""
"null","263314","pSARL_v2","pSARL_v2x24mpxjn","60fcc085e84772374cdbb26d","fixation","img/fixation.png","null","","test","","","","","",""
"286.39999999990687","263623","pSARL_v2","pSARL_v2x24mpxjn","60fcc085e84772374cdbb26d","freq","img/green_2bandit_b2.png","70","70","test","1","161","161","7","",""
"null","264159","pSARL_v2","pSARL_v2x24mpxjn","60fcc085e84772374cdbb26d","freq_resp","img/green_2bandit_b.png","70","70","test","","","","7","",""
"null","264330","pSARL_v2","pSARL_v2x24mpxjn","60fcc085e84772374cdbb26d","fixation","img/fixation.png","null","","test","","","","","",""
"746.6000000000931","265098","pSARL_v2","pSARL_v2x24mpxjn","60fcc085e84772374cdbb26d","freq","img/green_2bandit_b2.png","70","70","test","1","162","162","7","",""
"null","265176","pSARL_v2","pSARL_v2x24mpxjn","60fcc085e84772374cdbb26d","freq_resp","img/green_2bandit_b.png","70","70","test","","","","7","",""
"null","265349","pSARL_v2","pSARL_v2x24mpxjn","60fcc085e84772374cdbb26d","fixation","img/fixation.png","null","","test","","","","","",""
"583.7999999998137","265954","pSARL_v2","pSARL_v2x24mpxjn","60fcc085e84772374cdbb26d","reward","img/slot.png","74","","test","","","","","",""
"null","266728","pSARL_v2","pSARL_v2x24mpxjn","60fcc085e84772374cdbb26d","points","<div class=""verylowPoints""> -6 </div>","null","na","test","","","","7","-6","6"
"646.6000000000931","267395","pSARL_v2","pSARL_v2x24mpxjn","60fcc085e84772374cdbb26d","freq","img/green_2bandit_b2.png","70","70","test","1","163","163","8","",""
"null","267573","pSARL_v2","pSARL_v2x24mpxjn","60fcc085e84772374cdbb26d","freq_resp","img/green_2bandit_b.png","70","70","test","","","","8","",""
"null","267747","pSARL_v2","pSARL_v2x24mpxjn","60fcc085e84772374cdbb26d","fixation","img/fixation.png","null","","test","","","","","",""
"337.29999999981374","268108","pSARL_v2","pSARL_v2x24mpxjn","60fcc085e84772374cdbb26d","freq","img/green_2bandit_b2.png","70","70","test","1","164","164","8","",""
"null","268593","pSARL_v2","pSARL_v2x24mpxjn","60fcc085e84772374cdbb26d","freq_resp","img/green_2bandit_b.png","70","70","test","","","","8","",""
"null","268767","pSARL_v2","pSARL_v2x24mpxjn","60fcc085e84772374cdbb26d","fixation","img/fixation.png","null","","test","","","","","",""
"114.20000000018626","268904","pSARL_v2","pSARL_v2x24mpxjn","60fcc085e84772374cdbb26d","freq","img/green_2bandit_b2.png","70","70","test","1","165","165","8","",""
"null","269614","pSARL_v2","pSARL_v2x24mpxjn","60fcc085e84772374cdbb26d","freq_resp","img/green_2bandit_b.png","70","70","test","","","","8","",""
"null","269787","pSARL_v2","pSARL_v2x24mpxjn","60fcc085e84772374cdbb26d","fixation","img/fixation.png","null","","test","","","","","",""
"102","269912","pSARL_v2","pSARL_v2x24mpxjn","60fcc085e84772374cdbb26d","freq","img/green_2bandit_b2.png","70","70","test","1","166","166","8","",""
"null","270636","pSARL_v2","pSARL_v2x24mpxjn","60fcc085e84772374cdbb26d","freq_resp","img/green_2bandit_b.png","70","70","test","","","","8","",""
"null","270809","pSARL_v2","pSARL_v2x24mpxjn","60fcc085e84772374cdbb26d","fixation","img/fixation.png","null","","test","","","","","",""
"18.100000000093132","270847","pSARL_v2","pSARL_v2x24mpxjn","60fcc085e84772374cdbb26d","freq","img/green_2bandit_b2.png","70","70","test","1","167","167","8","",""
"null","271654","pSARL_v2","pSARL_v2x24mpxjn","60fcc085e84772374cdbb26d","freq_resp","img/green_2bandit_b.png","70","70","test","","","","8","",""
"null","271825","pSARL_v2","pSARL_v2x24mpxjn","60fcc085e84772374cdbb26d","fixation","img/fixation.png","null","","test","","","","","",""
"null","272648","pSARL_v2","pSARL_v2x24mpxjn","60fcc085e84772374cdbb26d","freq","img/green_2bandit_b2.png","null","70","test","0","168","168","8","",""
"null","272822","pSARL_v2","pSARL_v2x24mpxjn","60fcc085e84772374cdbb26d","fixation","img/fixation.png","null","","test","","","","","",""
"772.3999999999069","273617","pSARL_v2","pSARL_v2x24mpxjn","60fcc085e84772374cdbb26d","freq","img/green_2bandit_b2.png","70","70","test","1","169","169","8","",""
"null","273666","pSARL_v2","pSARL_v2x24mpxjn","60fcc085e84772374cdbb26d","freq_resp","img/green_2bandit_b.png","70","70","test","","","","8","",""
"null","273839","pSARL_v2","pSARL_v2x24mpxjn","60fcc085e84772374cdbb26d","fixation","img/fixation.png","null","","test","","","","","",""
"467.3000000002794","274335","pSARL_v2","pSARL_v2x24mpxjn","60fcc085e84772374cdbb26d","freq","img/green_2bandit_b2.png","70","70","test","1","170","170","8","",""
"null","274695","pSARL_v2","pSARL_v2x24mpxjn","60fcc085e84772374cdbb26d","freq_resp","img/green_2bandit_b.png","70","70","test","","","","8","",""
"null","274865","pSARL_v2","pSARL_v2x24mpxjn","60fcc085e84772374cdbb26d","fixation","img/fixation.png","null","","test","","","","","",""
"270.3000000002794","275156","pSARL_v2","pSARL_v2x24mpxjn","60fcc085e84772374cdbb26d","freq","img/green_2bandit_b2.png","70","70","test","1","171","171","8","",""
"null","275711","pSARL_v2","pSARL_v2x24mpxjn","60fcc085e84772374cdbb26d","freq_resp","img/green_2bandit_b.png","70","70","test","","","","8","",""
"null","275885","pSARL_v2","pSARL_v2x24mpxjn","60fcc085e84772374cdbb26d","fixation","img/fixation.png","null","","test","","","","","",""
"264.39999999990687","276171","pSARL_v2","pSARL_v2x24mpxjn","60fcc085e84772374cdbb26d","freq","img/green_2bandit_b2.png","70","70","test","1","172","172","8","",""
"null","276733","pSARL_v2","pSARL_v2x24mpxjn","60fcc085e84772374cdbb26d","freq_resp","img/green_2bandit_b.png","70","70","test","","","","8","",""
"null","276907","pSARL_v2","pSARL_v2x24mpxjn","60fcc085e84772374cdbb26d","fixation","img/fixation.png","null","","test","","","","","",""
"408.39999999990687","277339","pSARL_v2","pSARL_v2x24mpxjn","60fcc085e84772374cdbb26d","infreq","img/orange_2bandit_b2.png","70","68","test","0","173","173","8","",""
"null","277754","pSARL_v2","pSARL_v2x24mpxjn","60fcc085e84772374cdbb26d","infreq_resp","img/orange_2bandit_b.png","70","68","test","","","","8","",""
"null","277927","pSARL_v2","pSARL_v2x24mpxjn","60fcc085e84772374cdbb26d","fixation","img/fixation.png","null","","test","","","","","",""
"625.7000000001863","278577","pSARL_v2","pSARL_v2x24mpxjn","60fcc085e84772374cdbb26d","freq","img/green_2bandit_b2.png","70","70","test","1","174","174","8","",""
"null","278774","pSARL_v2","pSARL_v2x24mpxjn","60fcc085e84772374cdbb26d","freq_resp","img/green_2bandit_b.png","70","70","test","","","","8","",""
"null","278949","pSARL_v2","pSARL_v2x24mpxjn","60fcc085e84772374cdbb26d","fixation","img/fixation.png","null","","test","","","","","",""
"261","279233","pSARL_v2","pSARL_v2x24mpxjn","60fcc085e84772374cdbb26d","freq","img/green_2bandit_b2.png","70","70","test","1","175","175","8","",""
"null","279799","pSARL_v2","pSARL_v2x24mpxjn","60fcc085e84772374cdbb26d","freq_resp","img/green_2bandit_b.png","70","70","test","","","","8","",""
"null","279973","pSARL_v2","pSARL_v2x24mpxjn","60fcc085e84772374cdbb26d","fixation","img/fixation.png","null","","test","","","","","",""
"70.60000000009313","280067","pSARL_v2","pSARL_v2x24mpxjn","60fcc085e84772374cdbb26d","freq","img/green_2bandit_b2.png","70","70","test","1","176","176","8","",""
"null","280820","pSARL_v2","pSARL_v2x24mpxjn","60fcc085e84772374cdbb26d","freq_resp","img/green_2bandit_b.png","70","70","test","","","","8","",""
"null","280995","pSARL_v2","pSARL_v2x24mpxjn","60fcc085e84772374cdbb26d","fixation","img/fixation.png","null","","test","","","","","",""
"79","281096","pSARL_v2","pSARL_v2x24mpxjn","60fcc085e84772374cdbb26d","freq","img/green_2bandit_b2.png","70","70","test","1","177","177","8","",""
"null","281844","pSARL_v2","pSARL_v2x24mpxjn","60fcc085e84772374cdbb26d","freq_resp","img/green_2bandit_b.png","70","70","test","","","","8","",""
"null","282018","pSARL_v2","pSARL_v2x24mpxjn","60fcc085e84772374cdbb26d","fixation","img/fixation.png","null","","test","","","","","",""
"77.10000000009313","282118","pSARL_v2","pSARL_v2x24mpxjn","60fcc085e84772374cdbb26d","infreq","img/orange_2bandit_b2.png","70","68","test","0","178","178","8","",""
"null","282861","pSARL_v2","pSARL_v2x24mpxjn","60fcc085e84772374cdbb26d","infreq_resp","img/orange_2bandit_b.png","70","68","test","","","","8","",""
"null","283039","pSARL_v2","pSARL_v2x24mpxjn","60fcc085e84772374cdbb26d","fixation","img/fixation.png","null","","test","","","","","",""
"346.5","283413","pSARL_v2","pSARL_v2x24mpxjn","60fcc085e84772374cdbb26d","freq","img/green_2bandit_b2.png","68","70","test","0","179","179","8","",""
"null","283894","pSARL_v2","pSARL_v2x24mpxjn","60fcc085e84772374cdbb26d","freq_resp","img/green_2bandit_b.png","68","70","test","","","","8","",""
"null","284063","pSARL_v2","pSARL_v2x24mpxjn","60fcc085e84772374cdbb26d","fixation","img/fixation.png","null","","test","","","","","",""
"null","284886","pSARL_v2","pSARL_v2x24mpxjn","60fcc085e84772374cdbb26d","freq","img/green_2bandit_b2.png","null","70","test","0","180","180","8","",""
"null","285062","pSARL_v2","pSARL_v2x24mpxjn","60fcc085e84772374cdbb26d","fixation","img/fixation.png","null","","test","","","","","",""
"325","285407","pSARL_v2","pSARL_v2x24mpxjn","60fcc085e84772374cdbb26d","freq","img/green_2bandit_b2.png","70","70","test","1","181","181","8","",""
"null","285904","pSARL_v2","pSARL_v2x24mpxjn","60fcc085e84772374cdbb26d","freq_resp","img/green_2bandit_b.png","70","70","test","","","","8","",""
"null","286075","pSARL_v2","pSARL_v2x24mpxjn","60fcc085e84772374cdbb26d","fixation","img/fixation.png","null","","test","","","","","",""
"288.20000000018626","286389","pSARL_v2","pSARL_v2x24mpxjn","60fcc085e84772374cdbb26d","freq","img/green_2bandit_b2.png","70","70","test","1","182","182","8","",""
"null","286925","pSARL_v2","pSARL_v2x24mpxjn","60fcc085e84772374cdbb26d","freq_resp","img/green_2bandit_b.png","70","70","test","","","","8","",""
"null","287100","pSARL_v2","pSARL_v2x24mpxjn","60fcc085e84772374cdbb26d","fixation","img/fixation.png","null","","test","","","","","",""
"243.5","287370","pSARL_v2","pSARL_v2x24mpxjn","60fcc085e84772374cdbb26d","freq","img/green_2bandit_b2.png","70","70","test","1","183","183","8","",""
"null","287951","pSARL_v2","pSARL_v2x24mpxjn","60fcc085e84772374cdbb26d","freq_resp","img/green_2bandit_b.png","70","70","test","","","","8","",""
"null","288125","pSARL_v2","pSARL_v2x24mpxjn","60fcc085e84772374cdbb26d","fixation","img/fixation.png","null","","test","","","","","",""
"256.5","288402","pSARL_v2","pSARL_v2x24mpxjn","60fcc085e84772374cdbb26d","freq","img/green_2bandit_b2.png","70","70","test","1","184","184","8","",""
"null","288973","pSARL_v2","pSARL_v2x24mpxjn","60fcc085e84772374cdbb26d","freq_resp","img/green_2bandit_b.png","70","70","test","","","","8","",""
"null","289150","pSARL_v2","pSARL_v2x24mpxjn","60fcc085e84772374cdbb26d","fixation","img/fixation.png","null","","test","","","","","",""
"270.79999999981374","289442","pSARL_v2","pSARL_v2x24mpxjn","60fcc085e84772374cdbb26d","freq","img/green_2bandit_b2.png","70","70","test","1","185","185","8","",""
"null","289997","pSARL_v2","pSARL_v2x24mpxjn","60fcc085e84772374cdbb26d","freq_resp","img/green_2bandit_b.png","70","70","test","","","","8","",""
"null","290170","pSARL_v2","pSARL_v2x24mpxjn","60fcc085e84772374cdbb26d","fixation","img/fixation.png","null","","test","","","","","",""
"280.10000000009313","290471","pSARL_v2","pSARL_v2x24mpxjn","60fcc085e84772374cdbb26d","freq","img/green_2bandit_b2.png","70","70","test","1","186","186","8","",""
"null","291015","pSARL_v2","pSARL_v2x24mpxjn","60fcc085e84772374cdbb26d","freq_resp","img/green_2bandit_b.png","70","70","test","","","","8","",""
"null","291188","pSARL_v2","pSARL_v2x24mpxjn","60fcc085e84772374cdbb26d","fixation","img/fixation.png","null","","test","","","","","",""
"270.60000000009313","291483","pSARL_v2","pSARL_v2x24mpxjn","60fcc085e84772374cdbb26d","freq","img/green_2bandit_b2.png","70","70","test","1","187","187","8","",""
"null","292037","pSARL_v2","pSARL_v2x24mpxjn","60fcc085e84772374cdbb26d","freq_resp","img/green_2bandit_b.png","70","70","test","","","","8","",""
"null","292211","pSARL_v2","pSARL_v2x24mpxjn","60fcc085e84772374cdbb26d","fixation","img/fixation.png","null","","test","","","","","",""
"500.89999999990687","292731","pSARL_v2","pSARL_v2x24mpxjn","60fcc085e84772374cdbb26d","reward","img/slot.png","74","","test","","","","","",""
"null","293506","pSARL_v2","pSARL_v2x24mpxjn","60fcc085e84772374cdbb26d","points","<div class=""verylowPoints""> -4 </div>","null","na","test","","","","8","-4","7"
"576","294105","pSARL_v2","pSARL_v2x24mpxjn","60fcc085e84772374cdbb26d","freq","img/green_2bandit_b2.png","70","70","test","1","188","188","9","",""
"null","294353","pSARL_v2","pSARL_v2x24mpxjn","60fcc085e84772374cdbb26d","freq_resp","img/green_2bandit_b.png","70","70","test","","","","9","",""
"null","294529","pSARL_v2","pSARL_v2x24mpxjn","60fcc085e84772374cdbb26d","fixation","img/fixation.png","null","","test","","","","","",""
"792.8000000002794","295345","pSARL_v2","pSARL_v2x24mpxjn","60fcc085e84772374cdbb26d","freq","img/green_2bandit_b2.png","70","70","test","1","189","189","9","",""
"null","295372","pSARL_v2","pSARL_v2x24mpxjn","60fcc085e84772374cdbb26d","freq_resp","img/green_2bandit_b.png","70","70","test","","","","9","",""
"null","295546","pSARL_v2","pSARL_v2x24mpxjn","60fcc085e84772374cdbb26d","fixation","img/fixation.png","null","","test","","","","","",""
"438.39999999990687","296007","pSARL_v2","pSARL_v2x24mpxjn","60fcc085e84772374cdbb26d","freq","img/green_2bandit_b2.png","70","70","test","1","190","190","9","",""
"null","296396","pSARL_v2","pSARL_v2x24mpxjn","60fcc085e84772374cdbb26d","freq_resp","img/green_2bandit_b.png","70","70","test","","","","9","",""
"null","296570","pSARL_v2","pSARL_v2x24mpxjn","60fcc085e84772374cdbb26d","fixation","img/fixation.png","null","","test","","","","","",""
"700.7999999998137","297294","pSARL_v2","pSARL_v2x24mpxjn","60fcc085e84772374cdbb26d","freq","img/green_2bandit_b2.png","70","70","test","1","191","191","9","",""
"null","297416","pSARL_v2","pSARL_v2x24mpxjn","60fcc085e84772374cdbb26d","freq_resp","img/green_2bandit_b.png","70","70","test","","","","9","",""
"null","297590","pSARL_v2","pSARL_v2x24mpxjn","60fcc085e84772374cdbb26d","fixation","img/fixation.png","null","","test","","","","","",""
"442.89999999990687","298056","pSARL_v2","pSARL_v2x24mpxjn","60fcc085e84772374cdbb26d","freq","img/green_2bandit_b2.png","70","70","test","1","192","192","9","",""
"null","298435","pSARL_v2","pSARL_v2x24mpxjn","60fcc085e84772374cdbb26d","freq_resp","img/green_2bandit_b.png","70","70","test","","","","9","",""
"null","298609","pSARL_v2","pSARL_v2x24mpxjn","60fcc085e84772374cdbb26d","fixation","img/fixation.png","null","","test","","","","","",""
"206.1999999997206","298836","pSARL_v2","pSARL_v2x24mpxjn","60fcc085e84772374cdbb26d","freq","img/green_2bandit_b2.png","70","70","test","1","193","193","9","",""
"null","299454","pSARL_v2","pSARL_v2x24mpxjn","60fcc085e84772374cdbb26d","freq_resp","img/green_2bandit_b.png","70","70","test","","","","9","",""
"null","299629","pSARL_v2","pSARL_v2x24mpxjn","60fcc085e84772374cdbb26d","fixation","img/fixation.png","null","","test","","","","","",""
"237.90000000037253","299890","pSARL_v2","pSARL_v2x24mpxjn","60fcc085e84772374cdbb26d","freq","img/green_2bandit_b2.png","70","70","test","1","194","194","9","",""
"null","300476","pSARL_v2","pSARL_v2x24mpxjn","60fcc085e84772374cdbb26d","freq_resp","img/green_2bandit_b.png","70","70","test","","","","9","",""
"null","300647","pSARL_v2","pSARL_v2x24mpxjn","60fcc085e84772374cdbb26d","fixation","img/fixation.png","null","","test","","","","","",""
"328.70000000018626","300998","pSARL_v2","pSARL_v2x24mpxjn","60fcc085e84772374cdbb26d","freq","img/green_2bandit_b2.png","70","70","test","1","195","195","9","",""
"null","301493","pSARL_v2","pSARL_v2x24mpxjn","60fcc085e84772374cdbb26d","freq_resp","img/green_2bandit_b.png","70","70","test","","","","9","",""
"null","301666","pSARL_v2","pSARL_v2x24mpxjn","60fcc085e84772374cdbb26d","fixation","img/fixation.png","null","","test","","","","","",""
"396","302088","pSARL_v2","pSARL_v2x24mpxjn","60fcc085e84772374cdbb26d","freq","img/green_2bandit_b2.png","70","70","test","1","196","196","9","",""
"null","302517","pSARL_v2","pSARL_v2x24mpxjn","60fcc085e84772374cdbb26d","freq_resp","img/green_2bandit_b.png","70","70","test","","","","9","",""
"null","302691","pSARL_v2","pSARL_v2x24mpxjn","60fcc085e84772374cdbb26d","fixation","img/fixation.png","null","","test","","","","","",""
"560.2000000001863","303273","pSARL_v2","pSARL_v2x24mpxjn","60fcc085e84772374cdbb26d","freq","img/green_2bandit_b2.png","70","70","test","1","197","197","9","",""
"null","303536","pSARL_v2","pSARL_v2x24mpxjn","60fcc085e84772374cdbb26d","freq_resp","img/green_2bandit_b.png","70","70","test","","","","9","",""
"null","303711","pSARL_v2","pSARL_v2x24mpxjn","60fcc085e84772374cdbb26d","fixation","img/fixation.png","null","","test","","","","","",""
"363.19999999925494","304096","pSARL_v2","pSARL_v2x24mpxjn","60fcc085e84772374cdbb26d","freq","img/green_2bandit_b2.png","70","70","test","1","198","198","9","",""
"null","304557","pSARL_v2","pSARL_v2x24mpxjn","60fcc085e84772374cdbb26d","freq_resp","img/green_2bandit_b.png","70","70","test","","","","9","",""
"null","304729","pSARL_v2","pSARL_v2x24mpxjn","60fcc085e84772374cdbb26d","fixation","img/fixation.png","null","","test","","","","","",""
"624.2999999998137","305376","pSARL_v2","pSARL_v2x24mpxjn","60fcc085e84772374cdbb26d","infreq","img/orange_2bandit_b2.png","68","68","test","1","199","199","9","",""
"null","305575","pSARL_v2","pSARL_v2x24mpxjn","60fcc085e84772374cdbb26d","infreq_resp","img/orange_2bandit_b.png","68","68","test","","","","9","",""
"null","305750","pSARL_v2","pSARL_v2x24mpxjn","60fcc085e84772374cdbb26d","fixation","img/fixation.png","null","","test","","","","","",""
"null","306577","pSARL_v2","pSARL_v2x24mpxjn","60fcc085e84772374cdbb26d","freq","img/green_2bandit_b2.png","null","70","test","0","200","200","9","",""
"null","306752","pSARL_v2","pSARL_v2x24mpxjn","60fcc085e84772374cdbb26d","fixation","img/fixation.png","null","","test","","","","","",""
"625.7000000001863","307402","pSARL_v2","pSARL_v2x24mpxjn","60fcc085e84772374cdbb26d","freq","img/green_2bandit_b2.png","70","70","test","1","201","201","9","",""
"null","307602","pSARL_v2","pSARL_v2x24mpxjn","60fcc085e84772374cdbb26d","freq_resp","img/green_2bandit_b.png","70","70","test","","","","9","",""
"null","307776","pSARL_v2","pSARL_v2x24mpxjn","60fcc085e84772374cdbb26d","fixation","img/fixation.png","null","","test","","","","","",""
"null","308601","pSARL_v2","pSARL_v2x24mpxjn","60fcc085e84772374cdbb26d","freq","img/green_2bandit_b2.png","null","70","test","0","202","202","9","",""
"null","308774","pSARL_v2","pSARL_v2x24mpxjn","60fcc085e84772374cdbb26d","fixation","img/fixation.png","null","","test","","","","","",""
"135.40000000037253","308934","pSARL_v2","pSARL_v2x24mpxjn","60fcc085e84772374cdbb26d","freq","img/green_2bandit_b2.png","70","70","test","1","203","203","9","",""
"null","309622","pSARL_v2","pSARL_v2x24mpxjn","60fcc085e84772374cdbb26d","freq_resp","img/green_2bandit_b.png","70","70","test","","","","9","",""
"null","309798","pSARL_v2","pSARL_v2x24mpxjn","60fcc085e84772374cdbb26d","fixation","img/fixation.png","null","","test","","","","","",""
"null","310623","pSARL_v2","pSARL_v2x24mpxjn","60fcc085e84772374cdbb26d","freq","img/green_2bandit_b2.png","null","70","test","0","204","204","9","",""
"null","310797","pSARL_v2","pSARL_v2x24mpxjn","60fcc085e84772374cdbb26d","fixation","img/fixation.png","null","","test","","","","","",""
"268.59999999962747","311088","pSARL_v2","pSARL_v2x24mpxjn","60fcc085e84772374cdbb26d","infreq","img/orange_2bandit_b2.png","70","68","test","0","205","205","9","",""
"null","311645","pSARL_v2","pSARL_v2x24mpxjn","60fcc085e84772374cdbb26d","infreq_resp","img/orange_2bandit_b.png","70","68","test","","","","9","",""
"null","311818","pSARL_v2","pSARL_v2x24mpxjn","60fcc085e84772374cdbb26d","fixation","img/fixation.png","null","","test","","","","","",""
"423.40000000037253","312264","pSARL_v2","pSARL_v2x24mpxjn","60fcc085e84772374cdbb26d","freq","img/green_2bandit_b2.png","70","70","test","1","206","206","9","",""
"null","312667","pSARL_v2","pSARL_v2x24mpxjn","60fcc085e84772374cdbb26d","freq_resp","img/green_2bandit_b.png","70","70","test","","","","9","",""
"null","312842","pSARL_v2","pSARL_v2x24mpxjn","60fcc085e84772374cdbb26d","fixation","img/fixation.png","null","","test","","","","","",""
"232.79999999981374","313098","pSARL_v2","pSARL_v2x24mpxjn","60fcc085e84772374cdbb26d","freq","img/green_2bandit_b2.png","70","70","test","1","207","207","9","",""
"null","313689","pSARL_v2","pSARL_v2x24mpxjn","60fcc085e84772374cdbb26d","freq_resp","img/green_2bandit_b.png","70","70","test","","","","9","",""
"null","313861","pSARL_v2","pSARL_v2x24mpxjn","60fcc085e84772374cdbb26d","fixation","img/fixation.png","null","","test","","","","","",""
"117.20000000018626","314001","pSARL_v2","pSARL_v2x24mpxjn","60fcc085e84772374cdbb26d","freq","img/green_2bandit_b2.png","70","70","test","1","208","208","9","",""
"null","314702","pSARL_v2","pSARL_v2x24mpxjn","60fcc085e84772374cdbb26d","freq_resp","img/green_2bandit_b.png","70","70","test","","","","9","",""
"null","314872","pSARL_v2","pSARL_v2x24mpxjn","60fcc085e84772374cdbb26d","fixation","img/fixation.png","null","","test","","","","","",""
"272.70000000018626","315168","pSARL_v2","pSARL_v2x24mpxjn","60fcc085e84772374cdbb26d","freq","img/green_2bandit_b2.png","70","70","test","1","209","209","9","",""
"null","315717","pSARL_v2","pSARL_v2x24mpxjn","60fcc085e84772374cdbb26d","freq_resp","img/green_2bandit_b.png","70","70","test","","","","9","",""
"null","315890","pSARL_v2","pSARL_v2x24mpxjn","60fcc085e84772374cdbb26d","fixation","img/fixation.png","null","","test","","","","","",""
"505.90000000037253","316415","pSARL_v2","pSARL_v2x24mpxjn","60fcc085e84772374cdbb26d","reward","img/slot.png","74","","test","","","","","",""
"null","317189","pSARL_v2","pSARL_v2x24mpxjn","60fcc085e84772374cdbb26d","points","<div class=""verylowPoints""> -3 </div>","null","na","test","","","","9","-3","8"
"374.40000000037253","317586","pSARL_v2","pSARL_v2x24mpxjn","60fcc085e84772374cdbb26d","freq","img/green_2bandit_b2.png","70","70","test","1","210","210","10","",""
"null","318038","pSARL_v2","pSARL_v2x24mpxjn","60fcc085e84772374cdbb26d","freq_resp","img/green_2bandit_b.png","70","70","test","","","","10","",""
"null","318210","pSARL_v2","pSARL_v2x24mpxjn","60fcc085e84772374cdbb26d","fixation","img/fixation.png","null","","test","","","","","",""
"239.29999999981374","318474","pSARL_v2","pSARL_v2x24mpxjn","60fcc085e84772374cdbb26d","freq","img/green_2bandit_b2.png","70","70","test","1","211","211","10","",""
"null","319056","pSARL_v2","pSARL_v2x24mpxjn","60fcc085e84772374cdbb26d","freq_resp","img/green_2bandit_b.png","70","70","test","","","","10","",""
"null","319231","pSARL_v2","pSARL_v2x24mpxjn","60fcc085e84772374cdbb26d","fixation","img/fixation.png","null","","test","","","","","",""
