"rt","time_elapsed","expId","subject","prolificID","trialType","stimulus","key_press","corrresp","phase","corr","trialNum","attentionRunNum","blockNum","points","rlNum"
"3102.7000000476837","3107","pSARL_v2","pSARL_v2aj21gler","612e91f6654fd2227289c863","","","","","","","","","","",""
"","6088","pSARL_v2","pSARL_v2aj21gler","612e91f6654fd2227289c863","fullscreen","","","","","","","","","",""
"48742.60000014305","54833","pSARL_v2","pSARL_v2aj21gler","612e91f6654fd2227289c863","","","","","","","","","","",""
"null","55648","pSARL_v2","pSARL_v2aj21gler","612e91f6654fd2227289c863","freqPrac","img/orange_2bandit_a2.png","null","70","prac","0","","","","",""
"null","56662","pSARL_v2","pSARL_v2aj21gler","612e91f6654fd2227289c863","feedback","img/tooSlow.png","null","na","prac","","","","","",""
"null","56833","pSARL_v2","pSARL_v2aj21gler","612e91f6654fd2227289c863","fixation","img/fixation.png","null","","prac","","","","","",""
"439","57275","pSARL_v2","pSARL_v2aj21gler","612e91f6654fd2227289c863","infreqPrac","img/green_2bandit_a2.png","68","68","prac","1","","","","",""
"439","57639","pSARL_v2","pSARL_v2aj21gler","612e91f6654fd2227289c863","infreqPrac_resp","img/green_2bandit_a.png","68","68","prac","","","","","",""
"null","57795","pSARL_v2","pSARL_v2aj21gler","612e91f6654fd2227289c863","fixation","img/fixation.png","null","","prac","","","","","",""
"484.7999999523163","58282","pSARL_v2","pSARL_v2aj21gler","612e91f6654fd2227289c863","freqPrac","img/orange_2bandit_a2.png","70","70","prac","1","","","","",""
"484.7999999523163","58611","pSARL_v2","pSARL_v2aj21gler","612e91f6654fd2227289c863","freqPrac_resp","img/orange_2bandit_a.png","70","70","prac","","","","","",""
"null","58768","pSARL_v2","pSARL_v2aj21gler","612e91f6654fd2227289c863","fixation","img/fixation.png","null","","prac","","","","","",""
"455.60000014305115","59226","pSARL_v2","pSARL_v2aj21gler","612e91f6654fd2227289c863","infreqPrac","img/green_2bandit_a2.png","68","68","prac","1","","","","",""
"455.60000014305115","59577","pSARL_v2","pSARL_v2aj21gler","612e91f6654fd2227289c863","infreqPrac_resp","img/green_2bandit_a.png","68","68","prac","","","","","",""
"null","59732","pSARL_v2","pSARL_v2aj21gler","612e91f6654fd2227289c863","fixation","img/fixation.png","null","","prac","","","","","",""
"420.2000000476837","60157","pSARL_v2","pSARL_v2aj21gler","612e91f6654fd2227289c863","infreqPrac","img/green_2bandit_a2.png","68","68","prac","1","","","","",""
"420.2000000476837","60550","pSARL_v2","pSARL_v2aj21gler","612e91f6654fd2227289c863","infreqPrac_resp","img/green_2bandit_a.png","68","68","prac","","","","","",""
"null","60705","pSARL_v2","pSARL_v2aj21gler","612e91f6654fd2227289c863","fixation","img/fixation.png","null","","prac","","","","","",""
"325.69999980926514","61033","pSARL_v2","pSARL_v2aj21gler","612e91f6654fd2227289c863","infreqPrac","img/green_2bandit_a2.png","68","68","prac","1","","","","",""
"325.69999980926514","61511","pSARL_v2","pSARL_v2aj21gler","612e91f6654fd2227289c863","infreqPrac_resp","img/green_2bandit_a.png","68","68","prac","","","","","",""
"null","61669","pSARL_v2","pSARL_v2aj21gler","612e91f6654fd2227289c863","fixation","img/fixation.png","null","","prac","","","","","",""
"218.39999985694885","61889","pSARL_v2","pSARL_v2aj21gler","612e91f6654fd2227289c863","freqPrac","img/orange_2bandit_a2.png","68","70","prac","0","","","","",""
"218.39999985694885","62485","pSARL_v2","pSARL_v2aj21gler","612e91f6654fd2227289c863","freqPrac_resp","img/orange_2bandit_a.png","68","70","prac","","","","","",""
"null","63503","pSARL_v2","pSARL_v2aj21gler","612e91f6654fd2227289c863","feedback","img/wrongKey.png","null","na","prac","","","","","",""
"null","63661","pSARL_v2","pSARL_v2aj21gler","612e91f6654fd2227289c863","fixation","img/fixation.png","null","","prac","","","","","",""
"522.3000001907349","64186","pSARL_v2","pSARL_v2aj21gler","612e91f6654fd2227289c863","infreqPrac","img/green_2bandit_a2.png","68","68","prac","1","","","","",""
"522.3000001907349","64476","pSARL_v2","pSARL_v2aj21gler","612e91f6654fd2227289c863","infreqPrac_resp","img/green_2bandit_a.png","68","68","prac","","","","","",""
"null","64633","pSARL_v2","pSARL_v2aj21gler","612e91f6654fd2227289c863","fixation","img/fixation.png","null","","prac","","","","","",""
"358.2000000476837","64993","pSARL_v2","pSARL_v2aj21gler","612e91f6654fd2227289c863","freqPrac","img/orange_2bandit_a2.png","70","70","prac","1","","","","",""
"358.2000000476837","65444","pSARL_v2","pSARL_v2aj21gler","612e91f6654fd2227289c863","freqPrac_resp","img/orange_2bandit_a.png","70","70","prac","","","","","",""
"null","65602","pSARL_v2","pSARL_v2aj21gler","612e91f6654fd2227289c863","fixation","img/fixation.png","null","","prac","","","","","",""
"349.60000014305115","65955","pSARL_v2","pSARL_v2aj21gler","612e91f6654fd2227289c863","freqPrac","img/orange_2bandit_a2.png","70","70","prac","1","","","","",""
"349.60000014305115","66420","pSARL_v2","pSARL_v2aj21gler","612e91f6654fd2227289c863","freqPrac_resp","img/orange_2bandit_a.png","70","70","prac","","","","","",""
"null","66576","pSARL_v2","pSARL_v2aj21gler","612e91f6654fd2227289c863","fixation","img/fixation.png","null","","prac","","","","","",""
"22688.700000047684","89267","pSARL_v2","pSARL_v2aj21gler","612e91f6654fd2227289c863","","","","","prac","","","","","",""
"468.19999980926514","89737","pSARL_v2","pSARL_v2aj21gler","612e91f6654fd2227289c863","rewardPractice","img/slot.png","74","","prac","","","","","",""
"null","90494","pSARL_v2","pSARL_v2aj21gler","612e91f6654fd2227289c863","feedback","<div class=""veryhighPoints""> +15 </div>","null","na","prac","","","","","",""
"null","90661","pSARL_v2","pSARL_v2aj21gler","612e91f6654fd2227289c863","fixation","img/fixation.png","null","","prac","","","","","",""
"2970.2000000476837","93633","pSARL_v2","pSARL_v2aj21gler","612e91f6654fd2227289c863","","","","","prac","","","","","",""
"454.59999990463257","94091","pSARL_v2","pSARL_v2aj21gler","612e91f6654fd2227289c863","freq","img/orange_2bandit_a2.png","70","70","test","1","1","1","1","",""
"null","94444","pSARL_v2","pSARL_v2aj21gler","612e91f6654fd2227289c863","freq_resp","img/orange_2bandit_a.png","70","70","test","","","","1","",""
"null","94600","pSARL_v2","pSARL_v2aj21gler","612e91f6654fd2227289c863","fixation","img/fixation.png","null","","test","","","","","",""
"286.60000014305115","94889","pSARL_v2","pSARL_v2aj21gler","612e91f6654fd2227289c863","freq","img/orange_2bandit_a2.png","70","70","test","1","2","2","1","",""
"null","95416","pSARL_v2","pSARL_v2aj21gler","612e91f6654fd2227289c863","freq_resp","img/orange_2bandit_a.png","70","70","test","","","","1","",""
"null","95584","pSARL_v2","pSARL_v2aj21gler","612e91f6654fd2227289c863","fixation","img/fixation.png","null","","test","","","","","",""
"327.90000009536743","95913","pSARL_v2","pSARL_v2aj21gler","612e91f6654fd2227289c863","freq","img/orange_2bandit_a2.png","70","70","test","1","3","3","1","",""
"null","96397","pSARL_v2","pSARL_v2aj21gler","612e91f6654fd2227289c863","freq_resp","img/orange_2bandit_a.png","70","70","test","","","","1","",""
"null","96551","pSARL_v2","pSARL_v2aj21gler","612e91f6654fd2227289c863","fixation","img/fixation.png","null","","test","","","","","",""
"288.19999980926514","96841","pSARL_v2","pSARL_v2aj21gler","612e91f6654fd2227289c863","freq","img/orange_2bandit_a2.png","70","70","test","1","4","4","1","",""
"null","97361","pSARL_v2","pSARL_v2aj21gler","612e91f6654fd2227289c863","freq_resp","img/orange_2bandit_a.png","70","70","test","","","","1","",""
"null","97518","pSARL_v2","pSARL_v2aj21gler","612e91f6654fd2227289c863","fixation","img/fixation.png","null","","test","","","","","",""
"305.2000000476837","97828","pSARL_v2","pSARL_v2aj21gler","612e91f6654fd2227289c863","freq","img/orange_2bandit_a2.png","70","70","test","1","5","5","1","",""
"null","98328","pSARL_v2","pSARL_v2aj21gler","612e91f6654fd2227289c863","freq_resp","img/orange_2bandit_a.png","70","70","test","","","","1","",""
"null","98483","pSARL_v2","pSARL_v2aj21gler","612e91f6654fd2227289c863","fixation","img/fixation.png","null","","test","","","","","",""
"277.5","98765","pSARL_v2","pSARL_v2aj21gler","612e91f6654fd2227289c863","freq","img/orange_2bandit_a2.png","70","70","test","1","6","6","1","",""
"null","99299","pSARL_v2","pSARL_v2aj21gler","612e91f6654fd2227289c863","freq_resp","img/orange_2bandit_a.png","70","70","test","","","","1","",""
"null","99456","pSARL_v2","pSARL_v2aj21gler","612e91f6654fd2227289c863","fixation","img/fixation.png","null","","test","","","","","",""
"327.39999985694885","99787","pSARL_v2","pSARL_v2aj21gler","612e91f6654fd2227289c863","freq","img/orange_2bandit_a2.png","70","70","test","1","7","7","1","",""
"null","100264","pSARL_v2","pSARL_v2aj21gler","612e91f6654fd2227289c863","freq_resp","img/orange_2bandit_a.png","70","70","test","","","","1","",""
"null","100420","pSARL_v2","pSARL_v2aj21gler","612e91f6654fd2227289c863","fixation","img/fixation.png","null","","test","","","","","",""
"347.59999990463257","100770","pSARL_v2","pSARL_v2aj21gler","612e91f6654fd2227289c863","freq","img/orange_2bandit_a2.png","70","70","test","1","8","8","1","",""
"null","101233","pSARL_v2","pSARL_v2aj21gler","612e91f6654fd2227289c863","freq_resp","img/orange_2bandit_a.png","70","70","test","","","","1","",""
"null","101405","pSARL_v2","pSARL_v2aj21gler","612e91f6654fd2227289c863","fixation","img/fixation.png","null","","test","","","","","",""
"370.59999990463257","101780","pSARL_v2","pSARL_v2aj21gler","612e91f6654fd2227289c863","infreq","img/green_2bandit_a2.png","68","68","test","1","9","9","1","",""
"null","102216","pSARL_v2","pSARL_v2aj21gler","612e91f6654fd2227289c863","infreq_resp","img/green_2bandit_a.png","68","68","test","","","","1","",""
"null","102372","pSARL_v2","pSARL_v2aj21gler","612e91f6654fd2227289c863","fixation","img/fixation.png","null","","test","","","","","",""
"363.5","102739","pSARL_v2","pSARL_v2aj21gler","612e91f6654fd2227289c863","freq","img/orange_2bandit_a2.png","70","70","test","1","10","10","1","",""
"null","103183","pSARL_v2","pSARL_v2aj21gler","612e91f6654fd2227289c863","freq_resp","img/orange_2bandit_a.png","70","70","test","","","","1","",""
"null","103339","pSARL_v2","pSARL_v2aj21gler","612e91f6654fd2227289c863","fixation","img/fixation.png","null","","test","","","","","",""
"316.59999990463257","103657","pSARL_v2","pSARL_v2aj21gler","612e91f6654fd2227289c863","freq","img/orange_2bandit_a2.png","70","70","test","1","11","11","1","",""
"null","104152","pSARL_v2","pSARL_v2aj21gler","612e91f6654fd2227289c863","freq_resp","img/orange_2bandit_a.png","70","70","test","","","","1","",""
"null","104312","pSARL_v2","pSARL_v2aj21gler","612e91f6654fd2227289c863","fixation","img/fixation.png","null","","test","","","","","",""
"375.7000000476837","104691","pSARL_v2","pSARL_v2aj21gler","612e91f6654fd2227289c863","freq","img/orange_2bandit_a2.png","70","70","test","1","12","12","1","",""
"null","105121","pSARL_v2","pSARL_v2aj21gler","612e91f6654fd2227289c863","freq_resp","img/orange_2bandit_a.png","70","70","test","","","","1","",""
"null","105274","pSARL_v2","pSARL_v2aj21gler","612e91f6654fd2227289c863","fixation","img/fixation.png","null","","test","","","","","",""
"341.30000019073486","105618","pSARL_v2","pSARL_v2aj21gler","612e91f6654fd2227289c863","freq","img/orange_2bandit_a2.png","70","70","test","1","13","13","1","",""
"null","106084","pSARL_v2","pSARL_v2aj21gler","612e91f6654fd2227289c863","freq_resp","img/orange_2bandit_a.png","70","70","test","","","","1","",""
"null","106241","pSARL_v2","pSARL_v2aj21gler","612e91f6654fd2227289c863","fixation","img/fixation.png","null","","test","","","","","",""
"326.80000019073486","106572","pSARL_v2","pSARL_v2aj21gler","612e91f6654fd2227289c863","freq","img/orange_2bandit_a2.png","70","70","test","1","14","14","1","",""
"null","107055","pSARL_v2","pSARL_v2aj21gler","612e91f6654fd2227289c863","freq_resp","img/orange_2bandit_a.png","70","70","test","","","","1","",""
"null","107212","pSARL_v2","pSARL_v2aj21gler","612e91f6654fd2227289c863","fixation","img/fixation.png","null","","test","","","","","",""
"306.90000009536743","107524","pSARL_v2","pSARL_v2aj21gler","612e91f6654fd2227289c863","freq","img/orange_2bandit_a2.png","70","70","test","1","15","15","1","",""
"null","108029","pSARL_v2","pSARL_v2aj21gler","612e91f6654fd2227289c863","freq_resp","img/orange_2bandit_a.png","70","70","test","","","","1","",""
"null","108186","pSARL_v2","pSARL_v2aj21gler","612e91f6654fd2227289c863","fixation","img/fixation.png","null","","test","","","","","",""
"292.7000000476837","108482","pSARL_v2","pSARL_v2aj21gler","612e91f6654fd2227289c863","freq","img/orange_2bandit_a2.png","70","70","test","1","16","16","1","",""
"null","108995","pSARL_v2","pSARL_v2aj21gler","612e91f6654fd2227289c863","freq_resp","img/orange_2bandit_a.png","70","70","test","","","","1","",""
"null","109149","pSARL_v2","pSARL_v2aj21gler","612e91f6654fd2227289c863","fixation","img/fixation.png","null","","test","","","","","",""
"362.7000000476837","109516","pSARL_v2","pSARL_v2aj21gler","612e91f6654fd2227289c863","infreq","img/green_2bandit_a2.png","68","68","test","1","17","17","1","",""
"null","109966","pSARL_v2","pSARL_v2aj21gler","612e91f6654fd2227289c863","infreq_resp","img/green_2bandit_a.png","68","68","test","","","","1","",""
"null","110121","pSARL_v2","pSARL_v2aj21gler","612e91f6654fd2227289c863","fixation","img/fixation.png","null","","test","","","","","",""
"350.80000019073486","110474","pSARL_v2","pSARL_v2aj21gler","612e91f6654fd2227289c863","freq","img/orange_2bandit_a2.png","70","70","test","1","18","18","1","",""
"null","110935","pSARL_v2","pSARL_v2aj21gler","612e91f6654fd2227289c863","freq_resp","img/orange_2bandit_a.png","70","70","test","","","","1","",""
"null","111091","pSARL_v2","pSARL_v2aj21gler","612e91f6654fd2227289c863","fixation","img/fixation.png","null","","test","","","","","",""
"355.59999990463257","111449","pSARL_v2","pSARL_v2aj21gler","612e91f6654fd2227289c863","freq","img/orange_2bandit_a2.png","70","70","test","1","19","19","1","",""
"null","111902","pSARL_v2","pSARL_v2aj21gler","612e91f6654fd2227289c863","freq_resp","img/orange_2bandit_a.png","70","70","test","","","","1","",""
"null","112058","pSARL_v2","pSARL_v2aj21gler","612e91f6654fd2227289c863","fixation","img/fixation.png","null","","test","","","","","",""
"526.5","112588","pSARL_v2","pSARL_v2aj21gler","612e91f6654fd2227289c863","reward","img/slot.png","74","","test","","","","","",""
"null","113341","pSARL_v2","pSARL_v2aj21gler","612e91f6654fd2227289c863","points","<div class=""verylowPoints""> -6 </div>","null","na","test","","","","1","-6","0"
"746.2000000476837","114090","pSARL_v2","pSARL_v2aj21gler","612e91f6654fd2227289c863","freq","img/orange_2bandit_a2.png","70","70","test","1","20","20","2","",""
"null","114153","pSARL_v2","pSARL_v2aj21gler","612e91f6654fd2227289c863","freq_resp","img/orange_2bandit_a.png","70","70","test","","","","2","",""
"null","114310","pSARL_v2","pSARL_v2aj21gler","612e91f6654fd2227289c863","fixation","img/fixation.png","null","","test","","","","","",""
"377.2999999523163","114692","pSARL_v2","pSARL_v2aj21gler","612e91f6654fd2227289c863","freq","img/orange_2bandit_a2.png","70","70","test","1","21","21","2","",""
"null","115118","pSARL_v2","pSARL_v2aj21gler","612e91f6654fd2227289c863","freq_resp","img/orange_2bandit_a.png","70","70","test","","","","2","",""
"null","115275","pSARL_v2","pSARL_v2aj21gler","612e91f6654fd2227289c863","fixation","img/fixation.png","null","","test","","","","","",""
"308.89999985694885","115586","pSARL_v2","pSARL_v2aj21gler","612e91f6654fd2227289c863","freq","img/orange_2bandit_a2.png","70","70","test","1","22","22","2","",""
"null","116090","pSARL_v2","pSARL_v2aj21gler","612e91f6654fd2227289c863","freq_resp","img/orange_2bandit_a.png","70","70","test","","","","2","",""
"null","116246","pSARL_v2","pSARL_v2aj21gler","612e91f6654fd2227289c863","fixation","img/fixation.png","null","","test","","","","","",""
"320.60000014305115","116570","pSARL_v2","pSARL_v2aj21gler","612e91f6654fd2227289c863","freq","img/orange_2bandit_a2.png","70","70","test","1","23","23","2","",""
"null","117065","pSARL_v2","pSARL_v2aj21gler","612e91f6654fd2227289c863","freq_resp","img/orange_2bandit_a.png","70","70","test","","","","2","",""
"null","117221","pSARL_v2","pSARL_v2aj21gler","612e91f6654fd2227289c863","fixation","img/fixation.png","null","","test","","","","","",""
"338.40000009536743","117562","pSARL_v2","pSARL_v2aj21gler","612e91f6654fd2227289c863","freq","img/orange_2bandit_a2.png","70","70","test","1","24","24","2","",""
"null","118035","pSARL_v2","pSARL_v2aj21gler","612e91f6654fd2227289c863","freq_resp","img/orange_2bandit_a.png","70","70","test","","","","2","",""
"null","118192","pSARL_v2","pSARL_v2aj21gler","612e91f6654fd2227289c863","fixation","img/fixation.png","null","","test","","","","","",""
"303.40000009536743","118497","pSARL_v2","pSARL_v2aj21gler","612e91f6654fd2227289c863","infreq","img/green_2bandit_a2.png","70","68","test","0","25","25","2","",""
"null","119007","pSARL_v2","pSARL_v2aj21gler","612e91f6654fd2227289c863","infreq_resp","img/green_2bandit_a.png","70","68","test","","","","2","",""
"null","119165","pSARL_v2","pSARL_v2aj21gler","612e91f6654fd2227289c863","fixation","img/fixation.png","null","","test","","","","","",""
"291","119458","pSARL_v2","pSARL_v2aj21gler","612e91f6654fd2227289c863","freq","img/orange_2bandit_a2.png","70","70","test","1","26","26","2","",""
"null","119975","pSARL_v2","pSARL_v2aj21gler","612e91f6654fd2227289c863","freq_resp","img/orange_2bandit_a.png","70","70","test","","","","2","",""
"null","120131","pSARL_v2","pSARL_v2aj21gler","612e91f6654fd2227289c863","fixation","img/fixation.png","null","","test","","","","","",""
"302.10000014305115","120436","pSARL_v2","pSARL_v2aj21gler","612e91f6654fd2227289c863","freq","img/orange_2bandit_a2.png","70","70","test","1","27","27","2","",""
"null","120942","pSARL_v2","pSARL_v2aj21gler","612e91f6654fd2227289c863","freq_resp","img/orange_2bandit_a.png","70","70","test","","","","2","",""
"null","121098","pSARL_v2","pSARL_v2aj21gler","612e91f6654fd2227289c863","fixation","img/fixation.png","null","","test","","","","","",""
"293.2000000476837","121393","pSARL_v2","pSARL_v2aj21gler","612e91f6654fd2227289c863","freq","img/orange_2bandit_a2.png","70","70","test","1","28","28","2","",""
"null","121916","pSARL_v2","pSARL_v2aj21gler","612e91f6654fd2227289c863","freq_resp","img/orange_2bandit_a.png","70","70","test","","","","2","",""
"null","122072","pSARL_v2","pSARL_v2aj21gler","612e91f6654fd2227289c863","fixation","img/fixation.png","null","","test","","","","","",""
"280.09999990463257","122355","pSARL_v2","pSARL_v2aj21gler","612e91f6654fd2227289c863","freq","img/orange_2bandit_a2.png","70","70","test","1","29","29","2","",""
"null","122883","pSARL_v2","pSARL_v2aj21gler","612e91f6654fd2227289c863","freq_resp","img/orange_2bandit_a.png","70","70","test","","","","2","",""
"null","123040","pSARL_v2","pSARL_v2aj21gler","612e91f6654fd2227289c863","fixation","img/fixation.png","null","","test","","","","","",""
"296.09999990463257","123338","pSARL_v2","pSARL_v2aj21gler","612e91f6654fd2227289c863","freq","img/orange_2bandit_a2.png","70","70","test","1","30","30","2","",""
"null","123857","pSARL_v2","pSARL_v2aj21gler","612e91f6654fd2227289c863","freq_resp","img/orange_2bandit_a.png","70","70","test","","","","2","",""
"null","124016","pSARL_v2","pSARL_v2aj21gler","612e91f6654fd2227289c863","fixation","img/fixation.png","null","","test","","","","","",""
"279","124297","pSARL_v2","pSARL_v2aj21gler","612e91f6654fd2227289c863","freq","img/orange_2bandit_a2.png","70","70","test","1","31","31","2","",""
"null","124831","pSARL_v2","pSARL_v2aj21gler","612e91f6654fd2227289c863","freq_resp","img/orange_2bandit_a.png","70","70","test","","","","2","",""
"null","124987","pSARL_v2","pSARL_v2aj21gler","612e91f6654fd2227289c863","fixation","img/fixation.png","null","","test","","","","","",""
"317.7000000476837","125306","pSARL_v2","pSARL_v2aj21gler","612e91f6654fd2227289c863","freq","img/orange_2bandit_a2.png","70","70","test","1","32","32","2","",""
"null","125804","pSARL_v2","pSARL_v2aj21gler","612e91f6654fd2227289c863","freq_resp","img/orange_2bandit_a.png","70","70","test","","","","2","",""
"null","125960","pSARL_v2","pSARL_v2aj21gler","612e91f6654fd2227289c863","fixation","img/fixation.png","null","","test","","","","","",""
"279.60000014305115","126242","pSARL_v2","pSARL_v2aj21gler","612e91f6654fd2227289c863","freq","img/orange_2bandit_a2.png","70","70","test","1","33","33","2","",""
"null","126779","pSARL_v2","pSARL_v2aj21gler","612e91f6654fd2227289c863","freq_resp","img/orange_2bandit_a.png","70","70","test","","","","2","",""
"null","126936","pSARL_v2","pSARL_v2aj21gler","612e91f6654fd2227289c863","fixation","img/fixation.png","null","","test","","","","","",""
"304.5","127244","pSARL_v2","pSARL_v2aj21gler","612e91f6654fd2227289c863","freq","img/orange_2bandit_a2.png","70","70","test","1","34","34","2","",""
"null","127750","pSARL_v2","pSARL_v2aj21gler","612e91f6654fd2227289c863","freq_resp","img/orange_2bandit_a.png","70","70","test","","","","2","",""
"null","127906","pSARL_v2","pSARL_v2aj21gler","612e91f6654fd2227289c863","fixation","img/fixation.png","null","","test","","","","","",""
"286.59999990463257","128195","pSARL_v2","pSARL_v2aj21gler","612e91f6654fd2227289c863","freq","img/orange_2bandit_a2.png","70","70","test","1","35","35","2","",""
"null","128725","pSARL_v2","pSARL_v2aj21gler","612e91f6654fd2227289c863","freq_resp","img/orange_2bandit_a.png","70","70","test","","","","2","",""
"null","128881","pSARL_v2","pSARL_v2aj21gler","612e91f6654fd2227289c863","fixation","img/fixation.png","null","","test","","","","","",""
"278.40000009536743","129161","pSARL_v2","pSARL_v2aj21gler","612e91f6654fd2227289c863","freq","img/orange_2bandit_a2.png","70","70","test","1","36","36","2","",""
"null","129691","pSARL_v2","pSARL_v2aj21gler","612e91f6654fd2227289c863","freq_resp","img/orange_2bandit_a.png","70","70","test","","","","2","",""
"null","129848","pSARL_v2","pSARL_v2aj21gler","612e91f6654fd2227289c863","fixation","img/fixation.png","null","","test","","","","","",""
"320.2999999523163","130170","pSARL_v2","pSARL_v2aj21gler","612e91f6654fd2227289c863","freq","img/orange_2bandit_a2.png","70","70","test","1","37","37","2","",""
"null","130662","pSARL_v2","pSARL_v2aj21gler","612e91f6654fd2227289c863","freq_resp","img/orange_2bandit_a.png","70","70","test","","","","2","",""
"null","130817","pSARL_v2","pSARL_v2aj21gler","612e91f6654fd2227289c863","fixation","img/fixation.png","null","","test","","","","","",""
"415.59999990463257","131237","pSARL_v2","pSARL_v2aj21gler","612e91f6654fd2227289c863","infreq","img/green_2bandit_a2.png","68","68","test","1","38","38","2","",""
"null","131635","pSARL_v2","pSARL_v2aj21gler","612e91f6654fd2227289c863","infreq_resp","img/green_2bandit_a.png","68","68","test","","","","2","",""
"null","131792","pSARL_v2","pSARL_v2aj21gler","612e91f6654fd2227289c863","fixation","img/fixation.png","null","","test","","","","","",""
"311.7000000476837","132106","pSARL_v2","pSARL_v2aj21gler","612e91f6654fd2227289c863","freq","img/orange_2bandit_a2.png","70","70","test","1","39","39","2","",""
"null","132601","pSARL_v2","pSARL_v2aj21gler","612e91f6654fd2227289c863","freq_resp","img/orange_2bandit_a.png","70","70","test","","","","2","",""
"null","132757","pSARL_v2","pSARL_v2aj21gler","612e91f6654fd2227289c863","fixation","img/fixation.png","null","","test","","","","","",""
"523","133283","pSARL_v2","pSARL_v2aj21gler","612e91f6654fd2227289c863","freq","img/orange_2bandit_a2.png","70","70","test","1","40","40","2","",""
"null","133567","pSARL_v2","pSARL_v2aj21gler","612e91f6654fd2227289c863","freq_resp","img/orange_2bandit_a.png","70","70","test","","","","2","",""
"null","133724","pSARL_v2","pSARL_v2aj21gler","612e91f6654fd2227289c863","fixation","img/fixation.png","null","","test","","","","","",""
"596.6000001430511","134324","pSARL_v2","pSARL_v2aj21gler","612e91f6654fd2227289c863","reward","img/slot.png","74","","test","","","","","",""
"null","135079","pSARL_v2","pSARL_v2aj21gler","612e91f6654fd2227289c863","points","<div class=""verylowPoints""> -11 </div>","null","na","test","","","","2","-11","1"
"584.7000000476837","135665","pSARL_v2","pSARL_v2aj21gler","612e91f6654fd2227289c863","freq","img/orange_2bandit_a2.png","70","70","test","1","41","41","3","",""
"null","135893","pSARL_v2","pSARL_v2aj21gler","612e91f6654fd2227289c863","freq_resp","img/orange_2bandit_a.png","70","70","test","","","","3","",""
"null","136049","pSARL_v2","pSARL_v2aj21gler","612e91f6654fd2227289c863","fixation","img/fixation.png","null","","test","","","","","",""
"350.60000014305115","136402","pSARL_v2","pSARL_v2aj21gler","612e91f6654fd2227289c863","freq","img/orange_2bandit_a2.png","70","70","test","1","42","42","3","",""
"null","136861","pSARL_v2","pSARL_v2aj21gler","612e91f6654fd2227289c863","freq_resp","img/orange_2bandit_a.png","70","70","test","","","","3","",""
"null","137017","pSARL_v2","pSARL_v2aj21gler","612e91f6654fd2227289c863","fixation","img/fixation.png","null","","test","","","","","",""
"398.89999985694885","137419","pSARL_v2","pSARL_v2aj21gler","612e91f6654fd2227289c863","freq","img/orange_2bandit_a2.png","70","70","test","1","43","43","3","",""
"null","137832","pSARL_v2","pSARL_v2aj21gler","612e91f6654fd2227289c863","freq_resp","img/orange_2bandit_a.png","70","70","test","","","","3","",""
"null","137986","pSARL_v2","pSARL_v2aj21gler","612e91f6654fd2227289c863","fixation","img/fixation.png","null","","test","","","","","",""
"342.2999999523163","138330","pSARL_v2","pSARL_v2aj21gler","612e91f6654fd2227289c863","freq","img/orange_2bandit_a2.png","70","70","test","1","44","44","3","",""
"null","138799","pSARL_v2","pSARL_v2aj21gler","612e91f6654fd2227289c863","freq_resp","img/orange_2bandit_a.png","70","70","test","","","","3","",""
"null","138957","pSARL_v2","pSARL_v2aj21gler","612e91f6654fd2227289c863","fixation","img/fixation.png","null","","test","","","","","",""
"442.7999999523163","139402","pSARL_v2","pSARL_v2aj21gler","612e91f6654fd2227289c863","infreq","img/green_2bandit_a2.png","68","68","test","1","45","45","3","",""
"null","139768","pSARL_v2","pSARL_v2aj21gler","612e91f6654fd2227289c863","infreq_resp","img/green_2bandit_a.png","68","68","test","","","","3","",""
"null","139923","pSARL_v2","pSARL_v2aj21gler","612e91f6654fd2227289c863","fixation","img/fixation.png","null","","test","","","","","",""
"381.19999980926514","140306","pSARL_v2","pSARL_v2aj21gler","612e91f6654fd2227289c863","freq","img/orange_2bandit_a2.png","70","70","test","1","46","46","3","",""
"null","140739","pSARL_v2","pSARL_v2aj21gler","612e91f6654fd2227289c863","freq_resp","img/orange_2bandit_a.png","70","70","test","","","","3","",""
"null","140896","pSARL_v2","pSARL_v2aj21gler","612e91f6654fd2227289c863","fixation","img/fixation.png","null","","test","","","","","",""
"408.2000000476837","141310","pSARL_v2","pSARL_v2aj21gler","612e91f6654fd2227289c863","freq","img/orange_2bandit_a2.png","70","70","test","1","47","47","3","",""
"null","141707","pSARL_v2","pSARL_v2aj21gler","612e91f6654fd2227289c863","freq_resp","img/orange_2bandit_a.png","70","70","test","","","","3","",""
"null","141863","pSARL_v2","pSARL_v2aj21gler","612e91f6654fd2227289c863","fixation","img/fixation.png","null","","test","","","","","",""
"304.7999999523163","142169","pSARL_v2","pSARL_v2aj21gler","612e91f6654fd2227289c863","freq","img/orange_2bandit_a2.png","70","70","test","1","48","48","3","",""
"null","142681","pSARL_v2","pSARL_v2aj21gler","612e91f6654fd2227289c863","freq_resp","img/orange_2bandit_a.png","70","70","test","","","","3","",""
"null","142838","pSARL_v2","pSARL_v2aj21gler","612e91f6654fd2227289c863","fixation","img/fixation.png","null","","test","","","","","",""
"297.40000009536743","143139","pSARL_v2","pSARL_v2aj21gler","612e91f6654fd2227289c863","freq","img/orange_2bandit_a2.png","70","70","test","1","49","49","3","",""
"null","143655","pSARL_v2","pSARL_v2aj21gler","612e91f6654fd2227289c863","freq_resp","img/orange_2bandit_a.png","70","70","test","","","","3","",""
"null","143811","pSARL_v2","pSARL_v2aj21gler","612e91f6654fd2227289c863","fixation","img/fixation.png","null","","test","","","","","",""
"341.10000014305115","144155","pSARL_v2","pSARL_v2aj21gler","612e91f6654fd2227289c863","infreq","img/green_2bandit_a2.png","68","68","test","1","50","50","3","",""
"null","144628","pSARL_v2","pSARL_v2aj21gler","612e91f6654fd2227289c863","infreq_resp","img/green_2bandit_a.png","68","68","test","","","","3","",""
"null","144785","pSARL_v2","pSARL_v2aj21gler","612e91f6654fd2227289c863","fixation","img/fixation.png","null","","test","","","","","",""
"334.2999999523163","145122","pSARL_v2","pSARL_v2aj21gler","612e91f6654fd2227289c863","freq","img/orange_2bandit_a2.png","70","70","test","1","51","51","3","",""
"null","145599","pSARL_v2","pSARL_v2aj21gler","612e91f6654fd2227289c863","freq_resp","img/orange_2bandit_a.png","70","70","test","","","","3","",""
"null","145757","pSARL_v2","pSARL_v2aj21gler","612e91f6654fd2227289c863","fixation","img/fixation.png","null","","test","","","","","",""
"291.7000000476837","146053","pSARL_v2","pSARL_v2aj21gler","612e91f6654fd2227289c863","freq","img/orange_2bandit_a2.png","70","70","test","1","52","52","3","",""
"null","146575","pSARL_v2","pSARL_v2aj21gler","612e91f6654fd2227289c863","freq_resp","img/orange_2bandit_a.png","70","70","test","","","","3","",""
"null","146731","pSARL_v2","pSARL_v2aj21gler","612e91f6654fd2227289c863","fixation","img/fixation.png","null","","test","","","","","",""
"350.60000014305115","147084","pSARL_v2","pSARL_v2aj21gler","612e91f6654fd2227289c863","freq","img/orange_2bandit_a2.png","70","70","test","1","53","53","3","",""
"null","147549","pSARL_v2","pSARL_v2aj21gler","612e91f6654fd2227289c863","freq_resp","img/orange_2bandit_a.png","70","70","test","","","","3","",""
"null","147707","pSARL_v2","pSARL_v2aj21gler","612e91f6654fd2227289c863","fixation","img/fixation.png","null","","test","","","","","",""
"252.5","147962","pSARL_v2","pSARL_v2aj21gler","612e91f6654fd2227289c863","freq","img/orange_2bandit_a2.png","70","70","test","1","54","54","3","",""
"null","148517","pSARL_v2","pSARL_v2aj21gler","612e91f6654fd2227289c863","freq_resp","img/orange_2bandit_a.png","70","70","test","","","","3","",""
"null","148674","pSARL_v2","pSARL_v2aj21gler","612e91f6654fd2227289c863","fixation","img/fixation.png","null","","test","","","","","",""
"279.2000000476837","148958","pSARL_v2","pSARL_v2aj21gler","612e91f6654fd2227289c863","freq","img/orange_2bandit_a2.png","70","70","test","1","55","55","3","",""
"null","149490","pSARL_v2","pSARL_v2aj21gler","612e91f6654fd2227289c863","freq_resp","img/orange_2bandit_a.png","70","70","test","","","","3","",""
"null","149661","pSARL_v2","pSARL_v2aj21gler","612e91f6654fd2227289c863","fixation","img/fixation.png","null","","test","","","","","",""
"250.59999990463257","149913","pSARL_v2","pSARL_v2aj21gler","612e91f6654fd2227289c863","freq","img/orange_2bandit_a2.png","70","70","test","1","56","56","3","",""
"null","150470","pSARL_v2","pSARL_v2aj21gler","612e91f6654fd2227289c863","freq_resp","img/orange_2bandit_a.png","70","70","test","","","","3","",""
"null","150625","pSARL_v2","pSARL_v2aj21gler","612e91f6654fd2227289c863","fixation","img/fixation.png","null","","test","","","","","",""
"215","150843","pSARL_v2","pSARL_v2aj21gler","612e91f6654fd2227289c863","freq","img/orange_2bandit_a2.png","70","70","test","1","57","57","3","",""
"null","151439","pSARL_v2","pSARL_v2aj21gler","612e91f6654fd2227289c863","freq_resp","img/orange_2bandit_a.png","70","70","test","","","","3","",""
"null","151595","pSARL_v2","pSARL_v2aj21gler","612e91f6654fd2227289c863","fixation","img/fixation.png","null","","test","","","","","",""
"349.5","151948","pSARL_v2","pSARL_v2aj21gler","612e91f6654fd2227289c863","infreq","img/green_2bandit_a2.png","68","68","test","1","58","58","3","",""
"null","152408","pSARL_v2","pSARL_v2aj21gler","612e91f6654fd2227289c863","infreq_resp","img/green_2bandit_a.png","68","68","test","","","","3","",""
"null","152576","pSARL_v2","pSARL_v2aj21gler","612e91f6654fd2227289c863","fixation","img/fixation.png","null","","test","","","","","",""
"327.60000014305115","152906","pSARL_v2","pSARL_v2aj21gler","612e91f6654fd2227289c863","freq","img/orange_2bandit_a2.png","70","70","test","1","59","59","3","",""
"null","153388","pSARL_v2","pSARL_v2aj21gler","612e91f6654fd2227289c863","freq_resp","img/orange_2bandit_a.png","70","70","test","","","","3","",""
"null","153547","pSARL_v2","pSARL_v2aj21gler","612e91f6654fd2227289c863","fixation","img/fixation.png","null","","test","","","","","",""
"341.2000000476837","153892","pSARL_v2","pSARL_v2aj21gler","612e91f6654fd2227289c863","freq","img/orange_2bandit_a2.png","70","70","test","1","60","60","3","",""
"null","154358","pSARL_v2","pSARL_v2aj21gler","612e91f6654fd2227289c863","freq_resp","img/orange_2bandit_a.png","70","70","test","","","","3","",""
"null","154516","pSARL_v2","pSARL_v2aj21gler","612e91f6654fd2227289c863","fixation","img/fixation.png","null","","test","","","","","",""
"380.2999999523163","154900","pSARL_v2","pSARL_v2aj21gler","612e91f6654fd2227289c863","freq","img/orange_2bandit_a2.png","70","70","test","1","61","61","3","",""
"null","155333","pSARL_v2","pSARL_v2aj21gler","612e91f6654fd2227289c863","freq_resp","img/orange_2bandit_a.png","70","70","test","","","","3","",""
"null","155489","pSARL_v2","pSARL_v2aj21gler","612e91f6654fd2227289c863","fixation","img/fixation.png","null","","test","","","","","",""
"383.5","155874","pSARL_v2","pSARL_v2aj21gler","612e91f6654fd2227289c863","freq","img/orange_2bandit_a2.png","70","70","test","1","62","62","3","",""
"null","156307","pSARL_v2","pSARL_v2aj21gler","612e91f6654fd2227289c863","freq_resp","img/orange_2bandit_a.png","70","70","test","","","","3","",""
"null","156463","pSARL_v2","pSARL_v2aj21gler","612e91f6654fd2227289c863","fixation","img/fixation.png","null","","test","","","","","",""
"288.2000000476837","156754","pSARL_v2","pSARL_v2aj21gler","612e91f6654fd2227289c863","freq","img/orange_2bandit_a2.png","70","70","test","1","63","63","3","",""
"null","157275","pSARL_v2","pSARL_v2aj21gler","612e91f6654fd2227289c863","freq_resp","img/orange_2bandit_a.png","70","70","test","","","","3","",""
"null","157433","pSARL_v2","pSARL_v2aj21gler","612e91f6654fd2227289c863","fixation","img/fixation.png","null","","test","","","","","",""
"279.40000009536743","157716","pSARL_v2","pSARL_v2aj21gler","612e91f6654fd2227289c863","freq","img/orange_2bandit_a2.png","70","70","test","1","64","64","3","",""
"null","158250","pSARL_v2","pSARL_v2aj21gler","612e91f6654fd2227289c863","freq_resp","img/orange_2bandit_a.png","70","70","test","","","","3","",""
"null","158418","pSARL_v2","pSARL_v2aj21gler","612e91f6654fd2227289c863","fixation","img/fixation.png","null","","test","","","","","",""
"246.90000009536743","158669","pSARL_v2","pSARL_v2aj21gler","612e91f6654fd2227289c863","freq","img/orange_2bandit_a2.png","70","70","test","1","65","65","3","",""
"null","159231","pSARL_v2","pSARL_v2aj21gler","612e91f6654fd2227289c863","freq_resp","img/orange_2bandit_a.png","70","70","test","","","","3","",""
"null","159388","pSARL_v2","pSARL_v2aj21gler","612e91f6654fd2227289c863","fixation","img/fixation.png","null","","test","","","","","",""
"293","159685","pSARL_v2","pSARL_v2aj21gler","612e91f6654fd2227289c863","freq","img/orange_2bandit_a2.png","70","70","test","1","66","66","3","",""
"null","160200","pSARL_v2","pSARL_v2aj21gler","612e91f6654fd2227289c863","freq_resp","img/orange_2bandit_a.png","70","70","test","","","","3","",""
"null","160357","pSARL_v2","pSARL_v2aj21gler","612e91f6654fd2227289c863","fixation","img/fixation.png","null","","test","","","","","",""
"555.7999999523163","160917","pSARL_v2","pSARL_v2aj21gler","612e91f6654fd2227289c863","reward","img/slot.png","74","","test","","","","","",""
"null","161683","pSARL_v2","pSARL_v2aj21gler","612e91f6654fd2227289c863","points","<div class=""verylowPoints""> -7 </div>","null","na","test","","","","3","-7","2"
"444.7000000476837","162129","pSARL_v2","pSARL_v2aj21gler","612e91f6654fd2227289c863","freq","img/orange_2bandit_a2.png","70","70","test","1","67","67","4","",""
"null","162501","pSARL_v2","pSARL_v2aj21gler","612e91f6654fd2227289c863","freq_resp","img/orange_2bandit_a.png","70","70","test","","","","4","",""
"null","162658","pSARL_v2","pSARL_v2aj21gler","612e91f6654fd2227289c863","fixation","img/fixation.png","null","","test","","","","","",""
"341.69999980926514","163001","pSARL_v2","pSARL_v2aj21gler","612e91f6654fd2227289c863","freq","img/orange_2bandit_a2.png","70","70","test","1","68","68","4","",""
"null","163472","pSARL_v2","pSARL_v2aj21gler","612e91f6654fd2227289c863","freq_resp","img/orange_2bandit_a.png","70","70","test","","","","4","",""
"null","163627","pSARL_v2","pSARL_v2aj21gler","612e91f6654fd2227289c863","fixation","img/fixation.png","null","","test","","","","","",""
"341.60000014305115","163972","pSARL_v2","pSARL_v2aj21gler","612e91f6654fd2227289c863","freq","img/orange_2bandit_a2.png","70","70","test","1","69","69","4","",""
"null","164444","pSARL_v2","pSARL_v2aj21gler","612e91f6654fd2227289c863","freq_resp","img/orange_2bandit_a.png","70","70","test","","","","4","",""
"null","164600","pSARL_v2","pSARL_v2aj21gler","612e91f6654fd2227289c863","fixation","img/fixation.png","null","","test","","","","","",""
"271.40000009536743","164874","pSARL_v2","pSARL_v2aj21gler","612e91f6654fd2227289c863","freq","img/orange_2bandit_a2.png","70","70","test","1","70","70","4","",""
"null","165414","pSARL_v2","pSARL_v2aj21gler","612e91f6654fd2227289c863","freq_resp","img/orange_2bandit_a.png","70","70","test","","","","4","",""
"null","165569","pSARL_v2","pSARL_v2aj21gler","612e91f6654fd2227289c863","fixation","img/fixation.png","null","","test","","","","","",""
"239.29999995231628","165810","pSARL_v2","pSARL_v2aj21gler","612e91f6654fd2227289c863","freq","img/orange_2bandit_a2.png","70","70","test","1","71","71","4","",""
"null","166383","pSARL_v2","pSARL_v2aj21gler","612e91f6654fd2227289c863","freq_resp","img/orange_2bandit_a.png","70","70","test","","","","4","",""
"null","166538","pSARL_v2","pSARL_v2aj21gler","612e91f6654fd2227289c863","fixation","img/fixation.png","null","","test","","","","","",""
"278","166817","pSARL_v2","pSARL_v2aj21gler","612e91f6654fd2227289c863","freq","img/orange_2bandit_a2.png","70","70","test","1","72","72","4","",""
"null","167356","pSARL_v2","pSARL_v2aj21gler","612e91f6654fd2227289c863","freq_resp","img/orange_2bandit_a.png","70","70","test","","","","4","",""
"null","167512","pSARL_v2","pSARL_v2aj21gler","612e91f6654fd2227289c863","fixation","img/fixation.png","null","","test","","","","","",""
"248","167762","pSARL_v2","pSARL_v2aj21gler","612e91f6654fd2227289c863","freq","img/orange_2bandit_a2.png","70","70","test","1","73","73","4","",""
"null","168323","pSARL_v2","pSARL_v2aj21gler","612e91f6654fd2227289c863","freq_resp","img/orange_2bandit_a.png","70","70","test","","","","4","",""
"null","168493","pSARL_v2","pSARL_v2aj21gler","612e91f6654fd2227289c863","fixation","img/fixation.png","null","","test","","","","","",""
"235.90000009536743","168732","pSARL_v2","pSARL_v2aj21gler","612e91f6654fd2227289c863","freq","img/orange_2bandit_a2.png","70","70","test","1","74","74","4","",""
"null","169305","pSARL_v2","pSARL_v2aj21gler","612e91f6654fd2227289c863","freq_resp","img/orange_2bandit_a.png","70","70","test","","","","4","",""
"null","169462","pSARL_v2","pSARL_v2aj21gler","612e91f6654fd2227289c863","fixation","img/fixation.png","null","","test","","","","","",""
"289.7000000476837","169754","pSARL_v2","pSARL_v2aj21gler","612e91f6654fd2227289c863","freq","img/orange_2bandit_a2.png","70","70","test","1","75","75","4","",""
"null","170273","pSARL_v2","pSARL_v2aj21gler","612e91f6654fd2227289c863","freq_resp","img/orange_2bandit_a.png","70","70","test","","","","4","",""
"null","170443","pSARL_v2","pSARL_v2aj21gler","612e91f6654fd2227289c863","fixation","img/fixation.png","null","","test","","","","","",""
"284.59999990463257","170730","pSARL_v2","pSARL_v2aj21gler","612e91f6654fd2227289c863","infreq","img/green_2bandit_a2.png","70","68","test","0","76","76","4","",""
"null","171258","pSARL_v2","pSARL_v2aj21gler","612e91f6654fd2227289c863","infreq_resp","img/green_2bandit_a.png","70","68","test","","","","4","",""
"null","171415","pSARL_v2","pSARL_v2aj21gler","612e91f6654fd2227289c863","fixation","img/fixation.png","null","","test","","","","","",""
"312.2999999523163","171729","pSARL_v2","pSARL_v2aj21gler","612e91f6654fd2227289c863","freq","img/orange_2bandit_a2.png","70","70","test","1","77","77","4","",""
"null","172234","pSARL_v2","pSARL_v2aj21gler","612e91f6654fd2227289c863","freq_resp","img/orange_2bandit_a.png","70","70","test","","","","4","",""
"null","172388","pSARL_v2","pSARL_v2aj21gler","612e91f6654fd2227289c863","fixation","img/fixation.png","null","","test","","","","","",""
"292.09999990463257","172682","pSARL_v2","pSARL_v2aj21gler","612e91f6654fd2227289c863","freq","img/orange_2bandit_a2.png","70","70","test","1","78","78","4","",""
"null","173208","pSARL_v2","pSARL_v2aj21gler","612e91f6654fd2227289c863","freq_resp","img/orange_2bandit_a.png","70","70","test","","","","4","",""
"null","173375","pSARL_v2","pSARL_v2aj21gler","612e91f6654fd2227289c863","fixation","img/fixation.png","null","","test","","","","","",""
"224.29999995231628","173601","pSARL_v2","pSARL_v2aj21gler","612e91f6654fd2227289c863","freq","img/orange_2bandit_a2.png","70","70","test","1","79","79","4","",""
"null","174191","pSARL_v2","pSARL_v2aj21gler","612e91f6654fd2227289c863","freq_resp","img/orange_2bandit_a.png","70","70","test","","","","4","",""
"null","174348","pSARL_v2","pSARL_v2aj21gler","612e91f6654fd2227289c863","fixation","img/fixation.png","null","","test","","","","","",""
"212.60000014305115","174562","pSARL_v2","pSARL_v2aj21gler","612e91f6654fd2227289c863","freq","img/orange_2bandit_a2.png","70","70","test","1","80","80","4","",""
"null","175157","pSARL_v2","pSARL_v2aj21gler","612e91f6654fd2227289c863","freq_resp","img/orange_2bandit_a.png","70","70","test","","","","4","",""
"null","175312","pSARL_v2","pSARL_v2aj21gler","612e91f6654fd2227289c863","fixation","img/fixation.png","null","","test","","","","","",""
"256.7999999523163","175572","pSARL_v2","pSARL_v2aj21gler","612e91f6654fd2227289c863","freq","img/orange_2bandit_a2.png","70","70","test","1","81","81","4","",""
"null","176128","pSARL_v2","pSARL_v2aj21gler","612e91f6654fd2227289c863","freq_resp","img/orange_2bandit_a.png","70","70","test","","","","4","",""
"null","176285","pSARL_v2","pSARL_v2aj21gler","612e91f6654fd2227289c863","fixation","img/fixation.png","null","","test","","","","","",""
"266.09999990463257","176554","pSARL_v2","pSARL_v2aj21gler","612e91f6654fd2227289c863","freq","img/orange_2bandit_a2.png","70","70","test","1","82","82","4","",""
"null","177097","pSARL_v2","pSARL_v2aj21gler","612e91f6654fd2227289c863","freq_resp","img/orange_2bandit_a.png","70","70","test","","","","4","",""
"null","177255","pSARL_v2","pSARL_v2aj21gler","612e91f6654fd2227289c863","fixation","img/fixation.png","null","","test","","","","","",""
"321.90000009536743","177580","pSARL_v2","pSARL_v2aj21gler","612e91f6654fd2227289c863","freq","img/orange_2bandit_a2.png","70","70","test","1","83","83","4","",""
"null","178066","pSARL_v2","pSARL_v2aj21gler","612e91f6654fd2227289c863","freq_resp","img/orange_2bandit_a.png","70","70","test","","","","4","",""
"null","178222","pSARL_v2","pSARL_v2aj21gler","612e91f6654fd2227289c863","fixation","img/fixation.png","null","","test","","","","","",""
"305.89999985694885","178534","pSARL_v2","pSARL_v2aj21gler","612e91f6654fd2227289c863","freq","img/orange_2bandit_a2.png","70","70","test","1","84","84","4","",""
"null","179031","pSARL_v2","pSARL_v2aj21gler","612e91f6654fd2227289c863","freq_resp","img/orange_2bandit_a.png","70","70","test","","","","4","",""
"null","179186","pSARL_v2","pSARL_v2aj21gler","612e91f6654fd2227289c863","fixation","img/fixation.png","null","","test","","","","","",""
"367.39999985694885","179557","pSARL_v2","pSARL_v2aj21gler","612e91f6654fd2227289c863","freq","img/orange_2bandit_a2.png","70","70","test","1","85","85","4","",""
"null","179999","pSARL_v2","pSARL_v2aj21gler","612e91f6654fd2227289c863","freq_resp","img/orange_2bandit_a.png","70","70","test","","","","4","",""
"null","180157","pSARL_v2","pSARL_v2aj21gler","612e91f6654fd2227289c863","fixation","img/fixation.png","null","","test","","","","","",""
"362.7000000476837","180522","pSARL_v2","pSARL_v2aj21gler","612e91f6654fd2227289c863","infreq","img/green_2bandit_a2.png","68","68","test","1","86","86","4","",""
"null","180969","pSARL_v2","pSARL_v2aj21gler","612e91f6654fd2227289c863","infreq_resp","img/green_2bandit_a.png","68","68","test","","","","4","",""
"null","181125","pSARL_v2","pSARL_v2aj21gler","612e91f6654fd2227289c863","fixation","img/fixation.png","null","","test","","","","","",""
"554","181681","pSARL_v2","pSARL_v2aj21gler","612e91f6654fd2227289c863","freq","img/orange_2bandit_a2.png","70","70","test","1","87","87","4","",""
"null","181935","pSARL_v2","pSARL_v2aj21gler","612e91f6654fd2227289c863","freq_resp","img/orange_2bandit_a.png","70","70","test","","","","4","",""
"null","182091","pSARL_v2","pSARL_v2aj21gler","612e91f6654fd2227289c863","fixation","img/fixation.png","null","","test","","","","","",""
"405.09999990463257","182498","pSARL_v2","pSARL_v2aj21gler","612e91f6654fd2227289c863","freq","img/orange_2bandit_a2.png","70","70","test","1","88","88","4","",""
"null","182907","pSARL_v2","pSARL_v2aj21gler","612e91f6654fd2227289c863","freq_resp","img/orange_2bandit_a.png","70","70","test","","","","4","",""
"null","183065","pSARL_v2","pSARL_v2aj21gler","612e91f6654fd2227289c863","fixation","img/fixation.png","null","","test","","","","","",""
"480","183550","pSARL_v2","pSARL_v2aj21gler","612e91f6654fd2227289c863","reward","img/slot.png","74","","test","","","","","",""
"null","184320","pSARL_v2","pSARL_v2aj21gler","612e91f6654fd2227289c863","points","<div class=""verylowPoints""> -3 </div>","null","na","test","","","","4","-3","3"
"575.5999999046326","184897","pSARL_v2","pSARL_v2aj21gler","612e91f6654fd2227289c863","freq","img/orange_2bandit_a2.png","70","70","test","1","89","89","5","",""
"null","185132","pSARL_v2","pSARL_v2aj21gler","612e91f6654fd2227289c863","freq_resp","img/orange_2bandit_a.png","70","70","test","","","","5","",""
"null","185288","pSARL_v2","pSARL_v2aj21gler","612e91f6654fd2227289c863","fixation","img/fixation.png","null","","test","","","","","",""
"639.9000000953674","185930","pSARL_v2","pSARL_v2aj21gler","612e91f6654fd2227289c863","freq","img/orange_2bandit_a2.png","70","70","test","1","90","90","5","",""
"null","186100","pSARL_v2","pSARL_v2aj21gler","612e91f6654fd2227289c863","freq_resp","img/orange_2bandit_a.png","70","70","test","","","","5","",""
"null","186255","pSARL_v2","pSARL_v2aj21gler","612e91f6654fd2227289c863","fixation","img/fixation.png","null","","test","","","","","",""
"472.80000019073486","186731","pSARL_v2","pSARL_v2aj21gler","612e91f6654fd2227289c863","freq","img/orange_2bandit_a2.png","70","70","test","1","91","91","5","",""
"null","187069","pSARL_v2","pSARL_v2aj21gler","612e91f6654fd2227289c863","freq_resp","img/orange_2bandit_a.png","70","70","test","","","","5","",""
"null","187235","pSARL_v2","pSARL_v2aj21gler","612e91f6654fd2227289c863","fixation","img/fixation.png","null","","test","","","","","",""
"349.09999990463257","187586","pSARL_v2","pSARL_v2aj21gler","612e91f6654fd2227289c863","freq","img/orange_2bandit_a2.png","70","70","test","1","92","92","5","",""
"null","188048","pSARL_v2","pSARL_v2aj21gler","612e91f6654fd2227289c863","freq_resp","img/orange_2bandit_a.png","70","70","test","","","","5","",""
"null","188205","pSARL_v2","pSARL_v2aj21gler","612e91f6654fd2227289c863","fixation","img/fixation.png","null","","test","","","","","",""
"203.70000004768372","188413","pSARL_v2","pSARL_v2aj21gler","612e91f6654fd2227289c863","freq","img/orange_2bandit_a2.png","70","70","test","1","93","93","5","",""
"null","189020","pSARL_v2","pSARL_v2aj21gler","612e91f6654fd2227289c863","freq_resp","img/orange_2bandit_a.png","70","70","test","","","","5","",""
"null","189176","pSARL_v2","pSARL_v2aj21gler","612e91f6654fd2227289c863","fixation","img/fixation.png","null","","test","","","","","",""
"320.90000009536743","189503","pSARL_v2","pSARL_v2aj21gler","612e91f6654fd2227289c863","freq","img/orange_2bandit_a2.png","70","70","test","1","94","94","5","",""
"null","189989","pSARL_v2","pSARL_v2aj21gler","612e91f6654fd2227289c863","freq_resp","img/orange_2bandit_a.png","70","70","test","","","","5","",""
"null","190145","pSARL_v2","pSARL_v2aj21gler","612e91f6654fd2227289c863","fixation","img/fixation.png","null","","test","","","","","",""
"343.2999999523163","190491","pSARL_v2","pSARL_v2aj21gler","612e91f6654fd2227289c863","freq","img/orange_2bandit_a2.png","70","70","test","1","95","95","5","",""
"null","190958","pSARL_v2","pSARL_v2aj21gler","612e91f6654fd2227289c863","freq_resp","img/orange_2bandit_a.png","70","70","test","","","","5","",""
"null","191114","pSARL_v2","pSARL_v2aj21gler","612e91f6654fd2227289c863","fixation","img/fixation.png","null","","test","","","","","",""
"302.2999999523163","191418","pSARL_v2","pSARL_v2aj21gler","612e91f6654fd2227289c863","freq","img/orange_2bandit_a2.png","70","70","test","1","96","96","5","",""
"null","191925","pSARL_v2","pSARL_v2aj21gler","612e91f6654fd2227289c863","freq_resp","img/orange_2bandit_a.png","70","70","test","","","","5","",""
"null","192081","pSARL_v2","pSARL_v2aj21gler","612e91f6654fd2227289c863","fixation","img/fixation.png","null","","test","","","","","",""
"311.2000000476837","192394","pSARL_v2","pSARL_v2aj21gler","612e91f6654fd2227289c863","freq","img/orange_2bandit_a2.png","70","70","test","1","97","97","5","",""
"null","192898","pSARL_v2","pSARL_v2aj21gler","612e91f6654fd2227289c863","freq_resp","img/orange_2bandit_a.png","70","70","test","","","","5","",""
"null","193053","pSARL_v2","pSARL_v2aj21gler","612e91f6654fd2227289c863","fixation","img/fixation.png","null","","test","","","","","",""
"290.60000014305115","193345","pSARL_v2","pSARL_v2aj21gler","612e91f6654fd2227289c863","freq","img/orange_2bandit_a2.png","70","70","test","1","98","98","5","",""
"null","193870","pSARL_v2","pSARL_v2aj21gler","612e91f6654fd2227289c863","freq_resp","img/orange_2bandit_a.png","70","70","test","","","","5","",""
"null","194027","pSARL_v2","pSARL_v2aj21gler","612e91f6654fd2227289c863","fixation","img/fixation.png","null","","test","","","","","",""
"294.09999990463257","194324","pSARL_v2","pSARL_v2aj21gler","612e91f6654fd2227289c863","freq","img/orange_2bandit_a2.png","70","70","test","1","99","99","5","",""
"null","194846","pSARL_v2","pSARL_v2aj21gler","612e91f6654fd2227289c863","freq_resp","img/orange_2bandit_a.png","70","70","test","","","","5","",""
"null","195001","pSARL_v2","pSARL_v2aj21gler","612e91f6654fd2227289c863","fixation","img/fixation.png","null","","test","","","","","",""
"286.89999985694885","195289","pSARL_v2","pSARL_v2aj21gler","612e91f6654fd2227289c863","freq","img/orange_2bandit_a2.png","70","70","test","1","100","100","5","",""
"null","195810","pSARL_v2","pSARL_v2aj21gler","612e91f6654fd2227289c863","freq_resp","img/orange_2bandit_a.png","70","70","test","","","","5","",""
"null","195967","pSARL_v2","pSARL_v2aj21gler","612e91f6654fd2227289c863","fixation","img/fixation.png","null","","test","","","","","",""
"297.10000014305115","196269","pSARL_v2","pSARL_v2aj21gler","612e91f6654fd2227289c863","freq","img/orange_2bandit_a2.png","70","70","test","1","101","101","5","",""
"null","196778","pSARL_v2","pSARL_v2aj21gler","612e91f6654fd2227289c863","freq_resp","img/orange_2bandit_a.png","70","70","test","","","","5","",""
"null","196935","pSARL_v2","pSARL_v2aj21gler","612e91f6654fd2227289c863","fixation","img/fixation.png","null","","test","","","","","",""
"296.7999999523163","197233","pSARL_v2","pSARL_v2aj21gler","612e91f6654fd2227289c863","freq","img/orange_2bandit_a2.png","70","70","test","1","102","102","5","",""
"null","197749","pSARL_v2","pSARL_v2aj21gler","612e91f6654fd2227289c863","freq_resp","img/orange_2bandit_a.png","70","70","test","","","","5","",""
"null","197906","pSARL_v2","pSARL_v2aj21gler","612e91f6654fd2227289c863","fixation","img/fixation.png","null","","test","","","","","",""
"382.7999999523163","198291","pSARL_v2","pSARL_v2aj21gler","612e91f6654fd2227289c863","freq","img/orange_2bandit_a2.png","70","70","test","1","103","103","5","",""
"null","198715","pSARL_v2","pSARL_v2aj21gler","612e91f6654fd2227289c863","freq_resp","img/orange_2bandit_a.png","70","70","test","","","","5","",""
"null","198870","pSARL_v2","pSARL_v2aj21gler","612e91f6654fd2227289c863","fixation","img/fixation.png","null","","test","","","","","",""
"370.5","199246","pSARL_v2","pSARL_v2aj21gler","612e91f6654fd2227289c863","infreq","img/green_2bandit_a2.png","68","68","test","1","104","104","5","",""
"null","199687","pSARL_v2","pSARL_v2aj21gler","612e91f6654fd2227289c863","infreq_resp","img/green_2bandit_a.png","68","68","test","","","","5","",""
"null","199844","pSARL_v2","pSARL_v2aj21gler","612e91f6654fd2227289c863","fixation","img/fixation.png","null","","test","","","","","",""
"404.2999999523163","200252","pSARL_v2","pSARL_v2aj21gler","612e91f6654fd2227289c863","infreq","img/green_2bandit_a2.png","68","68","test","1","105","105","5","",""
"null","200664","pSARL_v2","pSARL_v2aj21gler","612e91f6654fd2227289c863","infreq_resp","img/green_2bandit_a.png","68","68","test","","","","5","",""
"null","200819","pSARL_v2","pSARL_v2aj21gler","612e91f6654fd2227289c863","fixation","img/fixation.png","null","","test","","","","","",""
"372.60000014305115","201195","pSARL_v2","pSARL_v2aj21gler","612e91f6654fd2227289c863","freq","img/orange_2bandit_a2.png","70","70","test","1","106","106","5","",""
"null","201631","pSARL_v2","pSARL_v2aj21gler","612e91f6654fd2227289c863","freq_resp","img/orange_2bandit_a.png","70","70","test","","","","5","",""
"null","201789","pSARL_v2","pSARL_v2aj21gler","612e91f6654fd2227289c863","fixation","img/fixation.png","null","","test","","","","","",""
"322.89999985694885","202113","pSARL_v2","pSARL_v2aj21gler","612e91f6654fd2227289c863","freq","img/orange_2bandit_a2.png","70","70","test","1","107","107","5","",""
"null","202603","pSARL_v2","pSARL_v2aj21gler","612e91f6654fd2227289c863","freq_resp","img/orange_2bandit_a.png","70","70","test","","","","5","",""
"null","202759","pSARL_v2","pSARL_v2aj21gler","612e91f6654fd2227289c863","fixation","img/fixation.png","null","","test","","","","","",""
"624.7000000476837","203388","pSARL_v2","pSARL_v2aj21gler","612e91f6654fd2227289c863","reward","img/slot.png","74","","test","","","","","",""
"null","204149","pSARL_v2","pSARL_v2aj21gler","612e91f6654fd2227289c863","points","<div class=""veryhighPoints""> +1 </div>","null","na","test","","","","5","1","4"
"371.69999980926514","204523","pSARL_v2","pSARL_v2aj21gler","612e91f6654fd2227289c863","freq","img/orange_2bandit_a2.png","70","70","test","1","108","108","6","",""
"null","204965","pSARL_v2","pSARL_v2aj21gler","612e91f6654fd2227289c863","freq_resp","img/orange_2bandit_a.png","70","70","test","","","","6","",""
"null","205122","pSARL_v2","pSARL_v2aj21gler","612e91f6654fd2227289c863","fixation","img/fixation.png","null","","test","","","","","",""
"413.09999990463257","205539","pSARL_v2","pSARL_v2aj21gler","612e91f6654fd2227289c863","infreq","img/green_2bandit_a2.png","68","68","test","1","109","109","6","",""
"null","205935","pSARL_v2","pSARL_v2aj21gler","612e91f6654fd2227289c863","infreq_resp","img/green_2bandit_a.png","68","68","test","","","","6","",""
"null","206090","pSARL_v2","pSARL_v2aj21gler","612e91f6654fd2227289c863","fixation","img/fixation.png","null","","test","","","","","",""
"null","206902","pSARL_v2","pSARL_v2aj21gler","612e91f6654fd2227289c863","freq","img/orange_2bandit_a2.png","null","70","test","0","110","110","6","",""
"null","207061","pSARL_v2","pSARL_v2aj21gler","612e91f6654fd2227289c863","fixation","img/fixation.png","null","","test","","","","","",""
"394.7999999523163","207459","pSARL_v2","pSARL_v2aj21gler","612e91f6654fd2227289c863","freq","img/orange_2bandit_a2.png","70","70","test","1","111","111","6","",""
"null","207870","pSARL_v2","pSARL_v2aj21gler","612e91f6654fd2227289c863","freq_resp","img/orange_2bandit_a.png","70","70","test","","","","6","",""
"null","208029","pSARL_v2","pSARL_v2aj21gler","612e91f6654fd2227289c863","fixation","img/fixation.png","null","","test","","","","","",""
"306.7999999523163","208339","pSARL_v2","pSARL_v2aj21gler","612e91f6654fd2227289c863","freq","img/orange_2bandit_a2.png","70","70","test","1","112","112","6","",""
"null","208839","pSARL_v2","pSARL_v2aj21gler","612e91f6654fd2227289c863","freq_resp","img/orange_2bandit_a.png","70","70","test","","","","6","",""
"null","208995","pSARL_v2","pSARL_v2aj21gler","612e91f6654fd2227289c863","fixation","img/fixation.png","null","","test","","","","","",""
"277.2000000476837","209277","pSARL_v2","pSARL_v2aj21gler","612e91f6654fd2227289c863","freq","img/orange_2bandit_a2.png","70","70","test","1","113","113","6","",""
"null","209807","pSARL_v2","pSARL_v2aj21gler","612e91f6654fd2227289c863","freq_resp","img/orange_2bandit_a.png","70","70","test","","","","6","",""
"null","209964","pSARL_v2","pSARL_v2aj21gler","612e91f6654fd2227289c863","fixation","img/fixation.png","null","","test","","","","","",""
"275.7999999523163","210242","pSARL_v2","pSARL_v2aj21gler","612e91f6654fd2227289c863","freq","img/orange_2bandit_a2.png","70","70","test","1","114","114","6","",""
"null","210772","pSARL_v2","pSARL_v2aj21gler","612e91f6654fd2227289c863","freq_resp","img/orange_2bandit_a.png","70","70","test","","","","6","",""
"null","210929","pSARL_v2","pSARL_v2aj21gler","612e91f6654fd2227289c863","fixation","img/fixation.png","null","","test","","","","","",""
"223.79999995231628","211156","pSARL_v2","pSARL_v2aj21gler","612e91f6654fd2227289c863","freq","img/orange_2bandit_a2.png","70","70","test","1","115","115","6","",""
"null","211750","pSARL_v2","pSARL_v2aj21gler","612e91f6654fd2227289c863","freq_resp","img/orange_2bandit_a.png","70","70","test","","","","6","",""
"null","211905","pSARL_v2","pSARL_v2aj21gler","612e91f6654fd2227289c863","fixation","img/fixation.png","null","","test","","","","","",""
"231.5","212139","pSARL_v2","pSARL_v2aj21gler","612e91f6654fd2227289c863","freq","img/orange_2bandit_a2.png","70","70","test","1","116","116","6","",""
"null","212720","pSARL_v2","pSARL_v2aj21gler","612e91f6654fd2227289c863","freq_resp","img/orange_2bandit_a.png","70","70","test","","","","6","",""
"null","212878","pSARL_v2","pSARL_v2aj21gler","612e91f6654fd2227289c863","fixation","img/fixation.png","null","","test","","","","","",""
"242.5","213125","pSARL_v2","pSARL_v2aj21gler","612e91f6654fd2227289c863","freq","img/orange_2bandit_a2.png","70","70","test","1","117","117","6","",""
"null","213690","pSARL_v2","pSARL_v2aj21gler","612e91f6654fd2227289c863","freq_resp","img/orange_2bandit_a.png","70","70","test","","","","6","",""
"null","213847","pSARL_v2","pSARL_v2aj21gler","612e91f6654fd2227289c863","fixation","img/fixation.png","null","","test","","","","","",""
"209.70000004768372","214060","pSARL_v2","pSARL_v2aj21gler","612e91f6654fd2227289c863","freq","img/orange_2bandit_a2.png","70","70","test","1","118","118","6","",""
"null","214660","pSARL_v2","pSARL_v2aj21gler","612e91f6654fd2227289c863","freq_resp","img/orange_2bandit_a.png","70","70","test","","","","6","",""
"null","214814","pSARL_v2","pSARL_v2aj21gler","612e91f6654fd2227289c863","fixation","img/fixation.png","null","","test","","","","","",""
"282.40000009536743","215101","pSARL_v2","pSARL_v2aj21gler","612e91f6654fd2227289c863","freq","img/orange_2bandit_a2.png","70","70","test","1","119","119","6","",""
"null","215624","pSARL_v2","pSARL_v2aj21gler","612e91f6654fd2227289c863","freq_resp","img/orange_2bandit_a.png","70","70","test","","","","6","",""
"null","215778","pSARL_v2","pSARL_v2aj21gler","612e91f6654fd2227289c863","fixation","img/fixation.png","null","","test","","","","","",""
"246.40000009536743","216028","pSARL_v2","pSARL_v2aj21gler","612e91f6654fd2227289c863","freq","img/orange_2bandit_a2.png","70","70","test","1","120","120","6","",""
"null","216595","pSARL_v2","pSARL_v2aj21gler","612e91f6654fd2227289c863","freq_resp","img/orange_2bandit_a.png","70","70","test","","","","6","",""
"null","216751","pSARL_v2","pSARL_v2aj21gler","612e91f6654fd2227289c863","fixation","img/fixation.png","null","","test","","","","","",""
"209","216964","pSARL_v2","pSARL_v2aj21gler","612e91f6654fd2227289c863","infreq","img/green_2bandit_a2.png","70","68","test","0","121","121","6","",""
"null","217563","pSARL_v2","pSARL_v2aj21gler","612e91f6654fd2227289c863","infreq_resp","img/green_2bandit_a.png","70","68","test","","","","6","",""
"null","217731","pSARL_v2","pSARL_v2aj21gler","612e91f6654fd2227289c863","fixation","img/fixation.png","null","","test","","","","","",""
"429","218165","pSARL_v2","pSARL_v2aj21gler","612e91f6654fd2227289c863","infreq","img/green_2bandit_a2.png","68","68","test","1","122","122","6","",""
"null","218550","pSARL_v2","pSARL_v2aj21gler","612e91f6654fd2227289c863","infreq_resp","img/green_2bandit_a.png","68","68","test","","","","6","",""
"null","218709","pSARL_v2","pSARL_v2aj21gler","612e91f6654fd2227289c863","fixation","img/fixation.png","null","","test","","","","","",""
"363.5","219076","pSARL_v2","pSARL_v2aj21gler","612e91f6654fd2227289c863","freq","img/orange_2bandit_a2.png","70","70","test","1","123","123","6","",""
"null","219516","pSARL_v2","pSARL_v2aj21gler","612e91f6654fd2227289c863","freq_resp","img/orange_2bandit_a.png","70","70","test","","","","6","",""
"null","219674","pSARL_v2","pSARL_v2aj21gler","612e91f6654fd2227289c863","fixation","img/fixation.png","null","","test","","","","","",""
"278.59999990463257","219956","pSARL_v2","pSARL_v2aj21gler","612e91f6654fd2227289c863","freq","img/orange_2bandit_a2.png","70","70","test","1","124","124","6","",""
"null","220486","pSARL_v2","pSARL_v2aj21gler","612e91f6654fd2227289c863","freq_resp","img/orange_2bandit_a.png","70","70","test","","","","6","",""
"null","220641","pSARL_v2","pSARL_v2aj21gler","612e91f6654fd2227289c863","fixation","img/fixation.png","null","","test","","","","","",""
"255.20000004768372","220900","pSARL_v2","pSARL_v2aj21gler","612e91f6654fd2227289c863","freq","img/orange_2bandit_a2.png","70","70","test","1","125","125","6","",""
"null","221453","pSARL_v2","pSARL_v2aj21gler","612e91f6654fd2227289c863","freq_resp","img/orange_2bandit_a.png","70","70","test","","","","6","",""
"null","221609","pSARL_v2","pSARL_v2aj21gler","612e91f6654fd2227289c863","fixation","img/fixation.png","null","","test","","","","","",""
"254.79999995231628","221866","pSARL_v2","pSARL_v2aj21gler","612e91f6654fd2227289c863","freq","img/orange_2bandit_a2.png","70","70","test","1","126","126","6","",""
"null","222419","pSARL_v2","pSARL_v2aj21gler","612e91f6654fd2227289c863","freq_resp","img/orange_2bandit_a.png","70","70","test","","","","6","",""
"null","222574","pSARL_v2","pSARL_v2aj21gler","612e91f6654fd2227289c863","fixation","img/fixation.png","null","","test","","","","","",""
"281.89999985694885","222857","pSARL_v2","pSARL_v2aj21gler","612e91f6654fd2227289c863","freq","img/orange_2bandit_a2.png","70","70","test","1","127","127","6","",""
"null","223389","pSARL_v2","pSARL_v2aj21gler","612e91f6654fd2227289c863","freq_resp","img/orange_2bandit_a.png","70","70","test","","","","6","",""
"null","223545","pSARL_v2","pSARL_v2aj21gler","612e91f6654fd2227289c863","fixation","img/fixation.png","null","","test","","","","","",""
"502.10000014305115","224051","pSARL_v2","pSARL_v2aj21gler","612e91f6654fd2227289c863","reward","img/slot.png","74","","test","","","","","",""
"null","224813","pSARL_v2","pSARL_v2aj21gler","612e91f6654fd2227289c863","points","<div class=""verylowPoints""> -7 </div>","null","na","test","","","","6","-7","5"
"355.5","225172","pSARL_v2","pSARL_v2aj21gler","612e91f6654fd2227289c863","freq","img/orange_2bandit_a2.png","70","70","test","1","128","128","7","",""
"null","225621","pSARL_v2","pSARL_v2aj21gler","612e91f6654fd2227289c863","freq_resp","img/orange_2bandit_a.png","70","70","test","","","","7","",""
"null","225780","pSARL_v2","pSARL_v2aj21gler","612e91f6654fd2227289c863","fixation","img/fixation.png","null","","test","","","","","",""
"347.60000014305115","226130","pSARL_v2","pSARL_v2aj21gler","612e91f6654fd2227289c863","freq","img/orange_2bandit_a2.png","70","70","test","1","129","129","7","",""
"null","226596","pSARL_v2","pSARL_v2aj21gler","612e91f6654fd2227289c863","freq_resp","img/orange_2bandit_a.png","70","70","test","","","","7","",""
"null","226750","pSARL_v2","pSARL_v2aj21gler","612e91f6654fd2227289c863","fixation","img/fixation.png","null","","test","","","","","",""
"314.2999999523163","227068","pSARL_v2","pSARL_v2aj21gler","612e91f6654fd2227289c863","freq","img/orange_2bandit_a2.png","70","70","test","1","130","130","7","",""
"null","227560","pSARL_v2","pSARL_v2aj21gler","612e91f6654fd2227289c863","freq_resp","img/orange_2bandit_a.png","70","70","test","","","","7","",""
"null","227716","pSARL_v2","pSARL_v2aj21gler","612e91f6654fd2227289c863","fixation","img/fixation.png","null","","test","","","","","",""
"316.7000000476837","228036","pSARL_v2","pSARL_v2aj21gler","612e91f6654fd2227289c863","freq","img/orange_2bandit_a2.png","70","70","test","1","131","131","7","",""
"null","228529","pSARL_v2","pSARL_v2aj21gler","612e91f6654fd2227289c863","freq_resp","img/orange_2bandit_a.png","70","70","test","","","","7","",""
"null","228686","pSARL_v2","pSARL_v2aj21gler","612e91f6654fd2227289c863","fixation","img/fixation.png","null","","test","","","","","",""
"378.30000019073486","229069","pSARL_v2","pSARL_v2aj21gler","612e91f6654fd2227289c863","infreq","img/green_2bandit_a2.png","68","68","test","1","132","132","7","",""
"null","229501","pSARL_v2","pSARL_v2aj21gler","612e91f6654fd2227289c863","infreq_resp","img/green_2bandit_a.png","68","68","test","","","","7","",""
"null","229656","pSARL_v2","pSARL_v2aj21gler","612e91f6654fd2227289c863","fixation","img/fixation.png","null","","test","","","","","",""
"312.39999985694885","229972","pSARL_v2","pSARL_v2aj21gler","612e91f6654fd2227289c863","freq","img/orange_2bandit_a2.png","70","70","test","1","133","133","7","",""
"null","230468","pSARL_v2","pSARL_v2aj21gler","612e91f6654fd2227289c863","freq_resp","img/orange_2bandit_a.png","70","70","test","","","","7","",""
"null","230623","pSARL_v2","pSARL_v2aj21gler","612e91f6654fd2227289c863","fixation","img/fixation.png","null","","test","","","","","",""
"312.90000009536743","230941","pSARL_v2","pSARL_v2aj21gler","612e91f6654fd2227289c863","freq","img/orange_2bandit_a2.png","70","70","test","1","134","134","7","",""
"null","231436","pSARL_v2","pSARL_v2aj21gler","612e91f6654fd2227289c863","freq_resp","img/orange_2bandit_a.png","70","70","test","","","","7","",""
"null","231594","pSARL_v2","pSARL_v2aj21gler","612e91f6654fd2227289c863","fixation","img/fixation.png","null","","test","","","","","",""
"230.70000004768372","231826","pSARL_v2","pSARL_v2aj21gler","612e91f6654fd2227289c863","freq","img/orange_2bandit_a2.png","70","70","test","1","135","135","7","",""
"null","232410","pSARL_v2","pSARL_v2aj21gler","612e91f6654fd2227289c863","freq_resp","img/orange_2bandit_a.png","70","70","test","","","","7","",""
"null","232566","pSARL_v2","pSARL_v2aj21gler","612e91f6654fd2227289c863","fixation","img/fixation.png","null","","test","","","","","",""
"401.60000014305115","232970","pSARL_v2","pSARL_v2aj21gler","612e91f6654fd2227289c863","infreq","img/green_2bandit_a2.png","68","68","test","1","136","136","7","",""
"null","233383","pSARL_v2","pSARL_v2aj21gler","612e91f6654fd2227289c863","infreq_resp","img/green_2bandit_a.png","68","68","test","","","","7","",""
"null","233551","pSARL_v2","pSARL_v2aj21gler","612e91f6654fd2227289c863","fixation","img/fixation.png","null","","test","","","","","",""
"369.7999999523163","233925","pSARL_v2","pSARL_v2aj21gler","612e91f6654fd2227289c863","freq","img/orange_2bandit_a2.png","70","70","test","1","137","137","7","",""
"null","234366","pSARL_v2","pSARL_v2aj21gler","612e91f6654fd2227289c863","freq_resp","img/orange_2bandit_a.png","70","70","test","","","","7","",""
"null","234521","pSARL_v2","pSARL_v2aj21gler","612e91f6654fd2227289c863","fixation","img/fixation.png","null","","test","","","","","",""
"310.2999999523163","234834","pSARL_v2","pSARL_v2aj21gler","612e91f6654fd2227289c863","freq","img/orange_2bandit_a2.png","70","70","test","1","138","138","7","",""
"null","235338","pSARL_v2","pSARL_v2aj21gler","612e91f6654fd2227289c863","freq_resp","img/orange_2bandit_a.png","70","70","test","","","","7","",""
"null","235505","pSARL_v2","pSARL_v2aj21gler","612e91f6654fd2227289c863","fixation","img/fixation.png","null","","test","","","","","",""
"287.30000019073486","235797","pSARL_v2","pSARL_v2aj21gler","612e91f6654fd2227289c863","freq","img/orange_2bandit_a2.png","70","70","test","1","139","139","7","",""
"null","236324","pSARL_v2","pSARL_v2aj21gler","612e91f6654fd2227289c863","freq_resp","img/orange_2bandit_a.png","70","70","test","","","","7","",""
"null","236482","pSARL_v2","pSARL_v2aj21gler","612e91f6654fd2227289c863","fixation","img/fixation.png","null","","test","","","","","",""
"270.7000000476837","236755","pSARL_v2","pSARL_v2aj21gler","612e91f6654fd2227289c863","freq","img/orange_2bandit_a2.png","70","70","test","1","140","140","7","",""
"null","237297","pSARL_v2","pSARL_v2aj21gler","612e91f6654fd2227289c863","freq_resp","img/orange_2bandit_a.png","70","70","test","","","","7","",""
"null","237464","pSARL_v2","pSARL_v2aj21gler","612e91f6654fd2227289c863","fixation","img/fixation.png","null","","test","","","","","",""
"272","237739","pSARL_v2","pSARL_v2aj21gler","612e91f6654fd2227289c863","freq","img/orange_2bandit_a2.png","70","70","test","1","141","141","7","",""
"null","238283","pSARL_v2","pSARL_v2aj21gler","612e91f6654fd2227289c863","freq_resp","img/orange_2bandit_a.png","70","70","test","","","","7","",""
"null","238437","pSARL_v2","pSARL_v2aj21gler","612e91f6654fd2227289c863","fixation","img/fixation.png","null","","test","","","","","",""
"201.89999985694885","238640","pSARL_v2","pSARL_v2aj21gler","612e91f6654fd2227289c863","freq","img/orange_2bandit_a2.png","70","70","test","1","142","142","7","",""
"null","239252","pSARL_v2","pSARL_v2aj21gler","612e91f6654fd2227289c863","freq_resp","img/orange_2bandit_a.png","70","70","test","","","","7","",""
"null","239419","pSARL_v2","pSARL_v2aj21gler","612e91f6654fd2227289c863","fixation","img/fixation.png","null","","test","","","","","",""
"252.90000009536743","239675","pSARL_v2","pSARL_v2aj21gler","612e91f6654fd2227289c863","freq","img/orange_2bandit_a2.png","70","70","test","1","143","143","7","",""
"null","240232","pSARL_v2","pSARL_v2aj21gler","612e91f6654fd2227289c863","freq_resp","img/orange_2bandit_a.png","70","70","test","","","","7","",""
"null","240388","pSARL_v2","pSARL_v2aj21gler","612e91f6654fd2227289c863","fixation","img/fixation.png","null","","test","","","","","",""
"275.60000014305115","240667","pSARL_v2","pSARL_v2aj21gler","612e91f6654fd2227289c863","freq","img/orange_2bandit_a2.png","70","70","test","1","144","144","7","",""
"null","241196","pSARL_v2","pSARL_v2aj21gler","612e91f6654fd2227289c863","freq_resp","img/orange_2bandit_a.png","70","70","test","","","","7","",""
"null","241352","pSARL_v2","pSARL_v2aj21gler","612e91f6654fd2227289c863","fixation","img/fixation.png","null","","test","","","","","",""
"327.5","241685","pSARL_v2","pSARL_v2aj21gler","612e91f6654fd2227289c863","freq","img/orange_2bandit_a2.png","70","70","test","1","145","145","7","",""
"null","242170","pSARL_v2","pSARL_v2aj21gler","612e91f6654fd2227289c863","freq_resp","img/orange_2bandit_a.png","70","70","test","","","","7","",""
"null","242326","pSARL_v2","pSARL_v2aj21gler","612e91f6654fd2227289c863","fixation","img/fixation.png","null","","test","","","","","",""
"257.2999999523163","242587","pSARL_v2","pSARL_v2aj21gler","612e91f6654fd2227289c863","freq","img/orange_2bandit_a2.png","70","70","test","1","146","146","7","",""
"null","243141","pSARL_v2","pSARL_v2aj21gler","612e91f6654fd2227289c863","freq_resp","img/orange_2bandit_a.png","70","70","test","","","","7","",""
"null","243297","pSARL_v2","pSARL_v2aj21gler","612e91f6654fd2227289c863","fixation","img/fixation.png","null","","test","","","","","",""
"238","243537","pSARL_v2","pSARL_v2aj21gler","612e91f6654fd2227289c863","freq","img/orange_2bandit_a2.png","70","70","test","1","147","147","7","",""
"null","244115","pSARL_v2","pSARL_v2aj21gler","612e91f6654fd2227289c863","freq_resp","img/orange_2bandit_a.png","70","70","test","","","","7","",""
"null","244274","pSARL_v2","pSARL_v2aj21gler","612e91f6654fd2227289c863","fixation","img/fixation.png","null","","test","","","","","",""
"229.09999990463257","244507","pSARL_v2","pSARL_v2aj21gler","612e91f6654fd2227289c863","freq","img/orange_2bandit_a2.png","70","70","test","1","148","148","7","",""
"null","245086","pSARL_v2","pSARL_v2aj21gler","612e91f6654fd2227289c863","freq_resp","img/orange_2bandit_a.png","70","70","test","","","","7","",""
"null","245244","pSARL_v2","pSARL_v2aj21gler","612e91f6654fd2227289c863","fixation","img/fixation.png","null","","test","","","","","",""
"539.7999999523163","245788","pSARL_v2","pSARL_v2aj21gler","612e91f6654fd2227289c863","reward","img/slot.png","74","","test","","","","","",""
"null","246543","pSARL_v2","pSARL_v2aj21gler","612e91f6654fd2227289c863","points","<div class=""verylowPoints""> -6 </div>","null","na","test","","","","7","-6","6"
"408.80000019073486","246956","pSARL_v2","pSARL_v2aj21gler","612e91f6654fd2227289c863","freq","img/orange_2bandit_a2.png","70","70","test","1","149","149","8","",""
"null","247354","pSARL_v2","pSARL_v2aj21gler","612e91f6654fd2227289c863","freq_resp","img/orange_2bandit_a.png","70","70","test","","","","8","",""
"null","247510","pSARL_v2","pSARL_v2aj21gler","612e91f6654fd2227289c863","fixation","img/fixation.png","null","","test","","","","","",""
"288.40000009536743","247802","pSARL_v2","pSARL_v2aj21gler","612e91f6654fd2227289c863","freq","img/orange_2bandit_a2.png","70","70","test","1","150","150","8","",""
"null","248329","pSARL_v2","pSARL_v2aj21gler","612e91f6654fd2227289c863","freq_resp","img/orange_2bandit_a.png","70","70","test","","","","8","",""
"null","248486","pSARL_v2","pSARL_v2aj21gler","612e91f6654fd2227289c863","fixation","img/fixation.png","null","","test","","","","","",""
"274.09999990463257","248764","pSARL_v2","pSARL_v2aj21gler","612e91f6654fd2227289c863","freq","img/orange_2bandit_a2.png","70","70","test","1","151","151","8","",""
"null","249302","pSARL_v2","pSARL_v2aj21gler","612e91f6654fd2227289c863","freq_resp","img/orange_2bandit_a.png","70","70","test","","","","8","",""
"null","249459","pSARL_v2","pSARL_v2aj21gler","612e91f6654fd2227289c863","fixation","img/fixation.png","null","","test","","","","","",""
"236.29999995231628","249700","pSARL_v2","pSARL_v2aj21gler","612e91f6654fd2227289c863","freq","img/orange_2bandit_a2.png","70","70","test","1","152","152","8","",""
"null","250276","pSARL_v2","pSARL_v2aj21gler","612e91f6654fd2227289c863","freq_resp","img/orange_2bandit_a.png","70","70","test","","","","8","",""
"null","250433","pSARL_v2","pSARL_v2aj21gler","612e91f6654fd2227289c863","fixation","img/fixation.png","null","","test","","","","","",""
"230.40000009536743","250664","pSARL_v2","pSARL_v2aj21gler","612e91f6654fd2227289c863","freq","img/orange_2bandit_a2.png","70","70","test","1","153","153","8","",""
"null","251247","pSARL_v2","pSARL_v2aj21gler","612e91f6654fd2227289c863","freq_resp","img/orange_2bandit_a.png","70","70","test","","","","8","",""
"null","251402","pSARL_v2","pSARL_v2aj21gler","612e91f6654fd2227289c863","fixation","img/fixation.png","null","","test","","","","","",""
"221","251625","pSARL_v2","pSARL_v2aj21gler","612e91f6654fd2227289c863","freq","img/orange_2bandit_a2.png","70","70","test","1","154","154","8","",""
"null","252218","pSARL_v2","pSARL_v2aj21gler","612e91f6654fd2227289c863","freq_resp","img/orange_2bandit_a.png","70","70","test","","","","8","",""
"null","252374","pSARL_v2","pSARL_v2aj21gler","612e91f6654fd2227289c863","fixation","img/fixation.png","null","","test","","","","","",""
"257.19999980926514","252637","pSARL_v2","pSARL_v2aj21gler","612e91f6654fd2227289c863","freq","img/orange_2bandit_a2.png","70","70","test","1","155","155","8","",""
"null","253185","pSARL_v2","pSARL_v2aj21gler","612e91f6654fd2227289c863","freq_resp","img/orange_2bandit_a.png","70","70","test","","","","8","",""
"null","253341","pSARL_v2","pSARL_v2aj21gler","612e91f6654fd2227289c863","fixation","img/fixation.png","null","","test","","","","","",""
"243.29999995231628","253588","pSARL_v2","pSARL_v2aj21gler","612e91f6654fd2227289c863","freq","img/orange_2bandit_a2.png","70","70","test","1","156","156","8","",""
"null","254153","pSARL_v2","pSARL_v2aj21gler","612e91f6654fd2227289c863","freq_resp","img/orange_2bandit_a.png","70","70","test","","","","8","",""
"null","254312","pSARL_v2","pSARL_v2aj21gler","612e91f6654fd2227289c863","fixation","img/fixation.png","null","","test","","","","","",""
"280.10000014305115","254596","pSARL_v2","pSARL_v2aj21gler","612e91f6654fd2227289c863","freq","img/orange_2bandit_a2.png","70","70","test","1","157","157","8","",""
"null","255127","pSARL_v2","pSARL_v2aj21gler","612e91f6654fd2227289c863","freq_resp","img/orange_2bandit_a.png","70","70","test","","","","8","",""
"null","255297","pSARL_v2","pSARL_v2aj21gler","612e91f6654fd2227289c863","fixation","img/fixation.png","null","","test","","","","","",""
"214.5","255516","pSARL_v2","pSARL_v2aj21gler","612e91f6654fd2227289c863","infreq","img/green_2bandit_a2.png","70","68","test","0","158","158","8","",""
"null","256107","pSARL_v2","pSARL_v2aj21gler","612e91f6654fd2227289c863","infreq_resp","img/green_2bandit_a.png","70","68","test","","","","8","",""
"null","256262","pSARL_v2","pSARL_v2aj21gler","612e91f6654fd2227289c863","fixation","img/fixation.png","null","","test","","","","","",""
"297.2999999523163","256564","pSARL_v2","pSARL_v2aj21gler","612e91f6654fd2227289c863","freq","img/orange_2bandit_a2.png","70","70","test","1","159","159","8","",""
"null","257074","pSARL_v2","pSARL_v2aj21gler","612e91f6654fd2227289c863","freq_resp","img/orange_2bandit_a.png","70","70","test","","","","8","",""
"null","257231","pSARL_v2","pSARL_v2aj21gler","612e91f6654fd2227289c863","fixation","img/fixation.png","null","","test","","","","","",""
"295.7000000476837","257529","pSARL_v2","pSARL_v2aj21gler","612e91f6654fd2227289c863","freq","img/orange_2bandit_a2.png","70","70","test","1","160","160","8","",""
"null","258043","pSARL_v2","pSARL_v2aj21gler","612e91f6654fd2227289c863","freq_resp","img/orange_2bandit_a.png","70","70","test","","","","8","",""
"null","258212","pSARL_v2","pSARL_v2aj21gler","612e91f6654fd2227289c863","fixation","img/fixation.png","null","","test","","","","","",""
"283.89999985694885","258500","pSARL_v2","pSARL_v2aj21gler","612e91f6654fd2227289c863","freq","img/orange_2bandit_a2.png","70","70","test","1","161","161","8","",""
"null","259023","pSARL_v2","pSARL_v2aj21gler","612e91f6654fd2227289c863","freq_resp","img/orange_2bandit_a.png","70","70","test","","","","8","",""
"null","259181","pSARL_v2","pSARL_v2aj21gler","612e91f6654fd2227289c863","fixation","img/fixation.png","null","","test","","","","","",""
"322.09999990463257","259506","pSARL_v2","pSARL_v2aj21gler","612e91f6654fd2227289c863","freq","img/orange_2bandit_a2.png","70","70","test","1","162","162","8","",""
"null","259992","pSARL_v2","pSARL_v2aj21gler","612e91f6654fd2227289c863","freq_resp","img/orange_2bandit_a.png","70","70","test","","","","8","",""
"null","260161","pSARL_v2","pSARL_v2aj21gler","612e91f6654fd2227289c863","fixation","img/fixation.png","null","","test","","","","","",""
"262.7999999523163","260426","pSARL_v2","pSARL_v2aj21gler","612e91f6654fd2227289c863","freq","img/orange_2bandit_a2.png","70","70","test","1","163","163","8","",""
"null","260970","pSARL_v2","pSARL_v2aj21gler","612e91f6654fd2227289c863","freq_resp","img/orange_2bandit_a.png","70","70","test","","","","8","",""
"null","261124","pSARL_v2","pSARL_v2aj21gler","612e91f6654fd2227289c863","fixation","img/fixation.png","null","","test","","","","","",""
"283","261408","pSARL_v2","pSARL_v2aj21gler","612e91f6654fd2227289c863","freq","img/orange_2bandit_a2.png","70","70","test","1","164","164","8","",""
"null","261939","pSARL_v2","pSARL_v2aj21gler","612e91f6654fd2227289c863","freq_resp","img/orange_2bandit_a.png","70","70","test","","","","8","",""
"null","262096","pSARL_v2","pSARL_v2aj21gler","612e91f6654fd2227289c863","fixation","img/fixation.png","null","","test","","","","","",""
"271","262369","pSARL_v2","pSARL_v2aj21gler","612e91f6654fd2227289c863","freq","img/orange_2bandit_a2.png","70","70","test","1","165","165","8","",""
"null","262904","pSARL_v2","pSARL_v2aj21gler","612e91f6654fd2227289c863","freq_resp","img/orange_2bandit_a.png","70","70","test","","","","8","",""
"null","263059","pSARL_v2","pSARL_v2aj21gler","612e91f6654fd2227289c863","fixation","img/fixation.png","null","","test","","","","","",""
"357.40000009536743","263421","pSARL_v2","pSARL_v2aj21gler","612e91f6654fd2227289c863","freq","img/orange_2bandit_a2.png","70","70","test","1","166","166","8","",""
"null","263881","pSARL_v2","pSARL_v2aj21gler","612e91f6654fd2227289c863","freq_resp","img/orange_2bandit_a.png","70","70","test","","","","8","",""
"null","264036","pSARL_v2","pSARL_v2aj21gler","612e91f6654fd2227289c863","fixation","img/fixation.png","null","","test","","","","","",""
"291.7999999523163","264330","pSARL_v2","pSARL_v2aj21gler","612e91f6654fd2227289c863","freq","img/orange_2bandit_a2.png","70","70","test","1","167","167","8","",""
"null","264847","pSARL_v2","pSARL_v2aj21gler","612e91f6654fd2227289c863","freq_resp","img/orange_2bandit_a.png","70","70","test","","","","8","",""
"null","265006","pSARL_v2","pSARL_v2aj21gler","612e91f6654fd2227289c863","fixation","img/fixation.png","null","","test","","","","","",""
"256.90000009536743","265266","pSARL_v2","pSARL_v2aj21gler","612e91f6654fd2227289c863","freq","img/orange_2bandit_a2.png","70","70","test","1","168","168","8","",""
"null","265821","pSARL_v2","pSARL_v2aj21gler","612e91f6654fd2227289c863","freq_resp","img/orange_2bandit_a.png","70","70","test","","","","8","",""
"null","265975","pSARL_v2","pSARL_v2aj21gler","612e91f6654fd2227289c863","fixation","img/fixation.png","null","","test","","","","","",""
"344.90000009536743","266324","pSARL_v2","pSARL_v2aj21gler","612e91f6654fd2227289c863","freq","img/orange_2bandit_a2.png","70","70","test","1","169","169","8","",""
"null","266790","pSARL_v2","pSARL_v2aj21gler","612e91f6654fd2227289c863","freq_resp","img/orange_2bandit_a.png","70","70","test","","","","8","",""
"null","266958","pSARL_v2","pSARL_v2aj21gler","612e91f6654fd2227289c863","fixation","img/fixation.png","null","","test","","","","","",""
"320.7000000476837","267280","pSARL_v2","pSARL_v2aj21gler","612e91f6654fd2227289c863","infreq","img/green_2bandit_a2.png","68","68","test","1","170","170","8","",""
"null","267772","pSARL_v2","pSARL_v2aj21gler","612e91f6654fd2227289c863","infreq_resp","img/green_2bandit_a.png","68","68","test","","","","8","",""
"null","267928","pSARL_v2","pSARL_v2aj21gler","612e91f6654fd2227289c863","fixation","img/fixation.png","null","","test","","","","","",""
"382.69999980926514","268313","pSARL_v2","pSARL_v2aj21gler","612e91f6654fd2227289c863","freq","img/orange_2bandit_a2.png","70","70","test","1","171","171","8","",""
"null","268741","pSARL_v2","pSARL_v2aj21gler","612e91f6654fd2227289c863","freq_resp","img/orange_2bandit_a.png","70","70","test","","","","8","",""
"null","268898","pSARL_v2","pSARL_v2aj21gler","612e91f6654fd2227289c863","fixation","img/fixation.png","null","","test","","","","","",""
"324.7999999523163","269224","pSARL_v2","pSARL_v2aj21gler","612e91f6654fd2227289c863","freq","img/orange_2bandit_a2.png","70","70","test","1","172","172","8","",""
"null","269708","pSARL_v2","pSARL_v2aj21gler","612e91f6654fd2227289c863","freq_resp","img/orange_2bandit_a.png","70","70","test","","","","8","",""
"null","269867","pSARL_v2","pSARL_v2aj21gler","612e91f6654fd2227289c863","fixation","img/fixation.png","null","","test","","","","","",""
"268.90000009536743","270139","pSARL_v2","pSARL_v2aj21gler","612e91f6654fd2227289c863","freq","img/orange_2bandit_a2.png","70","70","test","1","173","173","8","",""
"null","270677","pSARL_v2","pSARL_v2aj21gler","612e91f6654fd2227289c863","freq_resp","img/orange_2bandit_a.png","70","70","test","","","","8","",""
"null","270848","pSARL_v2","pSARL_v2aj21gler","612e91f6654fd2227289c863","fixation","img/fixation.png","null","","test","","","","","",""
"368.7000000476837","271222","pSARL_v2","pSARL_v2aj21gler","612e91f6654fd2227289c863","reward","img/slot.png","74","","test","","","","","",""
"null","271982","pSARL_v2","pSARL_v2aj21gler","612e91f6654fd2227289c863","points","<div class=""verylowPoints""> -4 </div>","null","na","test","","","","8","-4","7"
"337.80000019073486","272324","pSARL_v2","pSARL_v2aj21gler","612e91f6654fd2227289c863","freq","img/orange_2bandit_a2.png","70","70","test","1","174","174","9","",""
"null","272796","pSARL_v2","pSARL_v2aj21gler","612e91f6654fd2227289c863","freq_resp","img/orange_2bandit_a.png","70","70","test","","","","9","",""
"null","272952","pSARL_v2","pSARL_v2aj21gler","612e91f6654fd2227289c863","fixation","img/fixation.png","null","","test","","","","","",""
"311.40000009536743","273266","pSARL_v2","pSARL_v2aj21gler","612e91f6654fd2227289c863","freq","img/orange_2bandit_a2.png","70","70","test","1","175","175","9","",""
"null","273762","pSARL_v2","pSARL_v2aj21gler","612e91f6654fd2227289c863","freq_resp","img/orange_2bandit_a.png","70","70","test","","","","9","",""
"null","273917","pSARL_v2","pSARL_v2aj21gler","612e91f6654fd2227289c863","fixation","img/fixation.png","null","","test","","","","","",""
"378.30000019073486","274298","pSARL_v2","pSARL_v2aj21gler","612e91f6654fd2227289c863","infreq","img/green_2bandit_a2.png","68","68","test","1","176","176","9","",""
"null","274728","pSARL_v2","pSARL_v2aj21gler","612e91f6654fd2227289c863","infreq_resp","img/green_2bandit_a.png","68","68","test","","","","9","",""
"null","274885","pSARL_v2","pSARL_v2aj21gler","612e91f6654fd2227289c863","fixation","img/fixation.png","null","","test","","","","","",""
"434.2999999523163","275320","pSARL_v2","pSARL_v2aj21gler","612e91f6654fd2227289c863","freq","img/orange_2bandit_a2.png","70","70","test","1","177","177","9","",""
"null","275692","pSARL_v2","pSARL_v2aj21gler","612e91f6654fd2227289c863","freq_resp","img/orange_2bandit_a.png","70","70","test","","","","9","",""
"null","275847","pSARL_v2","pSARL_v2aj21gler","612e91f6654fd2227289c863","fixation","img/fixation.png","null","","test","","","","","",""
"416.40000009536743","276267","pSARL_v2","pSARL_v2aj21gler","612e91f6654fd2227289c863","freq","img/orange_2bandit_a2.png","70","70","test","1","178","178","9","",""
"null","276659","pSARL_v2","pSARL_v2aj21gler","612e91f6654fd2227289c863","freq_resp","img/orange_2bandit_a.png","70","70","test","","","","9","",""
"null","276819","pSARL_v2","pSARL_v2aj21gler","612e91f6654fd2227289c863","fixation","img/fixation.png","null","","test","","","","","",""
"356.10000014305115","277177","pSARL_v2","pSARL_v2aj21gler","612e91f6654fd2227289c863","freq","img/orange_2bandit_a2.png","70","70","test","1","179","179","9","",""
"null","277628","pSARL_v2","pSARL_v2aj21gler","612e91f6654fd2227289c863","freq_resp","img/orange_2bandit_a.png","70","70","test","","","","9","",""
"null","277787","pSARL_v2","pSARL_v2aj21gler","612e91f6654fd2227289c863","fixation","img/fixation.png","null","","test","","","","","",""
"356.39999985694885","278146","pSARL_v2","pSARL_v2aj21gler","612e91f6654fd2227289c863","infreq","img/green_2bandit_a2.png","68","68","test","1","180","180","9","",""
"null","278595","pSARL_v2","pSARL_v2aj21gler","612e91f6654fd2227289c863","infreq_resp","img/green_2bandit_a.png","68","68","test","","","","9","",""
"null","278752","pSARL_v2","pSARL_v2aj21gler","612e91f6654fd2227289c863","fixation","img/fixation.png","null","","test","","","","","",""
"432","279188","pSARL_v2","pSARL_v2aj21gler","612e91f6654fd2227289c863","freq","img/orange_2bandit_a2.png","70","70","test","1","181","181","9","",""
"null","279566","pSARL_v2","pSARL_v2aj21gler","612e91f6654fd2227289c863","freq_resp","img/orange_2bandit_a.png","70","70","test","","","","9","",""
"null","279720","pSARL_v2","pSARL_v2aj21gler","612e91f6654fd2227289c863","fixation","img/fixation.png","null","","test","","","","","",""
"294.7999999523163","280016","pSARL_v2","pSARL_v2aj21gler","612e91f6654fd2227289c863","freq","img/orange_2bandit_a2.png","70","70","test","1","182","182","9","",""
"null","280530","pSARL_v2","pSARL_v2aj21gler","612e91f6654fd2227289c863","freq_resp","img/orange_2bandit_a.png","70","70","test","","","","9","",""
"null","280686","pSARL_v2","pSARL_v2aj21gler","612e91f6654fd2227289c863","fixation","img/fixation.png","null","","test","","","","","",""
"440.40000009536743","281128","pSARL_v2","pSARL_v2aj21gler","612e91f6654fd2227289c863","infreq","img/green_2bandit_a2.png","68","68","test","1","183","183","9","",""
"null","281503","pSARL_v2","pSARL_v2aj21gler","612e91f6654fd2227289c863","infreq_resp","img/green_2bandit_a.png","68","68","test","","","","9","",""
"null","281660","pSARL_v2","pSARL_v2aj21gler","612e91f6654fd2227289c863","fixation","img/fixation.png","null","","test","","","","","",""
"315.40000009536743","281979","pSARL_v2","pSARL_v2aj21gler","612e91f6654fd2227289c863","freq","img/orange_2bandit_a2.png","70","70","test","1","184","184","9","",""
"null","282470","pSARL_v2","pSARL_v2aj21gler","612e91f6654fd2227289c863","freq_resp","img/orange_2bandit_a.png","70","70","test","","","","9","",""
"null","282626","pSARL_v2","pSARL_v2aj21gler","612e91f6654fd2227289c863","fixation","img/fixation.png","null","","test","","","","","",""
"252.90000009536743","282881","pSARL_v2","pSARL_v2aj21gler","612e91f6654fd2227289c863","freq","img/orange_2bandit_a2.png","70","70","test","1","185","185","9","",""
"null","283443","pSARL_v2","pSARL_v2aj21gler","612e91f6654fd2227289c863","freq_resp","img/orange_2bandit_a.png","70","70","test","","","","9","",""
"null","283598","pSARL_v2","pSARL_v2aj21gler","612e91f6654fd2227289c863","fixation","img/fixation.png","null","","test","","","","","",""
"249","283850","pSARL_v2","pSARL_v2aj21gler","612e91f6654fd2227289c863","freq","img/orange_2bandit_a2.png","70","70","test","1","186","186","9","",""
"null","284407","pSARL_v2","pSARL_v2aj21gler","612e91f6654fd2227289c863","freq_resp","img/orange_2bandit_a.png","70","70","test","","","","9","",""
"null","284562","pSARL_v2","pSARL_v2aj21gler","612e91f6654fd2227289c863","fixation","img/fixation.png","null","","test","","","","","",""
"268.7999999523163","284834","pSARL_v2","pSARL_v2aj21gler","612e91f6654fd2227289c863","freq","img/orange_2bandit_a2.png","70","70","test","1","187","187","9","",""
"null","285378","pSARL_v2","pSARL_v2aj21gler","612e91f6654fd2227289c863","freq_resp","img/orange_2bandit_a.png","70","70","test","","","","9","",""
"null","285535","pSARL_v2","pSARL_v2aj21gler","612e91f6654fd2227289c863","fixation","img/fixation.png","null","","test","","","","","",""
"255.70000004768372","285793","pSARL_v2","pSARL_v2aj21gler","612e91f6654fd2227289c863","freq","img/orange_2bandit_a2.png","70","70","test","1","188","188","9","",""
"null","286348","pSARL_v2","pSARL_v2aj21gler","612e91f6654fd2227289c863","freq_resp","img/orange_2bandit_a.png","70","70","test","","","","9","",""
"null","286503","pSARL_v2","pSARL_v2aj21gler","612e91f6654fd2227289c863","fixation","img/fixation.png","null","","test","","","","","",""
"240.5","286748","pSARL_v2","pSARL_v2aj21gler","612e91f6654fd2227289c863","freq","img/orange_2bandit_a2.png","70","70","test","1","189","189","9","",""
"null","287313","pSARL_v2","pSARL_v2aj21gler","612e91f6654fd2227289c863","freq_resp","img/orange_2bandit_a.png","70","70","test","","","","9","",""
"null","287470","pSARL_v2","pSARL_v2aj21gler","612e91f6654fd2227289c863","fixation","img/fixation.png","null","","test","","","","","",""
"265.7000000476837","287740","pSARL_v2","pSARL_v2aj21gler","612e91f6654fd2227289c863","freq","img/orange_2bandit_a2.png","70","70","test","1","190","190","9","",""
"null","288281","pSARL_v2","pSARL_v2aj21gler","612e91f6654fd2227289c863","freq_resp","img/orange_2bandit_a.png","70","70","test","","","","9","",""
"null","288439","pSARL_v2","pSARL_v2aj21gler","612e91f6654fd2227289c863","fixation","img/fixation.png","null","","test","","","","","",""
"249.10000014305115","288693","pSARL_v2","pSARL_v2aj21gler","612e91f6654fd2227289c863","freq","img/orange_2bandit_a2.png","70","70","test","1","191","191","9","",""
"null","289250","pSARL_v2","pSARL_v2aj21gler","612e91f6654fd2227289c863","freq_resp","img/orange_2bandit_a.png","70","70","test","","","","9","",""
"null","289406","pSARL_v2","pSARL_v2aj21gler","612e91f6654fd2227289c863","fixation","img/fixation.png","null","","test","","","","","",""
"255.79999995231628","289664","pSARL_v2","pSARL_v2aj21gler","612e91f6654fd2227289c863","freq","img/orange_2bandit_a2.png","70","70","test","1","192","192","9","",""
"null","290218","pSARL_v2","pSARL_v2aj21gler","612e91f6654fd2227289c863","freq_resp","img/orange_2bandit_a.png","70","70","test","","","","9","",""
"null","290375","pSARL_v2","pSARL_v2aj21gler","612e91f6654fd2227289c863","fixation","img/fixation.png","null","","test","","","","","",""
"264.2999999523163","290644","pSARL_v2","pSARL_v2aj21gler","612e91f6654fd2227289c863","freq","img/orange_2bandit_a2.png","70","70","test","1","193","193","9","",""
"null","291192","pSARL_v2","pSARL_v2aj21gler","612e91f6654fd2227289c863","freq_resp","img/orange_2bandit_a.png","70","70","test","","","","9","",""
"null","291362","pSARL_v2","pSARL_v2aj21gler","612e91f6654fd2227289c863","fixation","img/fixation.png","null","","test","","","","","",""
"244.90000009536743","291609","pSARL_v2","pSARL_v2aj21gler","612e91f6654fd2227289c863","freq","img/orange_2bandit_a2.png","70","70","test","1","194","194","9","",""
"null","292174","pSARL_v2","pSARL_v2aj21gler","612e91f6654fd2227289c863","freq_resp","img/orange_2bandit_a.png","70","70","test","","","","9","",""
"null","292342","pSARL_v2","pSARL_v2aj21gler","612e91f6654fd2227289c863","fixation","img/fixation.png","null","","test","","","","","",""
"258.2999999523163","292604","pSARL_v2","pSARL_v2aj21gler","612e91f6654fd2227289c863","freq","img/orange_2bandit_a2.png","70","70","test","1","195","195","9","",""
"null","293159","pSARL_v2","pSARL_v2aj21gler","612e91f6654fd2227289c863","freq_resp","img/orange_2bandit_a.png","70","70","test","","","","9","",""
"null","293315","pSARL_v2","pSARL_v2aj21gler","612e91f6654fd2227289c863","fixation","img/fixation.png","null","","test","","","","","",""
"283.5","293601","pSARL_v2","pSARL_v2aj21gler","612e91f6654fd2227289c863","freq","img/orange_2bandit_a2.png","70","70","test","1","196","196","9","",""
"null","294129","pSARL_v2","pSARL_v2aj21gler","612e91f6654fd2227289c863","freq_resp","img/orange_2bandit_a.png","70","70","test","","","","9","",""
"null","294283","pSARL_v2","pSARL_v2aj21gler","612e91f6654fd2227289c863","fixation","img/fixation.png","null","","test","","","","","",""
"459.7999999523163","294745","pSARL_v2","pSARL_v2aj21gler","612e91f6654fd2227289c863","reward","img/slot.png","74","","test","","","","","",""
"null","295505","pSARL_v2","pSARL_v2aj21gler","612e91f6654fd2227289c863","points","<div class=""verylowPoints""> -3 </div>","null","na","test","","","","9","-3","8"
"285.90000009536743","295796","pSARL_v2","pSARL_v2aj21gler","612e91f6654fd2227289c863","freq","img/orange_2bandit_a2.png","70","70","test","1","197","197","10","",""
"null","296316","pSARL_v2","pSARL_v2aj21gler","612e91f6654fd2227289c863","freq_resp","img/orange_2bandit_a.png","70","70","test","","","","10","",""
"null","296469","pSARL_v2","pSARL_v2aj21gler","612e91f6654fd2227289c863","fixation","img/fixation.png","null","","test","","","","","",""
"266.09999990463257","296737","pSARL_v2","pSARL_v2aj21gler","612e91f6654fd2227289c863","freq","img/orange_2bandit_a2.png","70","70","test","1","198","198","10","",""
"null","297288","pSARL_v2","pSARL_v2aj21gler","612e91f6654fd2227289c863","freq_resp","img/orange_2bandit_a.png","70","70","test","","","","10","",""
"null","297446","pSARL_v2","pSARL_v2aj21gler","612e91f6654fd2227289c863","fixation","img/fixation.png","null","","test","","","","","",""
"313.2999999523163","297764","pSARL_v2","pSARL_v2aj21gler","612e91f6654fd2227289c863","freq","img/orange_2bandit_a2.png","70","70","test","1","199","199","10","",""
"null","298254","pSARL_v2","pSARL_v2aj21gler","612e91f6654fd2227289c863","freq_resp","img/orange_2bandit_a.png","70","70","test","","","","10","",""
"null","298409","pSARL_v2","pSARL_v2aj21gler","612e91f6654fd2227289c863","fixation","img/fixation.png","null","","test","","","","","",""
"326.2000000476837","298737","pSARL_v2","pSARL_v2aj21gler","612e91f6654fd2227289c863","freq","img/orange_2bandit_a2.png","70","70","test","1","200","200","10","",""
"null","299221","pSARL_v2","pSARL_v2aj21gler","612e91f6654fd2227289c863","freq_resp","img/orange_2bandit_a.png","70","70","test","","","","10","",""
"null","299380","pSARL_v2","pSARL_v2aj21gler","612e91f6654fd2227289c863","fixation","img/fixation.png","null","","test","","","","","",""
"371.39999985694885","299753","pSARL_v2","pSARL_v2aj21gler","612e91f6654fd2227289c863","freq","img/orange_2bandit_a2.png","70","70","test","1","201","201","10","",""
"null","300188","pSARL_v2","pSARL_v2aj21gler","612e91f6654fd2227289c863","freq_resp","img/orange_2bandit_a.png","70","70","test","","","","10","",""
"null","300345","pSARL_v2","pSARL_v2aj21gler","612e91f6654fd2227289c863","fixation","img/fixation.png","null","","test","","","","","",""
"279.59999990463257","300629","pSARL_v2","pSARL_v2aj21gler","612e91f6654fd2227289c863","freq","img/orange_2bandit_a2.png","70","70","test","1","202","202","10","",""
"null","301158","pSARL_v2","pSARL_v2aj21gler","612e91f6654fd2227289c863","freq_resp","img/orange_2bandit_a.png","70","70","test","","","","10","",""
"null","301311","pSARL_v2","pSARL_v2aj21gler","612e91f6654fd2227289c863","fixation","img/fixation.png","null","","test","","","","","",""
"352.5","301666","pSARL_v2","pSARL_v2aj21gler","612e91f6654fd2227289c863","freq","img/orange_2bandit_a2.png","70","70","test","1","203","203","10","",""
"null","302127","pSARL_v2","pSARL_v2aj21gler","612e91f6654fd2227289c863","freq_resp","img/orange_2bandit_a.png","70","70","test","","","","10","",""
"null","302295","pSARL_v2","pSARL_v2aj21gler","612e91f6654fd2227289c863","fixation","img/fixation.png","null","","test","","","","","",""
"320.7000000476837","302617","pSARL_v2","pSARL_v2aj21gler","612e91f6654fd2227289c863","freq","img/orange_2bandit_a2.png","70","70","test","1","204","204","10","",""
"null","303109","pSARL_v2","pSARL_v2aj21gler","612e91f6654fd2227289c863","freq_resp","img/orange_2bandit_a.png","70","70","test","","","","10","",""
"null","303267","pSARL_v2","pSARL_v2aj21gler","612e91f6654fd2227289c863","fixation","img/fixation.png","null","","test","","","","","",""
"428.39999985694885","303699","pSARL_v2","pSARL_v2aj21gler","612e91f6654fd2227289c863","freq","img/orange_2bandit_a2.png","70","70","test","1","205","205","10","",""
