"rt","time_elapsed","expId","subject","prolificID","trialType","stimulus","key_press","corrresp","phase","corr","trialNum","attentionRunNum","blockNum","points","rlNum"
"7419.600000023842","7424","pSARL_v2","pSARL_v2lgfdlsvc","5ee738a018d5a84caa7e0f2a","","","","","","","","","","",""
"","10645","pSARL_v2","pSARL_v2lgfdlsvc","5ee738a018d5a84caa7e0f2a","fullscreen","","","","","","","","","",""
"31209.400000095367","41857","pSARL_v2","pSARL_v2lgfdlsvc","5ee738a018d5a84caa7e0f2a","","","","","","","","","","",""
"550.1999999284744","42410","pSARL_v2","pSARL_v2lgfdlsvc","5ee738a018d5a84caa7e0f2a","freqPrac","img/green_2bandit_a2.png","70","70","prac","1","","","","",""
"550.1999999284744","42665","pSARL_v2","pSARL_v2lgfdlsvc","5ee738a018d5a84caa7e0f2a","freqPrac_resp","img/green_2bandit_a.png","70","70","prac","","","","","",""
"null","42821","pSARL_v2","pSARL_v2lgfdlsvc","5ee738a018d5a84caa7e0f2a","fixation","img/fixation.png","null","","prac","","","","","",""
"367.10000002384186","43190","pSARL_v2","pSARL_v2lgfdlsvc","5ee738a018d5a84caa7e0f2a","infreqPrac","img/orange_2bandit_a2.png","68","68","prac","1","","","","",""
"367.10000002384186","43629","pSARL_v2","pSARL_v2lgfdlsvc","5ee738a018d5a84caa7e0f2a","infreqPrac_resp","img/orange_2bandit_a.png","68","68","prac","","","","","",""
"null","43784","pSARL_v2","pSARL_v2lgfdlsvc","5ee738a018d5a84caa7e0f2a","fixation","img/fixation.png","null","","prac","","","","","",""
"335.8000000715256","44122","pSARL_v2","pSARL_v2lgfdlsvc","5ee738a018d5a84caa7e0f2a","freqPrac","img/green_2bandit_a2.png","70","70","prac","1","","","","",""
"335.8000000715256","44591","pSARL_v2","pSARL_v2lgfdlsvc","5ee738a018d5a84caa7e0f2a","freqPrac_resp","img/green_2bandit_a.png","70","70","prac","","","","","",""
"null","44745","pSARL_v2","pSARL_v2lgfdlsvc","5ee738a018d5a84caa7e0f2a","fixation","img/fixation.png","null","","prac","","","","","",""
"297.2999999523163","45045","pSARL_v2","pSARL_v2lgfdlsvc","5ee738a018d5a84caa7e0f2a","infreqPrac","img/orange_2bandit_a2.png","68","68","prac","1","","","","",""
"297.2999999523163","45563","pSARL_v2","pSARL_v2lgfdlsvc","5ee738a018d5a84caa7e0f2a","infreqPrac_resp","img/orange_2bandit_a.png","68","68","prac","","","","","",""
"null","45717","pSARL_v2","pSARL_v2lgfdlsvc","5ee738a018d5a84caa7e0f2a","fixation","img/fixation.png","null","","prac","","","","","",""
"365.60000002384186","46084","pSARL_v2","pSARL_v2lgfdlsvc","5ee738a018d5a84caa7e0f2a","infreqPrac","img/orange_2bandit_a2.png","68","68","prac","1","","","","",""
"365.60000002384186","46522","pSARL_v2","pSARL_v2lgfdlsvc","5ee738a018d5a84caa7e0f2a","infreqPrac_resp","img/orange_2bandit_a.png","68","68","prac","","","","","",""
"null","46690","pSARL_v2","pSARL_v2lgfdlsvc","5ee738a018d5a84caa7e0f2a","fixation","img/fixation.png","null","","prac","","","","","",""
"286.7000000476837","46979","pSARL_v2","pSARL_v2lgfdlsvc","5ee738a018d5a84caa7e0f2a","infreqPrac","img/orange_2bandit_a2.png","68","68","prac","1","","","","",""
"286.7000000476837","47499","pSARL_v2","pSARL_v2lgfdlsvc","5ee738a018d5a84caa7e0f2a","infreqPrac_resp","img/orange_2bandit_a.png","68","68","prac","","","","","",""
"null","47652","pSARL_v2","pSARL_v2lgfdlsvc","5ee738a018d5a84caa7e0f2a","fixation","img/fixation.png","null","","prac","","","","","",""
"295.5","47950","pSARL_v2","pSARL_v2lgfdlsvc","5ee738a018d5a84caa7e0f2a","freqPrac","img/green_2bandit_a2.png","68","70","prac","0","","","","",""
"295.5","48467","pSARL_v2","pSARL_v2lgfdlsvc","5ee738a018d5a84caa7e0f2a","freqPrac_resp","img/green_2bandit_a.png","68","70","prac","","","","","",""
"null","49472","pSARL_v2","pSARL_v2lgfdlsvc","5ee738a018d5a84caa7e0f2a","feedback","img/wrongKey.png","null","na","prac","","","","","",""
"null","49626","pSARL_v2","pSARL_v2lgfdlsvc","5ee738a018d5a84caa7e0f2a","fixation","img/fixation.png","null","","prac","","","","","",""
"null","50430","pSARL_v2","pSARL_v2lgfdlsvc","5ee738a018d5a84caa7e0f2a","infreqPrac","img/orange_2bandit_a2.png","null","68","prac","0","","","","",""
"null","51447","pSARL_v2","pSARL_v2lgfdlsvc","5ee738a018d5a84caa7e0f2a","feedback","img/tooSlow.png","null","na","prac","","","","","",""
"null","51604","pSARL_v2","pSARL_v2lgfdlsvc","5ee738a018d5a84caa7e0f2a","fixation","img/fixation.png","null","","prac","","","","","",""
"513.5","52119","pSARL_v2","pSARL_v2lgfdlsvc","5ee738a018d5a84caa7e0f2a","freqPrac","img/green_2bandit_a2.png","70","70","prac","1","","","","",""
"513.5","52413","pSARL_v2","pSARL_v2lgfdlsvc","5ee738a018d5a84caa7e0f2a","freqPrac_resp","img/green_2bandit_a.png","70","70","prac","","","","","",""
"null","52582","pSARL_v2","pSARL_v2lgfdlsvc","5ee738a018d5a84caa7e0f2a","fixation","img/fixation.png","null","","prac","","","","","",""
"275.09999990463257","52859","pSARL_v2","pSARL_v2lgfdlsvc","5ee738a018d5a84caa7e0f2a","freqPrac","img/green_2bandit_a2.png","70","70","prac","1","","","","",""
"275.09999990463257","53390","pSARL_v2","pSARL_v2lgfdlsvc","5ee738a018d5a84caa7e0f2a","freqPrac_resp","img/green_2bandit_a.png","70","70","prac","","","","","",""
"null","53544","pSARL_v2","pSARL_v2lgfdlsvc","5ee738a018d5a84caa7e0f2a","fixation","img/fixation.png","null","","prac","","","","","",""
"13719.199999928474","67265","pSARL_v2","pSARL_v2lgfdlsvc","5ee738a018d5a84caa7e0f2a","","","","","prac","","","","","",""
"857.3999999761581","68125","pSARL_v2","pSARL_v2lgfdlsvc","5ee738a018d5a84caa7e0f2a","rewardPractice","img/slot.png","74","","prac","","","","","",""
"null","68892","pSARL_v2","pSARL_v2lgfdlsvc","5ee738a018d5a84caa7e0f2a","feedback","<div class=""veryhighPoints""> +15 </div>","null","na","prac","","","","","",""
"null","69046","pSARL_v2","pSARL_v2lgfdlsvc","5ee738a018d5a84caa7e0f2a","fixation","img/fixation.png","null","","prac","","","","","",""
"7633.299999952316","76681","pSARL_v2","pSARL_v2lgfdlsvc","5ee738a018d5a84caa7e0f2a","","","","","prac","","","","","",""
"429.10000002384186","77113","pSARL_v2","pSARL_v2lgfdlsvc","5ee738a018d5a84caa7e0f2a","freq","img/green_2bandit_a2.png","70","70","test","1","1","1","1","",""
"null","77492","pSARL_v2","pSARL_v2lgfdlsvc","5ee738a018d5a84caa7e0f2a","freq_resp","img/green_2bandit_a.png","70","70","test","","","","1","",""
"null","77645","pSARL_v2","pSARL_v2lgfdlsvc","5ee738a018d5a84caa7e0f2a","fixation","img/fixation.png","null","","test","","","","","",""
"302","77949","pSARL_v2","pSARL_v2lgfdlsvc","5ee738a018d5a84caa7e0f2a","freq","img/green_2bandit_a2.png","70","70","test","1","2","2","1","",""
"null","78452","pSARL_v2","pSARL_v2lgfdlsvc","5ee738a018d5a84caa7e0f2a","freq_resp","img/green_2bandit_a.png","70","70","test","","","","1","",""
"null","78606","pSARL_v2","pSARL_v2lgfdlsvc","5ee738a018d5a84caa7e0f2a","fixation","img/fixation.png","null","","test","","","","","",""
"320","78928","pSARL_v2","pSARL_v2lgfdlsvc","5ee738a018d5a84caa7e0f2a","infreq","img/orange_2bandit_a2.png","68","68","test","1","3","3","1","",""
"null","79426","pSARL_v2","pSARL_v2lgfdlsvc","5ee738a018d5a84caa7e0f2a","infreq_resp","img/orange_2bandit_a.png","68","68","test","","","","1","",""
"null","79581","pSARL_v2","pSARL_v2lgfdlsvc","5ee738a018d5a84caa7e0f2a","fixation","img/fixation.png","null","","test","","","","","",""
"319.39999997615814","79904","pSARL_v2","pSARL_v2lgfdlsvc","5ee738a018d5a84caa7e0f2a","freq","img/green_2bandit_a2.png","70","70","test","1","4","4","1","",""
"null","80390","pSARL_v2","pSARL_v2lgfdlsvc","5ee738a018d5a84caa7e0f2a","freq_resp","img/green_2bandit_a.png","70","70","test","","","","1","",""
"null","80558","pSARL_v2","pSARL_v2lgfdlsvc","5ee738a018d5a84caa7e0f2a","fixation","img/fixation.png","null","","test","","","","","",""
"326.5","80887","pSARL_v2","pSARL_v2lgfdlsvc","5ee738a018d5a84caa7e0f2a","freq","img/green_2bandit_a2.png","70","70","test","1","5","5","1","",""
"null","81376","pSARL_v2","pSARL_v2lgfdlsvc","5ee738a018d5a84caa7e0f2a","freq_resp","img/green_2bandit_a.png","70","70","test","","","","1","",""
"null","81531","pSARL_v2","pSARL_v2lgfdlsvc","5ee738a018d5a84caa7e0f2a","fixation","img/fixation.png","null","","test","","","","","",""
"238.10000002384186","81771","pSARL_v2","pSARL_v2lgfdlsvc","5ee738a018d5a84caa7e0f2a","freq","img/green_2bandit_a2.png","70","70","test","1","6","6","1","",""
"null","82339","pSARL_v2","pSARL_v2lgfdlsvc","5ee738a018d5a84caa7e0f2a","freq_resp","img/green_2bandit_a.png","70","70","test","","","","1","",""
"null","82493","pSARL_v2","pSARL_v2lgfdlsvc","5ee738a018d5a84caa7e0f2a","fixation","img/fixation.png","null","","test","","","","","",""
"213.10000002384186","82708","pSARL_v2","pSARL_v2lgfdlsvc","5ee738a018d5a84caa7e0f2a","infreq","img/orange_2bandit_a2.png","70","68","test","0","7","7","1","",""
"null","83311","pSARL_v2","pSARL_v2lgfdlsvc","5ee738a018d5a84caa7e0f2a","infreq_resp","img/orange_2bandit_a.png","70","68","test","","","","1","",""
"null","83465","pSARL_v2","pSARL_v2lgfdlsvc","5ee738a018d5a84caa7e0f2a","fixation","img/fixation.png","null","","test","","","","","",""
"294.89999997615814","83763","pSARL_v2","pSARL_v2lgfdlsvc","5ee738a018d5a84caa7e0f2a","freq","img/green_2bandit_a2.png","70","70","test","1","8","8","1","",""
"null","84271","pSARL_v2","pSARL_v2lgfdlsvc","5ee738a018d5a84caa7e0f2a","freq_resp","img/green_2bandit_a.png","70","70","test","","","","1","",""
"null","84427","pSARL_v2","pSARL_v2lgfdlsvc","5ee738a018d5a84caa7e0f2a","fixation","img/fixation.png","null","","test","","","","","",""
"408.8000000715256","84837","pSARL_v2","pSARL_v2lgfdlsvc","5ee738a018d5a84caa7e0f2a","freq","img/green_2bandit_a2.png","70","70","test","1","9","9","1","",""
"null","85232","pSARL_v2","pSARL_v2lgfdlsvc","5ee738a018d5a84caa7e0f2a","freq_resp","img/green_2bandit_a.png","70","70","test","","","","1","",""
"null","85400","pSARL_v2","pSARL_v2lgfdlsvc","5ee738a018d5a84caa7e0f2a","fixation","img/fixation.png","null","","test","","","","","",""
"366.5","85768","pSARL_v2","pSARL_v2lgfdlsvc","5ee738a018d5a84caa7e0f2a","freq","img/green_2bandit_a2.png","70","70","test","1","10","10","1","",""
"null","86206","pSARL_v2","pSARL_v2lgfdlsvc","5ee738a018d5a84caa7e0f2a","freq_resp","img/green_2bandit_a.png","70","70","test","","","","1","",""
"null","86360","pSARL_v2","pSARL_v2lgfdlsvc","5ee738a018d5a84caa7e0f2a","fixation","img/fixation.png","null","","test","","","","","",""
"280.89999997615814","86643","pSARL_v2","pSARL_v2lgfdlsvc","5ee738a018d5a84caa7e0f2a","freq","img/green_2bandit_a2.png","70","70","test","1","11","11","1","",""
"null","87176","pSARL_v2","pSARL_v2lgfdlsvc","5ee738a018d5a84caa7e0f2a","freq_resp","img/green_2bandit_a.png","70","70","test","","","","1","",""
"null","87331","pSARL_v2","pSARL_v2lgfdlsvc","5ee738a018d5a84caa7e0f2a","fixation","img/fixation.png","null","","test","","","","","",""
"272","87605","pSARL_v2","pSARL_v2lgfdlsvc","5ee738a018d5a84caa7e0f2a","freq","img/green_2bandit_a2.png","70","70","test","1","12","12","1","",""
"null","88137","pSARL_v2","pSARL_v2lgfdlsvc","5ee738a018d5a84caa7e0f2a","freq_resp","img/green_2bandit_a.png","70","70","test","","","","1","",""
"null","88293","pSARL_v2","pSARL_v2lgfdlsvc","5ee738a018d5a84caa7e0f2a","fixation","img/fixation.png","null","","test","","","","","",""
"267.3000000715256","88562","pSARL_v2","pSARL_v2lgfdlsvc","5ee738a018d5a84caa7e0f2a","freq","img/green_2bandit_a2.png","70","70","test","1","13","13","1","",""
"null","89097","pSARL_v2","pSARL_v2lgfdlsvc","5ee738a018d5a84caa7e0f2a","freq_resp","img/green_2bandit_a.png","70","70","test","","","","1","",""
"null","89252","pSARL_v2","pSARL_v2lgfdlsvc","5ee738a018d5a84caa7e0f2a","fixation","img/fixation.png","null","","test","","","","","",""
"291.10000002384186","89545","pSARL_v2","pSARL_v2lgfdlsvc","5ee738a018d5a84caa7e0f2a","freq","img/green_2bandit_a2.png","70","70","test","1","14","14","1","",""
"null","90070","pSARL_v2","pSARL_v2lgfdlsvc","5ee738a018d5a84caa7e0f2a","freq_resp","img/green_2bandit_a.png","70","70","test","","","","1","",""
"null","90226","pSARL_v2","pSARL_v2lgfdlsvc","5ee738a018d5a84caa7e0f2a","fixation","img/fixation.png","null","","test","","","","","",""
"280.60000002384186","90509","pSARL_v2","pSARL_v2lgfdlsvc","5ee738a018d5a84caa7e0f2a","freq","img/green_2bandit_a2.png","70","70","test","1","15","15","1","",""
"null","91031","pSARL_v2","pSARL_v2lgfdlsvc","5ee738a018d5a84caa7e0f2a","freq_resp","img/green_2bandit_a.png","70","70","test","","","","1","",""
"null","91185","pSARL_v2","pSARL_v2lgfdlsvc","5ee738a018d5a84caa7e0f2a","fixation","img/fixation.png","null","","test","","","","","",""
"246.10000002384186","91433","pSARL_v2","pSARL_v2lgfdlsvc","5ee738a018d5a84caa7e0f2a","freq","img/green_2bandit_a2.png","70","70","test","1","16","16","1","",""
"null","92005","pSARL_v2","pSARL_v2lgfdlsvc","5ee738a018d5a84caa7e0f2a","freq_resp","img/green_2bandit_a.png","70","70","test","","","","1","",""
"null","92160","pSARL_v2","pSARL_v2lgfdlsvc","5ee738a018d5a84caa7e0f2a","fixation","img/fixation.png","null","","test","","","","","",""
"225.5","92388","pSARL_v2","pSARL_v2lgfdlsvc","5ee738a018d5a84caa7e0f2a","infreq","img/orange_2bandit_a2.png","68","68","test","1","17","17","1","",""
"null","92980","pSARL_v2","pSARL_v2lgfdlsvc","5ee738a018d5a84caa7e0f2a","infreq_resp","img/orange_2bandit_a.png","68","68","test","","","","1","",""
"null","93137","pSARL_v2","pSARL_v2lgfdlsvc","5ee738a018d5a84caa7e0f2a","fixation","img/fixation.png","null","","test","","","","","",""
"427.6999999284744","93568","pSARL_v2","pSARL_v2lgfdlsvc","5ee738a018d5a84caa7e0f2a","freq","img/green_2bandit_a2.png","70","70","test","1","18","18","1","",""
"null","93944","pSARL_v2","pSARL_v2lgfdlsvc","5ee738a018d5a84caa7e0f2a","freq_resp","img/green_2bandit_a.png","70","70","test","","","","1","",""
"null","94098","pSARL_v2","pSARL_v2lgfdlsvc","5ee738a018d5a84caa7e0f2a","fixation","img/fixation.png","null","","test","","","","","",""
"258","94358","pSARL_v2","pSARL_v2lgfdlsvc","5ee738a018d5a84caa7e0f2a","freq","img/green_2bandit_a2.png","70","70","test","1","19","19","1","",""
"null","94904","pSARL_v2","pSARL_v2lgfdlsvc","5ee738a018d5a84caa7e0f2a","freq_resp","img/green_2bandit_a.png","70","70","test","","","","1","",""
"null","95059","pSARL_v2","pSARL_v2lgfdlsvc","5ee738a018d5a84caa7e0f2a","fixation","img/fixation.png","null","","test","","","","","",""
"265.2999999523163","95326","pSARL_v2","pSARL_v2lgfdlsvc","5ee738a018d5a84caa7e0f2a","freq","img/green_2bandit_a2.png","70","70","test","1","20","20","1","",""
"null","95878","pSARL_v2","pSARL_v2lgfdlsvc","5ee738a018d5a84caa7e0f2a","freq_resp","img/green_2bandit_a.png","70","70","test","","","","1","",""
"null","96047","pSARL_v2","pSARL_v2lgfdlsvc","5ee738a018d5a84caa7e0f2a","fixation","img/fixation.png","null","","test","","","","","",""
"550.6000000238419","96600","pSARL_v2","pSARL_v2lgfdlsvc","5ee738a018d5a84caa7e0f2a","reward","img/slot.png","74","","test","","","","","",""
"null","97363","pSARL_v2","pSARL_v2lgfdlsvc","5ee738a018d5a84caa7e0f2a","points","<div class=""verylowPoints""> -6 </div>","null","na","test","","","","1","-6","0"
"357.8000000715256","97723","pSARL_v2","pSARL_v2lgfdlsvc","5ee738a018d5a84caa7e0f2a","freq","img/green_2bandit_a2.png","70","70","test","1","21","21","2","",""
"null","98180","pSARL_v2","pSARL_v2lgfdlsvc","5ee738a018d5a84caa7e0f2a","freq_resp","img/green_2bandit_a.png","70","70","test","","","","2","",""
"null","98336","pSARL_v2","pSARL_v2lgfdlsvc","5ee738a018d5a84caa7e0f2a","fixation","img/fixation.png","null","","test","","","","","",""
"287.10000002384186","98625","pSARL_v2","pSARL_v2lgfdlsvc","5ee738a018d5a84caa7e0f2a","freq","img/green_2bandit_a2.png","70","70","test","1","22","22","2","",""
"null","99143","pSARL_v2","pSARL_v2lgfdlsvc","5ee738a018d5a84caa7e0f2a","freq_resp","img/green_2bandit_a.png","70","70","test","","","","2","",""
"null","99297","pSARL_v2","pSARL_v2lgfdlsvc","5ee738a018d5a84caa7e0f2a","fixation","img/fixation.png","null","","test","","","","","",""
"262.1999999284744","99562","pSARL_v2","pSARL_v2lgfdlsvc","5ee738a018d5a84caa7e0f2a","freq","img/green_2bandit_a2.png","70","70","test","1","23","23","2","",""
"null","100107","pSARL_v2","pSARL_v2lgfdlsvc","5ee738a018d5a84caa7e0f2a","freq_resp","img/green_2bandit_a.png","70","70","test","","","","2","",""
"null","100262","pSARL_v2","pSARL_v2lgfdlsvc","5ee738a018d5a84caa7e0f2a","fixation","img/fixation.png","null","","test","","","","","",""
"267.2000000476837","100531","pSARL_v2","pSARL_v2lgfdlsvc","5ee738a018d5a84caa7e0f2a","freq","img/green_2bandit_a2.png","70","70","test","1","24","24","2","",""
"null","101067","pSARL_v2","pSARL_v2lgfdlsvc","5ee738a018d5a84caa7e0f2a","freq_resp","img/green_2bandit_a.png","70","70","test","","","","2","",""
"null","101223","pSARL_v2","pSARL_v2lgfdlsvc","5ee738a018d5a84caa7e0f2a","fixation","img/fixation.png","null","","test","","","","","",""
"227.19999992847443","101452","pSARL_v2","pSARL_v2lgfdlsvc","5ee738a018d5a84caa7e0f2a","freq","img/green_2bandit_a2.png","70","70","test","1","25","25","2","",""
"null","102034","pSARL_v2","pSARL_v2lgfdlsvc","5ee738a018d5a84caa7e0f2a","freq_resp","img/green_2bandit_a.png","70","70","test","","","","2","",""
"null","102189","pSARL_v2","pSARL_v2lgfdlsvc","5ee738a018d5a84caa7e0f2a","fixation","img/fixation.png","null","","test","","","","","",""
"222.5","102414","pSARL_v2","pSARL_v2lgfdlsvc","5ee738a018d5a84caa7e0f2a","freq","img/green_2bandit_a2.png","68","70","test","0","26","26","2","",""
"null","103005","pSARL_v2","pSARL_v2lgfdlsvc","5ee738a018d5a84caa7e0f2a","freq_resp","img/green_2bandit_a.png","68","70","test","","","","2","",""
"null","103173","pSARL_v2","pSARL_v2lgfdlsvc","5ee738a018d5a84caa7e0f2a","fixation","img/fixation.png","null","","test","","","","","",""
"252.89999997615814","103427","pSARL_v2","pSARL_v2lgfdlsvc","5ee738a018d5a84caa7e0f2a","freq","img/green_2bandit_a2.png","70","70","test","1","27","27","2","",""
"null","103979","pSARL_v2","pSARL_v2lgfdlsvc","5ee738a018d5a84caa7e0f2a","freq_resp","img/green_2bandit_a.png","70","70","test","","","","2","",""
"null","104135","pSARL_v2","pSARL_v2lgfdlsvc","5ee738a018d5a84caa7e0f2a","fixation","img/fixation.png","null","","test","","","","","",""
"205.89999997615814","104343","pSARL_v2","pSARL_v2lgfdlsvc","5ee738a018d5a84caa7e0f2a","infreq","img/orange_2bandit_a2.png","68","68","test","1","28","28","2","",""
"null","104943","pSARL_v2","pSARL_v2lgfdlsvc","5ee738a018d5a84caa7e0f2a","infreq_resp","img/orange_2bandit_a.png","68","68","test","","","","2","",""
"null","105099","pSARL_v2","pSARL_v2lgfdlsvc","5ee738a018d5a84caa7e0f2a","fixation","img/fixation.png","null","","test","","","","","",""
"317.7000000476837","105419","pSARL_v2","pSARL_v2lgfdlsvc","5ee738a018d5a84caa7e0f2a","infreq","img/orange_2bandit_a2.png","68","68","test","1","29","29","2","",""
"null","105905","pSARL_v2","pSARL_v2lgfdlsvc","5ee738a018d5a84caa7e0f2a","infreq_resp","img/orange_2bandit_a.png","68","68","test","","","","2","",""
"null","106061","pSARL_v2","pSARL_v2lgfdlsvc","5ee738a018d5a84caa7e0f2a","fixation","img/fixation.png","null","","test","","","","","",""
"356.89999997615814","106420","pSARL_v2","pSARL_v2lgfdlsvc","5ee738a018d5a84caa7e0f2a","freq","img/green_2bandit_a2.png","70","70","test","1","30","30","2","",""
"null","106867","pSARL_v2","pSARL_v2lgfdlsvc","5ee738a018d5a84caa7e0f2a","freq_resp","img/green_2bandit_a.png","70","70","test","","","","2","",""
"null","107023","pSARL_v2","pSARL_v2lgfdlsvc","5ee738a018d5a84caa7e0f2a","fixation","img/fixation.png","null","","test","","","","","",""
"346.7000000476837","107371","pSARL_v2","pSARL_v2lgfdlsvc","5ee738a018d5a84caa7e0f2a","infreq","img/orange_2bandit_a2.png","68","68","test","1","31","31","2","",""
"null","107828","pSARL_v2","pSARL_v2lgfdlsvc","5ee738a018d5a84caa7e0f2a","infreq_resp","img/orange_2bandit_a.png","68","68","test","","","","2","",""
"null","107983","pSARL_v2","pSARL_v2lgfdlsvc","5ee738a018d5a84caa7e0f2a","fixation","img/fixation.png","null","","test","","","","","",""
"462.5","108447","pSARL_v2","pSARL_v2lgfdlsvc","5ee738a018d5a84caa7e0f2a","freq","img/green_2bandit_a2.png","70","70","test","1","32","32","2","",""
"null","108790","pSARL_v2","pSARL_v2lgfdlsvc","5ee738a018d5a84caa7e0f2a","freq_resp","img/green_2bandit_a.png","70","70","test","","","","2","",""
"null","108946","pSARL_v2","pSARL_v2lgfdlsvc","5ee738a018d5a84caa7e0f2a","fixation","img/fixation.png","null","","test","","","","","",""
"355","109303","pSARL_v2","pSARL_v2lgfdlsvc","5ee738a018d5a84caa7e0f2a","freq","img/green_2bandit_a2.png","70","70","test","1","33","33","2","",""
"null","109763","pSARL_v2","pSARL_v2lgfdlsvc","5ee738a018d5a84caa7e0f2a","freq_resp","img/green_2bandit_a.png","70","70","test","","","","2","",""
"null","109920","pSARL_v2","pSARL_v2lgfdlsvc","5ee738a018d5a84caa7e0f2a","fixation","img/fixation.png","null","","test","","","","","",""
"321.3000000715256","110243","pSARL_v2","pSARL_v2lgfdlsvc","5ee738a018d5a84caa7e0f2a","freq","img/green_2bandit_a2.png","70","70","test","1","34","34","2","",""
"null","110740","pSARL_v2","pSARL_v2lgfdlsvc","5ee738a018d5a84caa7e0f2a","freq_resp","img/green_2bandit_a.png","70","70","test","","","","2","",""
"null","110895","pSARL_v2","pSARL_v2lgfdlsvc","5ee738a018d5a84caa7e0f2a","fixation","img/fixation.png","null","","test","","","","","",""
"374.7000000476837","111272","pSARL_v2","pSARL_v2lgfdlsvc","5ee738a018d5a84caa7e0f2a","freq","img/green_2bandit_a2.png","70","70","test","1","35","35","2","",""
"null","111714","pSARL_v2","pSARL_v2lgfdlsvc","5ee738a018d5a84caa7e0f2a","freq_resp","img/green_2bandit_a.png","70","70","test","","","","2","",""
"null","111868","pSARL_v2","pSARL_v2lgfdlsvc","5ee738a018d5a84caa7e0f2a","fixation","img/fixation.png","null","","test","","","","","",""
"304.5","112175","pSARL_v2","pSARL_v2lgfdlsvc","5ee738a018d5a84caa7e0f2a","freq","img/green_2bandit_a2.png","70","70","test","1","36","36","2","",""
"null","112674","pSARL_v2","pSARL_v2lgfdlsvc","5ee738a018d5a84caa7e0f2a","freq_resp","img/green_2bandit_a.png","70","70","test","","","","2","",""
"null","112830","pSARL_v2","pSARL_v2lgfdlsvc","5ee738a018d5a84caa7e0f2a","fixation","img/fixation.png","null","","test","","","","","",""
"267.7999999523163","113100","pSARL_v2","pSARL_v2lgfdlsvc","5ee738a018d5a84caa7e0f2a","freq","img/green_2bandit_a2.png","70","70","test","1","37","37","2","",""
"null","113635","pSARL_v2","pSARL_v2lgfdlsvc","5ee738a018d5a84caa7e0f2a","freq_resp","img/green_2bandit_a.png","70","70","test","","","","2","",""
"null","113789","pSARL_v2","pSARL_v2lgfdlsvc","5ee738a018d5a84caa7e0f2a","fixation","img/fixation.png","null","","test","","","","","",""
"292.10000002384186","114084","pSARL_v2","pSARL_v2lgfdlsvc","5ee738a018d5a84caa7e0f2a","freq","img/green_2bandit_a2.png","70","70","test","1","38","38","2","",""
"null","114594","pSARL_v2","pSARL_v2lgfdlsvc","5ee738a018d5a84caa7e0f2a","freq_resp","img/green_2bandit_a.png","70","70","test","","","","2","",""
"null","114749","pSARL_v2","pSARL_v2lgfdlsvc","5ee738a018d5a84caa7e0f2a","fixation","img/fixation.png","null","","test","","","","","",""
"280.90000009536743","115032","pSARL_v2","pSARL_v2lgfdlsvc","5ee738a018d5a84caa7e0f2a","freq","img/green_2bandit_a2.png","70","70","test","1","39","39","2","",""
"null","115569","pSARL_v2","pSARL_v2lgfdlsvc","5ee738a018d5a84caa7e0f2a","freq_resp","img/green_2bandit_a.png","70","70","test","","","","2","",""
"null","115723","pSARL_v2","pSARL_v2lgfdlsvc","5ee738a018d5a84caa7e0f2a","fixation","img/fixation.png","null","","test","","","","","",""
"270","115997","pSARL_v2","pSARL_v2lgfdlsvc","5ee738a018d5a84caa7e0f2a","freq","img/green_2bandit_a2.png","70","70","test","1","40","40","2","",""
"null","116531","pSARL_v2","pSARL_v2lgfdlsvc","5ee738a018d5a84caa7e0f2a","freq_resp","img/green_2bandit_a.png","70","70","test","","","","2","",""
"null","116685","pSARL_v2","pSARL_v2lgfdlsvc","5ee738a018d5a84caa7e0f2a","fixation","img/fixation.png","null","","test","","","","","",""
"242.59999990463257","116930","pSARL_v2","pSARL_v2lgfdlsvc","5ee738a018d5a84caa7e0f2a","freq","img/green_2bandit_a2.png","70","70","test","1","41","41","2","",""
"null","117490","pSARL_v2","pSARL_v2lgfdlsvc","5ee738a018d5a84caa7e0f2a","freq_resp","img/green_2bandit_a.png","70","70","test","","","","2","",""
"null","117644","pSARL_v2","pSARL_v2lgfdlsvc","5ee738a018d5a84caa7e0f2a","fixation","img/fixation.png","null","","test","","","","","",""
"252.80000007152557","117899","pSARL_v2","pSARL_v2lgfdlsvc","5ee738a018d5a84caa7e0f2a","freq","img/green_2bandit_a2.png","70","70","test","1","42","42","2","",""
"null","118449","pSARL_v2","pSARL_v2lgfdlsvc","5ee738a018d5a84caa7e0f2a","freq_resp","img/green_2bandit_a.png","70","70","test","","","","2","",""
"null","118602","pSARL_v2","pSARL_v2lgfdlsvc","5ee738a018d5a84caa7e0f2a","fixation","img/fixation.png","null","","test","","","","","",""
"740.8999999761581","119345","pSARL_v2","pSARL_v2lgfdlsvc","5ee738a018d5a84caa7e0f2a","reward","img/slot.png","74","","test","","","","","",""
"null","120102","pSARL_v2","pSARL_v2lgfdlsvc","5ee738a018d5a84caa7e0f2a","points","<div class=""verylowPoints""> -11 </div>","null","na","test","","","","2","-11","1"
"578.1999999284744","120682","pSARL_v2","pSARL_v2lgfdlsvc","5ee738a018d5a84caa7e0f2a","freq","img/green_2bandit_a2.png","70","70","test","1","43","43","3","",""
"null","120920","pSARL_v2","pSARL_v2lgfdlsvc","5ee738a018d5a84caa7e0f2a","freq_resp","img/green_2bandit_a.png","70","70","test","","","","3","",""
"null","121077","pSARL_v2","pSARL_v2lgfdlsvc","5ee738a018d5a84caa7e0f2a","fixation","img/fixation.png","null","","test","","","","","",""
"291.3000000715256","121370","pSARL_v2","pSARL_v2lgfdlsvc","5ee738a018d5a84caa7e0f2a","freq","img/green_2bandit_a2.png","70","70","test","1","44","44","3","",""
"null","121883","pSARL_v2","pSARL_v2lgfdlsvc","5ee738a018d5a84caa7e0f2a","freq_resp","img/green_2bandit_a.png","70","70","test","","","","3","",""
"null","122039","pSARL_v2","pSARL_v2lgfdlsvc","5ee738a018d5a84caa7e0f2a","fixation","img/fixation.png","null","","test","","","","","",""
"375.5","122417","pSARL_v2","pSARL_v2lgfdlsvc","5ee738a018d5a84caa7e0f2a","freq","img/green_2bandit_a2.png","70","70","test","1","45","45","3","",""
"null","122859","pSARL_v2","pSARL_v2lgfdlsvc","5ee738a018d5a84caa7e0f2a","freq_resp","img/green_2bandit_a.png","70","70","test","","","","3","",""
"null","123015","pSARL_v2","pSARL_v2lgfdlsvc","5ee738a018d5a84caa7e0f2a","fixation","img/fixation.png","null","","test","","","","","",""
"260.5","123277","pSARL_v2","pSARL_v2lgfdlsvc","5ee738a018d5a84caa7e0f2a","freq","img/green_2bandit_a2.png","70","70","test","1","46","46","3","",""
"null","123836","pSARL_v2","pSARL_v2lgfdlsvc","5ee738a018d5a84caa7e0f2a","freq_resp","img/green_2bandit_a.png","70","70","test","","","","3","",""
"null","124003","pSARL_v2","pSARL_v2lgfdlsvc","5ee738a018d5a84caa7e0f2a","fixation","img/fixation.png","null","","test","","","","","",""
"286.7999999523163","124292","pSARL_v2","pSARL_v2lgfdlsvc","5ee738a018d5a84caa7e0f2a","freq","img/green_2bandit_a2.png","70","70","test","1","47","47","3","",""
"null","124821","pSARL_v2","pSARL_v2lgfdlsvc","5ee738a018d5a84caa7e0f2a","freq_resp","img/green_2bandit_a.png","70","70","test","","","","3","",""
"null","124975","pSARL_v2","pSARL_v2lgfdlsvc","5ee738a018d5a84caa7e0f2a","fixation","img/fixation.png","null","","test","","","","","",""
"357.3000000715256","125335","pSARL_v2","pSARL_v2lgfdlsvc","5ee738a018d5a84caa7e0f2a","infreq","img/orange_2bandit_a2.png","68","68","test","1","48","48","3","",""
"null","125780","pSARL_v2","pSARL_v2lgfdlsvc","5ee738a018d5a84caa7e0f2a","infreq_resp","img/orange_2bandit_a.png","68","68","test","","","","3","",""
"null","125934","pSARL_v2","pSARL_v2lgfdlsvc","5ee738a018d5a84caa7e0f2a","fixation","img/fixation.png","null","","test","","","","","",""
"391.39999997615814","126328","pSARL_v2","pSARL_v2lgfdlsvc","5ee738a018d5a84caa7e0f2a","freq","img/green_2bandit_a2.png","70","70","test","1","49","49","3","",""
"null","126740","pSARL_v2","pSARL_v2lgfdlsvc","5ee738a018d5a84caa7e0f2a","freq_resp","img/green_2bandit_a.png","70","70","test","","","","3","",""
"null","126909","pSARL_v2","pSARL_v2lgfdlsvc","5ee738a018d5a84caa7e0f2a","fixation","img/fixation.png","null","","test","","","","","",""
"352","127263","pSARL_v2","pSARL_v2lgfdlsvc","5ee738a018d5a84caa7e0f2a","infreq","img/orange_2bandit_a2.png","68","68","test","1","50","50","3","",""
"null","127718","pSARL_v2","pSARL_v2lgfdlsvc","5ee738a018d5a84caa7e0f2a","infreq_resp","img/orange_2bandit_a.png","68","68","test","","","","3","",""
"null","127872","pSARL_v2","pSARL_v2lgfdlsvc","5ee738a018d5a84caa7e0f2a","fixation","img/fixation.png","null","","test","","","","","",""
"361","128235","pSARL_v2","pSARL_v2lgfdlsvc","5ee738a018d5a84caa7e0f2a","freq","img/green_2bandit_a2.png","70","70","test","1","51","51","3","",""
"null","128680","pSARL_v2","pSARL_v2lgfdlsvc","5ee738a018d5a84caa7e0f2a","freq_resp","img/green_2bandit_a.png","70","70","test","","","","3","",""
"null","128835","pSARL_v2","pSARL_v2lgfdlsvc","5ee738a018d5a84caa7e0f2a","fixation","img/fixation.png","null","","test","","","","","",""
"345.7999999523163","129183","pSARL_v2","pSARL_v2lgfdlsvc","5ee738a018d5a84caa7e0f2a","freq","img/green_2bandit_a2.png","68","70","test","0","52","52","3","",""
"null","129651","pSARL_v2","pSARL_v2lgfdlsvc","5ee738a018d5a84caa7e0f2a","freq_resp","img/green_2bandit_a.png","68","70","test","","","","3","",""
"null","129807","pSARL_v2","pSARL_v2lgfdlsvc","5ee738a018d5a84caa7e0f2a","fixation","img/fixation.png","null","","test","","","","","",""
"345.7000000476837","130155","pSARL_v2","pSARL_v2lgfdlsvc","5ee738a018d5a84caa7e0f2a","freq","img/green_2bandit_a2.png","70","70","test","1","53","53","3","",""
"null","130613","pSARL_v2","pSARL_v2lgfdlsvc","5ee738a018d5a84caa7e0f2a","freq_resp","img/green_2bandit_a.png","70","70","test","","","","3","",""
"null","130769","pSARL_v2","pSARL_v2lgfdlsvc","5ee738a018d5a84caa7e0f2a","fixation","img/fixation.png","null","","test","","","","","",""
"291.40000009536743","131062","pSARL_v2","pSARL_v2lgfdlsvc","5ee738a018d5a84caa7e0f2a","freq","img/green_2bandit_a2.png","70","70","test","1","54","54","3","",""
"null","131581","pSARL_v2","pSARL_v2lgfdlsvc","5ee738a018d5a84caa7e0f2a","freq_resp","img/green_2bandit_a.png","70","70","test","","","","3","",""
"null","131734","pSARL_v2","pSARL_v2lgfdlsvc","5ee738a018d5a84caa7e0f2a","fixation","img/fixation.png","null","","test","","","","","",""
"366.8000000715256","132103","pSARL_v2","pSARL_v2lgfdlsvc","5ee738a018d5a84caa7e0f2a","freq","img/green_2bandit_a2.png","70","70","test","1","55","55","3","",""
"null","132553","pSARL_v2","pSARL_v2lgfdlsvc","5ee738a018d5a84caa7e0f2a","freq_resp","img/green_2bandit_a.png","70","70","test","","","","3","",""
"null","132709","pSARL_v2","pSARL_v2lgfdlsvc","5ee738a018d5a84caa7e0f2a","fixation","img/fixation.png","null","","test","","","","","",""
"267","132978","pSARL_v2","pSARL_v2lgfdlsvc","5ee738a018d5a84caa7e0f2a","freq","img/green_2bandit_a2.png","70","70","test","1","56","56","3","",""
"null","133518","pSARL_v2","pSARL_v2lgfdlsvc","5ee738a018d5a84caa7e0f2a","freq_resp","img/green_2bandit_a.png","70","70","test","","","","3","",""
"null","133673","pSARL_v2","pSARL_v2lgfdlsvc","5ee738a018d5a84caa7e0f2a","fixation","img/fixation.png","null","","test","","","","","",""
"236.20000004768372","133911","pSARL_v2","pSARL_v2lgfdlsvc","5ee738a018d5a84caa7e0f2a","freq","img/green_2bandit_a2.png","70","70","test","1","57","57","3","",""
"null","134481","pSARL_v2","pSARL_v2lgfdlsvc","5ee738a018d5a84caa7e0f2a","freq_resp","img/green_2bandit_a.png","70","70","test","","","","3","",""
"null","134637","pSARL_v2","pSARL_v2lgfdlsvc","5ee738a018d5a84caa7e0f2a","fixation","img/fixation.png","null","","test","","","","","",""
"216.60000002384186","134856","pSARL_v2","pSARL_v2lgfdlsvc","5ee738a018d5a84caa7e0f2a","freq","img/green_2bandit_a2.png","70","70","test","1","58","58","3","",""
"null","135443","pSARL_v2","pSARL_v2lgfdlsvc","5ee738a018d5a84caa7e0f2a","freq_resp","img/green_2bandit_a.png","70","70","test","","","","3","",""
"null","135598","pSARL_v2","pSARL_v2lgfdlsvc","5ee738a018d5a84caa7e0f2a","fixation","img/fixation.png","null","","test","","","","","",""
"315.2000000476837","135916","pSARL_v2","pSARL_v2lgfdlsvc","5ee738a018d5a84caa7e0f2a","freq","img/green_2bandit_a2.png","70","70","test","1","59","59","3","",""
"null","136405","pSARL_v2","pSARL_v2lgfdlsvc","5ee738a018d5a84caa7e0f2a","freq_resp","img/green_2bandit_a.png","70","70","test","","","","3","",""
"null","136574","pSARL_v2","pSARL_v2lgfdlsvc","5ee738a018d5a84caa7e0f2a","fixation","img/fixation.png","null","","test","","","","","",""
"429.7999999523163","137006","pSARL_v2","pSARL_v2lgfdlsvc","5ee738a018d5a84caa7e0f2a","freq","img/green_2bandit_a2.png","70","70","test","1","60","60","3","",""
"null","137380","pSARL_v2","pSARL_v2lgfdlsvc","5ee738a018d5a84caa7e0f2a","freq_resp","img/green_2bandit_a.png","70","70","test","","","","3","",""
"null","137534","pSARL_v2","pSARL_v2lgfdlsvc","5ee738a018d5a84caa7e0f2a","fixation","img/fixation.png","null","","test","","","","","",""
"251","137787","pSARL_v2","pSARL_v2lgfdlsvc","5ee738a018d5a84caa7e0f2a","freq","img/green_2bandit_a2.png","70","70","test","1","61","61","3","",""
"null","138352","pSARL_v2","pSARL_v2lgfdlsvc","5ee738a018d5a84caa7e0f2a","freq_resp","img/green_2bandit_a.png","70","70","test","","","","3","",""
"null","138506","pSARL_v2","pSARL_v2lgfdlsvc","5ee738a018d5a84caa7e0f2a","fixation","img/fixation.png","null","","test","","","","","",""
"277.60000002384186","138787","pSARL_v2","pSARL_v2lgfdlsvc","5ee738a018d5a84caa7e0f2a","freq","img/green_2bandit_a2.png","70","70","test","1","62","62","3","",""
"null","139328","pSARL_v2","pSARL_v2lgfdlsvc","5ee738a018d5a84caa7e0f2a","freq_resp","img/green_2bandit_a.png","70","70","test","","","","3","",""
"null","139482","pSARL_v2","pSARL_v2lgfdlsvc","5ee738a018d5a84caa7e0f2a","fixation","img/fixation.png","null","","test","","","","","",""
"289.5","139774","pSARL_v2","pSARL_v2lgfdlsvc","5ee738a018d5a84caa7e0f2a","freq","img/green_2bandit_a2.png","70","70","test","1","63","63","3","",""
"null","140288","pSARL_v2","pSARL_v2lgfdlsvc","5ee738a018d5a84caa7e0f2a","freq_resp","img/green_2bandit_a.png","70","70","test","","","","3","",""
"null","140443","pSARL_v2","pSARL_v2lgfdlsvc","5ee738a018d5a84caa7e0f2a","fixation","img/fixation.png","null","","test","","","","","",""
"214.60000002384186","140660","pSARL_v2","pSARL_v2lgfdlsvc","5ee738a018d5a84caa7e0f2a","freq","img/green_2bandit_a2.png","70","70","test","1","64","64","3","",""
"null","141261","pSARL_v2","pSARL_v2lgfdlsvc","5ee738a018d5a84caa7e0f2a","freq_resp","img/green_2bandit_a.png","70","70","test","","","","3","",""
"null","141417","pSARL_v2","pSARL_v2lgfdlsvc","5ee738a018d5a84caa7e0f2a","fixation","img/fixation.png","null","","test","","","","","",""
"204.29999995231628","141624","pSARL_v2","pSARL_v2lgfdlsvc","5ee738a018d5a84caa7e0f2a","freq","img/green_2bandit_a2.png","70","70","test","1","65","65","3","",""
"null","142224","pSARL_v2","pSARL_v2lgfdlsvc","5ee738a018d5a84caa7e0f2a","freq_resp","img/green_2bandit_a.png","70","70","test","","","","3","",""
"null","142379","pSARL_v2","pSARL_v2lgfdlsvc","5ee738a018d5a84caa7e0f2a","fixation","img/fixation.png","null","","test","","","","","",""
"201.09999990463257","142582","pSARL_v2","pSARL_v2lgfdlsvc","5ee738a018d5a84caa7e0f2a","freq","img/green_2bandit_a2.png","70","70","test","1","66","66","3","",""
"null","143195","pSARL_v2","pSARL_v2lgfdlsvc","5ee738a018d5a84caa7e0f2a","freq_resp","img/green_2bandit_a.png","70","70","test","","","","3","",""
"null","143351","pSARL_v2","pSARL_v2lgfdlsvc","5ee738a018d5a84caa7e0f2a","fixation","img/fixation.png","null","","test","","","","","",""
"496.1999999284744","143850","pSARL_v2","pSARL_v2lgfdlsvc","5ee738a018d5a84caa7e0f2a","reward","img/slot.png","74","","test","","","","","",""
"null","144607","pSARL_v2","pSARL_v2lgfdlsvc","5ee738a018d5a84caa7e0f2a","points","<div class=""verylowPoints""> -7 </div>","null","na","test","","","","3","-7","2"
"265.39999997615814","144876","pSARL_v2","pSARL_v2lgfdlsvc","5ee738a018d5a84caa7e0f2a","freq","img/green_2bandit_a2.png","70","70","test","1","67","67","4","",""
"null","145428","pSARL_v2","pSARL_v2lgfdlsvc","5ee738a018d5a84caa7e0f2a","freq_resp","img/green_2bandit_a.png","70","70","test","","","","4","",""
"null","145584","pSARL_v2","pSARL_v2lgfdlsvc","5ee738a018d5a84caa7e0f2a","fixation","img/fixation.png","null","","test","","","","","",""
"82.39999997615814","145669","pSARL_v2","pSARL_v2lgfdlsvc","5ee738a018d5a84caa7e0f2a","freq","img/green_2bandit_a2.png","70","70","test","1","68","68","4","",""
"null","146401","pSARL_v2","pSARL_v2lgfdlsvc","5ee738a018d5a84caa7e0f2a","freq_resp","img/green_2bandit_a.png","70","70","test","","","","4","",""
"null","146556","pSARL_v2","pSARL_v2lgfdlsvc","5ee738a018d5a84caa7e0f2a","fixation","img/fixation.png","null","","test","","","","","",""
"226.39999997615814","146784","pSARL_v2","pSARL_v2lgfdlsvc","5ee738a018d5a84caa7e0f2a","freq","img/green_2bandit_a2.png","70","70","test","1","69","69","4","",""
"null","147375","pSARL_v2","pSARL_v2lgfdlsvc","5ee738a018d5a84caa7e0f2a","freq_resp","img/green_2bandit_a.png","70","70","test","","","","4","",""
"null","147531","pSARL_v2","pSARL_v2lgfdlsvc","5ee738a018d5a84caa7e0f2a","fixation","img/fixation.png","null","","test","","","","","",""
"383","147918","pSARL_v2","pSARL_v2lgfdlsvc","5ee738a018d5a84caa7e0f2a","infreq","img/orange_2bandit_a2.png","68","68","test","1","70","70","4","",""
"null","148346","pSARL_v2","pSARL_v2lgfdlsvc","5ee738a018d5a84caa7e0f2a","infreq_resp","img/orange_2bandit_a.png","68","68","test","","","","4","",""
"null","148515","pSARL_v2","pSARL_v2lgfdlsvc","5ee738a018d5a84caa7e0f2a","fixation","img/fixation.png","null","","test","","","","","",""
"277.10000002384186","148795","pSARL_v2","pSARL_v2lgfdlsvc","5ee738a018d5a84caa7e0f2a","freq","img/green_2bandit_a2.png","70","70","test","1","71","71","4","",""
"null","149332","pSARL_v2","pSARL_v2lgfdlsvc","5ee738a018d5a84caa7e0f2a","freq_resp","img/green_2bandit_a.png","70","70","test","","","","4","",""
"null","149488","pSARL_v2","pSARL_v2lgfdlsvc","5ee738a018d5a84caa7e0f2a","fixation","img/fixation.png","null","","test","","","","","",""
"279","149769","pSARL_v2","pSARL_v2lgfdlsvc","5ee738a018d5a84caa7e0f2a","freq","img/green_2bandit_a2.png","70","70","test","1","72","72","4","",""
"null","150307","pSARL_v2","pSARL_v2lgfdlsvc","5ee738a018d5a84caa7e0f2a","freq_resp","img/green_2bandit_a.png","70","70","test","","","","4","",""
"null","150461","pSARL_v2","pSARL_v2lgfdlsvc","5ee738a018d5a84caa7e0f2a","fixation","img/fixation.png","null","","test","","","","","",""
"268.7999999523163","150734","pSARL_v2","pSARL_v2lgfdlsvc","5ee738a018d5a84caa7e0f2a","freq","img/green_2bandit_a2.png","70","70","test","1","73","73","4","",""
"null","151277","pSARL_v2","pSARL_v2lgfdlsvc","5ee738a018d5a84caa7e0f2a","freq_resp","img/green_2bandit_a.png","70","70","test","","","","4","",""
"null","151445","pSARL_v2","pSARL_v2lgfdlsvc","5ee738a018d5a84caa7e0f2a","fixation","img/fixation.png","null","","test","","","","","",""
"262.39999997615814","151710","pSARL_v2","pSARL_v2lgfdlsvc","5ee738a018d5a84caa7e0f2a","freq","img/green_2bandit_a2.png","70","70","test","1","74","74","4","",""
"null","152265","pSARL_v2","pSARL_v2lgfdlsvc","5ee738a018d5a84caa7e0f2a","freq_resp","img/green_2bandit_a.png","70","70","test","","","","4","",""
"null","152420","pSARL_v2","pSARL_v2lgfdlsvc","5ee738a018d5a84caa7e0f2a","fixation","img/fixation.png","null","","test","","","","","",""
"277.2999999523163","152699","pSARL_v2","pSARL_v2lgfdlsvc","5ee738a018d5a84caa7e0f2a","freq","img/green_2bandit_a2.png","70","70","test","1","75","75","4","",""
"null","153226","pSARL_v2","pSARL_v2lgfdlsvc","5ee738a018d5a84caa7e0f2a","freq_resp","img/green_2bandit_a.png","70","70","test","","","","4","",""
"null","153381","pSARL_v2","pSARL_v2lgfdlsvc","5ee738a018d5a84caa7e0f2a","fixation","img/fixation.png","null","","test","","","","","",""
"240.20000004768372","153624","pSARL_v2","pSARL_v2lgfdlsvc","5ee738a018d5a84caa7e0f2a","freq","img/green_2bandit_a2.png","70","70","test","1","76","76","4","",""
"null","154198","pSARL_v2","pSARL_v2lgfdlsvc","5ee738a018d5a84caa7e0f2a","freq_resp","img/green_2bandit_a.png","70","70","test","","","","4","",""
"null","154355","pSARL_v2","pSARL_v2lgfdlsvc","5ee738a018d5a84caa7e0f2a","fixation","img/fixation.png","null","","test","","","","","",""
"374.7000000476837","154733","pSARL_v2","pSARL_v2lgfdlsvc","5ee738a018d5a84caa7e0f2a","infreq","img/orange_2bandit_a2.png","68","68","test","1","77","77","4","",""
"null","155176","pSARL_v2","pSARL_v2lgfdlsvc","5ee738a018d5a84caa7e0f2a","infreq_resp","img/orange_2bandit_a.png","68","68","test","","","","4","",""
"null","155331","pSARL_v2","pSARL_v2lgfdlsvc","5ee738a018d5a84caa7e0f2a","fixation","img/fixation.png","null","","test","","","","","",""
"370.10000002384186","155703","pSARL_v2","pSARL_v2lgfdlsvc","5ee738a018d5a84caa7e0f2a","infreq","img/orange_2bandit_a2.png","68","68","test","1","78","78","4","",""
"null","156138","pSARL_v2","pSARL_v2lgfdlsvc","5ee738a018d5a84caa7e0f2a","infreq_resp","img/orange_2bandit_a.png","68","68","test","","","","4","",""
"null","156294","pSARL_v2","pSARL_v2lgfdlsvc","5ee738a018d5a84caa7e0f2a","fixation","img/fixation.png","null","","test","","","","","",""
"444.10000002384186","156742","pSARL_v2","pSARL_v2lgfdlsvc","5ee738a018d5a84caa7e0f2a","freq","img/green_2bandit_a2.png","70","70","test","1","79","79","4","",""
"null","157113","pSARL_v2","pSARL_v2lgfdlsvc","5ee738a018d5a84caa7e0f2a","freq_resp","img/green_2bandit_a.png","70","70","test","","","","4","",""
"null","157268","pSARL_v2","pSARL_v2lgfdlsvc","5ee738a018d5a84caa7e0f2a","fixation","img/fixation.png","null","","test","","","","","",""
"304.60000002384186","157575","pSARL_v2","pSARL_v2lgfdlsvc","5ee738a018d5a84caa7e0f2a","freq","img/green_2bandit_a2.png","70","70","test","1","80","80","4","",""
"null","158076","pSARL_v2","pSARL_v2lgfdlsvc","5ee738a018d5a84caa7e0f2a","freq_resp","img/green_2bandit_a.png","70","70","test","","","","4","",""
"null","158245","pSARL_v2","pSARL_v2lgfdlsvc","5ee738a018d5a84caa7e0f2a","fixation","img/fixation.png","null","","test","","","","","",""
"249.10000002384186","158497","pSARL_v2","pSARL_v2lgfdlsvc","5ee738a018d5a84caa7e0f2a","freq","img/green_2bandit_a2.png","70","70","test","1","81","81","4","",""
"null","159052","pSARL_v2","pSARL_v2lgfdlsvc","5ee738a018d5a84caa7e0f2a","freq_resp","img/green_2bandit_a.png","70","70","test","","","","4","",""
"null","159204","pSARL_v2","pSARL_v2lgfdlsvc","5ee738a018d5a84caa7e0f2a","fixation","img/fixation.png","null","","test","","","","","",""
"249.80000007152557","159457","pSARL_v2","pSARL_v2lgfdlsvc","5ee738a018d5a84caa7e0f2a","freq","img/green_2bandit_a2.png","70","70","test","1","82","82","4","",""
"null","160023","pSARL_v2","pSARL_v2lgfdlsvc","5ee738a018d5a84caa7e0f2a","freq_resp","img/green_2bandit_a.png","70","70","test","","","","4","",""
"null","160178","pSARL_v2","pSARL_v2lgfdlsvc","5ee738a018d5a84caa7e0f2a","fixation","img/fixation.png","null","","test","","","","","",""
"247.89999997615814","160428","pSARL_v2","pSARL_v2lgfdlsvc","5ee738a018d5a84caa7e0f2a","freq","img/green_2bandit_a2.png","70","70","test","1","83","83","4","",""
"null","160983","pSARL_v2","pSARL_v2lgfdlsvc","5ee738a018d5a84caa7e0f2a","freq_resp","img/green_2bandit_a.png","70","70","test","","","","4","",""
"null","161136","pSARL_v2","pSARL_v2lgfdlsvc","5ee738a018d5a84caa7e0f2a","fixation","img/fixation.png","null","","test","","","","","",""
"248.80000007152557","161387","pSARL_v2","pSARL_v2lgfdlsvc","5ee738a018d5a84caa7e0f2a","freq","img/green_2bandit_a2.png","70","70","test","1","84","84","4","",""
"null","161942","pSARL_v2","pSARL_v2lgfdlsvc","5ee738a018d5a84caa7e0f2a","freq_resp","img/green_2bandit_a.png","70","70","test","","","","4","",""
"null","162097","pSARL_v2","pSARL_v2lgfdlsvc","5ee738a018d5a84caa7e0f2a","fixation","img/fixation.png","null","","test","","","","","",""
"208.19999992847443","162308","pSARL_v2","pSARL_v2lgfdlsvc","5ee738a018d5a84caa7e0f2a","freq","img/green_2bandit_a2.png","70","70","test","1","85","85","4","",""
"null","162903","pSARL_v2","pSARL_v2lgfdlsvc","5ee738a018d5a84caa7e0f2a","freq_resp","img/green_2bandit_a.png","70","70","test","","","","4","",""
"null","163060","pSARL_v2","pSARL_v2lgfdlsvc","5ee738a018d5a84caa7e0f2a","fixation","img/fixation.png","null","","test","","","","","",""
"176.60000002384186","163239","pSARL_v2","pSARL_v2lgfdlsvc","5ee738a018d5a84caa7e0f2a","freq","img/green_2bandit_a2.png","70","70","test","1","86","86","4","",""
"null","163880","pSARL_v2","pSARL_v2lgfdlsvc","5ee738a018d5a84caa7e0f2a","freq_resp","img/green_2bandit_a.png","70","70","test","","","","4","",""
"null","164037","pSARL_v2","pSARL_v2lgfdlsvc","5ee738a018d5a84caa7e0f2a","fixation","img/fixation.png","null","","test","","","","","",""
"474.89999997615814","164514","pSARL_v2","pSARL_v2lgfdlsvc","5ee738a018d5a84caa7e0f2a","reward","img/slot.png","74","","test","","","","","",""
"null","165278","pSARL_v2","pSARL_v2lgfdlsvc","5ee738a018d5a84caa7e0f2a","points","<div class=""verylowPoints""> -3 </div>","null","na","test","","","","4","-3","3"
"295.89999997615814","165576","pSARL_v2","pSARL_v2lgfdlsvc","5ee738a018d5a84caa7e0f2a","freq","img/green_2bandit_a2.png","70","70","test","1","87","87","5","",""
"null","166093","pSARL_v2","pSARL_v2lgfdlsvc","5ee738a018d5a84caa7e0f2a","freq_resp","img/green_2bandit_a.png","70","70","test","","","","5","",""
"null","166249","pSARL_v2","pSARL_v2lgfdlsvc","5ee738a018d5a84caa7e0f2a","fixation","img/fixation.png","null","","test","","","","","",""
"199.39999997615814","166450","pSARL_v2","pSARL_v2lgfdlsvc","5ee738a018d5a84caa7e0f2a","freq","img/green_2bandit_a2.png","70","70","test","1","88","88","5","",""
"null","167055","pSARL_v2","pSARL_v2lgfdlsvc","5ee738a018d5a84caa7e0f2a","freq_resp","img/green_2bandit_a.png","70","70","test","","","","5","",""
"null","167209","pSARL_v2","pSARL_v2lgfdlsvc","5ee738a018d5a84caa7e0f2a","fixation","img/fixation.png","null","","test","","","","","",""
"403","167615","pSARL_v2","pSARL_v2lgfdlsvc","5ee738a018d5a84caa7e0f2a","infreq","img/orange_2bandit_a2.png","68","68","test","1","89","89","5","",""
"null","168029","pSARL_v2","pSARL_v2lgfdlsvc","5ee738a018d5a84caa7e0f2a","infreq_resp","img/orange_2bandit_a.png","68","68","test","","","","5","",""
"null","168185","pSARL_v2","pSARL_v2lgfdlsvc","5ee738a018d5a84caa7e0f2a","fixation","img/fixation.png","null","","test","","","","","",""
"245.39999997615814","168432","pSARL_v2","pSARL_v2lgfdlsvc","5ee738a018d5a84caa7e0f2a","freq","img/green_2bandit_a2.png","70","70","test","1","90","90","5","",""
"null","168994","pSARL_v2","pSARL_v2lgfdlsvc","5ee738a018d5a84caa7e0f2a","freq_resp","img/green_2bandit_a.png","70","70","test","","","","5","",""
"null","169150","pSARL_v2","pSARL_v2lgfdlsvc","5ee738a018d5a84caa7e0f2a","fixation","img/fixation.png","null","","test","","","","","",""
"253.60000002384186","169406","pSARL_v2","pSARL_v2lgfdlsvc","5ee738a018d5a84caa7e0f2a","freq","img/green_2bandit_a2.png","70","70","test","1","91","91","5","",""
"null","169956","pSARL_v2","pSARL_v2lgfdlsvc","5ee738a018d5a84caa7e0f2a","freq_resp","img/green_2bandit_a.png","70","70","test","","","","5","",""
"null","170111","pSARL_v2","pSARL_v2lgfdlsvc","5ee738a018d5a84caa7e0f2a","fixation","img/fixation.png","null","","test","","","","","",""
"275.5","170389","pSARL_v2","pSARL_v2lgfdlsvc","5ee738a018d5a84caa7e0f2a","freq","img/green_2bandit_a2.png","70","70","test","1","92","92","5","",""
"null","170921","pSARL_v2","pSARL_v2lgfdlsvc","5ee738a018d5a84caa7e0f2a","freq_resp","img/green_2bandit_a.png","70","70","test","","","","5","",""
"null","171090","pSARL_v2","pSARL_v2lgfdlsvc","5ee738a018d5a84caa7e0f2a","fixation","img/fixation.png","null","","test","","","","","",""
"248","171340","pSARL_v2","pSARL_v2lgfdlsvc","5ee738a018d5a84caa7e0f2a","freq","img/green_2bandit_a2.png","70","70","test","1","93","93","5","",""
"null","171895","pSARL_v2","pSARL_v2lgfdlsvc","5ee738a018d5a84caa7e0f2a","freq_resp","img/green_2bandit_a.png","70","70","test","","","","5","",""
"null","172052","pSARL_v2","pSARL_v2lgfdlsvc","5ee738a018d5a84caa7e0f2a","fixation","img/fixation.png","null","","test","","","","","",""
"706.7000000476837","172760","pSARL_v2","pSARL_v2lgfdlsvc","5ee738a018d5a84caa7e0f2a","freq","img/green_2bandit_a2.png","70","70","test","1","94","94","5","",""
"null","172857","pSARL_v2","pSARL_v2lgfdlsvc","5ee738a018d5a84caa7e0f2a","freq_resp","img/green_2bandit_a.png","70","70","test","","","","5","",""
"null","173015","pSARL_v2","pSARL_v2lgfdlsvc","5ee738a018d5a84caa7e0f2a","fixation","img/fixation.png","null","","test","","","","","",""
"335.89999997615814","173354","pSARL_v2","pSARL_v2lgfdlsvc","5ee738a018d5a84caa7e0f2a","freq","img/green_2bandit_a2.png","70","70","test","1","95","95","5","",""
"null","173836","pSARL_v2","pSARL_v2lgfdlsvc","5ee738a018d5a84caa7e0f2a","freq_resp","img/green_2bandit_a.png","70","70","test","","","","5","",""
"null","173991","pSARL_v2","pSARL_v2lgfdlsvc","5ee738a018d5a84caa7e0f2a","fixation","img/fixation.png","null","","test","","","","","",""
"263.10000002384186","174257","pSARL_v2","pSARL_v2lgfdlsvc","5ee738a018d5a84caa7e0f2a","freq","img/green_2bandit_a2.png","70","70","test","1","96","96","5","",""
"null","174809","pSARL_v2","pSARL_v2lgfdlsvc","5ee738a018d5a84caa7e0f2a","freq_resp","img/green_2bandit_a.png","70","70","test","","","","5","",""
"null","174978","pSARL_v2","pSARL_v2lgfdlsvc","5ee738a018d5a84caa7e0f2a","fixation","img/fixation.png","null","","test","","","","","",""
"208.20000004768372","175188","pSARL_v2","pSARL_v2lgfdlsvc","5ee738a018d5a84caa7e0f2a","freq","img/green_2bandit_a2.png","70","70","test","1","97","97","5","",""
"null","175782","pSARL_v2","pSARL_v2lgfdlsvc","5ee738a018d5a84caa7e0f2a","freq_resp","img/green_2bandit_a.png","70","70","test","","","","5","",""
"null","175937","pSARL_v2","pSARL_v2lgfdlsvc","5ee738a018d5a84caa7e0f2a","fixation","img/fixation.png","null","","test","","","","","",""
"208.5","176147","pSARL_v2","pSARL_v2lgfdlsvc","5ee738a018d5a84caa7e0f2a","freq","img/green_2bandit_a2.png","70","70","test","1","98","98","5","",""
"null","176743","pSARL_v2","pSARL_v2lgfdlsvc","5ee738a018d5a84caa7e0f2a","freq_resp","img/green_2bandit_a.png","70","70","test","","","","5","",""
"null","176898","pSARL_v2","pSARL_v2lgfdlsvc","5ee738a018d5a84caa7e0f2a","fixation","img/fixation.png","null","","test","","","","","",""
"204.39999997615814","177104","pSARL_v2","pSARL_v2lgfdlsvc","5ee738a018d5a84caa7e0f2a","freq","img/green_2bandit_a2.png","70","70","test","1","99","99","5","",""
"null","177706","pSARL_v2","pSARL_v2lgfdlsvc","5ee738a018d5a84caa7e0f2a","freq_resp","img/green_2bandit_a.png","70","70","test","","","","5","",""
"null","177861","pSARL_v2","pSARL_v2lgfdlsvc","5ee738a018d5a84caa7e0f2a","fixation","img/fixation.png","null","","test","","","","","",""
"203","178066","pSARL_v2","pSARL_v2lgfdlsvc","5ee738a018d5a84caa7e0f2a","freq","img/green_2bandit_a2.png","70","70","test","1","100","100","5","",""
"null","178680","pSARL_v2","pSARL_v2lgfdlsvc","5ee738a018d5a84caa7e0f2a","freq_resp","img/green_2bandit_a.png","70","70","test","","","","5","",""
"null","178834","pSARL_v2","pSARL_v2lgfdlsvc","5ee738a018d5a84caa7e0f2a","fixation","img/fixation.png","null","","test","","","","","",""
"212.30000007152557","179049","pSARL_v2","pSARL_v2lgfdlsvc","5ee738a018d5a84caa7e0f2a","freq","img/green_2bandit_a2.png","70","70","test","1","101","101","5","",""
"null","179640","pSARL_v2","pSARL_v2lgfdlsvc","5ee738a018d5a84caa7e0f2a","freq_resp","img/green_2bandit_a.png","70","70","test","","","","5","",""
"null","179794","pSARL_v2","pSARL_v2lgfdlsvc","5ee738a018d5a84caa7e0f2a","fixation","img/fixation.png","null","","test","","","","","",""
"144.5","179941","pSARL_v2","pSARL_v2lgfdlsvc","5ee738a018d5a84caa7e0f2a","freq","img/green_2bandit_a2.png","70","70","test","1","102","102","5","",""
"null","180600","pSARL_v2","pSARL_v2lgfdlsvc","5ee738a018d5a84caa7e0f2a","freq_resp","img/green_2bandit_a.png","70","70","test","","","","5","",""
"null","180755","pSARL_v2","pSARL_v2lgfdlsvc","5ee738a018d5a84caa7e0f2a","fixation","img/fixation.png","null","","test","","","","","",""
"235.5","180993","pSARL_v2","pSARL_v2lgfdlsvc","5ee738a018d5a84caa7e0f2a","freq","img/green_2bandit_a2.png","70","70","test","1","103","103","5","",""
"null","181575","pSARL_v2","pSARL_v2lgfdlsvc","5ee738a018d5a84caa7e0f2a","freq_resp","img/green_2bandit_a.png","70","70","test","","","","5","",""
"null","181729","pSARL_v2","pSARL_v2lgfdlsvc","5ee738a018d5a84caa7e0f2a","fixation","img/fixation.png","null","","test","","","","","",""
"147.20000004768372","181878","pSARL_v2","pSARL_v2lgfdlsvc","5ee738a018d5a84caa7e0f2a","infreq","img/orange_2bandit_a2.png","70","68","test","0","104","104","5","",""
"null","182548","pSARL_v2","pSARL_v2lgfdlsvc","5ee738a018d5a84caa7e0f2a","infreq_resp","img/orange_2bandit_a.png","70","68","test","","","","5","",""
"null","182703","pSARL_v2","pSARL_v2lgfdlsvc","5ee738a018d5a84caa7e0f2a","fixation","img/fixation.png","null","","test","","","","","",""
"229","182934","pSARL_v2","pSARL_v2lgfdlsvc","5ee738a018d5a84caa7e0f2a","freq","img/green_2bandit_a2.png","70","70","test","1","105","105","5","",""
"null","183523","pSARL_v2","pSARL_v2lgfdlsvc","5ee738a018d5a84caa7e0f2a","freq_resp","img/green_2bandit_a.png","70","70","test","","","","5","",""
"null","183677","pSARL_v2","pSARL_v2lgfdlsvc","5ee738a018d5a84caa7e0f2a","fixation","img/fixation.png","null","","test","","","","","",""
"236.79999995231628","183916","pSARL_v2","pSARL_v2lgfdlsvc","5ee738a018d5a84caa7e0f2a","freq","img/green_2bandit_a2.png","70","70","test","1","106","106","5","",""
"null","184485","pSARL_v2","pSARL_v2lgfdlsvc","5ee738a018d5a84caa7e0f2a","freq_resp","img/green_2bandit_a.png","70","70","test","","","","5","",""
"null","184641","pSARL_v2","pSARL_v2lgfdlsvc","5ee738a018d5a84caa7e0f2a","fixation","img/fixation.png","null","","test","","","","","",""
"207.5","184851","pSARL_v2","pSARL_v2lgfdlsvc","5ee738a018d5a84caa7e0f2a","freq","img/green_2bandit_a2.png","70","70","test","1","107","107","5","",""
"null","185459","pSARL_v2","pSARL_v2lgfdlsvc","5ee738a018d5a84caa7e0f2a","freq_resp","img/green_2bandit_a.png","70","70","test","","","","5","",""
"null","185614","pSARL_v2","pSARL_v2lgfdlsvc","5ee738a018d5a84caa7e0f2a","fixation","img/fixation.png","null","","test","","","","","",""
"218.29999995231628","185834","pSARL_v2","pSARL_v2lgfdlsvc","5ee738a018d5a84caa7e0f2a","freq","img/green_2bandit_a2.png","70","70","test","1","108","108","5","",""
"null","186422","pSARL_v2","pSARL_v2lgfdlsvc","5ee738a018d5a84caa7e0f2a","freq_resp","img/green_2bandit_a.png","70","70","test","","","","5","",""
"null","186579","pSARL_v2","pSARL_v2lgfdlsvc","5ee738a018d5a84caa7e0f2a","fixation","img/fixation.png","null","","test","","","","","",""
"455.60000002384186","187037","pSARL_v2","pSARL_v2lgfdlsvc","5ee738a018d5a84caa7e0f2a","reward","img/slot.png","74","","test","","","","","",""
"null","187801","pSARL_v2","pSARL_v2lgfdlsvc","5ee738a018d5a84caa7e0f2a","points","<div class=""veryhighPoints""> +1 </div>","null","na","test","","","","5","1","4"
"267.90000009536743","188072","pSARL_v2","pSARL_v2lgfdlsvc","5ee738a018d5a84caa7e0f2a","freq","img/green_2bandit_a2.png","70","70","test","1","109","109","6","",""
"null","188620","pSARL_v2","pSARL_v2lgfdlsvc","5ee738a018d5a84caa7e0f2a","freq_resp","img/green_2bandit_a.png","70","70","test","","","","6","",""
"null","188774","pSARL_v2","pSARL_v2lgfdlsvc","5ee738a018d5a84caa7e0f2a","fixation","img/fixation.png","null","","test","","","","","",""
"187.39999997615814","188963","pSARL_v2","pSARL_v2lgfdlsvc","5ee738a018d5a84caa7e0f2a","freq","img/green_2bandit_a2.png","70","70","test","1","110","110","6","",""
"null","189580","pSARL_v2","pSARL_v2lgfdlsvc","5ee738a018d5a84caa7e0f2a","freq_resp","img/green_2bandit_a.png","70","70","test","","","","6","",""
"null","189734","pSARL_v2","pSARL_v2lgfdlsvc","5ee738a018d5a84caa7e0f2a","fixation","img/fixation.png","null","","test","","","","","",""
"272.60000002384186","190010","pSARL_v2","pSARL_v2lgfdlsvc","5ee738a018d5a84caa7e0f2a","freq","img/green_2bandit_a2.png","70","70","test","1","111","111","6","",""
"null","190544","pSARL_v2","pSARL_v2lgfdlsvc","5ee738a018d5a84caa7e0f2a","freq_resp","img/green_2bandit_a.png","70","70","test","","","","6","",""
"null","190698","pSARL_v2","pSARL_v2lgfdlsvc","5ee738a018d5a84caa7e0f2a","fixation","img/fixation.png","null","","test","","","","","",""
"412.7000000476837","191113","pSARL_v2","pSARL_v2lgfdlsvc","5ee738a018d5a84caa7e0f2a","infreq","img/orange_2bandit_a2.png","68","68","test","1","112","112","6","",""
"null","191516","pSARL_v2","pSARL_v2lgfdlsvc","5ee738a018d5a84caa7e0f2a","infreq_resp","img/orange_2bandit_a.png","68","68","test","","","","6","",""
"null","191672","pSARL_v2","pSARL_v2lgfdlsvc","5ee738a018d5a84caa7e0f2a","fixation","img/fixation.png","null","","test","","","","","",""
"310.10000002384186","191984","pSARL_v2","pSARL_v2lgfdlsvc","5ee738a018d5a84caa7e0f2a","freq","img/green_2bandit_a2.png","70","70","test","1","113","113","6","",""
"null","192489","pSARL_v2","pSARL_v2lgfdlsvc","5ee738a018d5a84caa7e0f2a","freq_resp","img/green_2bandit_a.png","70","70","test","","","","6","",""
"null","192643","pSARL_v2","pSARL_v2lgfdlsvc","5ee738a018d5a84caa7e0f2a","fixation","img/fixation.png","null","","test","","","","","",""
"251.39999997615814","192896","pSARL_v2","pSARL_v2lgfdlsvc","5ee738a018d5a84caa7e0f2a","freq","img/green_2bandit_a2.png","70","70","test","1","114","114","6","",""
"null","193452","pSARL_v2","pSARL_v2lgfdlsvc","5ee738a018d5a84caa7e0f2a","freq_resp","img/green_2bandit_a.png","70","70","test","","","","6","",""
"null","193606","pSARL_v2","pSARL_v2lgfdlsvc","5ee738a018d5a84caa7e0f2a","fixation","img/fixation.png","null","","test","","","","","",""
"250.20000004768372","193860","pSARL_v2","pSARL_v2lgfdlsvc","5ee738a018d5a84caa7e0f2a","freq","img/green_2bandit_a2.png","70","70","test","1","115","115","6","",""
"null","194413","pSARL_v2","pSARL_v2lgfdlsvc","5ee738a018d5a84caa7e0f2a","freq_resp","img/green_2bandit_a.png","70","70","test","","","","6","",""
"null","194569","pSARL_v2","pSARL_v2lgfdlsvc","5ee738a018d5a84caa7e0f2a","fixation","img/fixation.png","null","","test","","","","","",""
"258.39999997615814","194830","pSARL_v2","pSARL_v2lgfdlsvc","5ee738a018d5a84caa7e0f2a","freq","img/green_2bandit_a2.png","70","70","test","1","116","116","6","",""
"null","195386","pSARL_v2","pSARL_v2lgfdlsvc","5ee738a018d5a84caa7e0f2a","freq_resp","img/green_2bandit_a.png","70","70","test","","","","6","",""
"null","195541","pSARL_v2","pSARL_v2lgfdlsvc","5ee738a018d5a84caa7e0f2a","fixation","img/fixation.png","null","","test","","","","","",""
"638.3000000715256","196182","pSARL_v2","pSARL_v2lgfdlsvc","5ee738a018d5a84caa7e0f2a","freq","img/green_2bandit_a2.png","70","70","test","1","117","117","6","",""
"null","196346","pSARL_v2","pSARL_v2lgfdlsvc","5ee738a018d5a84caa7e0f2a","freq_resp","img/green_2bandit_a.png","70","70","test","","","","6","",""
"null","196502","pSARL_v2","pSARL_v2lgfdlsvc","5ee738a018d5a84caa7e0f2a","fixation","img/fixation.png","null","","test","","","","","",""
"316.39999997615814","196821","pSARL_v2","pSARL_v2lgfdlsvc","5ee738a018d5a84caa7e0f2a","freq","img/green_2bandit_a2.png","70","70","test","1","118","118","6","",""
"null","197322","pSARL_v2","pSARL_v2lgfdlsvc","5ee738a018d5a84caa7e0f2a","freq_resp","img/green_2bandit_a.png","70","70","test","","","","6","",""
"null","197477","pSARL_v2","pSARL_v2lgfdlsvc","5ee738a018d5a84caa7e0f2a","fixation","img/fixation.png","null","","test","","","","","",""
"231.10000002384186","197711","pSARL_v2","pSARL_v2lgfdlsvc","5ee738a018d5a84caa7e0f2a","freq","img/green_2bandit_a2.png","70","70","test","1","119","119","6","",""
"null","198295","pSARL_v2","pSARL_v2lgfdlsvc","5ee738a018d5a84caa7e0f2a","freq_resp","img/green_2bandit_a.png","70","70","test","","","","6","",""
"null","198450","pSARL_v2","pSARL_v2lgfdlsvc","5ee738a018d5a84caa7e0f2a","fixation","img/fixation.png","null","","test","","","","","",""
"206.5","198659","pSARL_v2","pSARL_v2lgfdlsvc","5ee738a018d5a84caa7e0f2a","freq","img/green_2bandit_a2.png","70","70","test","1","120","120","6","",""
"null","199271","pSARL_v2","pSARL_v2lgfdlsvc","5ee738a018d5a84caa7e0f2a","freq_resp","img/green_2bandit_a.png","70","70","test","","","","6","",""
"null","199425","pSARL_v2","pSARL_v2lgfdlsvc","5ee738a018d5a84caa7e0f2a","fixation","img/fixation.png","null","","test","","","","","",""
"237.10000002384186","199666","pSARL_v2","pSARL_v2lgfdlsvc","5ee738a018d5a84caa7e0f2a","freq","img/green_2bandit_a2.png","70","70","test","1","121","121","6","",""
"null","200233","pSARL_v2","pSARL_v2lgfdlsvc","5ee738a018d5a84caa7e0f2a","freq_resp","img/green_2bandit_a.png","70","70","test","","","","6","",""
"null","200387","pSARL_v2","pSARL_v2lgfdlsvc","5ee738a018d5a84caa7e0f2a","fixation","img/fixation.png","null","","test","","","","","",""
"227.10000002384186","200617","pSARL_v2","pSARL_v2lgfdlsvc","5ee738a018d5a84caa7e0f2a","freq","img/green_2bandit_a2.png","70","70","test","1","122","122","6","",""
"null","201192","pSARL_v2","pSARL_v2lgfdlsvc","5ee738a018d5a84caa7e0f2a","freq_resp","img/green_2bandit_a.png","70","70","test","","","","6","",""
"null","201349","pSARL_v2","pSARL_v2lgfdlsvc","5ee738a018d5a84caa7e0f2a","fixation","img/fixation.png","null","","test","","","","","",""
"184.19999992847443","201537","pSARL_v2","pSARL_v2lgfdlsvc","5ee738a018d5a84caa7e0f2a","infreq","img/orange_2bandit_a2.png","70","68","test","0","123","123","6","",""
"null","202157","pSARL_v2","pSARL_v2lgfdlsvc","5ee738a018d5a84caa7e0f2a","infreq_resp","img/orange_2bandit_a.png","70","68","test","","","","6","",""
"null","202311","pSARL_v2","pSARL_v2lgfdlsvc","5ee738a018d5a84caa7e0f2a","fixation","img/fixation.png","null","","test","","","","","",""
"218.20000004768372","202532","pSARL_v2","pSARL_v2lgfdlsvc","5ee738a018d5a84caa7e0f2a","freq","img/green_2bandit_a2.png","70","70","test","1","124","124","6","",""
"null","203129","pSARL_v2","pSARL_v2lgfdlsvc","5ee738a018d5a84caa7e0f2a","freq_resp","img/green_2bandit_a.png","70","70","test","","","","6","",""
"null","203284","pSARL_v2","pSARL_v2lgfdlsvc","5ee738a018d5a84caa7e0f2a","fixation","img/fixation.png","null","","test","","","","","",""
"306.89999997615814","203593","pSARL_v2","pSARL_v2lgfdlsvc","5ee738a018d5a84caa7e0f2a","freq","img/green_2bandit_a2.png","70","70","test","1","125","125","6","",""
"null","204107","pSARL_v2","pSARL_v2lgfdlsvc","5ee738a018d5a84caa7e0f2a","freq_resp","img/green_2bandit_a.png","70","70","test","","","","6","",""
"null","204275","pSARL_v2","pSARL_v2lgfdlsvc","5ee738a018d5a84caa7e0f2a","fixation","img/fixation.png","null","","test","","","","","",""
"208","204485","pSARL_v2","pSARL_v2lgfdlsvc","5ee738a018d5a84caa7e0f2a","freq","img/green_2bandit_a2.png","70","70","test","1","126","126","6","",""
"null","205082","pSARL_v2","pSARL_v2lgfdlsvc","5ee738a018d5a84caa7e0f2a","freq_resp","img/green_2bandit_a.png","70","70","test","","","","6","",""
"null","205238","pSARL_v2","pSARL_v2lgfdlsvc","5ee738a018d5a84caa7e0f2a","fixation","img/fixation.png","null","","test","","","","","",""
"213","205455","pSARL_v2","pSARL_v2lgfdlsvc","5ee738a018d5a84caa7e0f2a","freq","img/green_2bandit_a2.png","70","70","test","1","127","127","6","",""
"null","206060","pSARL_v2","pSARL_v2lgfdlsvc","5ee738a018d5a84caa7e0f2a","freq_resp","img/green_2bandit_a.png","70","70","test","","","","6","",""
"null","206214","pSARL_v2","pSARL_v2lgfdlsvc","5ee738a018d5a84caa7e0f2a","fixation","img/fixation.png","null","","test","","","","","",""
"207.39999997615814","206423","pSARL_v2","pSARL_v2lgfdlsvc","5ee738a018d5a84caa7e0f2a","freq","img/green_2bandit_a2.png","70","70","test","1","128","128","6","",""
"null","207021","pSARL_v2","pSARL_v2lgfdlsvc","5ee738a018d5a84caa7e0f2a","freq_resp","img/green_2bandit_a.png","70","70","test","","","","6","",""
"null","207175","pSARL_v2","pSARL_v2lgfdlsvc","5ee738a018d5a84caa7e0f2a","fixation","img/fixation.png","null","","test","","","","","",""
"523.6000000238419","207701","pSARL_v2","pSARL_v2lgfdlsvc","5ee738a018d5a84caa7e0f2a","reward","img/slot.png","74","","test","","","","","",""
"null","208456","pSARL_v2","pSARL_v2lgfdlsvc","5ee738a018d5a84caa7e0f2a","points","<div class=""verylowPoints""> -7 </div>","null","na","test","","","","6","-7","5"
"272.3000000715256","208730","pSARL_v2","pSARL_v2lgfdlsvc","5ee738a018d5a84caa7e0f2a","freq","img/green_2bandit_a2.png","70","70","test","1","129","129","7","",""
"null","209273","pSARL_v2","pSARL_v2lgfdlsvc","5ee738a018d5a84caa7e0f2a","freq_resp","img/green_2bandit_a.png","70","70","test","","","","7","",""
"null","209428","pSARL_v2","pSARL_v2lgfdlsvc","5ee738a018d5a84caa7e0f2a","fixation","img/fixation.png","null","","test","","","","","",""
"210.69999992847443","209641","pSARL_v2","pSARL_v2lgfdlsvc","5ee738a018d5a84caa7e0f2a","freq","img/green_2bandit_a2.png","70","70","test","1","130","130","7","",""
"null","210238","pSARL_v2","pSARL_v2lgfdlsvc","5ee738a018d5a84caa7e0f2a","freq_resp","img/green_2bandit_a.png","70","70","test","","","","7","",""
"null","210394","pSARL_v2","pSARL_v2lgfdlsvc","5ee738a018d5a84caa7e0f2a","fixation","img/fixation.png","null","","test","","","","","",""
"251.89999997615814","210649","pSARL_v2","pSARL_v2lgfdlsvc","5ee738a018d5a84caa7e0f2a","freq","img/green_2bandit_a2.png","70","70","test","1","131","131","7","",""
"null","211214","pSARL_v2","pSARL_v2lgfdlsvc","5ee738a018d5a84caa7e0f2a","freq_resp","img/green_2bandit_a.png","70","70","test","","","","7","",""
"null","211371","pSARL_v2","pSARL_v2lgfdlsvc","5ee738a018d5a84caa7e0f2a","fixation","img/fixation.png","null","","test","","","","","",""
"218.60000002384186","211592","pSARL_v2","pSARL_v2lgfdlsvc","5ee738a018d5a84caa7e0f2a","freq","img/green_2bandit_a2.png","70","70","test","1","132","132","7","",""
"null","212178","pSARL_v2","pSARL_v2lgfdlsvc","5ee738a018d5a84caa7e0f2a","freq_resp","img/green_2bandit_a.png","70","70","test","","","","7","",""
"null","212333","pSARL_v2","pSARL_v2lgfdlsvc","5ee738a018d5a84caa7e0f2a","fixation","img/fixation.png","null","","test","","","","","",""
"174.69999992847443","212510","pSARL_v2","pSARL_v2lgfdlsvc","5ee738a018d5a84caa7e0f2a","freq","img/green_2bandit_a2.png","70","70","test","1","133","133","7","",""
"null","213144","pSARL_v2","pSARL_v2lgfdlsvc","5ee738a018d5a84caa7e0f2a","freq_resp","img/green_2bandit_a.png","70","70","test","","","","7","",""
"null","213301","pSARL_v2","pSARL_v2lgfdlsvc","5ee738a018d5a84caa7e0f2a","fixation","img/fixation.png","null","","test","","","","","",""
"240.20000004768372","213543","pSARL_v2","pSARL_v2lgfdlsvc","5ee738a018d5a84caa7e0f2a","freq","img/green_2bandit_a2.png","70","70","test","1","134","134","7","",""
"null","214105","pSARL_v2","pSARL_v2lgfdlsvc","5ee738a018d5a84caa7e0f2a","freq_resp","img/green_2bandit_a.png","70","70","test","","","","7","",""
"null","214262","pSARL_v2","pSARL_v2lgfdlsvc","5ee738a018d5a84caa7e0f2a","fixation","img/fixation.png","null","","test","","","","","",""
"188.79999995231628","214453","pSARL_v2","pSARL_v2lgfdlsvc","5ee738a018d5a84caa7e0f2a","freq","img/green_2bandit_a2.png","70","70","test","1","135","135","7","",""
"null","215067","pSARL_v2","pSARL_v2lgfdlsvc","5ee738a018d5a84caa7e0f2a","freq_resp","img/green_2bandit_a.png","70","70","test","","","","7","",""
"null","215222","pSARL_v2","pSARL_v2lgfdlsvc","5ee738a018d5a84caa7e0f2a","fixation","img/fixation.png","null","","test","","","","","",""
"151.40000009536743","215375","pSARL_v2","pSARL_v2lgfdlsvc","5ee738a018d5a84caa7e0f2a","freq","img/green_2bandit_a2.png","70","70","test","1","136","136","7","",""
"null","216040","pSARL_v2","pSARL_v2lgfdlsvc","5ee738a018d5a84caa7e0f2a","freq_resp","img/green_2bandit_a.png","70","70","test","","","","7","",""
"null","216194","pSARL_v2","pSARL_v2lgfdlsvc","5ee738a018d5a84caa7e0f2a","fixation","img/fixation.png","null","","test","","","","","",""
"273.39999997615814","216469","pSARL_v2","pSARL_v2lgfdlsvc","5ee738a018d5a84caa7e0f2a","freq","img/green_2bandit_a2.png","70","70","test","1","137","137","7","",""
"null","216999","pSARL_v2","pSARL_v2lgfdlsvc","5ee738a018d5a84caa7e0f2a","freq_resp","img/green_2bandit_a.png","70","70","test","","","","7","",""
"null","217154","pSARL_v2","pSARL_v2lgfdlsvc","5ee738a018d5a84caa7e0f2a","fixation","img/fixation.png","null","","test","","","","","",""
"164.69999992847443","217322","pSARL_v2","pSARL_v2lgfdlsvc","5ee738a018d5a84caa7e0f2a","freq","img/green_2bandit_a2.png","70","70","test","1","138","138","7","",""
"null","217960","pSARL_v2","pSARL_v2lgfdlsvc","5ee738a018d5a84caa7e0f2a","freq_resp","img/green_2bandit_a.png","70","70","test","","","","7","",""
"null","218116","pSARL_v2","pSARL_v2lgfdlsvc","5ee738a018d5a84caa7e0f2a","fixation","img/fixation.png","null","","test","","","","","",""
"116.60000002384186","218235","pSARL_v2","pSARL_v2lgfdlsvc","5ee738a018d5a84caa7e0f2a","freq","img/green_2bandit_a2.png","70","70","test","1","139","139","7","",""
"null","218936","pSARL_v2","pSARL_v2lgfdlsvc","5ee738a018d5a84caa7e0f2a","freq_resp","img/green_2bandit_a.png","70","70","test","","","","7","",""
"null","219093","pSARL_v2","pSARL_v2lgfdlsvc","5ee738a018d5a84caa7e0f2a","fixation","img/fixation.png","null","","test","","","","","",""
"94.30000007152557","219189","pSARL_v2","pSARL_v2lgfdlsvc","5ee738a018d5a84caa7e0f2a","freq","img/green_2bandit_a2.png","70","70","test","1","140","140","7","",""
"null","219898","pSARL_v2","pSARL_v2lgfdlsvc","5ee738a018d5a84caa7e0f2a","freq_resp","img/green_2bandit_a.png","70","70","test","","","","7","",""
"null","220052","pSARL_v2","pSARL_v2lgfdlsvc","5ee738a018d5a84caa7e0f2a","fixation","img/fixation.png","null","","test","","","","","",""
"410.5","220465","pSARL_v2","pSARL_v2lgfdlsvc","5ee738a018d5a84caa7e0f2a","freq","img/green_2bandit_a2.png","70","70","test","1","141","141","7","",""
"null","220872","pSARL_v2","pSARL_v2lgfdlsvc","5ee738a018d5a84caa7e0f2a","freq_resp","img/green_2bandit_a.png","70","70","test","","","","7","",""
"null","221027","pSARL_v2","pSARL_v2lgfdlsvc","5ee738a018d5a84caa7e0f2a","fixation","img/fixation.png","null","","test","","","","","",""
"289.10000002384186","221319","pSARL_v2","pSARL_v2lgfdlsvc","5ee738a018d5a84caa7e0f2a","freq","img/green_2bandit_a2.png","70","70","test","1","142","142","7","",""
"null","221846","pSARL_v2","pSARL_v2lgfdlsvc","5ee738a018d5a84caa7e0f2a","freq_resp","img/green_2bandit_a.png","70","70","test","","","","7","",""
"null","222001","pSARL_v2","pSARL_v2lgfdlsvc","5ee738a018d5a84caa7e0f2a","fixation","img/fixation.png","null","","test","","","","","",""
"169.89999997615814","222173","pSARL_v2","pSARL_v2lgfdlsvc","5ee738a018d5a84caa7e0f2a","infreq","img/orange_2bandit_a2.png","70","68","test","0","143","143","7","",""
"null","222807","pSARL_v2","pSARL_v2lgfdlsvc","5ee738a018d5a84caa7e0f2a","infreq_resp","img/orange_2bandit_a.png","70","68","test","","","","7","",""
"null","222962","pSARL_v2","pSARL_v2lgfdlsvc","5ee738a018d5a84caa7e0f2a","fixation","img/fixation.png","null","","test","","","","","",""
"208.5","223173","pSARL_v2","pSARL_v2lgfdlsvc","5ee738a018d5a84caa7e0f2a","freq","img/green_2bandit_a2.png","70","70","test","1","144","144","7","",""
"null","223777","pSARL_v2","pSARL_v2lgfdlsvc","5ee738a018d5a84caa7e0f2a","freq_resp","img/green_2bandit_a.png","70","70","test","","","","7","",""
"null","223933","pSARL_v2","pSARL_v2lgfdlsvc","5ee738a018d5a84caa7e0f2a","fixation","img/fixation.png","null","","test","","","","","",""
"156.10000002384186","224091","pSARL_v2","pSARL_v2lgfdlsvc","5ee738a018d5a84caa7e0f2a","freq","img/green_2bandit_a2.png","70","70","test","1","145","145","7","",""
"null","224738","pSARL_v2","pSARL_v2lgfdlsvc","5ee738a018d5a84caa7e0f2a","freq_resp","img/green_2bandit_a.png","70","70","test","","","","7","",""
"null","224893","pSARL_v2","pSARL_v2lgfdlsvc","5ee738a018d5a84caa7e0f2a","fixation","img/fixation.png","null","","test","","","","","",""
"202.29999995231628","225097","pSARL_v2","pSARL_v2lgfdlsvc","5ee738a018d5a84caa7e0f2a","freq","img/green_2bandit_a2.png","70","70","test","1","146","146","7","",""
"null","225702","pSARL_v2","pSARL_v2lgfdlsvc","5ee738a018d5a84caa7e0f2a","freq_resp","img/green_2bandit_a.png","70","70","test","","","","7","",""
"null","225856","pSARL_v2","pSARL_v2lgfdlsvc","5ee738a018d5a84caa7e0f2a","fixation","img/fixation.png","null","","test","","","","","",""
"79.19999992847443","225937","pSARL_v2","pSARL_v2lgfdlsvc","5ee738a018d5a84caa7e0f2a","freq","img/green_2bandit_a2.png","70","70","test","1","147","147","7","",""
"null","226674","pSARL_v2","pSARL_v2lgfdlsvc","5ee738a018d5a84caa7e0f2a","freq_resp","img/green_2bandit_a.png","70","70","test","","","","7","",""
"null","226831","pSARL_v2","pSARL_v2lgfdlsvc","5ee738a018d5a84caa7e0f2a","fixation","img/fixation.png","null","","test","","","","","",""
"215.19999992847443","227050","pSARL_v2","pSARL_v2lgfdlsvc","5ee738a018d5a84caa7e0f2a","freq","img/green_2bandit_a2.png","70","70","test","1","148","148","7","",""
"null","227651","pSARL_v2","pSARL_v2lgfdlsvc","5ee738a018d5a84caa7e0f2a","freq_resp","img/green_2bandit_a.png","70","70","test","","","","7","",""
"null","227805","pSARL_v2","pSARL_v2lgfdlsvc","5ee738a018d5a84caa7e0f2a","fixation","img/fixation.png","null","","test","","","","","",""
"223","228032","pSARL_v2","pSARL_v2lgfdlsvc","5ee738a018d5a84caa7e0f2a","infreq","img/orange_2bandit_a2.png","70","68","test","0","149","149","7","",""
"null","228625","pSARL_v2","pSARL_v2lgfdlsvc","5ee738a018d5a84caa7e0f2a","infreq_resp","img/orange_2bandit_a.png","70","68","test","","","","7","",""
"null","228781","pSARL_v2","pSARL_v2lgfdlsvc","5ee738a018d5a84caa7e0f2a","fixation","img/fixation.png","null","","test","","","","","",""
"239.89999997615814","229023","pSARL_v2","pSARL_v2lgfdlsvc","5ee738a018d5a84caa7e0f2a","freq","img/green_2bandit_a2.png","70","70","test","1","150","150","7","",""
"null","229597","pSARL_v2","pSARL_v2lgfdlsvc","5ee738a018d5a84caa7e0f2a","freq_resp","img/green_2bandit_a.png","70","70","test","","","","7","",""
"null","229752","pSARL_v2","pSARL_v2lgfdlsvc","5ee738a018d5a84caa7e0f2a","fixation","img/fixation.png","null","","test","","","","","",""
"233.5","229988","pSARL_v2","pSARL_v2lgfdlsvc","5ee738a018d5a84caa7e0f2a","freq","img/green_2bandit_a2.png","70","70","test","1","151","151","7","",""
"null","230559","pSARL_v2","pSARL_v2lgfdlsvc","5ee738a018d5a84caa7e0f2a","freq_resp","img/green_2bandit_a.png","70","70","test","","","","7","",""
"null","230715","pSARL_v2","pSARL_v2lgfdlsvc","5ee738a018d5a84caa7e0f2a","fixation","img/fixation.png","null","","test","","","","","",""
"237.39999997615814","230955","pSARL_v2","pSARL_v2lgfdlsvc","5ee738a018d5a84caa7e0f2a","freq","img/green_2bandit_a2.png","70","70","test","1","152","152","7","",""
"null","231519","pSARL_v2","pSARL_v2lgfdlsvc","5ee738a018d5a84caa7e0f2a","freq_resp","img/green_2bandit_a.png","70","70","test","","","","7","",""
"null","231673","pSARL_v2","pSARL_v2lgfdlsvc","5ee738a018d5a84caa7e0f2a","fixation","img/fixation.png","null","","test","","","","","",""
"259.59999990463257","231935","pSARL_v2","pSARL_v2lgfdlsvc","5ee738a018d5a84caa7e0f2a","freq","img/green_2bandit_a2.png","70","70","test","1","153","153","7","",""
"null","232481","pSARL_v2","pSARL_v2lgfdlsvc","5ee738a018d5a84caa7e0f2a","freq_resp","img/green_2bandit_a.png","70","70","test","","","","7","",""
"null","232638","pSARL_v2","pSARL_v2lgfdlsvc","5ee738a018d5a84caa7e0f2a","fixation","img/fixation.png","null","","test","","","","","",""
"294.2000000476837","232936","pSARL_v2","pSARL_v2lgfdlsvc","5ee738a018d5a84caa7e0f2a","freq","img/green_2bandit_a2.png","70","70","test","1","154","154","7","",""
"null","233444","pSARL_v2","pSARL_v2lgfdlsvc","5ee738a018d5a84caa7e0f2a","freq_resp","img/green_2bandit_a.png","70","70","test","","","","7","",""
"null","233598","pSARL_v2","pSARL_v2lgfdlsvc","5ee738a018d5a84caa7e0f2a","fixation","img/fixation.png","null","","test","","","","","",""
"450.2000000476837","234051","pSARL_v2","pSARL_v2lgfdlsvc","5ee738a018d5a84caa7e0f2a","reward","img/slot.png","74","","test","","","","","",""
"null","234811","pSARL_v2","pSARL_v2lgfdlsvc","5ee738a018d5a84caa7e0f2a","points","<div class=""verylowPoints""> -6 </div>","null","na","test","","","","7","-6","6"
"285","235098","pSARL_v2","pSARL_v2lgfdlsvc","5ee738a018d5a84caa7e0f2a","freq","img/green_2bandit_a2.png","70","70","test","1","155","155","8","",""
"null","235619","pSARL_v2","pSARL_v2lgfdlsvc","5ee738a018d5a84caa7e0f2a","freq_resp","img/green_2bandit_a.png","70","70","test","","","","8","",""
"null","235776","pSARL_v2","pSARL_v2lgfdlsvc","5ee738a018d5a84caa7e0f2a","fixation","img/fixation.png","null","","test","","","","","",""
"187.70000004768372","235965","pSARL_v2","pSARL_v2lgfdlsvc","5ee738a018d5a84caa7e0f2a","freq","img/green_2bandit_a2.png","70","70","test","1","156","156","8","",""
"null","236582","pSARL_v2","pSARL_v2lgfdlsvc","5ee738a018d5a84caa7e0f2a","freq_resp","img/green_2bandit_a.png","70","70","test","","","","8","",""
"null","236750","pSARL_v2","pSARL_v2lgfdlsvc","5ee738a018d5a84caa7e0f2a","fixation","img/fixation.png","null","","test","","","","","",""
"185.69999992847443","236938","pSARL_v2","pSARL_v2lgfdlsvc","5ee738a018d5a84caa7e0f2a","freq","img/green_2bandit_a2.png","70","70","test","1","157","157","8","",""
"null","237557","pSARL_v2","pSARL_v2lgfdlsvc","5ee738a018d5a84caa7e0f2a","freq_resp","img/green_2bandit_a.png","70","70","test","","","","8","",""
"null","237712","pSARL_v2","pSARL_v2lgfdlsvc","5ee738a018d5a84caa7e0f2a","fixation","img/fixation.png","null","","test","","","","","",""
"196.40000009536743","237910","pSARL_v2","pSARL_v2lgfdlsvc","5ee738a018d5a84caa7e0f2a","freq","img/green_2bandit_a2.png","70","70","test","1","158","158","8","",""
"null","238517","pSARL_v2","pSARL_v2lgfdlsvc","5ee738a018d5a84caa7e0f2a","freq_resp","img/green_2bandit_a.png","70","70","test","","","","8","",""
"null","238673","pSARL_v2","pSARL_v2lgfdlsvc","5ee738a018d5a84caa7e0f2a","fixation","img/fixation.png","null","","test","","","","","",""
"231.29999995231628","238907","pSARL_v2","pSARL_v2lgfdlsvc","5ee738a018d5a84caa7e0f2a","freq","img/green_2bandit_a2.png","70","70","test","1","159","159","8","",""
"null","239493","pSARL_v2","pSARL_v2lgfdlsvc","5ee738a018d5a84caa7e0f2a","freq_resp","img/green_2bandit_a.png","70","70","test","","","","8","",""
"null","239645","pSARL_v2","pSARL_v2lgfdlsvc","5ee738a018d5a84caa7e0f2a","fixation","img/fixation.png","null","","test","","","","","",""
"364.10000002384186","240012","pSARL_v2","pSARL_v2lgfdlsvc","5ee738a018d5a84caa7e0f2a","infreq","img/orange_2bandit_a2.png","68","68","test","1","160","160","8","",""
"null","240453","pSARL_v2","pSARL_v2lgfdlsvc","5ee738a018d5a84caa7e0f2a","infreq_resp","img/orange_2bandit_a.png","68","68","test","","","","8","",""
"null","240610","pSARL_v2","pSARL_v2lgfdlsvc","5ee738a018d5a84caa7e0f2a","fixation","img/fixation.png","null","","test","","","","","",""
"300.7000000476837","240912","pSARL_v2","pSARL_v2lgfdlsvc","5ee738a018d5a84caa7e0f2a","freq","img/green_2bandit_a2.png","70","70","test","1","161","161","8","",""
"null","241427","pSARL_v2","pSARL_v2lgfdlsvc","5ee738a018d5a84caa7e0f2a","freq_resp","img/green_2bandit_a.png","70","70","test","","","","8","",""
"null","241585","pSARL_v2","pSARL_v2lgfdlsvc","5ee738a018d5a84caa7e0f2a","fixation","img/fixation.png","null","","test","","","","","",""
"290.6999999284744","241879","pSARL_v2","pSARL_v2lgfdlsvc","5ee738a018d5a84caa7e0f2a","freq","img/green_2bandit_a2.png","70","70","test","1","162","162","8","",""
"null","242402","pSARL_v2","pSARL_v2lgfdlsvc","5ee738a018d5a84caa7e0f2a","freq_resp","img/green_2bandit_a.png","70","70","test","","","","8","",""
"null","242557","pSARL_v2","pSARL_v2lgfdlsvc","5ee738a018d5a84caa7e0f2a","fixation","img/fixation.png","null","","test","","","","","",""
"253.69999992847443","242813","pSARL_v2","pSARL_v2lgfdlsvc","5ee738a018d5a84caa7e0f2a","freq","img/green_2bandit_a2.png","70","70","test","1","163","163","8","",""
"null","243372","pSARL_v2","pSARL_v2lgfdlsvc","5ee738a018d5a84caa7e0f2a","freq_resp","img/green_2bandit_a.png","70","70","test","","","","8","",""
"null","243528","pSARL_v2","pSARL_v2lgfdlsvc","5ee738a018d5a84caa7e0f2a","fixation","img/fixation.png","null","","test","","","","","",""
"241.79999995231628","243772","pSARL_v2","pSARL_v2lgfdlsvc","5ee738a018d5a84caa7e0f2a","freq","img/green_2bandit_a2.png","70","70","test","1","164","164","8","",""
"null","244346","pSARL_v2","pSARL_v2lgfdlsvc","5ee738a018d5a84caa7e0f2a","freq_resp","img/green_2bandit_a.png","70","70","test","","","","8","",""
"null","244500","pSARL_v2","pSARL_v2lgfdlsvc","5ee738a018d5a84caa7e0f2a","fixation","img/fixation.png","null","","test","","","","","",""
"210.29999995231628","244712","pSARL_v2","pSARL_v2lgfdlsvc","5ee738a018d5a84caa7e0f2a","freq","img/green_2bandit_a2.png","70","70","test","1","165","165","8","",""
"null","245307","pSARL_v2","pSARL_v2lgfdlsvc","5ee738a018d5a84caa7e0f2a","freq_resp","img/green_2bandit_a.png","70","70","test","","","","8","",""
"null","245463","pSARL_v2","pSARL_v2lgfdlsvc","5ee738a018d5a84caa7e0f2a","fixation","img/fixation.png","null","","test","","","","","",""
"194.5","245660","pSARL_v2","pSARL_v2lgfdlsvc","5ee738a018d5a84caa7e0f2a","freq","img/green_2bandit_a2.png","70","70","test","1","166","166","8","",""
"null","246280","pSARL_v2","pSARL_v2lgfdlsvc","5ee738a018d5a84caa7e0f2a","freq_resp","img/green_2bandit_a.png","70","70","test","","","","8","",""
"null","246436","pSARL_v2","pSARL_v2lgfdlsvc","5ee738a018d5a84caa7e0f2a","fixation","img/fixation.png","null","","test","","","","","",""
"272.3000000715256","246710","pSARL_v2","pSARL_v2lgfdlsvc","5ee738a018d5a84caa7e0f2a","freq","img/green_2bandit_a2.png","70","70","test","1","167","167","8","",""
"null","247254","pSARL_v2","pSARL_v2lgfdlsvc","5ee738a018d5a84caa7e0f2a","freq_resp","img/green_2bandit_a.png","70","70","test","","","","8","",""
"null","247409","pSARL_v2","pSARL_v2lgfdlsvc","5ee738a018d5a84caa7e0f2a","fixation","img/fixation.png","null","","test","","","","","",""
"202.30000007152557","247615","pSARL_v2","pSARL_v2lgfdlsvc","5ee738a018d5a84caa7e0f2a","freq","img/green_2bandit_a2.png","70","70","test","1","168","168","8","",""
"null","248219","pSARL_v2","pSARL_v2lgfdlsvc","5ee738a018d5a84caa7e0f2a","freq_resp","img/green_2bandit_a.png","70","70","test","","","","8","",""
"null","248375","pSARL_v2","pSARL_v2lgfdlsvc","5ee738a018d5a84caa7e0f2a","fixation","img/fixation.png","null","","test","","","","","",""
"264.10000002384186","248643","pSARL_v2","pSARL_v2lgfdlsvc","5ee738a018d5a84caa7e0f2a","freq","img/green_2bandit_a2.png","70","70","test","1","169","169","8","",""
"null","249184","pSARL_v2","pSARL_v2lgfdlsvc","5ee738a018d5a84caa7e0f2a","freq_resp","img/green_2bandit_a.png","70","70","test","","","","8","",""
"null","249352","pSARL_v2","pSARL_v2lgfdlsvc","5ee738a018d5a84caa7e0f2a","fixation","img/fixation.png","null","","test","","","","","",""
"578.5","249934","pSARL_v2","pSARL_v2lgfdlsvc","5ee738a018d5a84caa7e0f2a","freq","img/green_2bandit_a2.png","70","70","test","1","170","170","8","",""
"null","250171","pSARL_v2","pSARL_v2lgfdlsvc","5ee738a018d5a84caa7e0f2a","freq_resp","img/green_2bandit_a.png","70","70","test","","","","8","",""
"null","250324","pSARL_v2","pSARL_v2lgfdlsvc","5ee738a018d5a84caa7e0f2a","fixation","img/fixation.png","null","","test","","","","","",""
"381.7000000476837","250708","pSARL_v2","pSARL_v2lgfdlsvc","5ee738a018d5a84caa7e0f2a","infreq","img/orange_2bandit_a2.png","68","68","test","1","171","171","8","",""
"null","251132","pSARL_v2","pSARL_v2lgfdlsvc","5ee738a018d5a84caa7e0f2a","infreq_resp","img/orange_2bandit_a.png","68","68","test","","","","8","",""
"null","251286","pSARL_v2","pSARL_v2lgfdlsvc","5ee738a018d5a84caa7e0f2a","fixation","img/fixation.png","null","","test","","","","","",""
"446.7999999523163","251735","pSARL_v2","pSARL_v2lgfdlsvc","5ee738a018d5a84caa7e0f2a","freq","img/green_2bandit_a2.png","70","70","test","1","172","172","8","",""
"null","252092","pSARL_v2","pSARL_v2lgfdlsvc","5ee738a018d5a84caa7e0f2a","freq_resp","img/green_2bandit_a.png","70","70","test","","","","8","",""
"null","252247","pSARL_v2","pSARL_v2lgfdlsvc","5ee738a018d5a84caa7e0f2a","fixation","img/fixation.png","null","","test","","","","","",""
"219.30000007152557","252468","pSARL_v2","pSARL_v2lgfdlsvc","5ee738a018d5a84caa7e0f2a","freq","img/green_2bandit_a2.png","70","70","test","1","173","173","8","",""
"null","253056","pSARL_v2","pSARL_v2lgfdlsvc","5ee738a018d5a84caa7e0f2a","freq_resp","img/green_2bandit_a.png","70","70","test","","","","8","",""
"null","253210","pSARL_v2","pSARL_v2lgfdlsvc","5ee738a018d5a84caa7e0f2a","fixation","img/fixation.png","null","","test","","","","","",""
"183.39999997615814","253396","pSARL_v2","pSARL_v2lgfdlsvc","5ee738a018d5a84caa7e0f2a","freq","img/green_2bandit_a2.png","70","70","test","1","174","174","8","",""
"null","254015","pSARL_v2","pSARL_v2lgfdlsvc","5ee738a018d5a84caa7e0f2a","freq_resp","img/green_2bandit_a.png","70","70","test","","","","8","",""
"null","254171","pSARL_v2","pSARL_v2lgfdlsvc","5ee738a018d5a84caa7e0f2a","fixation","img/fixation.png","null","","test","","","","","",""
"225.60000002384186","254399","pSARL_v2","pSARL_v2lgfdlsvc","5ee738a018d5a84caa7e0f2a","freq","img/green_2bandit_a2.png","70","70","test","1","175","175","8","",""
"null","254980","pSARL_v2","pSARL_v2lgfdlsvc","5ee738a018d5a84caa7e0f2a","freq_resp","img/green_2bandit_a.png","70","70","test","","","","8","",""
"null","255137","pSARL_v2","pSARL_v2lgfdlsvc","5ee738a018d5a84caa7e0f2a","fixation","img/fixation.png","null","","test","","","","","",""
"200.80000007152557","255340","pSARL_v2","pSARL_v2lgfdlsvc","5ee738a018d5a84caa7e0f2a","freq","img/green_2bandit_a2.png","70","70","test","1","176","176","8","",""
"null","255943","pSARL_v2","pSARL_v2lgfdlsvc","5ee738a018d5a84caa7e0f2a","freq_resp","img/green_2bandit_a.png","70","70","test","","","","8","",""
"null","256099","pSARL_v2","pSARL_v2lgfdlsvc","5ee738a018d5a84caa7e0f2a","fixation","img/fixation.png","null","","test","","","","","",""
"483.40000009536743","256585","pSARL_v2","pSARL_v2lgfdlsvc","5ee738a018d5a84caa7e0f2a","reward","img/slot.png","74","","test","","","","","",""
"null","257353","pSARL_v2","pSARL_v2lgfdlsvc","5ee738a018d5a84caa7e0f2a","points","<div class=""verylowPoints""> -4 </div>","null","na","test","","","","8","-4","7"
"233.19999992847443","257589","pSARL_v2","pSARL_v2lgfdlsvc","5ee738a018d5a84caa7e0f2a","freq","img/green_2bandit_a2.png","70","70","test","1","177","177","9","",""
"null","258158","pSARL_v2","pSARL_v2lgfdlsvc","5ee738a018d5a84caa7e0f2a","freq_resp","img/green_2bandit_a.png","70","70","test","","","","9","",""
"null","258326","pSARL_v2","pSARL_v2lgfdlsvc","5ee738a018d5a84caa7e0f2a","fixation","img/fixation.png","null","","test","","","","","",""
"173.29999995231628","258501","pSARL_v2","pSARL_v2lgfdlsvc","5ee738a018d5a84caa7e0f2a","infreq","img/orange_2bandit_a2.png","70","68","test","0","178","178","9","",""
"null","259135","pSARL_v2","pSARL_v2lgfdlsvc","5ee738a018d5a84caa7e0f2a","infreq_resp","img/orange_2bandit_a.png","70","68","test","","","","9","",""
"null","259291","pSARL_v2","pSARL_v2lgfdlsvc","5ee738a018d5a84caa7e0f2a","fixation","img/fixation.png","null","","test","","","","","",""
"228.30000007152557","259521","pSARL_v2","pSARL_v2lgfdlsvc","5ee738a018d5a84caa7e0f2a","freq","img/green_2bandit_a2.png","70","70","test","1","179","179","9","",""
"null","260097","pSARL_v2","pSARL_v2lgfdlsvc","5ee738a018d5a84caa7e0f2a","freq_resp","img/green_2bandit_a.png","70","70","test","","","","9","",""
"null","260251","pSARL_v2","pSARL_v2lgfdlsvc","5ee738a018d5a84caa7e0f2a","fixation","img/fixation.png","null","","test","","","","","",""
"225.29999995231628","260479","pSARL_v2","pSARL_v2lgfdlsvc","5ee738a018d5a84caa7e0f2a","freq","img/green_2bandit_a2.png","70","70","test","1","180","180","9","",""
"null","261056","pSARL_v2","pSARL_v2lgfdlsvc","5ee738a018d5a84caa7e0f2a","freq_resp","img/green_2bandit_a.png","70","70","test","","","","9","",""
"null","261209","pSARL_v2","pSARL_v2lgfdlsvc","5ee738a018d5a84caa7e0f2a","fixation","img/fixation.png","null","","test","","","","","",""
"211.5","261423","pSARL_v2","pSARL_v2lgfdlsvc","5ee738a018d5a84caa7e0f2a","freq","img/green_2bandit_a2.png","70","70","test","1","181","181","9","",""
"null","262028","pSARL_v2","pSARL_v2lgfdlsvc","5ee738a018d5a84caa7e0f2a","freq_resp","img/green_2bandit_a.png","70","70","test","","","","9","",""
"null","262183","pSARL_v2","pSARL_v2lgfdlsvc","5ee738a018d5a84caa7e0f2a","fixation","img/fixation.png","null","","test","","","","","",""
"228.70000004768372","262414","pSARL_v2","pSARL_v2lgfdlsvc","5ee738a018d5a84caa7e0f2a","freq","img/green_2bandit_a2.png","70","70","test","1","182","182","9","",""
"null","263002","pSARL_v2","pSARL_v2lgfdlsvc","5ee738a018d5a84caa7e0f2a","freq_resp","img/green_2bandit_a.png","70","70","test","","","","9","",""
"null","263156","pSARL_v2","pSARL_v2lgfdlsvc","5ee738a018d5a84caa7e0f2a","fixation","img/fixation.png","null","","test","","","","","",""
"369.7000000476837","263528","pSARL_v2","pSARL_v2lgfdlsvc","5ee738a018d5a84caa7e0f2a","infreq","img/orange_2bandit_a2.png","68","68","test","1","183","183","9","",""
"null","263972","pSARL_v2","pSARL_v2lgfdlsvc","5ee738a018d5a84caa7e0f2a","infreq_resp","img/orange_2bandit_a.png","68","68","test","","","","9","",""
"null","264129","pSARL_v2","pSARL_v2lgfdlsvc","5ee738a018d5a84caa7e0f2a","fixation","img/fixation.png","null","","test","","","","","",""
"267.7000000476837","264399","pSARL_v2","pSARL_v2lgfdlsvc","5ee738a018d5a84caa7e0f2a","freq","img/green_2bandit_a2.png","70","70","test","1","184","184","9","",""
"null","264936","pSARL_v2","pSARL_v2lgfdlsvc","5ee738a018d5a84caa7e0f2a","freq_resp","img/green_2bandit_a.png","70","70","test","","","","9","",""
"null","265090","pSARL_v2","pSARL_v2lgfdlsvc","5ee738a018d5a84caa7e0f2a","fixation","img/fixation.png","null","","test","","","","","",""
"291.10000002384186","265384","pSARL_v2","pSARL_v2lgfdlsvc","5ee738a018d5a84caa7e0f2a","freq","img/green_2bandit_a2.png","70","70","test","1","185","185","9","",""
"null","265895","pSARL_v2","pSARL_v2lgfdlsvc","5ee738a018d5a84caa7e0f2a","freq_resp","img/green_2bandit_a.png","70","70","test","","","","9","",""
"null","266051","pSARL_v2","pSARL_v2lgfdlsvc","5ee738a018d5a84caa7e0f2a","fixation","img/fixation.png","null","","test","","","","","",""
"239.29999995231628","266292","pSARL_v2","pSARL_v2lgfdlsvc","5ee738a018d5a84caa7e0f2a","freq","img/green_2bandit_a2.png","70","70","test","1","186","186","9","",""
"null","266856","pSARL_v2","pSARL_v2lgfdlsvc","5ee738a018d5a84caa7e0f2a","freq_resp","img/green_2bandit_a.png","70","70","test","","","","9","",""
"null","267011","pSARL_v2","pSARL_v2lgfdlsvc","5ee738a018d5a84caa7e0f2a","fixation","img/fixation.png","null","","test","","","","","",""
"171.5","267185","pSARL_v2","pSARL_v2lgfdlsvc","5ee738a018d5a84caa7e0f2a","freq","img/green_2bandit_a2.png","70","70","test","1","187","187","9","",""
"null","267826","pSARL_v2","pSARL_v2lgfdlsvc","5ee738a018d5a84caa7e0f2a","freq_resp","img/green_2bandit_a.png","70","70","test","","","","9","",""
"null","267982","pSARL_v2","pSARL_v2lgfdlsvc","5ee738a018d5a84caa7e0f2a","fixation","img/fixation.png","null","","test","","","","","",""
"207.10000002384186","268191","pSARL_v2","pSARL_v2lgfdlsvc","5ee738a018d5a84caa7e0f2a","freq","img/green_2bandit_a2.png","70","70","test","1","188","188","9","",""
"null","268787","pSARL_v2","pSARL_v2lgfdlsvc","5ee738a018d5a84caa7e0f2a","freq_resp","img/green_2bandit_a.png","70","70","test","","","","9","",""
"null","268942","pSARL_v2","pSARL_v2lgfdlsvc","5ee738a018d5a84caa7e0f2a","fixation","img/fixation.png","null","","test","","","","","",""
"225","269169","pSARL_v2","pSARL_v2lgfdlsvc","5ee738a018d5a84caa7e0f2a","freq","img/green_2bandit_a2.png","70","70","test","1","189","189","9","",""
"null","269762","pSARL_v2","pSARL_v2lgfdlsvc","5ee738a018d5a84caa7e0f2a","freq_resp","img/green_2bandit_a.png","70","70","test","","","","9","",""
"null","269916","pSARL_v2","pSARL_v2lgfdlsvc","5ee738a018d5a84caa7e0f2a","fixation","img/fixation.png","null","","test","","","","","",""
"201.20000004768372","270119","pSARL_v2","pSARL_v2lgfdlsvc","5ee738a018d5a84caa7e0f2a","freq","img/green_2bandit_a2.png","70","70","test","1","190","190","9","",""
"null","270723","pSARL_v2","pSARL_v2lgfdlsvc","5ee738a018d5a84caa7e0f2a","freq_resp","img/green_2bandit_a.png","70","70","test","","","","9","",""
"null","270879","pSARL_v2","pSARL_v2lgfdlsvc","5ee738a018d5a84caa7e0f2a","fixation","img/fixation.png","null","","test","","","","","",""
"218.29999995231628","271099","pSARL_v2","pSARL_v2lgfdlsvc","5ee738a018d5a84caa7e0f2a","freq","img/green_2bandit_a2.png","70","70","test","1","191","191","9","",""
"null","271698","pSARL_v2","pSARL_v2lgfdlsvc","5ee738a018d5a84caa7e0f2a","freq_resp","img/green_2bandit_a.png","70","70","test","","","","9","",""
"null","271852","pSARL_v2","pSARL_v2lgfdlsvc","5ee738a018d5a84caa7e0f2a","fixation","img/fixation.png","null","","test","","","","","",""
"230","272085","pSARL_v2","pSARL_v2lgfdlsvc","5ee738a018d5a84caa7e0f2a","freq","img/green_2bandit_a2.png","70","70","test","1","192","192","9","",""
"null","272657","pSARL_v2","pSARL_v2lgfdlsvc","5ee738a018d5a84caa7e0f2a","freq_resp","img/green_2bandit_a.png","70","70","test","","","","9","",""
"null","272813","pSARL_v2","pSARL_v2lgfdlsvc","5ee738a018d5a84caa7e0f2a","fixation","img/fixation.png","null","","test","","","","","",""
"353","273168","pSARL_v2","pSARL_v2lgfdlsvc","5ee738a018d5a84caa7e0f2a","freq","img/green_2bandit_a2.png","70","70","test","1","193","193","9","",""
"null","273620","pSARL_v2","pSARL_v2lgfdlsvc","5ee738a018d5a84caa7e0f2a","freq_resp","img/green_2bandit_a.png","70","70","test","","","","9","",""
"null","273788","pSARL_v2","pSARL_v2lgfdlsvc","5ee738a018d5a84caa7e0f2a","fixation","img/fixation.png","null","","test","","","","","",""
"219.60000002384186","274010","pSARL_v2","pSARL_v2lgfdlsvc","5ee738a018d5a84caa7e0f2a","freq","img/green_2bandit_a2.png","70","70","test","1","194","194","9","",""
"null","274595","pSARL_v2","pSARL_v2lgfdlsvc","5ee738a018d5a84caa7e0f2a","freq_resp","img/green_2bandit_a.png","70","70","test","","","","9","",""
"null","274751","pSARL_v2","pSARL_v2lgfdlsvc","5ee738a018d5a84caa7e0f2a","fixation","img/fixation.png","null","","test","","","","","",""
"263.2000000476837","275016","pSARL_v2","pSARL_v2lgfdlsvc","5ee738a018d5a84caa7e0f2a","freq","img/green_2bandit_a2.png","70","70","test","1","195","195","9","",""
"null","275557","pSARL_v2","pSARL_v2lgfdlsvc","5ee738a018d5a84caa7e0f2a","freq_resp","img/green_2bandit_a.png","70","70","test","","","","9","",""
"null","275713","pSARL_v2","pSARL_v2lgfdlsvc","5ee738a018d5a84caa7e0f2a","fixation","img/fixation.png","null","","test","","","","","",""
"181.89999997615814","275898","pSARL_v2","pSARL_v2lgfdlsvc","5ee738a018d5a84caa7e0f2a","freq","img/green_2bandit_a2.png","70","70","test","1","196","196","9","",""
"null","276520","pSARL_v2","pSARL_v2lgfdlsvc","5ee738a018d5a84caa7e0f2a","freq_resp","img/green_2bandit_a.png","70","70","test","","","","9","",""
"null","276687","pSARL_v2","pSARL_v2lgfdlsvc","5ee738a018d5a84caa7e0f2a","fixation","img/fixation.png","null","","test","","","","","",""
"202.10000002384186","276892","pSARL_v2","pSARL_v2lgfdlsvc","5ee738a018d5a84caa7e0f2a","freq","img/green_2bandit_a2.png","70","70","test","1","197","197","9","",""
"null","277506","pSARL_v2","pSARL_v2lgfdlsvc","5ee738a018d5a84caa7e0f2a","freq_resp","img/green_2bandit_a.png","70","70","test","","","","9","",""
"null","277661","pSARL_v2","pSARL_v2lgfdlsvc","5ee738a018d5a84caa7e0f2a","fixation","img/fixation.png","null","","test","","","","","",""
"248.70000004768372","277912","pSARL_v2","pSARL_v2lgfdlsvc","5ee738a018d5a84caa7e0f2a","freq","img/green_2bandit_a2.png","70","70","test","1","198","198","9","",""
"null","278467","pSARL_v2","pSARL_v2lgfdlsvc","5ee738a018d5a84caa7e0f2a","freq_resp","img/green_2bandit_a.png","70","70","test","","","","9","",""
"null","278621","pSARL_v2","pSARL_v2lgfdlsvc","5ee738a018d5a84caa7e0f2a","fixation","img/fixation.png","null","","test","","","","","",""
"265.5","278889","pSARL_v2","pSARL_v2lgfdlsvc","5ee738a018d5a84caa7e0f2a","freq","img/green_2bandit_a2.png","70","70","test","1","199","199","9","",""
"null","279441","pSARL_v2","pSARL_v2lgfdlsvc","5ee738a018d5a84caa7e0f2a","freq_resp","img/green_2bandit_a.png","70","70","test","","","","9","",""
"null","279595","pSARL_v2","pSARL_v2lgfdlsvc","5ee738a018d5a84caa7e0f2a","fixation","img/fixation.png","null","","test","","","","","",""
"428.60000002384186","280026","pSARL_v2","pSARL_v2lgfdlsvc","5ee738a018d5a84caa7e0f2a","infreq","img/orange_2bandit_a2.png","68","68","test","1","200","200","9","",""
"null","280404","pSARL_v2","pSARL_v2lgfdlsvc","5ee738a018d5a84caa7e0f2a","infreq_resp","img/orange_2bandit_a.png","68","68","test","","","","9","",""
"null","280573","pSARL_v2","pSARL_v2lgfdlsvc","5ee738a018d5a84caa7e0f2a","fixation","img/fixation.png","null","","test","","","","","",""
"372.10000002384186","280947","pSARL_v2","pSARL_v2lgfdlsvc","5ee738a018d5a84caa7e0f2a","freq","img/green_2bandit_a2.png","70","70","test","1","201","201","9","",""
"null","281379","pSARL_v2","pSARL_v2lgfdlsvc","5ee738a018d5a84caa7e0f2a","freq_resp","img/green_2bandit_a.png","70","70","test","","","","9","",""
"null","281534","pSARL_v2","pSARL_v2lgfdlsvc","5ee738a018d5a84caa7e0f2a","fixation","img/fixation.png","null","","test","","","","","",""
"255.90000009536743","281792","pSARL_v2","pSARL_v2lgfdlsvc","5ee738a018d5a84caa7e0f2a","freq","img/green_2bandit_a2.png","70","70","test","1","202","202","9","",""
"null","282341","pSARL_v2","pSARL_v2lgfdlsvc","5ee738a018d5a84caa7e0f2a","freq_resp","img/green_2bandit_a.png","70","70","test","","","","9","",""
"null","282495","pSARL_v2","pSARL_v2lgfdlsvc","5ee738a018d5a84caa7e0f2a","fixation","img/fixation.png","null","","test","","","","","",""
"272.5","282770","pSARL_v2","pSARL_v2lgfdlsvc","5ee738a018d5a84caa7e0f2a","freq","img/green_2bandit_a2.png","70","70","test","1","203","203","9","",""
"null","283315","pSARL_v2","pSARL_v2lgfdlsvc","5ee738a018d5a84caa7e0f2a","freq_resp","img/green_2bandit_a.png","70","70","test","","","","9","",""
"null","283483","pSARL_v2","pSARL_v2lgfdlsvc","5ee738a018d5a84caa7e0f2a","fixation","img/fixation.png","null","","test","","","","","",""
"1138.8000000715256","284624","pSARL_v2","pSARL_v2lgfdlsvc","5ee738a018d5a84caa7e0f2a","reward","img/slot.png","74","","test","","","","","",""
"null","285391","pSARL_v2","pSARL_v2lgfdlsvc","5ee738a018d5a84caa7e0f2a","points","<div class=""verylowPoints""> -3 </div>","null","na","test","","","","9","-3","8"
"399","285794","pSARL_v2","pSARL_v2lgfdlsvc","5ee738a018d5a84caa7e0f2a","freq","img/green_2bandit_a2.png","70","70","test","1","204","204","10","",""
"null","286213","pSARL_v2","pSARL_v2lgfdlsvc","5ee738a018d5a84caa7e0f2a","freq_resp","img/green_2bandit_a.png","70","70","test","","","","10","",""
"null","286370","pSARL_v2","pSARL_v2lgfdlsvc","5ee738a018d5a84caa7e0f2a","fixation","img/fixation.png","null","","test","","","","","",""
"219.40000009536743","286591","pSARL_v2","pSARL_v2lgfdlsvc","5ee738a018d5a84caa7e0f2a","freq","img/green_2bandit_a2.png","70","70","test","1","205","205","10","",""
"null","287176","pSARL_v2","pSARL_v2lgfdlsvc","5ee738a018d5a84caa7e0f2a","freq_resp","img/green_2bandit_a.png","70","70","test","","","","10","",""
"null","287332","pSARL_v2","pSARL_v2lgfdlsvc","5ee738a018d5a84caa7e0f2a","fixation","img/fixation.png","null","","test","","","","","",""
