"rt","time_elapsed","expId","subject","prolificID","trialType","stimulus","key_press","corrresp","phase","corr","trialNum","attentionRunNum","blockNum","points","rlNum"
"8142.0999999940395","8175","pSARL_v2","pSARL_v20zg7rkve","6518547e278ac39df35ef084","","","","","","","","","","",""
"","12022","pSARL_v2","pSARL_v20zg7rkve","6518547e278ac39df35ef084","fullscreen","","","","","","","","","",""
"24237.90000000596","36274","pSARL_v2","pSARL_v20zg7rkve","6518547e278ac39df35ef084","","","","","","","","","","",""
"null","37101","pSARL_v2","pSARL_v20zg7rkve","6518547e278ac39df35ef084","freqPrac","img/green_2bandit_a2.png","null","70","prac","0","","","","",""
"null","38126","pSARL_v2","pSARL_v20zg7rkve","6518547e278ac39df35ef084","feedback","img/tooSlow.png","null","na","prac","","","","","",""
"null","38293","pSARL_v2","pSARL_v20zg7rkve","6518547e278ac39df35ef084","fixation","img/fixation.png","null","","prac","","","","","",""
"416.90000000596046","38719","pSARL_v2","pSARL_v20zg7rkve","6518547e278ac39df35ef084","infreqPrac","img/orange_2bandit_a2.png","68","68","prac","1","","","","",""
"416.90000000596046","39116","pSARL_v2","pSARL_v20zg7rkve","6518547e278ac39df35ef084","infreqPrac_resp","img/orange_2bandit_a.png","68","68","prac","","","","","",""
"null","39286","pSARL_v2","pSARL_v20zg7rkve","6518547e278ac39df35ef084","fixation","img/fixation.png","null","","prac","","","","","",""
"323.7000000178814","39619","pSARL_v2","pSARL_v20zg7rkve","6518547e278ac39df35ef084","freqPrac","img/green_2bandit_a2.png","70","70","prac","1","","","","",""
"323.7000000178814","40126","pSARL_v2","pSARL_v20zg7rkve","6518547e278ac39df35ef084","freqPrac_resp","img/green_2bandit_a.png","70","70","prac","","","","","",""
"null","40296","pSARL_v2","pSARL_v20zg7rkve","6518547e278ac39df35ef084","fixation","img/fixation.png","null","","prac","","","","","",""
"363.69999998807907","40669","pSARL_v2","pSARL_v20zg7rkve","6518547e278ac39df35ef084","infreqPrac","img/orange_2bandit_a2.png","68","68","prac","1","","","","",""
"363.69999998807907","41135","pSARL_v2","pSARL_v20zg7rkve","6518547e278ac39df35ef084","infreqPrac_resp","img/orange_2bandit_a.png","68","68","prac","","","","","",""
"null","41307","pSARL_v2","pSARL_v20zg7rkve","6518547e278ac39df35ef084","fixation","img/fixation.png","null","","prac","","","","","",""
"413.39999997615814","41730","pSARL_v2","pSARL_v20zg7rkve","6518547e278ac39df35ef084","infreqPrac","img/orange_2bandit_a2.png","68","68","prac","1","","","","",""
"413.39999997615814","42133","pSARL_v2","pSARL_v20zg7rkve","6518547e278ac39df35ef084","infreqPrac_resp","img/orange_2bandit_a.png","68","68","prac","","","","","",""
"null","42304","pSARL_v2","pSARL_v20zg7rkve","6518547e278ac39df35ef084","fixation","img/fixation.png","null","","prac","","","","","",""
"366.69999998807907","42680","pSARL_v2","pSARL_v20zg7rkve","6518547e278ac39df35ef084","infreqPrac","img/orange_2bandit_a2.png","68","68","prac","1","","","","",""
"366.69999998807907","43145","pSARL_v2","pSARL_v20zg7rkve","6518547e278ac39df35ef084","infreqPrac_resp","img/orange_2bandit_a.png","68","68","prac","","","","","",""
"null","43315","pSARL_v2","pSARL_v20zg7rkve","6518547e278ac39df35ef084","fixation","img/fixation.png","null","","prac","","","","","",""
"314.90000000596046","43639","pSARL_v2","pSARL_v20zg7rkve","6518547e278ac39df35ef084","freqPrac","img/green_2bandit_a2.png","68","70","prac","0","","","","",""
"314.90000000596046","44141","pSARL_v2","pSARL_v20zg7rkve","6518547e278ac39df35ef084","freqPrac_resp","img/green_2bandit_a.png","68","70","prac","","","","","",""
"null","45165","pSARL_v2","pSARL_v20zg7rkve","6518547e278ac39df35ef084","feedback","img/wrongKey.png","null","na","prac","","","","","",""
"null","45335","pSARL_v2","pSARL_v20zg7rkve","6518547e278ac39df35ef084","fixation","img/fixation.png","null","","prac","","","","","",""
"415.40000000596046","45760","pSARL_v2","pSARL_v20zg7rkve","6518547e278ac39df35ef084","infreqPrac","img/orange_2bandit_a2.png","68","68","prac","1","","","","",""
"415.40000000596046","46162","pSARL_v2","pSARL_v20zg7rkve","6518547e278ac39df35ef084","infreqPrac_resp","img/orange_2bandit_a.png","68","68","prac","","","","","",""
"null","46333","pSARL_v2","pSARL_v20zg7rkve","6518547e278ac39df35ef084","fixation","img/fixation.png","null","","prac","","","","","",""
"477.5","46820","pSARL_v2","pSARL_v20zg7rkve","6518547e278ac39df35ef084","freqPrac","img/green_2bandit_a2.png","70","70","prac","1","","","","",""
"477.5","47156","pSARL_v2","pSARL_v20zg7rkve","6518547e278ac39df35ef084","freqPrac_resp","img/green_2bandit_a.png","70","70","prac","","","","","",""
"null","47324","pSARL_v2","pSARL_v20zg7rkve","6518547e278ac39df35ef084","fixation","img/fixation.png","null","","prac","","","","","",""
"376","47709","pSARL_v2","pSARL_v20zg7rkve","6518547e278ac39df35ef084","freqPrac","img/green_2bandit_a2.png","70","70","prac","1","","","","",""
"376","48150","pSARL_v2","pSARL_v20zg7rkve","6518547e278ac39df35ef084","freqPrac_resp","img/green_2bandit_a.png","70","70","prac","","","","","",""
"null","48321","pSARL_v2","pSARL_v20zg7rkve","6518547e278ac39df35ef084","fixation","img/fixation.png","null","","prac","","","","","",""
"8510.5","56840","pSARL_v2","pSARL_v20zg7rkve","6518547e278ac39df35ef084","","","","","prac","","","","","",""
"410.09999999403954","57261","pSARL_v2","pSARL_v20zg7rkve","6518547e278ac39df35ef084","rewardPractice","img/slot.png","74","","prac","","","","","",""
"null","58036","pSARL_v2","pSARL_v20zg7rkve","6518547e278ac39df35ef084","feedback","<div class=""veryhighPoints""> +15 </div>","null","na","prac","","","","","",""
"null","58207","pSARL_v2","pSARL_v20zg7rkve","6518547e278ac39df35ef084","fixation","img/fixation.png","null","","prac","","","","","",""
"5684","63899","pSARL_v2","pSARL_v20zg7rkve","6518547e278ac39df35ef084","","","","","prac","","","","","",""
"679.6999999880791","64588","pSARL_v2","pSARL_v20zg7rkve","6518547e278ac39df35ef084","freq","img/green_2bandit_a2.png","70","70","test","1","1","1","1","",""
"null","64726","pSARL_v2","pSARL_v20zg7rkve","6518547e278ac39df35ef084","freq_resp","img/green_2bandit_a.png","70","70","test","","","","1","",""
"null","64897","pSARL_v2","pSARL_v20zg7rkve","6518547e278ac39df35ef084","fixation","img/fixation.png","null","","test","","","","","",""
"383.7000000178814","65290","pSARL_v2","pSARL_v20zg7rkve","6518547e278ac39df35ef084","freq","img/green_2bandit_a2.png","70","70","test","1","2","2","1","",""
"null","65723","pSARL_v2","pSARL_v20zg7rkve","6518547e278ac39df35ef084","freq_resp","img/green_2bandit_a.png","70","70","test","","","","1","",""
"null","65893","pSARL_v2","pSARL_v20zg7rkve","6518547e278ac39df35ef084","fixation","img/fixation.png","null","","test","","","","","",""
"326.7000000178814","66229","pSARL_v2","pSARL_v20zg7rkve","6518547e278ac39df35ef084","freq","img/green_2bandit_a2.png","70","70","test","1","3","3","1","",""
"null","66717","pSARL_v2","pSARL_v20zg7rkve","6518547e278ac39df35ef084","freq_resp","img/green_2bandit_a.png","70","70","test","","","","1","",""
"null","66890","pSARL_v2","pSARL_v20zg7rkve","6518547e278ac39df35ef084","fixation","img/fixation.png","null","","test","","","","","",""
"400.89999997615814","67302","pSARL_v2","pSARL_v20zg7rkve","6518547e278ac39df35ef084","freq","img/green_2bandit_a2.png","70","70","test","1","4","4","1","",""
"null","67715","pSARL_v2","pSARL_v20zg7rkve","6518547e278ac39df35ef084","freq_resp","img/green_2bandit_a.png","70","70","test","","","","1","",""
"null","67886","pSARL_v2","pSARL_v20zg7rkve","6518547e278ac39df35ef084","fixation","img/fixation.png","null","","test","","","","","",""
"313.7000000178814","68210","pSARL_v2","pSARL_v20zg7rkve","6518547e278ac39df35ef084","freq","img/green_2bandit_a2.png","70","70","test","1","5","5","1","",""
"null","68713","pSARL_v2","pSARL_v20zg7rkve","6518547e278ac39df35ef084","freq_resp","img/green_2bandit_a.png","70","70","test","","","","1","",""
"null","68884","pSARL_v2","pSARL_v20zg7rkve","6518547e278ac39df35ef084","fixation","img/fixation.png","null","","test","","","","","",""
"285.7000000178814","69180","pSARL_v2","pSARL_v20zg7rkve","6518547e278ac39df35ef084","freq","img/green_2bandit_a2.png","70","70","test","1","6","6","1","",""
"null","69706","pSARL_v2","pSARL_v20zg7rkve","6518547e278ac39df35ef084","freq_resp","img/green_2bandit_a.png","70","70","test","","","","1","",""
"null","69877","pSARL_v2","pSARL_v20zg7rkve","6518547e278ac39df35ef084","fixation","img/fixation.png","null","","test","","","","","",""
"312","70199","pSARL_v2","pSARL_v20zg7rkve","6518547e278ac39df35ef084","freq","img/green_2bandit_a2.png","70","70","test","1","7","7","1","",""
"null","70716","pSARL_v2","pSARL_v20zg7rkve","6518547e278ac39df35ef084","freq_resp","img/green_2bandit_a.png","70","70","test","","","","1","",""
"null","70888","pSARL_v2","pSARL_v20zg7rkve","6518547e278ac39df35ef084","fixation","img/fixation.png","null","","test","","","","","",""
"301.7999999821186","71201","pSARL_v2","pSARL_v20zg7rkve","6518547e278ac39df35ef084","freq","img/green_2bandit_a2.png","70","70","test","1","8","8","1","",""
"null","71710","pSARL_v2","pSARL_v20zg7rkve","6518547e278ac39df35ef084","freq_resp","img/green_2bandit_a.png","70","70","test","","","","1","",""
"null","71880","pSARL_v2","pSARL_v20zg7rkve","6518547e278ac39df35ef084","fixation","img/fixation.png","null","","test","","","","","",""
"299.90000000596046","72190","pSARL_v2","pSARL_v20zg7rkve","6518547e278ac39df35ef084","freq","img/green_2bandit_a2.png","70","70","test","1","9","9","1","",""
"null","72704","pSARL_v2","pSARL_v20zg7rkve","6518547e278ac39df35ef084","freq_resp","img/green_2bandit_a.png","70","70","test","","","","1","",""
"null","72875","pSARL_v2","pSARL_v20zg7rkve","6518547e278ac39df35ef084","fixation","img/fixation.png","null","","test","","","","","",""
"285.30000001192093","73172","pSARL_v2","pSARL_v20zg7rkve","6518547e278ac39df35ef084","freq","img/green_2bandit_a2.png","70","70","test","1","10","10","1","",""
"null","73712","pSARL_v2","pSARL_v20zg7rkve","6518547e278ac39df35ef084","freq_resp","img/green_2bandit_a.png","70","70","test","","","","1","",""
"null","73882","pSARL_v2","pSARL_v20zg7rkve","6518547e278ac39df35ef084","fixation","img/fixation.png","null","","test","","","","","",""
"257.2999999821186","74150","pSARL_v2","pSARL_v20zg7rkve","6518547e278ac39df35ef084","freq","img/green_2bandit_a2.png","70","70","test","1","11","11","1","",""
"null","74706","pSARL_v2","pSARL_v20zg7rkve","6518547e278ac39df35ef084","freq_resp","img/green_2bandit_a.png","70","70","test","","","","1","",""
"null","74878","pSARL_v2","pSARL_v20zg7rkve","6518547e278ac39df35ef084","fixation","img/fixation.png","null","","test","","","","","",""
"242.10000002384186","75130","pSARL_v2","pSARL_v20zg7rkve","6518547e278ac39df35ef084","freq","img/green_2bandit_a2.png","70","70","test","1","12","12","1","",""
"null","75718","pSARL_v2","pSARL_v20zg7rkve","6518547e278ac39df35ef084","freq_resp","img/green_2bandit_a.png","70","70","test","","","","1","",""
"null","75889","pSARL_v2","pSARL_v20zg7rkve","6518547e278ac39df35ef084","fixation","img/fixation.png","null","","test","","","","","",""
"240.40000000596046","76139","pSARL_v2","pSARL_v20zg7rkve","6518547e278ac39df35ef084","freq","img/green_2bandit_a2.png","70","70","test","1","13","13","1","",""
"null","76725","pSARL_v2","pSARL_v20zg7rkve","6518547e278ac39df35ef084","freq_resp","img/green_2bandit_a.png","70","70","test","","","","1","",""
"null","76896","pSARL_v2","pSARL_v20zg7rkve","6518547e278ac39df35ef084","fixation","img/fixation.png","null","","test","","","","","",""
"243.2000000178814","77148","pSARL_v2","pSARL_v20zg7rkve","6518547e278ac39df35ef084","freq","img/green_2bandit_a2.png","70","70","test","1","14","14","1","",""
"null","77722","pSARL_v2","pSARL_v20zg7rkve","6518547e278ac39df35ef084","freq_resp","img/green_2bandit_a.png","70","70","test","","","","1","",""
"null","77894","pSARL_v2","pSARL_v20zg7rkve","6518547e278ac39df35ef084","fixation","img/fixation.png","null","","test","","","","","",""
"265.7999999821186","78170","pSARL_v2","pSARL_v20zg7rkve","6518547e278ac39df35ef084","freq","img/green_2bandit_a2.png","70","70","test","1","15","15","1","",""
"null","78735","pSARL_v2","pSARL_v20zg7rkve","6518547e278ac39df35ef084","freq_resp","img/green_2bandit_a.png","70","70","test","","","","1","",""
"null","78908","pSARL_v2","pSARL_v20zg7rkve","6518547e278ac39df35ef084","fixation","img/fixation.png","null","","test","","","","","",""
"281.2999999821186","79200","pSARL_v2","pSARL_v20zg7rkve","6518547e278ac39df35ef084","freq","img/green_2bandit_a2.png","70","70","test","1","16","16","1","",""
"null","79731","pSARL_v2","pSARL_v20zg7rkve","6518547e278ac39df35ef084","freq_resp","img/green_2bandit_a.png","70","70","test","","","","1","",""
"null","79904","pSARL_v2","pSARL_v20zg7rkve","6518547e278ac39df35ef084","fixation","img/fixation.png","null","","test","","","","","",""
"285.90000000596046","80200","pSARL_v2","pSARL_v20zg7rkve","6518547e278ac39df35ef084","infreq","img/orange_2bandit_a2.png","70","68","test","0","17","17","1","",""
"null","80740","pSARL_v2","pSARL_v20zg7rkve","6518547e278ac39df35ef084","infreq_resp","img/orange_2bandit_a.png","70","68","test","","","","1","",""
"null","80912","pSARL_v2","pSARL_v20zg7rkve","6518547e278ac39df35ef084","fixation","img/fixation.png","null","","test","","","","","",""
"336.90000000596046","81260","pSARL_v2","pSARL_v20zg7rkve","6518547e278ac39df35ef084","infreq","img/orange_2bandit_a2.png","68","68","test","1","18","18","1","",""
"null","81754","pSARL_v2","pSARL_v20zg7rkve","6518547e278ac39df35ef084","infreq_resp","img/orange_2bandit_a.png","68","68","test","","","","1","",""
"null","81926","pSARL_v2","pSARL_v20zg7rkve","6518547e278ac39df35ef084","fixation","img/fixation.png","null","","test","","","","","",""
"422.7999999821186","82360","pSARL_v2","pSARL_v20zg7rkve","6518547e278ac39df35ef084","freq","img/green_2bandit_a2.png","70","70","test","1","19","19","1","",""
"null","82762","pSARL_v2","pSARL_v20zg7rkve","6518547e278ac39df35ef084","freq_resp","img/green_2bandit_a.png","70","70","test","","","","1","",""
"null","82933","pSARL_v2","pSARL_v20zg7rkve","6518547e278ac39df35ef084","fixation","img/fixation.png","null","","test","","","","","",""
"516.5","83465","pSARL_v2","pSARL_v20zg7rkve","6518547e278ac39df35ef084","reward","img/slot.png","74","","test","","","","","",""
"null","84229","pSARL_v2","pSARL_v20zg7rkve","6518547e278ac39df35ef084","points","<div class=""verylowPoints""> -6 </div>","null","na","test","","","","1","-6","0"
"580","84819","pSARL_v2","pSARL_v20zg7rkve","6518547e278ac39df35ef084","freq","img/green_2bandit_a2.png","70","70","test","1","20","20","2","",""
"null","85073","pSARL_v2","pSARL_v20zg7rkve","6518547e278ac39df35ef084","freq_resp","img/green_2bandit_a.png","70","70","test","","","","2","",""
"null","85243","pSARL_v2","pSARL_v20zg7rkve","6518547e278ac39df35ef084","fixation","img/fixation.png","null","","test","","","","","",""
"396","85649","pSARL_v2","pSARL_v20zg7rkve","6518547e278ac39df35ef084","freq","img/green_2bandit_a2.png","70","70","test","1","21","21","2","",""
"null","86071","pSARL_v2","pSARL_v20zg7rkve","6518547e278ac39df35ef084","freq_resp","img/green_2bandit_a.png","70","70","test","","","","2","",""
"null","86241","pSARL_v2","pSARL_v20zg7rkve","6518547e278ac39df35ef084","fixation","img/fixation.png","null","","test","","","","","",""
"338.2000000178814","86588","pSARL_v2","pSARL_v20zg7rkve","6518547e278ac39df35ef084","freq","img/green_2bandit_a2.png","70","70","test","1","22","22","2","",""
"null","87075","pSARL_v2","pSARL_v20zg7rkve","6518547e278ac39df35ef084","freq_resp","img/green_2bandit_a.png","70","70","test","","","","2","",""
"null","87245","pSARL_v2","pSARL_v20zg7rkve","6518547e278ac39df35ef084","fixation","img/fixation.png","null","","test","","","","","",""
"314.19999998807907","87567","pSARL_v2","pSARL_v20zg7rkve","6518547e278ac39df35ef084","freq","img/green_2bandit_a2.png","70","70","test","1","23","23","2","",""
"null","88074","pSARL_v2","pSARL_v20zg7rkve","6518547e278ac39df35ef084","freq_resp","img/green_2bandit_a.png","70","70","test","","","","2","",""
"null","88257","pSARL_v2","pSARL_v20zg7rkve","6518547e278ac39df35ef084","fixation","img/fixation.png","null","","test","","","","","",""
"272.40000000596046","88538","pSARL_v2","pSARL_v20zg7rkve","6518547e278ac39df35ef084","freq","img/green_2bandit_a2.png","70","70","test","1","24","24","2","",""
"null","89094","pSARL_v2","pSARL_v20zg7rkve","6518547e278ac39df35ef084","freq_resp","img/green_2bandit_a.png","70","70","test","","","","2","",""
"null","89266","pSARL_v2","pSARL_v20zg7rkve","6518547e278ac39df35ef084","fixation","img/fixation.png","null","","test","","","","","",""
"302.2000000178814","89577","pSARL_v2","pSARL_v20zg7rkve","6518547e278ac39df35ef084","freq","img/green_2bandit_a2.png","70","70","test","1","25","25","2","",""
"null","90096","pSARL_v2","pSARL_v20zg7rkve","6518547e278ac39df35ef084","freq_resp","img/green_2bandit_a.png","70","70","test","","","","2","",""
"null","90266","pSARL_v2","pSARL_v20zg7rkve","6518547e278ac39df35ef084","fixation","img/fixation.png","null","","test","","","","","",""
"343","90619","pSARL_v2","pSARL_v20zg7rkve","6518547e278ac39df35ef084","freq","img/green_2bandit_a2.png","70","70","test","1","26","26","2","",""
"null","91105","pSARL_v2","pSARL_v20zg7rkve","6518547e278ac39df35ef084","freq_resp","img/green_2bandit_a.png","70","70","test","","","","2","",""
"null","91276","pSARL_v2","pSARL_v20zg7rkve","6518547e278ac39df35ef084","fixation","img/fixation.png","null","","test","","","","","",""
"282.69999998807907","91567","pSARL_v2","pSARL_v20zg7rkve","6518547e278ac39df35ef084","freq","img/green_2bandit_a2.png","70","70","test","1","27","27","2","",""
"null","92097","pSARL_v2","pSARL_v20zg7rkve","6518547e278ac39df35ef084","freq_resp","img/green_2bandit_a.png","70","70","test","","","","2","",""
"null","92267","pSARL_v2","pSARL_v20zg7rkve","6518547e278ac39df35ef084","fixation","img/fixation.png","null","","test","","","","","",""
"271.90000000596046","92548","pSARL_v2","pSARL_v20zg7rkve","6518547e278ac39df35ef084","freq","img/green_2bandit_a2.png","70","70","test","1","28","28","2","",""
"null","93090","pSARL_v2","pSARL_v20zg7rkve","6518547e278ac39df35ef084","freq_resp","img/green_2bandit_a.png","70","70","test","","","","2","",""
"null","93262","pSARL_v2","pSARL_v20zg7rkve","6518547e278ac39df35ef084","fixation","img/fixation.png","null","","test","","","","","",""
"266.7000000178814","93538","pSARL_v2","pSARL_v20zg7rkve","6518547e278ac39df35ef084","infreq","img/orange_2bandit_a2.png","70","68","test","0","29","29","2","",""
"null","94091","pSARL_v2","pSARL_v20zg7rkve","6518547e278ac39df35ef084","infreq_resp","img/orange_2bandit_a.png","70","68","test","","","","2","",""
"null","94263","pSARL_v2","pSARL_v20zg7rkve","6518547e278ac39df35ef084","fixation","img/fixation.png","null","","test","","","","","",""
"355.90000000596046","94628","pSARL_v2","pSARL_v20zg7rkve","6518547e278ac39df35ef084","infreq","img/orange_2bandit_a2.png","68","68","test","1","30","30","2","",""
"null","95104","pSARL_v2","pSARL_v20zg7rkve","6518547e278ac39df35ef084","infreq_resp","img/orange_2bandit_a.png","68","68","test","","","","2","",""
"null","95276","pSARL_v2","pSARL_v20zg7rkve","6518547e278ac39df35ef084","fixation","img/fixation.png","null","","test","","","","","",""
"472.90000000596046","95759","pSARL_v2","pSARL_v20zg7rkve","6518547e278ac39df35ef084","freq","img/green_2bandit_a2.png","70","70","test","1","31","31","2","",""
"null","96112","pSARL_v2","pSARL_v20zg7rkve","6518547e278ac39df35ef084","freq_resp","img/green_2bandit_a.png","70","70","test","","","","2","",""
"null","96284","pSARL_v2","pSARL_v20zg7rkve","6518547e278ac39df35ef084","fixation","img/fixation.png","null","","test","","","","","",""
"454.90000000596046","96749","pSARL_v2","pSARL_v20zg7rkve","6518547e278ac39df35ef084","freq","img/green_2bandit_a2.png","70","70","test","1","32","32","2","",""
"null","97120","pSARL_v2","pSARL_v20zg7rkve","6518547e278ac39df35ef084","freq_resp","img/green_2bandit_a.png","70","70","test","","","","2","",""
"null","97290","pSARL_v2","pSARL_v20zg7rkve","6518547e278ac39df35ef084","fixation","img/fixation.png","null","","test","","","","","",""
"398.39999997615814","97699","pSARL_v2","pSARL_v20zg7rkve","6518547e278ac39df35ef084","freq","img/green_2bandit_a2.png","70","70","test","1","33","33","2","",""
"null","98125","pSARL_v2","pSARL_v20zg7rkve","6518547e278ac39df35ef084","freq_resp","img/green_2bandit_a.png","70","70","test","","","","2","",""
"null","98296","pSARL_v2","pSARL_v20zg7rkve","6518547e278ac39df35ef084","fixation","img/fixation.png","null","","test","","","","","",""
"413.7000000178814","98718","pSARL_v2","pSARL_v20zg7rkve","6518547e278ac39df35ef084","infreq","img/orange_2bandit_a2.png","68","68","test","1","34","34","2","",""
"null","99136","pSARL_v2","pSARL_v20zg7rkve","6518547e278ac39df35ef084","infreq_resp","img/orange_2bandit_a.png","68","68","test","","","","2","",""
"null","99309","pSARL_v2","pSARL_v20zg7rkve","6518547e278ac39df35ef084","fixation","img/fixation.png","null","","test","","","","","",""
"410.5","99729","pSARL_v2","pSARL_v20zg7rkve","6518547e278ac39df35ef084","freq","img/green_2bandit_a2.png","70","70","test","1","35","35","2","",""
"null","100134","pSARL_v2","pSARL_v20zg7rkve","6518547e278ac39df35ef084","freq_resp","img/green_2bandit_a.png","70","70","test","","","","2","",""
"null","100305","pSARL_v2","pSARL_v20zg7rkve","6518547e278ac39df35ef084","fixation","img/fixation.png","null","","test","","","","","",""
"404","100719","pSARL_v2","pSARL_v20zg7rkve","6518547e278ac39df35ef084","freq","img/green_2bandit_a2.png","70","70","test","1","36","36","2","",""
"null","101132","pSARL_v2","pSARL_v20zg7rkve","6518547e278ac39df35ef084","freq_resp","img/green_2bandit_a.png","70","70","test","","","","2","",""
"null","101304","pSARL_v2","pSARL_v20zg7rkve","6518547e278ac39df35ef084","fixation","img/fixation.png","null","","test","","","","","",""
"355.40000000596046","101670","pSARL_v2","pSARL_v20zg7rkve","6518547e278ac39df35ef084","freq","img/green_2bandit_a2.png","70","70","test","1","37","37","2","",""
"null","102139","pSARL_v2","pSARL_v20zg7rkve","6518547e278ac39df35ef084","freq_resp","img/green_2bandit_a.png","70","70","test","","","","2","",""
"null","102311","pSARL_v2","pSARL_v20zg7rkve","6518547e278ac39df35ef084","fixation","img/fixation.png","null","","test","","","","","",""
"338.19999998807907","102660","pSARL_v2","pSARL_v20zg7rkve","6518547e278ac39df35ef084","freq","img/green_2bandit_a2.png","70","70","test","1","38","38","2","",""
"null","103145","pSARL_v2","pSARL_v20zg7rkve","6518547e278ac39df35ef084","freq_resp","img/green_2bandit_a.png","70","70","test","","","","2","",""
"null","103316","pSARL_v2","pSARL_v20zg7rkve","6518547e278ac39df35ef084","fixation","img/fixation.png","null","","test","","","","","",""
"342.7999999821186","103668","pSARL_v2","pSARL_v20zg7rkve","6518547e278ac39df35ef084","freq","img/green_2bandit_a2.png","70","70","test","1","39","39","2","",""
"null","104139","pSARL_v2","pSARL_v20zg7rkve","6518547e278ac39df35ef084","freq_resp","img/green_2bandit_a.png","70","70","test","","","","2","",""
"null","104309","pSARL_v2","pSARL_v20zg7rkve","6518547e278ac39df35ef084","fixation","img/fixation.png","null","","test","","","","","",""
"309.69999998807907","104629","pSARL_v2","pSARL_v20zg7rkve","6518547e278ac39df35ef084","freq","img/green_2bandit_a2.png","70","70","test","1","40","40","2","",""
"null","105136","pSARL_v2","pSARL_v20zg7rkve","6518547e278ac39df35ef084","freq_resp","img/green_2bandit_a.png","70","70","test","","","","2","",""
"null","105305","pSARL_v2","pSARL_v20zg7rkve","6518547e278ac39df35ef084","fixation","img/fixation.png","null","","test","","","","","",""
"293.19999998807907","105608","pSARL_v2","pSARL_v20zg7rkve","6518547e278ac39df35ef084","freq","img/green_2bandit_a2.png","70","70","test","1","41","41","2","",""
"null","106128","pSARL_v2","pSARL_v20zg7rkve","6518547e278ac39df35ef084","freq_resp","img/green_2bandit_a.png","70","70","test","","","","2","",""
"null","106298","pSARL_v2","pSARL_v20zg7rkve","6518547e278ac39df35ef084","fixation","img/fixation.png","null","","test","","","","","",""
"2131.300000011921","108440","pSARL_v2","pSARL_v20zg7rkve","6518547e278ac39df35ef084","reward","img/slot.png","74","","test","","","","","",""
"null","109207","pSARL_v2","pSARL_v20zg7rkve","6518547e278ac39df35ef084","points","<div class=""verylowPoints""> -11 </div>","null","na","test","","","","2","-11","1"
"533.4000000059605","109752","pSARL_v2","pSARL_v20zg7rkve","6518547e278ac39df35ef084","freq","img/green_2bandit_a2.png","70","70","test","1","42","42","3","",""
"null","110044","pSARL_v2","pSARL_v20zg7rkve","6518547e278ac39df35ef084","freq_resp","img/green_2bandit_a.png","70","70","test","","","","3","",""
"null","110216","pSARL_v2","pSARL_v20zg7rkve","6518547e278ac39df35ef084","fixation","img/fixation.png","null","","test","","","","","",""
"392","110618","pSARL_v2","pSARL_v20zg7rkve","6518547e278ac39df35ef084","freq","img/green_2bandit_a2.png","70","70","test","1","43","43","3","",""
"null","111055","pSARL_v2","pSARL_v20zg7rkve","6518547e278ac39df35ef084","freq_resp","img/green_2bandit_a.png","70","70","test","","","","3","",""
"null","111225","pSARL_v2","pSARL_v20zg7rkve","6518547e278ac39df35ef084","fixation","img/fixation.png","null","","test","","","","","",""
"342.90000000596046","111578","pSARL_v2","pSARL_v20zg7rkve","6518547e278ac39df35ef084","freq","img/green_2bandit_a2.png","70","70","test","1","44","44","3","",""
"null","112064","pSARL_v2","pSARL_v20zg7rkve","6518547e278ac39df35ef084","freq_resp","img/green_2bandit_a.png","70","70","test","","","","3","",""
"null","112232","pSARL_v2","pSARL_v20zg7rkve","6518547e278ac39df35ef084","fixation","img/fixation.png","null","","test","","","","","",""
"346.7999999821186","112588","pSARL_v2","pSARL_v20zg7rkve","6518547e278ac39df35ef084","freq","img/green_2bandit_a2.png","70","70","test","1","45","45","3","",""
"null","113068","pSARL_v2","pSARL_v20zg7rkve","6518547e278ac39df35ef084","freq_resp","img/green_2bandit_a.png","70","70","test","","","","3","",""
"null","113237","pSARL_v2","pSARL_v20zg7rkve","6518547e278ac39df35ef084","fixation","img/fixation.png","null","","test","","","","","",""
"391.5","113639","pSARL_v2","pSARL_v20zg7rkve","6518547e278ac39df35ef084","freq","img/green_2bandit_a2.png","70","70","test","1","46","46","3","",""
"null","114060","pSARL_v2","pSARL_v20zg7rkve","6518547e278ac39df35ef084","freq_resp","img/green_2bandit_a.png","70","70","test","","","","3","",""
"null","114231","pSARL_v2","pSARL_v20zg7rkve","6518547e278ac39df35ef084","fixation","img/fixation.png","null","","test","","","","","",""
"326.7000000178814","114566","pSARL_v2","pSARL_v20zg7rkve","6518547e278ac39df35ef084","freq","img/green_2bandit_a2.png","70","70","test","1","47","47","3","",""
"null","115055","pSARL_v2","pSARL_v20zg7rkve","6518547e278ac39df35ef084","freq_resp","img/green_2bandit_a.png","70","70","test","","","","3","",""
"null","115227","pSARL_v2","pSARL_v20zg7rkve","6518547e278ac39df35ef084","fixation","img/fixation.png","null","","test","","","","","",""
"321","115557","pSARL_v2","pSARL_v20zg7rkve","6518547e278ac39df35ef084","freq","img/green_2bandit_a2.png","70","70","test","1","48","48","3","",""
"null","116064","pSARL_v2","pSARL_v20zg7rkve","6518547e278ac39df35ef084","freq_resp","img/green_2bandit_a.png","70","70","test","","","","3","",""
"null","116234","pSARL_v2","pSARL_v20zg7rkve","6518547e278ac39df35ef084","fixation","img/fixation.png","null","","test","","","","","",""
"283.7999999821186","116526","pSARL_v2","pSARL_v20zg7rkve","6518547e278ac39df35ef084","freq","img/green_2bandit_a2.png","70","70","test","1","49","49","3","",""
"null","117072","pSARL_v2","pSARL_v20zg7rkve","6518547e278ac39df35ef084","freq_resp","img/green_2bandit_a.png","70","70","test","","","","3","",""
"null","117241","pSARL_v2","pSARL_v20zg7rkve","6518547e278ac39df35ef084","fixation","img/fixation.png","null","","test","","","","","",""
"257.19999998807907","117508","pSARL_v2","pSARL_v20zg7rkve","6518547e278ac39df35ef084","freq","img/green_2bandit_a2.png","70","70","test","1","50","50","3","",""
"null","118080","pSARL_v2","pSARL_v20zg7rkve","6518547e278ac39df35ef084","freq_resp","img/green_2bandit_a.png","70","70","test","","","","3","",""
"null","118253","pSARL_v2","pSARL_v20zg7rkve","6518547e278ac39df35ef084","fixation","img/fixation.png","null","","test","","","","","",""
"255.60000002384186","118517","pSARL_v2","pSARL_v20zg7rkve","6518547e278ac39df35ef084","freq","img/green_2bandit_a2.png","70","70","test","1","51","51","3","",""
"null","119075","pSARL_v2","pSARL_v20zg7rkve","6518547e278ac39df35ef084","freq_resp","img/green_2bandit_a.png","70","70","test","","","","3","",""
"null","119246","pSARL_v2","pSARL_v20zg7rkve","6518547e278ac39df35ef084","fixation","img/fixation.png","null","","test","","","","","",""
"342.09999999403954","119597","pSARL_v2","pSARL_v20zg7rkve","6518547e278ac39df35ef084","freq","img/green_2bandit_a2.png","70","70","test","1","52","52","3","",""
"null","120073","pSARL_v2","pSARL_v20zg7rkve","6518547e278ac39df35ef084","freq_resp","img/green_2bandit_a.png","70","70","test","","","","3","",""
"null","120243","pSARL_v2","pSARL_v20zg7rkve","6518547e278ac39df35ef084","fixation","img/fixation.png","null","","test","","","","","",""
"294.90000000596046","120547","pSARL_v2","pSARL_v20zg7rkve","6518547e278ac39df35ef084","freq","img/green_2bandit_a2.png","70","70","test","1","53","53","3","",""
"null","121062","pSARL_v2","pSARL_v20zg7rkve","6518547e278ac39df35ef084","freq_resp","img/green_2bandit_a.png","70","70","test","","","","3","",""
"null","121233","pSARL_v2","pSARL_v20zg7rkve","6518547e278ac39df35ef084","fixation","img/fixation.png","null","","test","","","","","",""
"365.5","121609","pSARL_v2","pSARL_v20zg7rkve","6518547e278ac39df35ef084","infreq","img/orange_2bandit_a2.png","68","68","test","1","54","54","3","",""
"null","122059","pSARL_v2","pSARL_v20zg7rkve","6518547e278ac39df35ef084","infreq_resp","img/orange_2bandit_a.png","68","68","test","","","","3","",""
"null","122230","pSARL_v2","pSARL_v20zg7rkve","6518547e278ac39df35ef084","fixation","img/fixation.png","null","","test","","","","","",""
"337.40000000596046","122576","pSARL_v2","pSARL_v20zg7rkve","6518547e278ac39df35ef084","infreq","img/orange_2bandit_a2.png","68","68","test","1","55","55","3","",""
"null","123054","pSARL_v2","pSARL_v20zg7rkve","6518547e278ac39df35ef084","infreq_resp","img/orange_2bandit_a.png","68","68","test","","","","3","",""
"null","123224","pSARL_v2","pSARL_v20zg7rkve","6518547e278ac39df35ef084","fixation","img/fixation.png","null","","test","","","","","",""
"293.80000001192093","123526","pSARL_v2","pSARL_v20zg7rkve","6518547e278ac39df35ef084","freq","img/green_2bandit_a2.png","68","70","test","0","56","56","3","",""
"null","124064","pSARL_v2","pSARL_v20zg7rkve","6518547e278ac39df35ef084","freq_resp","img/green_2bandit_a.png","68","70","test","","","","3","",""
"null","124237","pSARL_v2","pSARL_v20zg7rkve","6518547e278ac39df35ef084","fixation","img/fixation.png","null","","test","","","","","",""
"360.40000000596046","124607","pSARL_v2","pSARL_v20zg7rkve","6518547e278ac39df35ef084","freq","img/green_2bandit_a2.png","70","70","test","1","57","57","3","",""
"null","125063","pSARL_v2","pSARL_v20zg7rkve","6518547e278ac39df35ef084","freq_resp","img/green_2bandit_a.png","70","70","test","","","","3","",""
"null","125235","pSARL_v2","pSARL_v20zg7rkve","6518547e278ac39df35ef084","fixation","img/fixation.png","null","","test","","","","","",""
"433.90000000596046","125681","pSARL_v2","pSARL_v20zg7rkve","6518547e278ac39df35ef084","infreq","img/orange_2bandit_a2.png","68","68","test","1","58","58","3","",""
"null","126060","pSARL_v2","pSARL_v20zg7rkve","6518547e278ac39df35ef084","infreq_resp","img/orange_2bandit_a.png","68","68","test","","","","3","",""
"null","126228","pSARL_v2","pSARL_v20zg7rkve","6518547e278ac39df35ef084","fixation","img/fixation.png","null","","test","","","","","",""
"380.5","126621","pSARL_v2","pSARL_v20zg7rkve","6518547e278ac39df35ef084","freq","img/green_2bandit_a2.png","70","70","test","1","59","59","3","",""
"null","127068","pSARL_v2","pSARL_v20zg7rkve","6518547e278ac39df35ef084","freq_resp","img/green_2bandit_a.png","70","70","test","","","","3","",""
"null","127241","pSARL_v2","pSARL_v20zg7rkve","6518547e278ac39df35ef084","fixation","img/fixation.png","null","","test","","","","","",""
"436.90000000596046","127689","pSARL_v2","pSARL_v20zg7rkve","6518547e278ac39df35ef084","freq","img/green_2bandit_a2.png","70","70","test","1","60","60","3","",""
"null","128064","pSARL_v2","pSARL_v20zg7rkve","6518547e278ac39df35ef084","freq_resp","img/green_2bandit_a.png","70","70","test","","","","3","",""
"null","128239","pSARL_v2","pSARL_v20zg7rkve","6518547e278ac39df35ef084","fixation","img/fixation.png","null","","test","","","","","",""
"359.09999999403954","128609","pSARL_v2","pSARL_v20zg7rkve","6518547e278ac39df35ef084","freq","img/green_2bandit_a2.png","70","70","test","1","61","61","3","",""
"null","129073","pSARL_v2","pSARL_v20zg7rkve","6518547e278ac39df35ef084","freq_resp","img/green_2bandit_a.png","70","70","test","","","","3","",""
"null","129245","pSARL_v2","pSARL_v20zg7rkve","6518547e278ac39df35ef084","fixation","img/fixation.png","null","","test","","","","","",""
"392.59999999403954","129647","pSARL_v2","pSARL_v20zg7rkve","6518547e278ac39df35ef084","freq","img/green_2bandit_a2.png","70","70","test","1","62","62","3","",""
"null","130067","pSARL_v2","pSARL_v20zg7rkve","6518547e278ac39df35ef084","freq_resp","img/green_2bandit_a.png","70","70","test","","","","3","",""
"null","130239","pSARL_v2","pSARL_v20zg7rkve","6518547e278ac39df35ef084","fixation","img/fixation.png","null","","test","","","","","",""
"490.59999999403954","130741","pSARL_v2","pSARL_v20zg7rkve","6518547e278ac39df35ef084","reward","img/slot.png","74","","test","","","","","",""
"null","131513","pSARL_v2","pSARL_v20zg7rkve","6518547e278ac39df35ef084","points","<div class=""verylowPoints""> -7 </div>","null","na","test","","","","3","-7","2"
"565.0999999940395","132089","pSARL_v2","pSARL_v20zg7rkve","6518547e278ac39df35ef084","freq","img/green_2bandit_a2.png","70","70","test","1","63","63","4","",""
"null","132339","pSARL_v2","pSARL_v20zg7rkve","6518547e278ac39df35ef084","freq_resp","img/green_2bandit_a.png","70","70","test","","","","4","",""
"null","132506","pSARL_v2","pSARL_v20zg7rkve","6518547e278ac39df35ef084","fixation","img/fixation.png","null","","test","","","","","",""
"352.90000000596046","132868","pSARL_v2","pSARL_v20zg7rkve","6518547e278ac39df35ef084","freq","img/green_2bandit_a2.png","70","70","test","1","64","64","4","",""
"null","133333","pSARL_v2","pSARL_v20zg7rkve","6518547e278ac39df35ef084","freq_resp","img/green_2bandit_a.png","70","70","test","","","","4","",""
"null","133503","pSARL_v2","pSARL_v20zg7rkve","6518547e278ac39df35ef084","fixation","img/fixation.png","null","","test","","","","","",""
"385.40000000596046","133900","pSARL_v2","pSARL_v20zg7rkve","6518547e278ac39df35ef084","freq","img/green_2bandit_a2.png","70","70","test","1","65","65","4","",""
"null","134344","pSARL_v2","pSARL_v20zg7rkve","6518547e278ac39df35ef084","freq_resp","img/green_2bandit_a.png","70","70","test","","","","4","",""
"null","134515","pSARL_v2","pSARL_v20zg7rkve","6518547e278ac39df35ef084","fixation","img/fixation.png","null","","test","","","","","",""
"353.19999998807907","134879","pSARL_v2","pSARL_v20zg7rkve","6518547e278ac39df35ef084","freq","img/green_2bandit_a2.png","70","70","test","1","66","66","4","",""
"null","135344","pSARL_v2","pSARL_v20zg7rkve","6518547e278ac39df35ef084","freq_resp","img/green_2bandit_a.png","70","70","test","","","","4","",""
"null","135515","pSARL_v2","pSARL_v20zg7rkve","6518547e278ac39df35ef084","fixation","img/fixation.png","null","","test","","","","","",""
"344","135870","pSARL_v2","pSARL_v20zg7rkve","6518547e278ac39df35ef084","freq","img/green_2bandit_a2.png","70","70","test","1","67","67","4","",""
"null","136339","pSARL_v2","pSARL_v20zg7rkve","6518547e278ac39df35ef084","freq_resp","img/green_2bandit_a.png","70","70","test","","","","4","",""
"null","136510","pSARL_v2","pSARL_v20zg7rkve","6518547e278ac39df35ef084","fixation","img/fixation.png","null","","test","","","","","",""
"338.09999999403954","136859","pSARL_v2","pSARL_v20zg7rkve","6518547e278ac39df35ef084","freq","img/green_2bandit_a2.png","70","70","test","1","68","68","4","",""
"null","137349","pSARL_v2","pSARL_v20zg7rkve","6518547e278ac39df35ef084","freq_resp","img/green_2bandit_a.png","70","70","test","","","","4","",""
"null","137518","pSARL_v2","pSARL_v20zg7rkve","6518547e278ac39df35ef084","fixation","img/fixation.png","null","","test","","","","","",""
"420","137949","pSARL_v2","pSARL_v20zg7rkve","6518547e278ac39df35ef084","infreq","img/orange_2bandit_a2.png","68","68","test","1","69","69","4","",""
"null","138359","pSARL_v2","pSARL_v20zg7rkve","6518547e278ac39df35ef084","infreq_resp","img/orange_2bandit_a.png","68","68","test","","","","4","",""
"null","138529","pSARL_v2","pSARL_v20zg7rkve","6518547e278ac39df35ef084","fixation","img/fixation.png","null","","test","","","","","",""
"389.90000000596046","138929","pSARL_v2","pSARL_v20zg7rkve","6518547e278ac39df35ef084","freq","img/green_2bandit_a2.png","70","70","test","1","70","70","4","",""
"null","139367","pSARL_v2","pSARL_v20zg7rkve","6518547e278ac39df35ef084","freq_resp","img/green_2bandit_a.png","70","70","test","","","","4","",""
"null","139536","pSARL_v2","pSARL_v20zg7rkve","6518547e278ac39df35ef084","fixation","img/fixation.png","null","","test","","","","","",""
"302.40000000596046","139847","pSARL_v2","pSARL_v20zg7rkve","6518547e278ac39df35ef084","infreq","img/orange_2bandit_a2.png","68","68","test","1","71","71","4","",""
"null","140363","pSARL_v2","pSARL_v20zg7rkve","6518547e278ac39df35ef084","infreq_resp","img/orange_2bandit_a.png","68","68","test","","","","4","",""
"null","140533","pSARL_v2","pSARL_v20zg7rkve","6518547e278ac39df35ef084","fixation","img/fixation.png","null","","test","","","","","",""
"416.2999999821186","140959","pSARL_v2","pSARL_v20zg7rkve","6518547e278ac39df35ef084","freq","img/green_2bandit_a2.png","70","70","test","1","72","72","4","",""
"null","141354","pSARL_v2","pSARL_v20zg7rkve","6518547e278ac39df35ef084","freq_resp","img/green_2bandit_a.png","70","70","test","","","","4","",""
"null","141523","pSARL_v2","pSARL_v20zg7rkve","6518547e278ac39df35ef084","fixation","img/fixation.png","null","","test","","","","","",""
"375.30000001192093","141907","pSARL_v2","pSARL_v20zg7rkve","6518547e278ac39df35ef084","freq","img/green_2bandit_a2.png","70","70","test","1","73","73","4","",""
"null","142361","pSARL_v2","pSARL_v20zg7rkve","6518547e278ac39df35ef084","freq_resp","img/green_2bandit_a.png","70","70","test","","","","4","",""
"null","142531","pSARL_v2","pSARL_v20zg7rkve","6518547e278ac39df35ef084","fixation","img/fixation.png","null","","test","","","","","",""
"317.80000001192093","142858","pSARL_v2","pSARL_v20zg7rkve","6518547e278ac39df35ef084","freq","img/green_2bandit_a2.png","70","70","test","1","74","74","4","",""
"null","143356","pSARL_v2","pSARL_v20zg7rkve","6518547e278ac39df35ef084","freq_resp","img/green_2bandit_a.png","70","70","test","","","","4","",""
"null","143525","pSARL_v2","pSARL_v20zg7rkve","6518547e278ac39df35ef084","fixation","img/fixation.png","null","","test","","","","","",""
"313","143847","pSARL_v2","pSARL_v20zg7rkve","6518547e278ac39df35ef084","freq","img/green_2bandit_a2.png","70","70","test","1","75","75","4","",""
"null","144349","pSARL_v2","pSARL_v20zg7rkve","6518547e278ac39df35ef084","freq_resp","img/green_2bandit_a.png","70","70","test","","","","4","",""
"null","144518","pSARL_v2","pSARL_v20zg7rkve","6518547e278ac39df35ef084","fixation","img/fixation.png","null","","test","","","","","",""
"300.59999999403954","144827","pSARL_v2","pSARL_v20zg7rkve","6518547e278ac39df35ef084","freq","img/green_2bandit_a2.png","70","70","test","1","76","76","4","",""
"null","145342","pSARL_v2","pSARL_v20zg7rkve","6518547e278ac39df35ef084","freq_resp","img/green_2bandit_a.png","70","70","test","","","","4","",""
"null","145513","pSARL_v2","pSARL_v20zg7rkve","6518547e278ac39df35ef084","fixation","img/fixation.png","null","","test","","","","","",""
"385.7000000178814","145909","pSARL_v2","pSARL_v20zg7rkve","6518547e278ac39df35ef084","freq","img/green_2bandit_a2.png","70","70","test","1","77","77","4","",""
"null","146347","pSARL_v2","pSARL_v20zg7rkve","6518547e278ac39df35ef084","freq_resp","img/green_2bandit_a.png","70","70","test","","","","4","",""
"null","146517","pSARL_v2","pSARL_v20zg7rkve","6518547e278ac39df35ef084","fixation","img/fixation.png","null","","test","","","","","",""
"312","146840","pSARL_v2","pSARL_v20zg7rkve","6518547e278ac39df35ef084","freq","img/green_2bandit_a2.png","70","70","test","1","78","78","4","",""
"null","147360","pSARL_v2","pSARL_v20zg7rkve","6518547e278ac39df35ef084","freq_resp","img/green_2bandit_a.png","70","70","test","","","","4","",""
"null","147528","pSARL_v2","pSARL_v20zg7rkve","6518547e278ac39df35ef084","fixation","img/fixation.png","null","","test","","","","","",""
"321","147859","pSARL_v2","pSARL_v20zg7rkve","6518547e278ac39df35ef084","freq","img/green_2bandit_a2.png","70","70","test","1","79","79","4","",""
"null","148364","pSARL_v2","pSARL_v20zg7rkve","6518547e278ac39df35ef084","freq_resp","img/green_2bandit_a.png","70","70","test","","","","4","",""
"null","148534","pSARL_v2","pSARL_v20zg7rkve","6518547e278ac39df35ef084","fixation","img/fixation.png","null","","test","","","","","",""
"295","148838","pSARL_v2","pSARL_v20zg7rkve","6518547e278ac39df35ef084","freq","img/green_2bandit_a2.png","70","70","test","1","80","80","4","",""
"null","149359","pSARL_v2","pSARL_v20zg7rkve","6518547e278ac39df35ef084","freq_resp","img/green_2bandit_a.png","70","70","test","","","","4","",""
"null","149532","pSARL_v2","pSARL_v20zg7rkve","6518547e278ac39df35ef084","fixation","img/fixation.png","null","","test","","","","","",""
"337","149880","pSARL_v2","pSARL_v20zg7rkve","6518547e278ac39df35ef084","freq","img/green_2bandit_a2.png","70","70","test","1","81","81","4","",""
"null","150355","pSARL_v2","pSARL_v20zg7rkve","6518547e278ac39df35ef084","freq_resp","img/green_2bandit_a.png","70","70","test","","","","4","",""
"null","150526","pSARL_v2","pSARL_v20zg7rkve","6518547e278ac39df35ef084","fixation","img/fixation.png","null","","test","","","","","",""
"272.39999997615814","150808","pSARL_v2","pSARL_v20zg7rkve","6518547e278ac39df35ef084","freq","img/green_2bandit_a2.png","70","70","test","1","82","82","4","",""
"null","151353","pSARL_v2","pSARL_v20zg7rkve","6518547e278ac39df35ef084","freq_resp","img/green_2bandit_a.png","70","70","test","","","","4","",""
"null","151525","pSARL_v2","pSARL_v20zg7rkve","6518547e278ac39df35ef084","fixation","img/fixation.png","null","","test","","","","","",""
"344.09999999403954","151877","pSARL_v2","pSARL_v20zg7rkve","6518547e278ac39df35ef084","freq","img/green_2bandit_a2.png","70","70","test","1","83","83","4","",""
"null","152348","pSARL_v2","pSARL_v20zg7rkve","6518547e278ac39df35ef084","freq_resp","img/green_2bandit_a.png","70","70","test","","","","4","",""
"null","152518","pSARL_v2","pSARL_v20zg7rkve","6518547e278ac39df35ef084","fixation","img/fixation.png","null","","test","","","","","",""
"409.39999997615814","152938","pSARL_v2","pSARL_v20zg7rkve","6518547e278ac39df35ef084","infreq","img/orange_2bandit_a2.png","68","68","test","1","84","84","4","",""
"null","153358","pSARL_v2","pSARL_v20zg7rkve","6518547e278ac39df35ef084","infreq_resp","img/orange_2bandit_a.png","68","68","test","","","","4","",""
"null","153527","pSARL_v2","pSARL_v20zg7rkve","6518547e278ac39df35ef084","fixation","img/fixation.png","null","","test","","","","","",""
"420.30000001192093","153958","pSARL_v2","pSARL_v20zg7rkve","6518547e278ac39df35ef084","freq","img/green_2bandit_a2.png","70","70","test","1","85","85","4","",""
"null","154367","pSARL_v2","pSARL_v20zg7rkve","6518547e278ac39df35ef084","freq_resp","img/green_2bandit_a.png","70","70","test","","","","4","",""
"null","154537","pSARL_v2","pSARL_v20zg7rkve","6518547e278ac39df35ef084","fixation","img/fixation.png","null","","test","","","","","",""
"321.7999999821186","154870","pSARL_v2","pSARL_v20zg7rkve","6518547e278ac39df35ef084","freq","img/green_2bandit_a2.png","70","70","test","1","86","86","4","",""
"null","155363","pSARL_v2","pSARL_v20zg7rkve","6518547e278ac39df35ef084","freq_resp","img/green_2bandit_a.png","70","70","test","","","","4","",""
"null","155533","pSARL_v2","pSARL_v20zg7rkve","6518547e278ac39df35ef084","fixation","img/fixation.png","null","","test","","","","","",""
"344.59999999403954","155888","pSARL_v2","pSARL_v20zg7rkve","6518547e278ac39df35ef084","freq","img/green_2bandit_a2.png","70","70","test","1","87","87","4","",""
"null","156356","pSARL_v2","pSARL_v20zg7rkve","6518547e278ac39df35ef084","freq_resp","img/green_2bandit_a.png","70","70","test","","","","4","",""
"null","156525","pSARL_v2","pSARL_v20zg7rkve","6518547e278ac39df35ef084","fixation","img/fixation.png","null","","test","","","","","",""
"313.09999999403954","156848","pSARL_v2","pSARL_v20zg7rkve","6518547e278ac39df35ef084","freq","img/green_2bandit_a2.png","70","70","test","1","88","88","4","",""
"null","157348","pSARL_v2","pSARL_v20zg7rkve","6518547e278ac39df35ef084","freq_resp","img/green_2bandit_a.png","70","70","test","","","","4","",""
"null","157517","pSARL_v2","pSARL_v20zg7rkve","6518547e278ac39df35ef084","fixation","img/fixation.png","null","","test","","","","","",""
"471","157998","pSARL_v2","pSARL_v20zg7rkve","6518547e278ac39df35ef084","freq","img/green_2bandit_a2.png","70","70","test","1","89","89","4","",""
"null","158342","pSARL_v2","pSARL_v20zg7rkve","6518547e278ac39df35ef084","freq_resp","img/green_2bandit_a.png","70","70","test","","","","4","",""
"null","158513","pSARL_v2","pSARL_v20zg7rkve","6518547e278ac39df35ef084","fixation","img/fixation.png","null","","test","","","","","",""
"455","158977","pSARL_v2","pSARL_v20zg7rkve","6518547e278ac39df35ef084","reward","img/slot.png","74","","test","","","","","",""
"null","159740","pSARL_v2","pSARL_v20zg7rkve","6518547e278ac39df35ef084","points","<div class=""verylowPoints""> -3 </div>","null","na","test","","","","4","-3","3"
"577.0999999940395","160329","pSARL_v2","pSARL_v20zg7rkve","6518547e278ac39df35ef084","freq","img/green_2bandit_a2.png","70","70","test","1","90","90","5","",""
"null","160563","pSARL_v2","pSARL_v20zg7rkve","6518547e278ac39df35ef084","freq_resp","img/green_2bandit_a.png","70","70","test","","","","5","",""
"null","160733","pSARL_v2","pSARL_v20zg7rkve","6518547e278ac39df35ef084","fixation","img/fixation.png","null","","test","","","","","",""
"354.10000002384186","161098","pSARL_v2","pSARL_v20zg7rkve","6518547e278ac39df35ef084","freq","img/green_2bandit_a2.png","70","70","test","1","91","91","5","",""
"null","161560","pSARL_v2","pSARL_v20zg7rkve","6518547e278ac39df35ef084","freq_resp","img/green_2bandit_a.png","70","70","test","","","","5","",""
"null","161734","pSARL_v2","pSARL_v20zg7rkve","6518547e278ac39df35ef084","fixation","img/fixation.png","null","","test","","","","","",""
"344.19999998807907","162089","pSARL_v2","pSARL_v20zg7rkve","6518547e278ac39df35ef084","freq","img/green_2bandit_a2.png","70","70","test","1","92","92","5","",""
"null","162570","pSARL_v2","pSARL_v20zg7rkve","6518547e278ac39df35ef084","freq_resp","img/green_2bandit_a.png","70","70","test","","","","5","",""
"null","162740","pSARL_v2","pSARL_v20zg7rkve","6518547e278ac39df35ef084","fixation","img/fixation.png","null","","test","","","","","",""
"287.80000001192093","163038","pSARL_v2","pSARL_v20zg7rkve","6518547e278ac39df35ef084","freq","img/green_2bandit_a2.png","70","70","test","1","93","93","5","",""
"null","163562","pSARL_v2","pSARL_v20zg7rkve","6518547e278ac39df35ef084","freq_resp","img/green_2bandit_a.png","70","70","test","","","","5","",""
"null","163734","pSARL_v2","pSARL_v20zg7rkve","6518547e278ac39df35ef084","fixation","img/fixation.png","null","","test","","","","","",""
"263.80000001192093","164008","pSARL_v2","pSARL_v20zg7rkve","6518547e278ac39df35ef084","freq","img/green_2bandit_a2.png","70","70","test","1","94","94","5","",""
"null","164569","pSARL_v2","pSARL_v20zg7rkve","6518547e278ac39df35ef084","freq_resp","img/green_2bandit_a.png","70","70","test","","","","5","",""
"null","164739","pSARL_v2","pSARL_v20zg7rkve","6518547e278ac39df35ef084","fixation","img/fixation.png","null","","test","","","","","",""
"359.2999999821186","165109","pSARL_v2","pSARL_v20zg7rkve","6518547e278ac39df35ef084","infreq","img/orange_2bandit_a2.png","68","68","test","1","95","95","5","",""
"null","165565","pSARL_v2","pSARL_v20zg7rkve","6518547e278ac39df35ef084","infreq_resp","img/orange_2bandit_a.png","68","68","test","","","","5","",""
"null","165737","pSARL_v2","pSARL_v20zg7rkve","6518547e278ac39df35ef084","fixation","img/fixation.png","null","","test","","","","","",""
"371","166119","pSARL_v2","pSARL_v20zg7rkve","6518547e278ac39df35ef084","freq","img/green_2bandit_a2.png","70","70","test","1","96","96","5","",""
"null","166574","pSARL_v2","pSARL_v20zg7rkve","6518547e278ac39df35ef084","freq_resp","img/green_2bandit_a.png","70","70","test","","","","5","",""
"null","166747","pSARL_v2","pSARL_v20zg7rkve","6518547e278ac39df35ef084","fixation","img/fixation.png","null","","test","","","","","",""
"341.90000000596046","167102","pSARL_v2","pSARL_v20zg7rkve","6518547e278ac39df35ef084","freq","img/green_2bandit_a2.png","70","70","test","1","97","97","5","",""
"null","167585","pSARL_v2","pSARL_v20zg7rkve","6518547e278ac39df35ef084","freq_resp","img/green_2bandit_a.png","70","70","test","","","","5","",""
"null","167757","pSARL_v2","pSARL_v20zg7rkve","6518547e278ac39df35ef084","fixation","img/fixation.png","null","","test","","","","","",""
"320.69999998807907","168089","pSARL_v2","pSARL_v20zg7rkve","6518547e278ac39df35ef084","freq","img/green_2bandit_a2.png","70","70","test","1","98","98","5","",""
"null","168596","pSARL_v2","pSARL_v20zg7rkve","6518547e278ac39df35ef084","freq_resp","img/green_2bandit_a.png","70","70","test","","","","5","",""
"null","168767","pSARL_v2","pSARL_v20zg7rkve","6518547e278ac39df35ef084","fixation","img/fixation.png","null","","test","","","","","",""
"310.30000001192093","169086","pSARL_v2","pSARL_v20zg7rkve","6518547e278ac39df35ef084","freq","img/green_2bandit_a2.png","70","70","test","1","99","99","5","",""
"null","169607","pSARL_v2","pSARL_v20zg7rkve","6518547e278ac39df35ef084","freq_resp","img/green_2bandit_a.png","70","70","test","","","","5","",""
"null","169776","pSARL_v2","pSARL_v20zg7rkve","6518547e278ac39df35ef084","fixation","img/fixation.png","null","","test","","","","","",""
"291","170078","pSARL_v2","pSARL_v20zg7rkve","6518547e278ac39df35ef084","freq","img/green_2bandit_a2.png","70","70","test","1","100","100","5","",""
"null","170615","pSARL_v2","pSARL_v20zg7rkve","6518547e278ac39df35ef084","freq_resp","img/green_2bandit_a.png","70","70","test","","","","5","",""
"null","170783","pSARL_v2","pSARL_v20zg7rkve","6518547e278ac39df35ef084","fixation","img/fixation.png","null","","test","","","","","",""
"365","171158","pSARL_v2","pSARL_v20zg7rkve","6518547e278ac39df35ef084","freq","img/green_2bandit_a2.png","70","70","test","1","101","101","5","",""
"null","171623","pSARL_v2","pSARL_v20zg7rkve","6518547e278ac39df35ef084","freq_resp","img/green_2bandit_a.png","70","70","test","","","","5","",""
"null","171794","pSARL_v2","pSARL_v20zg7rkve","6518547e278ac39df35ef084","fixation","img/fixation.png","null","","test","","","","","",""
"333.5","172139","pSARL_v2","pSARL_v20zg7rkve","6518547e278ac39df35ef084","freq","img/green_2bandit_a2.png","70","70","test","1","102","102","5","",""
"null","172624","pSARL_v2","pSARL_v20zg7rkve","6518547e278ac39df35ef084","freq_resp","img/green_2bandit_a.png","70","70","test","","","","5","",""
"null","172808","pSARL_v2","pSARL_v20zg7rkve","6518547e278ac39df35ef084","fixation","img/fixation.png","null","","test","","","","","",""
"378","173194","pSARL_v2","pSARL_v20zg7rkve","6518547e278ac39df35ef084","infreq","img/orange_2bandit_a2.png","68","68","test","1","103","103","5","",""
"null","173644","pSARL_v2","pSARL_v20zg7rkve","6518547e278ac39df35ef084","infreq_resp","img/orange_2bandit_a.png","68","68","test","","","","5","",""
"null","173817","pSARL_v2","pSARL_v20zg7rkve","6518547e278ac39df35ef084","fixation","img/fixation.png","null","","test","","","","","",""
"348.7000000178814","174173","pSARL_v2","pSARL_v20zg7rkve","6518547e278ac39df35ef084","freq","img/green_2bandit_a2.png","70","70","test","1","104","104","5","",""
"null","174640","pSARL_v2","pSARL_v20zg7rkve","6518547e278ac39df35ef084","freq_resp","img/green_2bandit_a.png","70","70","test","","","","5","",""
"null","174811","pSARL_v2","pSARL_v20zg7rkve","6518547e278ac39df35ef084","fixation","img/fixation.png","null","","test","","","","","",""
"296.40000000596046","175115","pSARL_v2","pSARL_v20zg7rkve","6518547e278ac39df35ef084","freq","img/green_2bandit_a2.png","70","70","test","1","105","105","5","",""
"null","175636","pSARL_v2","pSARL_v20zg7rkve","6518547e278ac39df35ef084","freq_resp","img/green_2bandit_a.png","70","70","test","","","","5","",""
"null","175809","pSARL_v2","pSARL_v20zg7rkve","6518547e278ac39df35ef084","fixation","img/fixation.png","null","","test","","","","","",""
"289.19999998807907","176108","pSARL_v2","pSARL_v20zg7rkve","6518547e278ac39df35ef084","freq","img/green_2bandit_a2.png","70","70","test","1","106","106","5","",""
"null","176634","pSARL_v2","pSARL_v20zg7rkve","6518547e278ac39df35ef084","freq_resp","img/green_2bandit_a.png","70","70","test","","","","5","",""
"null","176804","pSARL_v2","pSARL_v20zg7rkve","6518547e278ac39df35ef084","fixation","img/fixation.png","null","","test","","","","","",""
"293.5","177108","pSARL_v2","pSARL_v20zg7rkve","6518547e278ac39df35ef084","freq","img/green_2bandit_a2.png","70","70","test","1","107","107","5","",""
"null","177626","pSARL_v2","pSARL_v20zg7rkve","6518547e278ac39df35ef084","freq_resp","img/green_2bandit_a.png","70","70","test","","","","5","",""
"null","177799","pSARL_v2","pSARL_v20zg7rkve","6518547e278ac39df35ef084","fixation","img/fixation.png","null","","test","","","","","",""
"317.59999999403954","178127","pSARL_v2","pSARL_v20zg7rkve","6518547e278ac39df35ef084","freq","img/green_2bandit_a2.png","70","70","test","1","108","108","5","",""
"null","178637","pSARL_v2","pSARL_v20zg7rkve","6518547e278ac39df35ef084","freq_resp","img/green_2bandit_a.png","70","70","test","","","","5","",""
"null","178808","pSARL_v2","pSARL_v20zg7rkve","6518547e278ac39df35ef084","fixation","img/fixation.png","null","","test","","","","","",""
"339","179156","pSARL_v2","pSARL_v20zg7rkve","6518547e278ac39df35ef084","freq","img/green_2bandit_a2.png","70","70","test","1","109","109","5","",""
"null","179645","pSARL_v2","pSARL_v20zg7rkve","6518547e278ac39df35ef084","freq_resp","img/green_2bandit_a.png","70","70","test","","","","5","",""
"null","179817","pSARL_v2","pSARL_v20zg7rkve","6518547e278ac39df35ef084","fixation","img/fixation.png","null","","test","","","","","",""
"289.2000000178814","180116","pSARL_v2","pSARL_v20zg7rkve","6518547e278ac39df35ef084","freq","img/green_2bandit_a2.png","70","70","test","1","110","110","5","",""
"null","180653","pSARL_v2","pSARL_v20zg7rkve","6518547e278ac39df35ef084","freq_resp","img/green_2bandit_a.png","70","70","test","","","","5","",""
"null","180825","pSARL_v2","pSARL_v20zg7rkve","6518547e278ac39df35ef084","fixation","img/fixation.png","null","","test","","","","","",""
"322.09999999403954","181159","pSARL_v2","pSARL_v20zg7rkve","6518547e278ac39df35ef084","freq","img/green_2bandit_a2.png","70","70","test","1","111","111","5","",""
"null","181662","pSARL_v2","pSARL_v20zg7rkve","6518547e278ac39df35ef084","freq_resp","img/green_2bandit_a.png","70","70","test","","","","5","",""
"null","181836","pSARL_v2","pSARL_v20zg7rkve","6518547e278ac39df35ef084","fixation","img/fixation.png","null","","test","","","","","",""
"341.30000001192093","182186","pSARL_v2","pSARL_v20zg7rkve","6518547e278ac39df35ef084","freq","img/green_2bandit_a2.png","70","70","test","1","112","112","5","",""
"null","182661","pSARL_v2","pSARL_v20zg7rkve","6518547e278ac39df35ef084","freq_resp","img/green_2bandit_a.png","70","70","test","","","","5","",""
"null","182831","pSARL_v2","pSARL_v20zg7rkve","6518547e278ac39df35ef084","fixation","img/fixation.png","null","","test","","","","","",""
"276.5","183117","pSARL_v2","pSARL_v20zg7rkve","6518547e278ac39df35ef084","freq","img/green_2bandit_a2.png","70","70","test","1","113","113","5","",""
"null","183672","pSARL_v2","pSARL_v20zg7rkve","6518547e278ac39df35ef084","freq_resp","img/green_2bandit_a.png","70","70","test","","","","5","",""
"null","183843","pSARL_v2","pSARL_v20zg7rkve","6518547e278ac39df35ef084","fixation","img/fixation.png","null","","test","","","","","",""
"313.09999999403954","184167","pSARL_v2","pSARL_v20zg7rkve","6518547e278ac39df35ef084","freq","img/green_2bandit_a2.png","70","70","test","1","114","114","5","",""
"null","184668","pSARL_v2","pSARL_v20zg7rkve","6518547e278ac39df35ef084","freq_resp","img/green_2bandit_a.png","70","70","test","","","","5","",""
"null","184838","pSARL_v2","pSARL_v20zg7rkve","6518547e278ac39df35ef084","fixation","img/fixation.png","null","","test","","","","","",""
"298.5","185146","pSARL_v2","pSARL_v20zg7rkve","6518547e278ac39df35ef084","freq","img/green_2bandit_a2.png","70","70","test","1","115","115","5","",""
"null","185663","pSARL_v2","pSARL_v20zg7rkve","6518547e278ac39df35ef084","freq_resp","img/green_2bandit_a.png","70","70","test","","","","5","",""
"null","185833","pSARL_v2","pSARL_v20zg7rkve","6518547e278ac39df35ef084","fixation","img/fixation.png","null","","test","","","","","",""
"395.19999998807907","186239","pSARL_v2","pSARL_v20zg7rkve","6518547e278ac39df35ef084","reward","img/slot.png","74","","test","","","","","",""
"null","187016","pSARL_v2","pSARL_v20zg7rkve","6518547e278ac39df35ef084","points","<div class=""veryhighPoints""> +1 </div>","null","na","test","","","","5","1","4"
"360.39999997615814","187387","pSARL_v2","pSARL_v20zg7rkve","6518547e278ac39df35ef084","freq","img/green_2bandit_a2.png","70","70","test","1","116","116","6","",""
"null","187855","pSARL_v2","pSARL_v20zg7rkve","6518547e278ac39df35ef084","freq_resp","img/green_2bandit_a.png","70","70","test","","","","6","",""
"null","188027","pSARL_v2","pSARL_v20zg7rkve","6518547e278ac39df35ef084","fixation","img/fixation.png","null","","test","","","","","",""
"359.59999999403954","188398","pSARL_v2","pSARL_v20zg7rkve","6518547e278ac39df35ef084","freq","img/green_2bandit_a2.png","70","70","test","1","117","117","6","",""
"null","188861","pSARL_v2","pSARL_v20zg7rkve","6518547e278ac39df35ef084","freq_resp","img/green_2bandit_a.png","70","70","test","","","","6","",""
"null","189033","pSARL_v2","pSARL_v20zg7rkve","6518547e278ac39df35ef084","fixation","img/fixation.png","null","","test","","","","","",""
"413.7999999821186","189457","pSARL_v2","pSARL_v20zg7rkve","6518547e278ac39df35ef084","infreq","img/orange_2bandit_a2.png","68","68","test","1","118","118","6","",""
"null","189871","pSARL_v2","pSARL_v20zg7rkve","6518547e278ac39df35ef084","infreq_resp","img/orange_2bandit_a.png","68","68","test","","","","6","",""
"null","190043","pSARL_v2","pSARL_v20zg7rkve","6518547e278ac39df35ef084","fixation","img/fixation.png","null","","test","","","","","",""
"364","190416","pSARL_v2","pSARL_v20zg7rkve","6518547e278ac39df35ef084","freq","img/green_2bandit_a2.png","70","70","test","1","119","119","6","",""
"null","190871","pSARL_v2","pSARL_v20zg7rkve","6518547e278ac39df35ef084","freq_resp","img/green_2bandit_a.png","70","70","test","","","","6","",""
"null","191043","pSARL_v2","pSARL_v20zg7rkve","6518547e278ac39df35ef084","fixation","img/fixation.png","null","","test","","","","","",""
"343.7999999821186","191396","pSARL_v2","pSARL_v20zg7rkve","6518547e278ac39df35ef084","freq","img/green_2bandit_a2.png","70","70","test","1","120","120","6","",""
"null","191870","pSARL_v2","pSARL_v20zg7rkve","6518547e278ac39df35ef084","freq_resp","img/green_2bandit_a.png","70","70","test","","","","6","",""
"null","192040","pSARL_v2","pSARL_v20zg7rkve","6518547e278ac39df35ef084","fixation","img/fixation.png","null","","test","","","","","",""
"297.10000002384186","192347","pSARL_v2","pSARL_v20zg7rkve","6518547e278ac39df35ef084","freq","img/green_2bandit_a2.png","70","70","test","1","121","121","6","",""
"null","192860","pSARL_v2","pSARL_v20zg7rkve","6518547e278ac39df35ef084","freq_resp","img/green_2bandit_a.png","70","70","test","","","","6","",""
"null","193031","pSARL_v2","pSARL_v20zg7rkve","6518547e278ac39df35ef084","fixation","img/fixation.png","null","","test","","","","","",""
"326","193366","pSARL_v2","pSARL_v20zg7rkve","6518547e278ac39df35ef084","freq","img/green_2bandit_a2.png","70","70","test","1","122","122","6","",""
"null","193868","pSARL_v2","pSARL_v20zg7rkve","6518547e278ac39df35ef084","freq_resp","img/green_2bandit_a.png","70","70","test","","","","6","",""
"null","194038","pSARL_v2","pSARL_v20zg7rkve","6518547e278ac39df35ef084","fixation","img/fixation.png","null","","test","","","","","",""
"298.80000001192093","194347","pSARL_v2","pSARL_v20zg7rkve","6518547e278ac39df35ef084","freq","img/green_2bandit_a2.png","70","70","test","1","123","123","6","",""
"null","194865","pSARL_v2","pSARL_v20zg7rkve","6518547e278ac39df35ef084","freq_resp","img/green_2bandit_a.png","70","70","test","","","","6","",""
"null","195035","pSARL_v2","pSARL_v20zg7rkve","6518547e278ac39df35ef084","fixation","img/fixation.png","null","","test","","","","","",""
"341.80000001192093","195386","pSARL_v2","pSARL_v20zg7rkve","6518547e278ac39df35ef084","infreq","img/orange_2bandit_a2.png","68","68","test","1","124","124","6","",""
"null","195860","pSARL_v2","pSARL_v20zg7rkve","6518547e278ac39df35ef084","infreq_resp","img/orange_2bandit_a.png","68","68","test","","","","6","",""
"null","196030","pSARL_v2","pSARL_v20zg7rkve","6518547e278ac39df35ef084","fixation","img/fixation.png","null","","test","","","","","",""
"375.5","196417","pSARL_v2","pSARL_v20zg7rkve","6518547e278ac39df35ef084","freq","img/green_2bandit_a2.png","70","70","test","1","125","125","6","",""
"null","196867","pSARL_v2","pSARL_v20zg7rkve","6518547e278ac39df35ef084","freq_resp","img/green_2bandit_a.png","70","70","test","","","","6","",""
"null","197039","pSARL_v2","pSARL_v20zg7rkve","6518547e278ac39df35ef084","fixation","img/fixation.png","null","","test","","","","","",""
"387.09999999403954","197437","pSARL_v2","pSARL_v20zg7rkve","6518547e278ac39df35ef084","freq","img/green_2bandit_a2.png","70","70","test","1","126","126","6","",""
"null","197879","pSARL_v2","pSARL_v20zg7rkve","6518547e278ac39df35ef084","freq_resp","img/green_2bandit_a.png","70","70","test","","","","6","",""
"null","198050","pSARL_v2","pSARL_v20zg7rkve","6518547e278ac39df35ef084","fixation","img/fixation.png","null","","test","","","","","",""
"315.30000001192093","198374","pSARL_v2","pSARL_v20zg7rkve","6518547e278ac39df35ef084","freq","img/green_2bandit_a2.png","70","70","test","1","127","127","6","",""
"null","198886","pSARL_v2","pSARL_v20zg7rkve","6518547e278ac39df35ef084","freq_resp","img/green_2bandit_a.png","70","70","test","","","","6","",""
"null","199052","pSARL_v2","pSARL_v20zg7rkve","6518547e278ac39df35ef084","fixation","img/fixation.png","null","","test","","","","","",""
"334.80000001192093","199396","pSARL_v2","pSARL_v20zg7rkve","6518547e278ac39df35ef084","freq","img/green_2bandit_a2.png","70","70","test","1","128","128","6","",""
"null","199874","pSARL_v2","pSARL_v20zg7rkve","6518547e278ac39df35ef084","freq_resp","img/green_2bandit_a.png","70","70","test","","","","6","",""
"null","200047","pSARL_v2","pSARL_v20zg7rkve","6518547e278ac39df35ef084","fixation","img/fixation.png","null","","test","","","","","",""
"298.90000000596046","200355","pSARL_v2","pSARL_v20zg7rkve","6518547e278ac39df35ef084","freq","img/green_2bandit_a2.png","70","70","test","1","129","129","6","",""
"null","200872","pSARL_v2","pSARL_v20zg7rkve","6518547e278ac39df35ef084","freq_resp","img/green_2bandit_a.png","70","70","test","","","","6","",""
"null","201042","pSARL_v2","pSARL_v20zg7rkve","6518547e278ac39df35ef084","fixation","img/fixation.png","null","","test","","","","","",""
"303.59999999403954","201356","pSARL_v2","pSARL_v20zg7rkve","6518547e278ac39df35ef084","freq","img/green_2bandit_a2.png","70","70","test","1","130","130","6","",""
"null","201877","pSARL_v2","pSARL_v20zg7rkve","6518547e278ac39df35ef084","freq_resp","img/green_2bandit_a.png","70","70","test","","","","6","",""
"null","202048","pSARL_v2","pSARL_v20zg7rkve","6518547e278ac39df35ef084","fixation","img/fixation.png","null","","test","","","","","",""
"268.2000000178814","202327","pSARL_v2","pSARL_v20zg7rkve","6518547e278ac39df35ef084","freq","img/green_2bandit_a2.png","70","70","test","1","131","131","6","",""
"null","202885","pSARL_v2","pSARL_v20zg7rkve","6518547e278ac39df35ef084","freq_resp","img/green_2bandit_a.png","70","70","test","","","","6","",""
"null","203058","pSARL_v2","pSARL_v20zg7rkve","6518547e278ac39df35ef084","fixation","img/fixation.png","null","","test","","","","","",""
"258.80000001192093","203328","pSARL_v2","pSARL_v20zg7rkve","6518547e278ac39df35ef084","freq","img/green_2bandit_a2.png","70","70","test","1","132","132","6","",""
"null","203884","pSARL_v2","pSARL_v20zg7rkve","6518547e278ac39df35ef084","freq_resp","img/green_2bandit_a.png","70","70","test","","","","6","",""
"null","204055","pSARL_v2","pSARL_v20zg7rkve","6518547e278ac39df35ef084","fixation","img/fixation.png","null","","test","","","","","",""
"272","204338","pSARL_v2","pSARL_v20zg7rkve","6518547e278ac39df35ef084","freq","img/green_2bandit_a2.png","70","70","test","1","133","133","6","",""
"null","204892","pSARL_v2","pSARL_v20zg7rkve","6518547e278ac39df35ef084","freq_resp","img/green_2bandit_a.png","70","70","test","","","","6","",""
"null","205066","pSARL_v2","pSARL_v20zg7rkve","6518547e278ac39df35ef084","fixation","img/fixation.png","null","","test","","","","","",""
"310.59999999403954","205387","pSARL_v2","pSARL_v20zg7rkve","6518547e278ac39df35ef084","freq","img/green_2bandit_a2.png","70","70","test","1","134","134","6","",""
"null","205889","pSARL_v2","pSARL_v20zg7rkve","6518547e278ac39df35ef084","freq_resp","img/green_2bandit_a.png","70","70","test","","","","6","",""
"null","206061","pSARL_v2","pSARL_v20zg7rkve","6518547e278ac39df35ef084","fixation","img/fixation.png","null","","test","","","","","",""
"254.7000000178814","206325","pSARL_v2","pSARL_v20zg7rkve","6518547e278ac39df35ef084","freq","img/green_2bandit_a2.png","70","70","test","1","135","135","6","",""
"null","206895","pSARL_v2","pSARL_v20zg7rkve","6518547e278ac39df35ef084","freq_resp","img/green_2bandit_a.png","70","70","test","","","","6","",""
"null","207065","pSARL_v2","pSARL_v20zg7rkve","6518547e278ac39df35ef084","fixation","img/fixation.png","null","","test","","","","","",""
"320.59999999403954","207396","pSARL_v2","pSARL_v20zg7rkve","6518547e278ac39df35ef084","freq","img/green_2bandit_a2.png","70","70","test","1","136","136","6","",""
"null","207890","pSARL_v2","pSARL_v20zg7rkve","6518547e278ac39df35ef084","freq_resp","img/green_2bandit_a.png","70","70","test","","","","6","",""
"null","208062","pSARL_v2","pSARL_v20zg7rkve","6518547e278ac39df35ef084","fixation","img/fixation.png","null","","test","","","","","",""
"294","208367","pSARL_v2","pSARL_v20zg7rkve","6518547e278ac39df35ef084","freq","img/green_2bandit_a2.png","70","70","test","1","137","137","6","",""
"null","208887","pSARL_v2","pSARL_v20zg7rkve","6518547e278ac39df35ef084","freq_resp","img/green_2bandit_a.png","70","70","test","","","","6","",""
"null","209058","pSARL_v2","pSARL_v20zg7rkve","6518547e278ac39df35ef084","fixation","img/fixation.png","null","","test","","","","","",""
"268.2000000178814","209336","pSARL_v2","pSARL_v20zg7rkve","6518547e278ac39df35ef084","freq","img/green_2bandit_a2.png","70","70","test","1","138","138","6","",""
"null","209892","pSARL_v2","pSARL_v20zg7rkve","6518547e278ac39df35ef084","freq_resp","img/green_2bandit_a.png","70","70","test","","","","6","",""
"null","210063","pSARL_v2","pSARL_v20zg7rkve","6518547e278ac39df35ef084","fixation","img/fixation.png","null","","test","","","","","",""
"293.09999999403954","210365","pSARL_v2","pSARL_v20zg7rkve","6518547e278ac39df35ef084","freq","img/green_2bandit_a2.png","70","70","test","1","139","139","6","",""
"null","210886","pSARL_v2","pSARL_v20zg7rkve","6518547e278ac39df35ef084","freq_resp","img/green_2bandit_a.png","70","70","test","","","","6","",""
"null","211057","pSARL_v2","pSARL_v20zg7rkve","6518547e278ac39df35ef084","fixation","img/fixation.png","null","","test","","","","","",""
"438.7999999821186","211508","pSARL_v2","pSARL_v20zg7rkve","6518547e278ac39df35ef084","reward","img/slot.png","74","","test","","","","","",""
"null","212282","pSARL_v2","pSARL_v20zg7rkve","6518547e278ac39df35ef084","points","<div class=""verylowPoints""> -7 </div>","null","na","test","","","","6","-7","5"
"433.2000000178814","212727","pSARL_v2","pSARL_v20zg7rkve","6518547e278ac39df35ef084","freq","img/green_2bandit_a2.png","70","70","test","1","140","140","7","",""
"null","213119","pSARL_v2","pSARL_v20zg7rkve","6518547e278ac39df35ef084","freq_resp","img/green_2bandit_a.png","70","70","test","","","","7","",""
"null","213288","pSARL_v2","pSARL_v20zg7rkve","6518547e278ac39df35ef084","fixation","img/fixation.png","null","","test","","","","","",""
"318","213615","pSARL_v2","pSARL_v20zg7rkve","6518547e278ac39df35ef084","freq","img/green_2bandit_a2.png","70","70","test","1","141","141","7","",""
"null","214128","pSARL_v2","pSARL_v20zg7rkve","6518547e278ac39df35ef084","freq_resp","img/green_2bandit_a.png","70","70","test","","","","7","",""
"null","214299","pSARL_v2","pSARL_v20zg7rkve","6518547e278ac39df35ef084","fixation","img/fixation.png","null","","test","","","","","",""
"296.2999999821186","214605","pSARL_v2","pSARL_v20zg7rkve","6518547e278ac39df35ef084","freq","img/green_2bandit_a2.png","70","70","test","1","142","142","7","",""
"null","215121","pSARL_v2","pSARL_v20zg7rkve","6518547e278ac39df35ef084","freq_resp","img/green_2bandit_a.png","70","70","test","","","","7","",""
"null","215291","pSARL_v2","pSARL_v20zg7rkve","6518547e278ac39df35ef084","fixation","img/fixation.png","null","","test","","","","","",""
"404.90000000596046","215707","pSARL_v2","pSARL_v20zg7rkve","6518547e278ac39df35ef084","infreq","img/orange_2bandit_a2.png","68","68","test","1","143","143","7","",""
"null","216129","pSARL_v2","pSARL_v20zg7rkve","6518547e278ac39df35ef084","infreq_resp","img/orange_2bandit_a.png","68","68","test","","","","7","",""
"null","216299","pSARL_v2","pSARL_v20zg7rkve","6518547e278ac39df35ef084","fixation","img/fixation.png","null","","test","","","","","",""
"276.7999999821186","216585","pSARL_v2","pSARL_v20zg7rkve","6518547e278ac39df35ef084","freq","img/green_2bandit_a2.png","70","70","test","1","144","144","7","",""
"null","217124","pSARL_v2","pSARL_v20zg7rkve","6518547e278ac39df35ef084","freq_resp","img/green_2bandit_a.png","70","70","test","","","","7","",""
"null","217296","pSARL_v2","pSARL_v20zg7rkve","6518547e278ac39df35ef084","fixation","img/fixation.png","null","","test","","","","","",""
"269.2000000178814","217577","pSARL_v2","pSARL_v20zg7rkve","6518547e278ac39df35ef084","freq","img/green_2bandit_a2.png","70","70","test","1","145","145","7","",""
"null","218137","pSARL_v2","pSARL_v20zg7rkve","6518547e278ac39df35ef084","freq_resp","img/green_2bandit_a.png","70","70","test","","","","7","",""
"null","218308","pSARL_v2","pSARL_v20zg7rkve","6518547e278ac39df35ef084","fixation","img/fixation.png","null","","test","","","","","",""
"278","218597","pSARL_v2","pSARL_v20zg7rkve","6518547e278ac39df35ef084","freq","img/green_2bandit_a2.png","70","70","test","1","146","146","7","",""
"null","219131","pSARL_v2","pSARL_v20zg7rkve","6518547e278ac39df35ef084","freq_resp","img/green_2bandit_a.png","70","70","test","","","","7","",""
"null","219302","pSARL_v2","pSARL_v20zg7rkve","6518547e278ac39df35ef084","fixation","img/fixation.png","null","","test","","","","","",""
"374.40000000596046","219687","pSARL_v2","pSARL_v20zg7rkve","6518547e278ac39df35ef084","infreq","img/orange_2bandit_a2.png","68","68","test","1","147","147","7","",""
"null","220141","pSARL_v2","pSARL_v20zg7rkve","6518547e278ac39df35ef084","infreq_resp","img/orange_2bandit_a.png","68","68","test","","","","7","",""
"null","220314","pSARL_v2","pSARL_v20zg7rkve","6518547e278ac39df35ef084","fixation","img/fixation.png","null","","test","","","","","",""
"280","220602","pSARL_v2","pSARL_v20zg7rkve","6518547e278ac39df35ef084","freq","img/green_2bandit_a2.png","70","70","test","1","148","148","7","",""
"null","221141","pSARL_v2","pSARL_v20zg7rkve","6518547e278ac39df35ef084","freq_resp","img/green_2bandit_a.png","70","70","test","","","","7","",""
"null","221311","pSARL_v2","pSARL_v20zg7rkve","6518547e278ac39df35ef084","fixation","img/fixation.png","null","","test","","","","","",""
"346","221665","pSARL_v2","pSARL_v20zg7rkve","6518547e278ac39df35ef084","freq","img/green_2bandit_a2.png","70","70","test","1","149","149","7","",""
"null","222139","pSARL_v2","pSARL_v20zg7rkve","6518547e278ac39df35ef084","freq_resp","img/green_2bandit_a.png","70","70","test","","","","7","",""
"null","222312","pSARL_v2","pSARL_v20zg7rkve","6518547e278ac39df35ef084","fixation","img/fixation.png","null","","test","","","","","",""
"264.09999999403954","222586","pSARL_v2","pSARL_v20zg7rkve","6518547e278ac39df35ef084","freq","img/green_2bandit_a2.png","70","70","test","1","150","150","7","",""
"null","223151","pSARL_v2","pSARL_v20zg7rkve","6518547e278ac39df35ef084","freq_resp","img/green_2bandit_a.png","70","70","test","","","","7","",""
"null","223322","pSARL_v2","pSARL_v20zg7rkve","6518547e278ac39df35ef084","fixation","img/fixation.png","null","","test","","","","","",""
"284.40000000596046","223617","pSARL_v2","pSARL_v20zg7rkve","6518547e278ac39df35ef084","freq","img/green_2bandit_a2.png","70","70","test","1","151","151","7","",""
"null","224161","pSARL_v2","pSARL_v20zg7rkve","6518547e278ac39df35ef084","freq_resp","img/green_2bandit_a.png","70","70","test","","","","7","",""
"null","224330","pSARL_v2","pSARL_v20zg7rkve","6518547e278ac39df35ef084","fixation","img/fixation.png","null","","test","","","","","",""
"286.39999997615814","224628","pSARL_v2","pSARL_v20zg7rkve","6518547e278ac39df35ef084","freq","img/green_2bandit_a2.png","70","70","test","1","152","152","7","",""
"null","225169","pSARL_v2","pSARL_v20zg7rkve","6518547e278ac39df35ef084","freq_resp","img/green_2bandit_a.png","70","70","test","","","","7","",""
"null","225341","pSARL_v2","pSARL_v20zg7rkve","6518547e278ac39df35ef084","fixation","img/fixation.png","null","","test","","","","","",""
"304.7999999821186","225655","pSARL_v2","pSARL_v20zg7rkve","6518547e278ac39df35ef084","freq","img/green_2bandit_a2.png","70","70","test","1","153","153","7","",""
"null","226177","pSARL_v2","pSARL_v20zg7rkve","6518547e278ac39df35ef084","freq_resp","img/green_2bandit_a.png","70","70","test","","","","7","",""
"null","226347","pSARL_v2","pSARL_v20zg7rkve","6518547e278ac39df35ef084","fixation","img/fixation.png","null","","test","","","","","",""
"279.2000000178814","226636","pSARL_v2","pSARL_v20zg7rkve","6518547e278ac39df35ef084","freq","img/green_2bandit_a2.png","70","70","test","1","154","154","7","",""
"null","227173","pSARL_v2","pSARL_v20zg7rkve","6518547e278ac39df35ef084","freq_resp","img/green_2bandit_a.png","70","70","test","","","","7","",""
"null","227342","pSARL_v2","pSARL_v20zg7rkve","6518547e278ac39df35ef084","fixation","img/fixation.png","null","","test","","","","","",""
"283.69999998807907","227638","pSARL_v2","pSARL_v20zg7rkve","6518547e278ac39df35ef084","freq","img/green_2bandit_a2.png","70","70","test","1","155","155","7","",""
"null","228178","pSARL_v2","pSARL_v20zg7rkve","6518547e278ac39df35ef084","freq_resp","img/green_2bandit_a.png","70","70","test","","","","7","",""
"null","228348","pSARL_v2","pSARL_v20zg7rkve","6518547e278ac39df35ef084","fixation","img/fixation.png","null","","test","","","","","",""
"227.80000001192093","228585","pSARL_v2","pSARL_v20zg7rkve","6518547e278ac39df35ef084","freq","img/green_2bandit_a2.png","70","70","test","1","156","156","7","",""
"null","229174","pSARL_v2","pSARL_v20zg7rkve","6518547e278ac39df35ef084","freq_resp","img/green_2bandit_a.png","70","70","test","","","","7","",""
"null","229342","pSARL_v2","pSARL_v20zg7rkve","6518547e278ac39df35ef084","fixation","img/fixation.png","null","","test","","","","","",""
"152.39999997615814","229504","pSARL_v2","pSARL_v20zg7rkve","6518547e278ac39df35ef084","freq","img/green_2bandit_a2.png","70","70","test","1","157","157","7","",""
"null","230181","pSARL_v2","pSARL_v20zg7rkve","6518547e278ac39df35ef084","freq_resp","img/green_2bandit_a.png","70","70","test","","","","7","",""
"null","230350","pSARL_v2","pSARL_v20zg7rkve","6518547e278ac39df35ef084","fixation","img/fixation.png","null","","test","","","","","",""
"95.09999999403954","230458","pSARL_v2","pSARL_v20zg7rkve","6518547e278ac39df35ef084","infreq","img/orange_2bandit_a2.png","70","68","test","0","158","158","7","",""
"null","231188","pSARL_v2","pSARL_v20zg7rkve","6518547e278ac39df35ef084","infreq_resp","img/orange_2bandit_a.png","70","68","test","","","","7","",""
"null","231360","pSARL_v2","pSARL_v20zg7rkve","6518547e278ac39df35ef084","fixation","img/fixation.png","null","","test","","","","","",""
"316","231686","pSARL_v2","pSARL_v20zg7rkve","6518547e278ac39df35ef084","freq","img/green_2bandit_a2.png","70","70","test","1","159","159","7","",""
"null","232196","pSARL_v2","pSARL_v20zg7rkve","6518547e278ac39df35ef084","freq_resp","img/green_2bandit_a.png","70","70","test","","","","7","",""
"null","232367","pSARL_v2","pSARL_v20zg7rkve","6518547e278ac39df35ef084","fixation","img/fixation.png","null","","test","","","","","",""
"448","232826","pSARL_v2","pSARL_v20zg7rkve","6518547e278ac39df35ef084","freq","img/green_2bandit_a2.png","70","70","test","1","160","160","7","",""
"null","233205","pSARL_v2","pSARL_v20zg7rkve","6518547e278ac39df35ef084","freq_resp","img/green_2bandit_a.png","70","70","test","","","","7","",""
"null","233377","pSARL_v2","pSARL_v20zg7rkve","6518547e278ac39df35ef084","fixation","img/fixation.png","null","","test","","","","","",""
"368","233756","pSARL_v2","pSARL_v20zg7rkve","6518547e278ac39df35ef084","freq","img/green_2bandit_a2.png","70","70","test","1","161","161","7","",""
"null","234216","pSARL_v2","pSARL_v20zg7rkve","6518547e278ac39df35ef084","freq_resp","img/green_2bandit_a.png","70","70","test","","","","7","",""
"null","234385","pSARL_v2","pSARL_v20zg7rkve","6518547e278ac39df35ef084","fixation","img/fixation.png","null","","test","","","","","",""
"321.09999999403954","234717","pSARL_v2","pSARL_v20zg7rkve","6518547e278ac39df35ef084","freq","img/green_2bandit_a2.png","70","70","test","1","162","162","7","",""
"null","235211","pSARL_v2","pSARL_v20zg7rkve","6518547e278ac39df35ef084","freq_resp","img/green_2bandit_a.png","70","70","test","","","","7","",""
"null","235383","pSARL_v2","pSARL_v20zg7rkve","6518547e278ac39df35ef084","fixation","img/fixation.png","null","","test","","","","","",""
"532.1999999880791","235925","pSARL_v2","pSARL_v20zg7rkve","6518547e278ac39df35ef084","reward","img/slot.png","74","","test","","","","","",""
"null","236702","pSARL_v2","pSARL_v20zg7rkve","6518547e278ac39df35ef084","points","<div class=""verylowPoints""> -6 </div>","null","na","test","","","","7","-6","6"
"423.40000000596046","237138","pSARL_v2","pSARL_v20zg7rkve","6518547e278ac39df35ef084","freq","img/green_2bandit_a2.png","70","70","test","1","163","163","8","",""
"null","237541","pSARL_v2","pSARL_v20zg7rkve","6518547e278ac39df35ef084","freq_resp","img/green_2bandit_a.png","70","70","test","","","","8","",""
"null","237714","pSARL_v2","pSARL_v20zg7rkve","6518547e278ac39df35ef084","fixation","img/fixation.png","null","","test","","","","","",""
"381.40000000596046","238106","pSARL_v2","pSARL_v20zg7rkve","6518547e278ac39df35ef084","freq","img/green_2bandit_a2.png","70","70","test","1","164","164","8","",""
"null","238551","pSARL_v2","pSARL_v20zg7rkve","6518547e278ac39df35ef084","freq_resp","img/green_2bandit_a.png","70","70","test","","","","8","",""
"null","238724","pSARL_v2","pSARL_v20zg7rkve","6518547e278ac39df35ef084","fixation","img/fixation.png","null","","test","","","","","",""
"430.2000000178814","239166","pSARL_v2","pSARL_v20zg7rkve","6518547e278ac39df35ef084","freq","img/green_2bandit_a2.png","70","70","test","1","165","165","8","",""
"null","239564","pSARL_v2","pSARL_v20zg7rkve","6518547e278ac39df35ef084","freq_resp","img/green_2bandit_a.png","70","70","test","","","","8","",""
"null","239737","pSARL_v2","pSARL_v20zg7rkve","6518547e278ac39df35ef084","fixation","img/fixation.png","null","","test","","","","","",""
"357.10000002384186","240102","pSARL_v2","pSARL_v20zg7rkve","6518547e278ac39df35ef084","freq","img/green_2bandit_a2.png","70","70","test","1","166","166","8","",""
"null","240574","pSARL_v2","pSARL_v20zg7rkve","6518547e278ac39df35ef084","freq_resp","img/green_2bandit_a.png","70","70","test","","","","8","",""
"null","240745","pSARL_v2","pSARL_v20zg7rkve","6518547e278ac39df35ef084","fixation","img/fixation.png","null","","test","","","","","",""
"319.19999998807907","241075","pSARL_v2","pSARL_v20zg7rkve","6518547e278ac39df35ef084","freq","img/green_2bandit_a2.png","70","70","test","1","167","167","8","",""
"null","241570","pSARL_v2","pSARL_v20zg7rkve","6518547e278ac39df35ef084","freq_resp","img/green_2bandit_a.png","70","70","test","","","","8","",""
"null","241744","pSARL_v2","pSARL_v20zg7rkve","6518547e278ac39df35ef084","fixation","img/fixation.png","null","","test","","","","","",""
"280.40000000596046","242035","pSARL_v2","pSARL_v20zg7rkve","6518547e278ac39df35ef084","freq","img/green_2bandit_a2.png","70","70","test","1","168","168","8","",""
"null","242580","pSARL_v2","pSARL_v20zg7rkve","6518547e278ac39df35ef084","freq_resp","img/green_2bandit_a.png","70","70","test","","","","8","",""
"null","242752","pSARL_v2","pSARL_v20zg7rkve","6518547e278ac39df35ef084","fixation","img/fixation.png","null","","test","","","","","",""
"332.09999999403954","243094","pSARL_v2","pSARL_v20zg7rkve","6518547e278ac39df35ef084","freq","img/green_2bandit_a2.png","70","70","test","1","169","169","8","",""
"null","243591","pSARL_v2","pSARL_v20zg7rkve","6518547e278ac39df35ef084","freq_resp","img/green_2bandit_a.png","70","70","test","","","","8","",""
"null","243763","pSARL_v2","pSARL_v20zg7rkve","6518547e278ac39df35ef084","fixation","img/fixation.png","null","","test","","","","","",""
"321.30000001192093","244095","pSARL_v2","pSARL_v20zg7rkve","6518547e278ac39df35ef084","freq","img/green_2bandit_a2.png","70","70","test","1","170","170","8","",""
"null","244587","pSARL_v2","pSARL_v20zg7rkve","6518547e278ac39df35ef084","freq_resp","img/green_2bandit_a.png","70","70","test","","","","8","",""
"null","244758","pSARL_v2","pSARL_v20zg7rkve","6518547e278ac39df35ef084","fixation","img/fixation.png","null","","test","","","","","",""
"307","245077","pSARL_v2","pSARL_v20zg7rkve","6518547e278ac39df35ef084","freq","img/green_2bandit_a2.png","70","70","test","1","171","171","8","",""
"null","245594","pSARL_v2","pSARL_v20zg7rkve","6518547e278ac39df35ef084","freq_resp","img/green_2bandit_a.png","70","70","test","","","","8","",""
"null","245766","pSARL_v2","pSARL_v20zg7rkve","6518547e278ac39df35ef084","fixation","img/fixation.png","null","","test","","","","","",""
"288.59999999403954","246065","pSARL_v2","pSARL_v20zg7rkve","6518547e278ac39df35ef084","freq","img/green_2bandit_a2.png","70","70","test","1","172","172","8","",""
"null","246609","pSARL_v2","pSARL_v20zg7rkve","6518547e278ac39df35ef084","freq_resp","img/green_2bandit_a.png","70","70","test","","","","8","",""
"null","246781","pSARL_v2","pSARL_v20zg7rkve","6518547e278ac39df35ef084","fixation","img/fixation.png","null","","test","","","","","",""
"403.40000000596046","247195","pSARL_v2","pSARL_v20zg7rkve","6518547e278ac39df35ef084","infreq","img/orange_2bandit_a2.png","68","68","test","1","173","173","8","",""
"null","247621","pSARL_v2","pSARL_v20zg7rkve","6518547e278ac39df35ef084","infreq_resp","img/orange_2bandit_a.png","68","68","test","","","","8","",""
"null","247794","pSARL_v2","pSARL_v20zg7rkve","6518547e278ac39df35ef084","fixation","img/fixation.png","null","","test","","","","","",""
"350.60000002384186","248155","pSARL_v2","pSARL_v20zg7rkve","6518547e278ac39df35ef084","freq","img/green_2bandit_a2.png","70","70","test","1","174","174","8","",""
"null","248634","pSARL_v2","pSARL_v20zg7rkve","6518547e278ac39df35ef084","freq_resp","img/green_2bandit_a.png","70","70","test","","","","8","",""
"null","248801","pSARL_v2","pSARL_v20zg7rkve","6518547e278ac39df35ef084","fixation","img/fixation.png","null","","test","","","","","",""
"253.19999998807907","249066","pSARL_v2","pSARL_v20zg7rkve","6518547e278ac39df35ef084","freq","img/green_2bandit_a2.png","70","70","test","1","175","175","8","",""
"null","249623","pSARL_v2","pSARL_v20zg7rkve","6518547e278ac39df35ef084","freq_resp","img/green_2bandit_a.png","70","70","test","","","","8","",""
"null","249798","pSARL_v2","pSARL_v20zg7rkve","6518547e278ac39df35ef084","fixation","img/fixation.png","null","","test","","","","","",""
"246.2000000178814","250055","pSARL_v2","pSARL_v20zg7rkve","6518547e278ac39df35ef084","freq","img/green_2bandit_a2.png","70","70","test","1","176","176","8","",""
"null","250641","pSARL_v2","pSARL_v20zg7rkve","6518547e278ac39df35ef084","freq_resp","img/green_2bandit_a.png","70","70","test","","","","8","",""
"null","250816","pSARL_v2","pSARL_v20zg7rkve","6518547e278ac39df35ef084","fixation","img/fixation.png","null","","test","","","","","",""
"298.40000000596046","251125","pSARL_v2","pSARL_v20zg7rkve","6518547e278ac39df35ef084","freq","img/green_2bandit_a2.png","70","70","test","1","177","177","8","",""
"null","251650","pSARL_v2","pSARL_v20zg7rkve","6518547e278ac39df35ef084","freq_resp","img/green_2bandit_a.png","70","70","test","","","","8","",""
"null","251821","pSARL_v2","pSARL_v20zg7rkve","6518547e278ac39df35ef084","fixation","img/fixation.png","null","","test","","","","","",""
"383","252214","pSARL_v2","pSARL_v20zg7rkve","6518547e278ac39df35ef084","infreq","img/orange_2bandit_a2.png","68","68","test","1","178","178","8","",""
"null","252661","pSARL_v2","pSARL_v20zg7rkve","6518547e278ac39df35ef084","infreq_resp","img/orange_2bandit_a.png","68","68","test","","","","8","",""
"null","252830","pSARL_v2","pSARL_v20zg7rkve","6518547e278ac39df35ef084","fixation","img/fixation.png","null","","test","","","","","",""
"353.69999998807907","253196","pSARL_v2","pSARL_v20zg7rkve","6518547e278ac39df35ef084","freq","img/green_2bandit_a2.png","70","70","test","1","179","179","8","",""
"null","253669","pSARL_v2","pSARL_v20zg7rkve","6518547e278ac39df35ef084","freq_resp","img/green_2bandit_a.png","70","70","test","","","","8","",""
"null","253840","pSARL_v2","pSARL_v20zg7rkve","6518547e278ac39df35ef084","fixation","img/fixation.png","null","","test","","","","","",""
"313.30000001192093","254167","pSARL_v2","pSARL_v20zg7rkve","6518547e278ac39df35ef084","freq","img/green_2bandit_a2.png","70","70","test","1","180","180","8","",""
"null","254667","pSARL_v2","pSARL_v20zg7rkve","6518547e278ac39df35ef084","freq_resp","img/green_2bandit_a.png","70","70","test","","","","8","",""
"null","254837","pSARL_v2","pSARL_v20zg7rkve","6518547e278ac39df35ef084","fixation","img/fixation.png","null","","test","","","","","",""
"268","255115","pSARL_v2","pSARL_v20zg7rkve","6518547e278ac39df35ef084","freq","img/green_2bandit_a2.png","70","70","test","1","181","181","8","",""
"null","255675","pSARL_v2","pSARL_v20zg7rkve","6518547e278ac39df35ef084","freq_resp","img/green_2bandit_a.png","70","70","test","","","","8","",""
"null","255846","pSARL_v2","pSARL_v20zg7rkve","6518547e278ac39df35ef084","fixation","img/fixation.png","null","","test","","","","","",""
"288.09999999403954","256144","pSARL_v2","pSARL_v20zg7rkve","6518547e278ac39df35ef084","freq","img/green_2bandit_a2.png","70","70","test","1","182","182","8","",""
"null","256685","pSARL_v2","pSARL_v20zg7rkve","6518547e278ac39df35ef084","freq_resp","img/green_2bandit_a.png","70","70","test","","","","8","",""
"null","256859","pSARL_v2","pSARL_v20zg7rkve","6518547e278ac39df35ef084","fixation","img/fixation.png","null","","test","","","","","",""
"265.09999999403954","257134","pSARL_v2","pSARL_v20zg7rkve","6518547e278ac39df35ef084","freq","img/green_2bandit_a2.png","70","70","test","1","183","183","8","",""
"null","257682","pSARL_v2","pSARL_v20zg7rkve","6518547e278ac39df35ef084","freq_resp","img/green_2bandit_a.png","70","70","test","","","","8","",""
"null","257853","pSARL_v2","pSARL_v20zg7rkve","6518547e278ac39df35ef084","fixation","img/fixation.png","null","","test","","","","","",""
"290.89999997615814","258154","pSARL_v2","pSARL_v20zg7rkve","6518547e278ac39df35ef084","freq","img/green_2bandit_a2.png","70","70","test","1","184","184","8","",""
"null","258695","pSARL_v2","pSARL_v20zg7rkve","6518547e278ac39df35ef084","freq_resp","img/green_2bandit_a.png","70","70","test","","","","8","",""
"null","258864","pSARL_v2","pSARL_v20zg7rkve","6518547e278ac39df35ef084","fixation","img/fixation.png","null","","test","","","","","",""
"300.10000002384186","259176","pSARL_v2","pSARL_v20zg7rkve","6518547e278ac39df35ef084","freq","img/green_2bandit_a2.png","70","70","test","1","185","185","8","",""
"null","259701","pSARL_v2","pSARL_v20zg7rkve","6518547e278ac39df35ef084","freq_resp","img/green_2bandit_a.png","70","70","test","","","","8","",""
"null","259871","pSARL_v2","pSARL_v20zg7rkve","6518547e278ac39df35ef084","fixation","img/fixation.png","null","","test","","","","","",""
"312.80000001192093","260196","pSARL_v2","pSARL_v20zg7rkve","6518547e278ac39df35ef084","freq","img/green_2bandit_a2.png","70","70","test","1","186","186","8","",""
"null","260707","pSARL_v2","pSARL_v20zg7rkve","6518547e278ac39df35ef084","freq_resp","img/green_2bandit_a.png","70","70","test","","","","8","",""
"null","260878","pSARL_v2","pSARL_v20zg7rkve","6518547e278ac39df35ef084","fixation","img/fixation.png","null","","test","","","","","",""
"336.59999999403954","261225","pSARL_v2","pSARL_v20zg7rkve","6518547e278ac39df35ef084","freq","img/green_2bandit_a2.png","70","70","test","1","187","187","8","",""
"null","261716","pSARL_v2","pSARL_v20zg7rkve","6518547e278ac39df35ef084","freq_resp","img/green_2bandit_a.png","70","70","test","","","","8","",""
"null","261885","pSARL_v2","pSARL_v20zg7rkve","6518547e278ac39df35ef084","fixation","img/fixation.png","null","","test","","","","","",""
"449.10000002384186","262345","pSARL_v2","pSARL_v20zg7rkve","6518547e278ac39df35ef084","reward","img/slot.png","74","","test","","","","","",""
"null","263127","pSARL_v2","pSARL_v20zg7rkve","6518547e278ac39df35ef084","points","<div class=""verylowPoints""> -4 </div>","null","na","test","","","","8","-4","7"
"326.7000000178814","263467","pSARL_v2","pSARL_v20zg7rkve","6518547e278ac39df35ef084","freq","img/green_2bandit_a2.png","70","70","test","1","188","188","9","",""
"null","263969","pSARL_v2","pSARL_v20zg7rkve","6518547e278ac39df35ef084","freq_resp","img/green_2bandit_a.png","70","70","test","","","","9","",""
"null","264140","pSARL_v2","pSARL_v20zg7rkve","6518547e278ac39df35ef084","fixation","img/fixation.png","null","","test","","","","","",""
"273.80000001192093","264423","pSARL_v2","pSARL_v20zg7rkve","6518547e278ac39df35ef084","freq","img/green_2bandit_a2.png","70","70","test","1","189","189","9","",""
"null","264976","pSARL_v2","pSARL_v20zg7rkve","6518547e278ac39df35ef084","freq_resp","img/green_2bandit_a.png","70","70","test","","","","9","",""
"null","265146","pSARL_v2","pSARL_v20zg7rkve","6518547e278ac39df35ef084","fixation","img/fixation.png","null","","test","","","","","",""
"248.69999998807907","265407","pSARL_v2","pSARL_v20zg7rkve","6518547e278ac39df35ef084","freq","img/green_2bandit_a2.png","70","70","test","1","190","190","9","",""
"null","265983","pSARL_v2","pSARL_v20zg7rkve","6518547e278ac39df35ef084","freq_resp","img/green_2bandit_a.png","70","70","test","","","","9","",""
"null","266154","pSARL_v2","pSARL_v20zg7rkve","6518547e278ac39df35ef084","fixation","img/fixation.png","null","","test","","","","","",""
"300.7000000178814","266469","pSARL_v2","pSARL_v20zg7rkve","6518547e278ac39df35ef084","freq","img/green_2bandit_a2.png","70","70","test","1","191","191","9","",""
"null","266992","pSARL_v2","pSARL_v20zg7rkve","6518547e278ac39df35ef084","freq_resp","img/green_2bandit_a.png","70","70","test","","","","9","",""
"null","267164","pSARL_v2","pSARL_v20zg7rkve","6518547e278ac39df35ef084","fixation","img/fixation.png","null","","test","","","","","",""
"300.19999998807907","267474","pSARL_v2","pSARL_v20zg7rkve","6518547e278ac39df35ef084","freq","img/green_2bandit_a2.png","70","70","test","1","192","192","9","",""
"null","267988","pSARL_v2","pSARL_v20zg7rkve","6518547e278ac39df35ef084","freq_resp","img/green_2bandit_a.png","70","70","test","","","","9","",""
"null","268160","pSARL_v2","pSARL_v20zg7rkve","6518547e278ac39df35ef084","fixation","img/fixation.png","null","","test","","","","","",""
"314.7000000178814","268484","pSARL_v2","pSARL_v20zg7rkve","6518547e278ac39df35ef084","freq","img/green_2bandit_a2.png","70","70","test","1","193","193","9","",""
"null","268998","pSARL_v2","pSARL_v20zg7rkve","6518547e278ac39df35ef084","freq_resp","img/green_2bandit_a.png","70","70","test","","","","9","",""
"null","269169","pSARL_v2","pSARL_v20zg7rkve","6518547e278ac39df35ef084","fixation","img/fixation.png","null","","test","","","","","",""
"285.7999999821186","269468","pSARL_v2","pSARL_v20zg7rkve","6518547e278ac39df35ef084","freq","img/green_2bandit_a2.png","70","70","test","1","194","194","9","",""
"null","270007","pSARL_v2","pSARL_v20zg7rkve","6518547e278ac39df35ef084","freq_resp","img/green_2bandit_a.png","70","70","test","","","","9","",""
"null","270178","pSARL_v2","pSARL_v20zg7rkve","6518547e278ac39df35ef084","fixation","img/fixation.png","null","","test","","","","","",""
"246.2999999821186","270433","pSARL_v2","pSARL_v20zg7rkve","6518547e278ac39df35ef084","freq","img/green_2bandit_a2.png","70","70","test","1","195","195","9","",""
"null","271002","pSARL_v2","pSARL_v20zg7rkve","6518547e278ac39df35ef084","freq_resp","img/green_2bandit_a.png","70","70","test","","","","9","",""
"null","271173","pSARL_v2","pSARL_v20zg7rkve","6518547e278ac39df35ef084","fixation","img/fixation.png","null","","test","","","","","",""
"291.59999999403954","271480","pSARL_v2","pSARL_v20zg7rkve","6518547e278ac39df35ef084","freq","img/green_2bandit_a2.png","70","70","test","1","196","196","9","",""
"null","272013","pSARL_v2","pSARL_v20zg7rkve","6518547e278ac39df35ef084","freq_resp","img/green_2bandit_a.png","70","70","test","","","","9","",""
"null","272186","pSARL_v2","pSARL_v20zg7rkve","6518547e278ac39df35ef084","fixation","img/fixation.png","null","","test","","","","","",""
"268.19999998807907","272468","pSARL_v2","pSARL_v20zg7rkve","6518547e278ac39df35ef084","freq","img/green_2bandit_a2.png","70","70","test","1","197","197","9","",""
"null","273022","pSARL_v2","pSARL_v20zg7rkve","6518547e278ac39df35ef084","freq_resp","img/green_2bandit_a.png","70","70","test","","","","9","",""
"null","273193","pSARL_v2","pSARL_v20zg7rkve","6518547e278ac39df35ef084","fixation","img/fixation.png","null","","test","","","","","",""
"210.80000001192093","273413","pSARL_v2","pSARL_v20zg7rkve","6518547e278ac39df35ef084","freq","img/green_2bandit_a2.png","70","70","test","1","198","198","9","",""
"null","274032","pSARL_v2","pSARL_v20zg7rkve","6518547e278ac39df35ef084","freq_resp","img/green_2bandit_a.png","70","70","test","","","","9","",""
"null","274203","pSARL_v2","pSARL_v20zg7rkve","6518547e278ac39df35ef084","fixation","img/fixation.png","null","","test","","","","","",""
"121.40000000596046","274335","pSARL_v2","pSARL_v20zg7rkve","6518547e278ac39df35ef084","infreq","img/orange_2bandit_a2.png","70","68","test","0","199","199","9","",""
"null","275033","pSARL_v2","pSARL_v20zg7rkve","6518547e278ac39df35ef084","infreq_resp","img/orange_2bandit_a.png","70","68","test","","","","9","",""
"null","275202","pSARL_v2","pSARL_v20zg7rkve","6518547e278ac39df35ef084","fixation","img/fixation.png","null","","test","","","","","",""
"402.19999998807907","275616","pSARL_v2","pSARL_v20zg7rkve","6518547e278ac39df35ef084","freq","img/green_2bandit_a2.png","70","70","test","1","200","200","9","",""
"null","276040","pSARL_v2","pSARL_v20zg7rkve","6518547e278ac39df35ef084","freq_resp","img/green_2bandit_a.png","70","70","test","","","","9","",""
"null","276210","pSARL_v2","pSARL_v20zg7rkve","6518547e278ac39df35ef084","fixation","img/fixation.png","null","","test","","","","","",""
"403.30000001192093","276623","pSARL_v2","pSARL_v20zg7rkve","6518547e278ac39df35ef084","freq","img/green_2bandit_a2.png","70","70","test","1","201","201","9","",""
"null","277038","pSARL_v2","pSARL_v20zg7rkve","6518547e278ac39df35ef084","freq_resp","img/green_2bandit_a.png","70","70","test","","","","9","",""
"null","277209","pSARL_v2","pSARL_v20zg7rkve","6518547e278ac39df35ef084","fixation","img/fixation.png","null","","test","","","","","",""
"354.7000000178814","277574","pSARL_v2","pSARL_v20zg7rkve","6518547e278ac39df35ef084","freq","img/green_2bandit_a2.png","70","70","test","1","202","202","9","",""
"null","278034","pSARL_v2","pSARL_v20zg7rkve","6518547e278ac39df35ef084","freq_resp","img/green_2bandit_a.png","70","70","test","","","","9","",""
"null","278206","pSARL_v2","pSARL_v20zg7rkve","6518547e278ac39df35ef084","fixation","img/fixation.png","null","","test","","","","","",""
"328.09999999403954","278543","pSARL_v2","pSARL_v20zg7rkve","6518547e278ac39df35ef084","freq","img/green_2bandit_a2.png","70","70","test","1","203","203","9","",""
"null","279041","pSARL_v2","pSARL_v20zg7rkve","6518547e278ac39df35ef084","freq_resp","img/green_2bandit_a.png","70","70","test","","","","9","",""
"null","279214","pSARL_v2","pSARL_v20zg7rkve","6518547e278ac39df35ef084","fixation","img/fixation.png","null","","test","","","","","",""
"330.5","279554","pSARL_v2","pSARL_v20zg7rkve","6518547e278ac39df35ef084","freq","img/green_2bandit_a2.png","70","70","test","1","204","204","9","",""
"null","280053","pSARL_v2","pSARL_v20zg7rkve","6518547e278ac39df35ef084","freq_resp","img/green_2bandit_a.png","70","70","test","","","","9","",""
"null","280223","pSARL_v2","pSARL_v20zg7rkve","6518547e278ac39df35ef084","fixation","img/fixation.png","null","","test","","","","","",""
"391","280629","pSARL_v2","pSARL_v20zg7rkve","6518547e278ac39df35ef084","infreq","img/orange_2bandit_a2.png","68","68","test","1","205","205","9","",""
"null","281062","pSARL_v2","pSARL_v20zg7rkve","6518547e278ac39df35ef084","infreq_resp","img/orange_2bandit_a.png","68","68","test","","","","9","",""
"null","281233","pSARL_v2","pSARL_v20zg7rkve","6518547e278ac39df35ef084","fixation","img/fixation.png","null","","test","","","","","",""
"320.59999999403954","281570","pSARL_v2","pSARL_v20zg7rkve","6518547e278ac39df35ef084","freq","img/green_2bandit_a2.png","70","70","test","1","206","206","9","",""
"null","282076","pSARL_v2","pSARL_v20zg7rkve","6518547e278ac39df35ef084","freq_resp","img/green_2bandit_a.png","70","70","test","","","","9","",""
"null","282247","pSARL_v2","pSARL_v20zg7rkve","6518547e278ac39df35ef084","fixation","img/fixation.png","null","","test","","","","","",""
