"rt","time_elapsed","expId","subject","prolificID","trialType","stimulus","key_press","corrresp","phase","corr","trialNum","attentionRunNum","blockNum","points","rlNum"
"15673.899999976158","15684","pSARL_v2","pSARL_v260jt7emo","641420858e37d13196283812","","","","","","","","","","",""
"","18583","pSARL_v2","pSARL_v260jt7emo","641420858e37d13196283812","fullscreen","","","","","","","","","",""
"217040.69999998808","235630","pSARL_v2","pSARL_v260jt7emo","641420858e37d13196283812","","","","","","","","","","",""
"null","236442","pSARL_v2","pSARL_v260jt7emo","641420858e37d13196283812","freqPrac","img/green_2bandit_a2.png","null","70","prac","0","","","","",""
"null","237451","pSARL_v2","pSARL_v260jt7emo","641420858e37d13196283812","feedback","img/tooSlow.png","null","na","prac","","","","","",""
"null","237613","pSARL_v2","pSARL_v260jt7emo","641420858e37d13196283812","fixation","img/fixation.png","null","","prac","","","","","",""
"null","238424","pSARL_v2","pSARL_v260jt7emo","641420858e37d13196283812","infreqPrac","img/orange_2bandit_a2.png","null","68","prac","0","","","","",""
"null","239444","pSARL_v2","pSARL_v260jt7emo","641420858e37d13196283812","feedback","img/tooSlow.png","null","na","prac","","","","","",""
"null","239613","pSARL_v2","pSARL_v260jt7emo","641420858e37d13196283812","fixation","img/fixation.png","null","","prac","","","","","",""
"null","240421","pSARL_v2","pSARL_v260jt7emo","641420858e37d13196283812","freqPrac","img/green_2bandit_a2.png","null","70","prac","0","","","","",""
"null","241438","pSARL_v2","pSARL_v260jt7emo","641420858e37d13196283812","feedback","img/tooSlow.png","null","na","prac","","","","","",""
"null","241604","pSARL_v2","pSARL_v260jt7emo","641420858e37d13196283812","fixation","img/fixation.png","null","","prac","","","","","",""
"null","242413","pSARL_v2","pSARL_v260jt7emo","641420858e37d13196283812","infreqPrac","img/orange_2bandit_a2.png","null","68","prac","0","","","","",""
"null","243422","pSARL_v2","pSARL_v260jt7emo","641420858e37d13196283812","feedback","img/tooSlow.png","null","na","prac","","","","","",""
"null","243584","pSARL_v2","pSARL_v260jt7emo","641420858e37d13196283812","fixation","img/fixation.png","null","","prac","","","","","",""
"null","244394","pSARL_v2","pSARL_v260jt7emo","641420858e37d13196283812","infreqPrac","img/orange_2bandit_a2.png","null","68","prac","0","","","","",""
"null","245410","pSARL_v2","pSARL_v260jt7emo","641420858e37d13196283812","feedback","img/tooSlow.png","null","na","prac","","","","","",""
"null","245573","pSARL_v2","pSARL_v260jt7emo","641420858e37d13196283812","fixation","img/fixation.png","null","","prac","","","","","",""
"null","246380","pSARL_v2","pSARL_v260jt7emo","641420858e37d13196283812","infreqPrac","img/orange_2bandit_a2.png","null","68","prac","0","","","","",""
"null","247388","pSARL_v2","pSARL_v260jt7emo","641420858e37d13196283812","feedback","img/tooSlow.png","null","na","prac","","","","","",""
"null","247547","pSARL_v2","pSARL_v260jt7emo","641420858e37d13196283812","fixation","img/fixation.png","null","","prac","","","","","",""
"289.7999999523163","247842","pSARL_v2","pSARL_v260jt7emo","641420858e37d13196283812","freqPrac","img/green_2bandit_a2.png","68","70","prac","0","","","","",""
"289.7999999523163","248368","pSARL_v2","pSARL_v260jt7emo","641420858e37d13196283812","freqPrac_resp","img/green_2bandit_a.png","68","70","prac","","","","","",""
"null","249382","pSARL_v2","pSARL_v260jt7emo","641420858e37d13196283812","feedback","img/wrongKey.png","null","na","prac","","","","","",""
"null","249550","pSARL_v2","pSARL_v260jt7emo","641420858e37d13196283812","fixation","img/fixation.png","null","","prac","","","","","",""
"null","250359","pSARL_v2","pSARL_v260jt7emo","641420858e37d13196283812","infreqPrac","img/orange_2bandit_a2.png","null","68","prac","0","","","","",""
"null","251365","pSARL_v2","pSARL_v260jt7emo","641420858e37d13196283812","feedback","img/tooSlow.png","null","na","prac","","","","","",""
"null","251528","pSARL_v2","pSARL_v260jt7emo","641420858e37d13196283812","fixation","img/fixation.png","null","","prac","","","","","",""
"765.1999999880791","252298","pSARL_v2","pSARL_v260jt7emo","641420858e37d13196283812","freqPrac","img/green_2bandit_a2.png","70","70","prac","1","","","","",""
"765.1999999880791","252362","pSARL_v2","pSARL_v260jt7emo","641420858e37d13196283812","freqPrac_resp","img/green_2bandit_a.png","70","70","prac","","","","","",""
"null","252519","pSARL_v2","pSARL_v260jt7emo","641420858e37d13196283812","fixation","img/fixation.png","null","","prac","","","","","",""
"798.5","253322","pSARL_v2","pSARL_v260jt7emo","641420858e37d13196283812","freqPrac","img/green_2bandit_a2.png","70","70","prac","1","","","","",""
"798.5","253330","pSARL_v2","pSARL_v260jt7emo","641420858e37d13196283812","freqPrac_resp","img/green_2bandit_a.png","70","70","prac","","","","","",""
"null","253494","pSARL_v2","pSARL_v260jt7emo","641420858e37d13196283812","fixation","img/fixation.png","null","","prac","","","","","",""
"46053.39999997616","299553","pSARL_v2","pSARL_v260jt7emo","641420858e37d13196283812","","","","","prac","","","","","",""
"1173.300000011921","300732","pSARL_v2","pSARL_v260jt7emo","641420858e37d13196283812","rewardPractice","img/slot.png","74","","prac","","","","","",""
"null","301498","pSARL_v2","pSARL_v260jt7emo","641420858e37d13196283812","feedback","<div class=""veryhighPoints""> +15 </div>","null","na","prac","","","","","",""
"null","301654","pSARL_v2","pSARL_v260jt7emo","641420858e37d13196283812","fixation","img/fixation.png","null","","prac","","","","","",""
"62047.60000002384","363706","pSARL_v2","pSARL_v260jt7emo","641420858e37d13196283812","","","","","prac","","","","","",""
"null","364524","pSARL_v2","pSARL_v260jt7emo","641420858e37d13196283812","freq","img/green_2bandit_a2.png","null","70","test","0","1","1","1","",""
"null","364683","pSARL_v2","pSARL_v260jt7emo","641420858e37d13196283812","fixation","img/fixation.png","null","","test","","","","","",""
"null","365497","pSARL_v2","pSARL_v260jt7emo","641420858e37d13196283812","freq","img/green_2bandit_a2.png","null","70","test","0","2","2","1","",""
"null","365658","pSARL_v2","pSARL_v260jt7emo","641420858e37d13196283812","fixation","img/fixation.png","null","","test","","","","","",""
"null","366469","pSARL_v2","pSARL_v260jt7emo","641420858e37d13196283812","freq","img/green_2bandit_a2.png","null","70","test","0","3","3","1","",""
"null","366635","pSARL_v2","pSARL_v260jt7emo","641420858e37d13196283812","fixation","img/fixation.png","null","","test","","","","","",""
"525.8000000119209","367166","pSARL_v2","pSARL_v260jt7emo","641420858e37d13196283812","freq","img/green_2bandit_a2.png","70","70","test","1","4","4","1","",""
"null","367457","pSARL_v2","pSARL_v260jt7emo","641420858e37d13196283812","freq_resp","img/green_2bandit_a.png","70","70","test","","","","1","",""
"null","367625","pSARL_v2","pSARL_v260jt7emo","641420858e37d13196283812","fixation","img/fixation.png","null","","test","","","","","",""
"597.6999999880791","368228","pSARL_v2","pSARL_v260jt7emo","641420858e37d13196283812","freq","img/green_2bandit_a2.png","70","70","test","1","5","5","1","",""
"null","368441","pSARL_v2","pSARL_v260jt7emo","641420858e37d13196283812","freq_resp","img/green_2bandit_a.png","70","70","test","","","","1","",""
"null","368598","pSARL_v2","pSARL_v260jt7emo","641420858e37d13196283812","fixation","img/fixation.png","null","","test","","","","","",""
"532","369135","pSARL_v2","pSARL_v260jt7emo","641420858e37d13196283812","freq","img/green_2bandit_a2.png","70","70","test","1","6","6","1","",""
"null","369423","pSARL_v2","pSARL_v260jt7emo","641420858e37d13196283812","freq_resp","img/green_2bandit_a.png","70","70","test","","","","1","",""
"null","369589","pSARL_v2","pSARL_v260jt7emo","641420858e37d13196283812","fixation","img/fixation.png","null","","test","","","","","",""
"480.60000002384186","370074","pSARL_v2","pSARL_v260jt7emo","641420858e37d13196283812","freq","img/green_2bandit_a2.png","70","70","test","1","7","7","1","",""
"null","370405","pSARL_v2","pSARL_v260jt7emo","641420858e37d13196283812","freq_resp","img/green_2bandit_a.png","70","70","test","","","","1","",""
"null","370560","pSARL_v2","pSARL_v260jt7emo","641420858e37d13196283812","fixation","img/fixation.png","null","","test","","","","","",""
"689.6999999880791","371255","pSARL_v2","pSARL_v260jt7emo","641420858e37d13196283812","infreq","img/orange_2bandit_a2.png","68","68","test","1","8","8","1","",""
"null","371385","pSARL_v2","pSARL_v260jt7emo","641420858e37d13196283812","infreq_resp","img/orange_2bandit_a.png","68","68","test","","","","1","",""
"null","371555","pSARL_v2","pSARL_v260jt7emo","641420858e37d13196283812","fixation","img/fixation.png","null","","test","","","","","",""
"664.5","372224","pSARL_v2","pSARL_v260jt7emo","641420858e37d13196283812","freq","img/green_2bandit_a2.png","70","70","test","1","9","9","1","",""
"null","372366","pSARL_v2","pSARL_v260jt7emo","641420858e37d13196283812","freq_resp","img/green_2bandit_a.png","70","70","test","","","","1","",""
"null","372536","pSARL_v2","pSARL_v260jt7emo","641420858e37d13196283812","fixation","img/fixation.png","null","","test","","","","","",""
"null","373356","pSARL_v2","pSARL_v260jt7emo","641420858e37d13196283812","freq","img/green_2bandit_a2.png","null","70","test","0","10","10","1","",""
"null","373512","pSARL_v2","pSARL_v260jt7emo","641420858e37d13196283812","fixation","img/fixation.png","null","","test","","","","","",""
"74.30000001192093","373592","pSARL_v2","pSARL_v260jt7emo","641420858e37d13196283812","freq","img/green_2bandit_a2.png","70","70","test","1","11","11","1","",""
"null","374325","pSARL_v2","pSARL_v260jt7emo","641420858e37d13196283812","freq_resp","img/green_2bandit_a.png","70","70","test","","","","1","",""
"null","374487","pSARL_v2","pSARL_v260jt7emo","641420858e37d13196283812","fixation","img/fixation.png","null","","test","","","","","",""
"479.69999998807907","374972","pSARL_v2","pSARL_v260jt7emo","641420858e37d13196283812","freq","img/green_2bandit_a2.png","70","70","test","1","12","12","1","",""
"null","375301","pSARL_v2","pSARL_v260jt7emo","641420858e37d13196283812","freq_resp","img/green_2bandit_a.png","70","70","test","","","","1","",""
"null","375458","pSARL_v2","pSARL_v260jt7emo","641420858e37d13196283812","fixation","img/fixation.png","null","","test","","","","","",""
"411","375874","pSARL_v2","pSARL_v260jt7emo","641420858e37d13196283812","freq","img/green_2bandit_a2.png","70","70","test","1","13","13","1","",""
"null","376278","pSARL_v2","pSARL_v260jt7emo","641420858e37d13196283812","freq_resp","img/green_2bandit_a.png","70","70","test","","","","1","",""
"null","376444","pSARL_v2","pSARL_v260jt7emo","641420858e37d13196283812","fixation","img/fixation.png","null","","test","","","","","",""
"343","376792","pSARL_v2","pSARL_v260jt7emo","641420858e37d13196283812","freq","img/green_2bandit_a2.png","70","70","test","1","14","14","1","",""
"null","377264","pSARL_v2","pSARL_v260jt7emo","641420858e37d13196283812","freq_resp","img/green_2bandit_a.png","70","70","test","","","","1","",""
"null","377431","pSARL_v2","pSARL_v260jt7emo","641420858e37d13196283812","fixation","img/fixation.png","null","","test","","","","","",""
"353","377789","pSARL_v2","pSARL_v260jt7emo","641420858e37d13196283812","freq","img/green_2bandit_a2.png","70","70","test","1","15","15","1","",""
"null","378244","pSARL_v2","pSARL_v260jt7emo","641420858e37d13196283812","freq_resp","img/green_2bandit_a.png","70","70","test","","","","1","",""
"null","378409","pSARL_v2","pSARL_v260jt7emo","641420858e37d13196283812","fixation","img/fixation.png","null","","test","","","","","",""
"377","378791","pSARL_v2","pSARL_v260jt7emo","641420858e37d13196283812","freq","img/green_2bandit_a2.png","70","70","test","1","16","16","1","",""
"null","379226","pSARL_v2","pSARL_v260jt7emo","641420858e37d13196283812","freq_resp","img/green_2bandit_a.png","70","70","test","","","","1","",""
"null","379392","pSARL_v2","pSARL_v260jt7emo","641420858e37d13196283812","fixation","img/fixation.png","null","","test","","","","","",""
"307.2000000476837","379705","pSARL_v2","pSARL_v260jt7emo","641420858e37d13196283812","freq","img/green_2bandit_a2.png","70","70","test","1","17","17","1","",""
"null","380203","pSARL_v2","pSARL_v260jt7emo","641420858e37d13196283812","freq_resp","img/green_2bandit_a.png","70","70","test","","","","1","",""
"null","380359","pSARL_v2","pSARL_v260jt7emo","641420858e37d13196283812","fixation","img/fixation.png","null","","test","","","","","",""
"325.7000000476837","380689","pSARL_v2","pSARL_v260jt7emo","641420858e37d13196283812","freq","img/green_2bandit_a2.png","70","70","test","1","18","18","1","",""
"null","381170","pSARL_v2","pSARL_v260jt7emo","641420858e37d13196283812","freq_resp","img/green_2bandit_a.png","70","70","test","","","","1","",""
"null","381325","pSARL_v2","pSARL_v260jt7emo","641420858e37d13196283812","fixation","img/fixation.png","null","","test","","","","","",""
"211.69999998807907","381542","pSARL_v2","pSARL_v260jt7emo","641420858e37d13196283812","freq","img/green_2bandit_a2.png","70","70","test","1","19","19","1","",""
"null","382145","pSARL_v2","pSARL_v260jt7emo","641420858e37d13196283812","freq_resp","img/green_2bandit_a.png","70","70","test","","","","1","",""
"null","382301","pSARL_v2","pSARL_v260jt7emo","641420858e37d13196283812","fixation","img/fixation.png","null","","test","","","","","",""
"380.80000001192093","382687","pSARL_v2","pSARL_v260jt7emo","641420858e37d13196283812","infreq","img/orange_2bandit_a2.png","70","68","test","0","20","20","1","",""
"null","383124","pSARL_v2","pSARL_v260jt7emo","641420858e37d13196283812","infreq_resp","img/orange_2bandit_a.png","70","68","test","","","","1","",""
"null","383279","pSARL_v2","pSARL_v260jt7emo","641420858e37d13196283812","fixation","img/fixation.png","null","","test","","","","","",""
"588.6999999880791","383873","pSARL_v2","pSARL_v260jt7emo","641420858e37d13196283812","freq","img/green_2bandit_a2.png","70","70","test","1","21","21","1","",""
"null","384101","pSARL_v2","pSARL_v260jt7emo","641420858e37d13196283812","freq_resp","img/green_2bandit_a.png","70","70","test","","","","1","",""
"null","384261","pSARL_v2","pSARL_v260jt7emo","641420858e37d13196283812","fixation","img/fixation.png","null","","test","","","","","",""
"1675.4000000357628","385941","pSARL_v2","pSARL_v260jt7emo","641420858e37d13196283812","reward","img/slot.png","74","","test","","","","","",""
"null","386708","pSARL_v2","pSARL_v260jt7emo","641420858e37d13196283812","points","<div class=""verylowPoints""> -6 </div>","null","na","test","","","","1","-6","0"
"null","387519","pSARL_v2","pSARL_v260jt7emo","641420858e37d13196283812","freq","img/green_2bandit_a2.png","null","70","test","0","22","22","2","",""
"null","387678","pSARL_v2","pSARL_v260jt7emo","641420858e37d13196283812","fixation","img/fixation.png","null","","test","","","","","",""
"600.8999999761581","388284","pSARL_v2","pSARL_v260jt7emo","641420858e37d13196283812","freq","img/green_2bandit_a2.png","70","70","test","1","23","23","2","",""
"null","388498","pSARL_v2","pSARL_v260jt7emo","641420858e37d13196283812","freq_resp","img/green_2bandit_a.png","70","70","test","","","","2","",""
"null","388654","pSARL_v2","pSARL_v260jt7emo","641420858e37d13196283812","fixation","img/fixation.png","null","","test","","","","","",""
"null","389475","pSARL_v2","pSARL_v260jt7emo","641420858e37d13196283812","infreq","img/orange_2bandit_a2.png","null","68","test","0","24","24","2","",""
"null","389636","pSARL_v2","pSARL_v260jt7emo","641420858e37d13196283812","fixation","img/fixation.png","null","","test","","","","","",""
"481.39999997615814","390123","pSARL_v2","pSARL_v260jt7emo","641420858e37d13196283812","freq","img/green_2bandit_a2.png","70","70","test","1","25","25","2","",""
"null","390446","pSARL_v2","pSARL_v260jt7emo","641420858e37d13196283812","freq_resp","img/green_2bandit_a.png","70","70","test","","","","2","",""
"null","390601","pSARL_v2","pSARL_v260jt7emo","641420858e37d13196283812","fixation","img/fixation.png","null","","test","","","","","",""
"638","391244","pSARL_v2","pSARL_v260jt7emo","641420858e37d13196283812","infreq","img/orange_2bandit_a2.png","68","68","test","1","26","26","2","",""
"null","391416","pSARL_v2","pSARL_v260jt7emo","641420858e37d13196283812","infreq_resp","img/orange_2bandit_a.png","68","68","test","","","","2","",""
"null","391581","pSARL_v2","pSARL_v260jt7emo","641420858e37d13196283812","fixation","img/fixation.png","null","","test","","","","","",""
"509.7999999523163","392095","pSARL_v2","pSARL_v260jt7emo","641420858e37d13196283812","freq","img/green_2bandit_a2.png","70","70","test","1","27","27","2","",""
"null","392392","pSARL_v2","pSARL_v260jt7emo","641420858e37d13196283812","freq_resp","img/green_2bandit_a.png","70","70","test","","","","2","",""
"null","392562","pSARL_v2","pSARL_v260jt7emo","641420858e37d13196283812","fixation","img/fixation.png","null","","test","","","","","",""
"461.89999997615814","393028","pSARL_v2","pSARL_v260jt7emo","641420858e37d13196283812","freq","img/green_2bandit_a2.png","70","70","test","1","28","28","2","",""
"null","393386","pSARL_v2","pSARL_v260jt7emo","641420858e37d13196283812","freq_resp","img/green_2bandit_a.png","70","70","test","","","","2","",""
"null","393548","pSARL_v2","pSARL_v260jt7emo","641420858e37d13196283812","fixation","img/fixation.png","null","","test","","","","","",""
"508.80000001192093","394062","pSARL_v2","pSARL_v260jt7emo","641420858e37d13196283812","freq","img/green_2bandit_a2.png","70","70","test","1","29","29","2","",""
"null","394370","pSARL_v2","pSARL_v260jt7emo","641420858e37d13196283812","freq_resp","img/green_2bandit_a.png","70","70","test","","","","2","",""
"null","394532","pSARL_v2","pSARL_v260jt7emo","641420858e37d13196283812","fixation","img/fixation.png","null","","test","","","","","",""
"379.0999999642372","394916","pSARL_v2","pSARL_v260jt7emo","641420858e37d13196283812","freq","img/green_2bandit_a2.png","70","70","test","1","30","30","2","",""
"null","395355","pSARL_v2","pSARL_v260jt7emo","641420858e37d13196283812","freq_resp","img/green_2bandit_a.png","70","70","test","","","","2","",""
"null","395518","pSARL_v2","pSARL_v260jt7emo","641420858e37d13196283812","fixation","img/fixation.png","null","","test","","","","","",""
"372.5","395896","pSARL_v2","pSARL_v260jt7emo","641420858e37d13196283812","freq","img/green_2bandit_a2.png","70","70","test","1","31","31","2","",""
"null","396333","pSARL_v2","pSARL_v260jt7emo","641420858e37d13196283812","freq_resp","img/green_2bandit_a.png","70","70","test","","","","2","",""
"null","396499","pSARL_v2","pSARL_v260jt7emo","641420858e37d13196283812","fixation","img/fixation.png","null","","test","","","","","",""
"479.60000002384186","396984","pSARL_v2","pSARL_v260jt7emo","641420858e37d13196283812","freq","img/green_2bandit_a2.png","70","70","test","1","32","32","2","",""
"null","397319","pSARL_v2","pSARL_v260jt7emo","641420858e37d13196283812","freq_resp","img/green_2bandit_a.png","70","70","test","","","","2","",""
"null","397489","pSARL_v2","pSARL_v260jt7emo","641420858e37d13196283812","fixation","img/fixation.png","null","","test","","","","","",""
"516.3000000119209","398010","pSARL_v2","pSARL_v260jt7emo","641420858e37d13196283812","freq","img/green_2bandit_a2.png","70","70","test","1","33","33","2","",""
"null","398302","pSARL_v2","pSARL_v260jt7emo","641420858e37d13196283812","freq_resp","img/green_2bandit_a.png","70","70","test","","","","2","",""
"null","398464","pSARL_v2","pSARL_v260jt7emo","641420858e37d13196283812","fixation","img/fixation.png","null","","test","","","","","",""
"509.89999997615814","398979","pSARL_v2","pSARL_v260jt7emo","641420858e37d13196283812","freq","img/green_2bandit_a2.png","70","70","test","1","34","34","2","",""
"null","399284","pSARL_v2","pSARL_v260jt7emo","641420858e37d13196283812","freq_resp","img/green_2bandit_a.png","70","70","test","","","","2","",""
"null","399449","pSARL_v2","pSARL_v260jt7emo","641420858e37d13196283812","fixation","img/fixation.png","null","","test","","","","","",""
"381.5","399835","pSARL_v2","pSARL_v260jt7emo","641420858e37d13196283812","freq","img/green_2bandit_a2.png","70","70","test","1","35","35","2","",""
"null","400261","pSARL_v2","pSARL_v260jt7emo","641420858e37d13196283812","freq_resp","img/green_2bandit_a.png","70","70","test","","","","2","",""
"null","400416","pSARL_v2","pSARL_v260jt7emo","641420858e37d13196283812","fixation","img/fixation.png","null","","test","","","","","",""
"367.39999997615814","400789","pSARL_v2","pSARL_v260jt7emo","641420858e37d13196283812","freq","img/green_2bandit_a2.png","70","70","test","1","36","36","2","",""
"null","401241","pSARL_v2","pSARL_v260jt7emo","641420858e37d13196283812","freq_resp","img/green_2bandit_a.png","70","70","test","","","","2","",""
"null","401399","pSARL_v2","pSARL_v260jt7emo","641420858e37d13196283812","fixation","img/fixation.png","null","","test","","","","","",""
"409.5","401813","pSARL_v2","pSARL_v260jt7emo","641420858e37d13196283812","freq","img/green_2bandit_a2.png","70","70","test","1","37","37","2","",""
"null","402224","pSARL_v2","pSARL_v260jt7emo","641420858e37d13196283812","freq_resp","img/green_2bandit_a.png","70","70","test","","","","2","",""
"null","402384","pSARL_v2","pSARL_v260jt7emo","641420858e37d13196283812","fixation","img/fixation.png","null","","test","","","","","",""
"370.4000000357628","402759","pSARL_v2","pSARL_v260jt7emo","641420858e37d13196283812","freq","img/green_2bandit_a2.png","70","70","test","1","38","38","2","",""
"null","403203","pSARL_v2","pSARL_v260jt7emo","641420858e37d13196283812","freq_resp","img/green_2bandit_a.png","70","70","test","","","","2","",""
"null","403362","pSARL_v2","pSARL_v260jt7emo","641420858e37d13196283812","fixation","img/fixation.png","null","","test","","","","","",""
"386.5999999642372","403754","pSARL_v2","pSARL_v260jt7emo","641420858e37d13196283812","freq","img/green_2bandit_a2.png","70","70","test","1","39","39","2","",""
"null","404187","pSARL_v2","pSARL_v260jt7emo","641420858e37d13196283812","freq_resp","img/green_2bandit_a.png","70","70","test","","","","2","",""
"null","404354","pSARL_v2","pSARL_v260jt7emo","641420858e37d13196283812","fixation","img/fixation.png","null","","test","","","","","",""
"376.39999997615814","404735","pSARL_v2","pSARL_v260jt7emo","641420858e37d13196283812","freq","img/green_2bandit_a2.png","70","70","test","1","40","40","2","",""
"null","405171","pSARL_v2","pSARL_v260jt7emo","641420858e37d13196283812","freq_resp","img/green_2bandit_a.png","70","70","test","","","","2","",""
"null","405339","pSARL_v2","pSARL_v260jt7emo","641420858e37d13196283812","fixation","img/fixation.png","null","","test","","","","","",""
"1333.7000000476837","406677","pSARL_v2","pSARL_v260jt7emo","641420858e37d13196283812","reward","img/slot.png","74","","test","","","","","",""
"null","407440","pSARL_v2","pSARL_v260jt7emo","641420858e37d13196283812","points","<div class=""verylowPoints""> -11 </div>","null","na","test","","","","2","-11","1"
"null","408255","pSARL_v2","pSARL_v260jt7emo","641420858e37d13196283812","freq","img/green_2bandit_a2.png","null","70","test","0","41","41","3","",""
"null","408419","pSARL_v2","pSARL_v260jt7emo","641420858e37d13196283812","fixation","img/fixation.png","null","","test","","","","","",""
"361.69999998807907","408786","pSARL_v2","pSARL_v260jt7emo","641420858e37d13196283812","freq","img/green_2bandit_a2.png","70","70","test","1","42","42","3","",""
"null","409234","pSARL_v2","pSARL_v260jt7emo","641420858e37d13196283812","freq_resp","img/green_2bandit_a.png","70","70","test","","","","3","",""
"null","409391","pSARL_v2","pSARL_v260jt7emo","641420858e37d13196283812","fixation","img/fixation.png","null","","test","","","","","",""
"null","410210","pSARL_v2","pSARL_v260jt7emo","641420858e37d13196283812","freq","img/green_2bandit_a2.png","null","70","test","0","43","43","3","",""
"null","410375","pSARL_v2","pSARL_v260jt7emo","641420858e37d13196283812","fixation","img/fixation.png","null","","test","","","","","",""
"16.600000023841858","410397","pSARL_v2","pSARL_v260jt7emo","641420858e37d13196283812","freq","img/green_2bandit_a2.png","70","70","test","1","44","44","3","",""
"null","411194","pSARL_v2","pSARL_v260jt7emo","641420858e37d13196283812","freq_resp","img/green_2bandit_a.png","70","70","test","","","","3","",""
"null","411349","pSARL_v2","pSARL_v260jt7emo","641420858e37d13196283812","fixation","img/fixation.png","null","","test","","","","","",""
"455","411809","pSARL_v2","pSARL_v260jt7emo","641420858e37d13196283812","freq","img/green_2bandit_a2.png","70","70","test","1","45","45","3","",""
"null","412170","pSARL_v2","pSARL_v260jt7emo","641420858e37d13196283812","freq_resp","img/green_2bandit_a.png","70","70","test","","","","3","",""
"null","412330","pSARL_v2","pSARL_v260jt7emo","641420858e37d13196283812","fixation","img/fixation.png","null","","test","","","","","",""
"328.69999998807907","412663","pSARL_v2","pSARL_v260jt7emo","641420858e37d13196283812","freq","img/green_2bandit_a2.png","70","70","test","1","46","46","3","",""
"null","413152","pSARL_v2","pSARL_v260jt7emo","641420858e37d13196283812","freq_resp","img/green_2bandit_a.png","70","70","test","","","","3","",""
"null","413319","pSARL_v2","pSARL_v260jt7emo","641420858e37d13196283812","fixation","img/fixation.png","null","","test","","","","","",""
"165.39999997615814","413489","pSARL_v2","pSARL_v260jt7emo","641420858e37d13196283812","freq","img/green_2bandit_a2.png","70","70","test","1","47","47","3","",""
"null","414129","pSARL_v2","pSARL_v260jt7emo","641420858e37d13196283812","freq_resp","img/green_2bandit_a.png","70","70","test","","","","3","",""
"null","414299","pSARL_v2","pSARL_v260jt7emo","641420858e37d13196283812","fixation","img/fixation.png","null","","test","","","","","",""
"224.9000000357628","414529","pSARL_v2","pSARL_v260jt7emo","641420858e37d13196283812","freq","img/green_2bandit_a2.png","70","70","test","1","48","48","3","",""
"null","415120","pSARL_v2","pSARL_v260jt7emo","641420858e37d13196283812","freq_resp","img/green_2bandit_a.png","70","70","test","","","","3","",""
"null","415284","pSARL_v2","pSARL_v260jt7emo","641420858e37d13196283812","fixation","img/fixation.png","null","","test","","","","","",""
"183.60000002384186","415472","pSARL_v2","pSARL_v260jt7emo","641420858e37d13196283812","freq","img/green_2bandit_a2.png","70","70","test","1","49","49","3","",""
"null","416100","pSARL_v2","pSARL_v260jt7emo","641420858e37d13196283812","freq_resp","img/green_2bandit_a.png","70","70","test","","","","3","",""
"null","416260","pSARL_v2","pSARL_v260jt7emo","641420858e37d13196283812","fixation","img/fixation.png","null","","test","","","","","",""
"249","416514","pSARL_v2","pSARL_v260jt7emo","641420858e37d13196283812","freq","img/green_2bandit_a2.png","70","70","test","1","50","50","3","",""
"null","417086","pSARL_v2","pSARL_v260jt7emo","641420858e37d13196283812","freq_resp","img/green_2bandit_a.png","70","70","test","","","","3","",""
"null","417249","pSARL_v2","pSARL_v260jt7emo","641420858e37d13196283812","fixation","img/fixation.png","null","","test","","","","","",""
"182.5","417437","pSARL_v2","pSARL_v260jt7emo","641420858e37d13196283812","freq","img/green_2bandit_a2.png","70","70","test","1","51","51","3","",""
"null","418067","pSARL_v2","pSARL_v260jt7emo","641420858e37d13196283812","freq_resp","img/green_2bandit_a.png","70","70","test","","","","3","",""
"null","418238","pSARL_v2","pSARL_v260jt7emo","641420858e37d13196283812","fixation","img/fixation.png","null","","test","","","","","",""
"123.69999998807907","418367","pSARL_v2","pSARL_v260jt7emo","641420858e37d13196283812","freq","img/green_2bandit_a2.png","70","70","test","1","52","52","3","",""
"null","419052","pSARL_v2","pSARL_v260jt7emo","641420858e37d13196283812","freq_resp","img/green_2bandit_a.png","70","70","test","","","","3","",""
"null","419215","pSARL_v2","pSARL_v260jt7emo","641420858e37d13196283812","fixation","img/fixation.png","null","","test","","","","","",""
"149.89999997615814","419370","pSARL_v2","pSARL_v260jt7emo","641420858e37d13196283812","freq","img/green_2bandit_a2.png","70","70","test","1","53","53","3","",""
"null","420030","pSARL_v2","pSARL_v260jt7emo","641420858e37d13196283812","freq_resp","img/green_2bandit_a.png","70","70","test","","","","3","",""
"null","420196","pSARL_v2","pSARL_v260jt7emo","641420858e37d13196283812","fixation","img/fixation.png","null","","test","","","","","",""
"256.5","420458","pSARL_v2","pSARL_v260jt7emo","641420858e37d13196283812","freq","img/green_2bandit_a2.png","70","70","test","1","54","54","3","",""
"null","421016","pSARL_v2","pSARL_v260jt7emo","641420858e37d13196283812","freq_resp","img/green_2bandit_a.png","70","70","test","","","","3","",""
"null","421177","pSARL_v2","pSARL_v260jt7emo","641420858e37d13196283812","fixation","img/fixation.png","null","","test","","","","","",""
"342.80000001192093","421525","pSARL_v2","pSARL_v260jt7emo","641420858e37d13196283812","freq","img/green_2bandit_a2.png","70","70","test","1","55","55","3","",""
"null","421989","pSARL_v2","pSARL_v260jt7emo","641420858e37d13196283812","freq_resp","img/green_2bandit_a.png","70","70","test","","","","3","",""
"null","422158","pSARL_v2","pSARL_v260jt7emo","641420858e37d13196283812","fixation","img/fixation.png","null","","test","","","","","",""
"325.69999998807907","422488","pSARL_v2","pSARL_v260jt7emo","641420858e37d13196283812","infreq","img/orange_2bandit_a2.png","70","68","test","0","56","56","3","",""
"null","422972","pSARL_v2","pSARL_v260jt7emo","641420858e37d13196283812","infreq_resp","img/orange_2bandit_a.png","70","68","test","","","","3","",""
"null","423128","pSARL_v2","pSARL_v260jt7emo","641420858e37d13196283812","fixation","img/fixation.png","null","","test","","","","","",""
"624","423757","pSARL_v2","pSARL_v260jt7emo","641420858e37d13196283812","freq","img/green_2bandit_a2.png","70","70","test","1","57","57","3","",""
"null","423947","pSARL_v2","pSARL_v260jt7emo","641420858e37d13196283812","freq_resp","img/green_2bandit_a.png","70","70","test","","","","3","",""
"null","424103","pSARL_v2","pSARL_v260jt7emo","641420858e37d13196283812","fixation","img/fixation.png","null","","test","","","","","",""
"428.30000001192093","424536","pSARL_v2","pSARL_v260jt7emo","641420858e37d13196283812","freq","img/green_2bandit_a2.png","70","70","test","1","58","58","3","",""
"null","424924","pSARL_v2","pSARL_v260jt7emo","641420858e37d13196283812","freq_resp","img/green_2bandit_a.png","70","70","test","","","","3","",""
"null","425088","pSARL_v2","pSARL_v260jt7emo","641420858e37d13196283812","fixation","img/fixation.png","null","","test","","","","","",""
"427","425520","pSARL_v2","pSARL_v260jt7emo","641420858e37d13196283812","freq","img/green_2bandit_a2.png","70","70","test","1","59","59","3","",""
"null","425910","pSARL_v2","pSARL_v260jt7emo","641420858e37d13196283812","freq_resp","img/green_2bandit_a.png","70","70","test","","","","3","",""
"null","426071","pSARL_v2","pSARL_v260jt7emo","641420858e37d13196283812","fixation","img/fixation.png","null","","test","","","","","",""
"300.5","426376","pSARL_v2","pSARL_v260jt7emo","641420858e37d13196283812","infreq","img/orange_2bandit_a2.png","70","68","test","0","60","60","3","",""
"null","426885","pSARL_v2","pSARL_v260jt7emo","641420858e37d13196283812","infreq_resp","img/orange_2bandit_a.png","70","68","test","","","","3","",""
"null","427045","pSARL_v2","pSARL_v260jt7emo","641420858e37d13196283812","fixation","img/fixation.png","null","","test","","","","","",""
"441.30000001192093","427492","pSARL_v2","pSARL_v260jt7emo","641420858e37d13196283812","freq","img/green_2bandit_a2.png","70","70","test","1","61","61","3","",""
"null","427859","pSARL_v2","pSARL_v260jt7emo","641420858e37d13196283812","freq_resp","img/green_2bandit_a.png","70","70","test","","","","3","",""
"null","428028","pSARL_v2","pSARL_v260jt7emo","641420858e37d13196283812","fixation","img/fixation.png","null","","test","","","","","",""
"313.39999997615814","428346","pSARL_v2","pSARL_v260jt7emo","641420858e37d13196283812","freq","img/green_2bandit_a2.png","70","70","test","1","62","62","3","",""
"null","428840","pSARL_v2","pSARL_v260jt7emo","641420858e37d13196283812","freq_resp","img/green_2bandit_a.png","70","70","test","","","","3","",""
"null","429004","pSARL_v2","pSARL_v260jt7emo","641420858e37d13196283812","fixation","img/fixation.png","null","","test","","","","","",""
"717.3999999761581","429726","pSARL_v2","pSARL_v260jt7emo","641420858e37d13196283812","reward","img/slot.png","74","","test","","","","","",""
"null","430488","pSARL_v2","pSARL_v260jt7emo","641420858e37d13196283812","points","<div class=""verylowPoints""> -7 </div>","null","na","test","","","","3","-7","2"
"596.6999999880791","431090","pSARL_v2","pSARL_v260jt7emo","641420858e37d13196283812","freq","img/green_2bandit_a2.png","70","70","test","1","63","63","4","",""
"null","431303","pSARL_v2","pSARL_v260jt7emo","641420858e37d13196283812","freq_resp","img/green_2bandit_a.png","70","70","test","","","","4","",""
"null","431472","pSARL_v2","pSARL_v260jt7emo","641420858e37d13196283812","fixation","img/fixation.png","null","","test","","","","","",""
"762.1000000238419","432239","pSARL_v2","pSARL_v260jt7emo","641420858e37d13196283812","infreq","img/orange_2bandit_a2.png","68","68","test","1","64","64","4","",""
"null","432301","pSARL_v2","pSARL_v260jt7emo","641420858e37d13196283812","infreq_resp","img/orange_2bandit_a.png","68","68","test","","","","4","",""
"null","432470","pSARL_v2","pSARL_v260jt7emo","641420858e37d13196283812","fixation","img/fixation.png","null","","test","","","","","",""
"627","433102","pSARL_v2","pSARL_v260jt7emo","641420858e37d13196283812","freq","img/green_2bandit_a2.png","70","70","test","1","65","65","4","",""
"null","433283","pSARL_v2","pSARL_v260jt7emo","641420858e37d13196283812","freq_resp","img/green_2bandit_a.png","70","70","test","","","","4","",""
"null","433439","pSARL_v2","pSARL_v260jt7emo","641420858e37d13196283812","fixation","img/fixation.png","null","","test","","","","","",""
"512.5999999642372","433956","pSARL_v2","pSARL_v260jt7emo","641420858e37d13196283812","freq","img/green_2bandit_a2.png","70","70","test","1","66","66","4","",""
"null","434259","pSARL_v2","pSARL_v260jt7emo","641420858e37d13196283812","freq_resp","img/green_2bandit_a.png","70","70","test","","","","4","",""
"null","434427","pSARL_v2","pSARL_v260jt7emo","641420858e37d13196283812","fixation","img/fixation.png","null","","test","","","","","",""
"437.19999998807907","434869","pSARL_v2","pSARL_v260jt7emo","641420858e37d13196283812","freq","img/green_2bandit_a2.png","70","70","test","1","67","67","4","",""
"null","435240","pSARL_v2","pSARL_v260jt7emo","641420858e37d13196283812","freq_resp","img/green_2bandit_a.png","70","70","test","","","","4","",""
"null","435407","pSARL_v2","pSARL_v260jt7emo","641420858e37d13196283812","fixation","img/fixation.png","null","","test","","","","","",""
"763.2000000476837","436174","pSARL_v2","pSARL_v260jt7emo","641420858e37d13196283812","infreq","img/orange_2bandit_a2.png","68","68","test","1","68","68","4","",""
"null","436241","pSARL_v2","pSARL_v260jt7emo","641420858e37d13196283812","infreq_resp","img/orange_2bandit_a.png","68","68","test","","","","4","",""
"null","436411","pSARL_v2","pSARL_v260jt7emo","641420858e37d13196283812","fixation","img/fixation.png","null","","test","","","","","",""
"530.3000000119209","436946","pSARL_v2","pSARL_v260jt7emo","641420858e37d13196283812","freq","img/green_2bandit_a2.png","70","70","test","1","69","69","4","",""
"null","437226","pSARL_v2","pSARL_v260jt7emo","641420858e37d13196283812","freq_resp","img/green_2bandit_a.png","70","70","test","","","","4","",""
"null","437395","pSARL_v2","pSARL_v260jt7emo","641420858e37d13196283812","fixation","img/fixation.png","null","","test","","","","","",""
"392.5","437793","pSARL_v2","pSARL_v260jt7emo","641420858e37d13196283812","freq","img/green_2bandit_a2.png","70","70","test","1","70","70","4","",""
"null","438213","pSARL_v2","pSARL_v260jt7emo","641420858e37d13196283812","freq_resp","img/green_2bandit_a.png","70","70","test","","","","4","",""
"null","438378","pSARL_v2","pSARL_v260jt7emo","641420858e37d13196283812","fixation","img/fixation.png","null","","test","","","","","",""
"389.2000000476837","438772","pSARL_v2","pSARL_v260jt7emo","641420858e37d13196283812","freq","img/green_2bandit_a2.png","70","70","test","1","71","71","4","",""
"null","439197","pSARL_v2","pSARL_v260jt7emo","641420858e37d13196283812","freq_resp","img/green_2bandit_a.png","70","70","test","","","","4","",""
"null","439359","pSARL_v2","pSARL_v260jt7emo","641420858e37d13196283812","fixation","img/fixation.png","null","","test","","","","","",""
"338.39999997615814","439702","pSARL_v2","pSARL_v260jt7emo","641420858e37d13196283812","freq","img/green_2bandit_a2.png","70","70","test","1","72","72","4","",""
"null","440180","pSARL_v2","pSARL_v260jt7emo","641420858e37d13196283812","freq_resp","img/green_2bandit_a.png","70","70","test","","","","4","",""
"null","440343","pSARL_v2","pSARL_v260jt7emo","641420858e37d13196283812","fixation","img/fixation.png","null","","test","","","","","",""
"289.39999997615814","440638","pSARL_v2","pSARL_v260jt7emo","641420858e37d13196283812","freq","img/green_2bandit_a2.png","70","70","test","1","73","73","4","",""
"null","441156","pSARL_v2","pSARL_v260jt7emo","641420858e37d13196283812","freq_resp","img/green_2bandit_a.png","70","70","test","","","","4","",""
"null","441324","pSARL_v2","pSARL_v260jt7emo","641420858e37d13196283812","fixation","img/fixation.png","null","","test","","","","","",""
"297.69999998807907","441627","pSARL_v2","pSARL_v260jt7emo","641420858e37d13196283812","freq","img/green_2bandit_a2.png","70","70","test","1","74","74","4","",""
"null","442140","pSARL_v2","pSARL_v260jt7emo","641420858e37d13196283812","freq_resp","img/green_2bandit_a.png","70","70","test","","","","4","",""
"null","442298","pSARL_v2","pSARL_v260jt7emo","641420858e37d13196283812","fixation","img/fixation.png","null","","test","","","","","",""
"295.5999999642372","442599","pSARL_v2","pSARL_v260jt7emo","641420858e37d13196283812","freq","img/green_2bandit_a2.png","70","70","test","1","75","75","4","",""
"null","443121","pSARL_v2","pSARL_v260jt7emo","641420858e37d13196283812","freq_resp","img/green_2bandit_a.png","70","70","test","","","","4","",""
"null","443286","pSARL_v2","pSARL_v260jt7emo","641420858e37d13196283812","fixation","img/fixation.png","null","","test","","","","","",""
"253.80000001192093","443545","pSARL_v2","pSARL_v260jt7emo","641420858e37d13196283812","freq","img/green_2bandit_a2.png","70","70","test","1","76","76","4","",""
"null","444103","pSARL_v2","pSARL_v260jt7emo","641420858e37d13196283812","freq_resp","img/green_2bandit_a.png","70","70","test","","","","4","",""
"null","444261","pSARL_v2","pSARL_v260jt7emo","641420858e37d13196283812","fixation","img/fixation.png","null","","test","","","","","",""
"330.5999999642372","444597","pSARL_v2","pSARL_v260jt7emo","641420858e37d13196283812","freq","img/green_2bandit_a2.png","70","70","test","1","77","77","4","",""
"null","445076","pSARL_v2","pSARL_v260jt7emo","641420858e37d13196283812","freq_resp","img/green_2bandit_a.png","70","70","test","","","","4","",""
"null","445232","pSARL_v2","pSARL_v260jt7emo","641420858e37d13196283812","fixation","img/fixation.png","null","","test","","","","","",""
"331.0999999642372","445568","pSARL_v2","pSARL_v260jt7emo","641420858e37d13196283812","freq","img/green_2bandit_a2.png","70","70","test","1","78","78","4","",""
"null","446054","pSARL_v2","pSARL_v260jt7emo","641420858e37d13196283812","freq_resp","img/green_2bandit_a.png","70","70","test","","","","4","",""
"null","446216","pSARL_v2","pSARL_v260jt7emo","641420858e37d13196283812","fixation","img/fixation.png","null","","test","","","","","",""
"316.39999997615814","446538","pSARL_v2","pSARL_v260jt7emo","641420858e37d13196283812","freq","img/green_2bandit_a2.png","70","70","test","1","79","79","4","",""
"null","447033","pSARL_v2","pSARL_v260jt7emo","641420858e37d13196283812","freq_resp","img/green_2bandit_a.png","70","70","test","","","","4","",""
"null","447191","pSARL_v2","pSARL_v260jt7emo","641420858e37d13196283812","fixation","img/fixation.png","null","","test","","","","","",""
"308.30000001192093","447504","pSARL_v2","pSARL_v260jt7emo","641420858e37d13196283812","freq","img/green_2bandit_a2.png","70","70","test","1","80","80","4","",""
"null","448016","pSARL_v2","pSARL_v260jt7emo","641420858e37d13196283812","freq_resp","img/green_2bandit_a.png","70","70","test","","","","4","",""
"null","448176","pSARL_v2","pSARL_v260jt7emo","641420858e37d13196283812","fixation","img/fixation.png","null","","test","","","","","",""
"323.60000002384186","448505","pSARL_v2","pSARL_v260jt7emo","641420858e37d13196283812","freq","img/green_2bandit_a2.png","70","70","test","1","81","81","4","",""
"null","448999","pSARL_v2","pSARL_v260jt7emo","641420858e37d13196283812","freq_resp","img/green_2bandit_a.png","70","70","test","","","","4","",""
"null","449158","pSARL_v2","pSARL_v260jt7emo","641420858e37d13196283812","fixation","img/fixation.png","null","","test","","","","","",""
"172","449335","pSARL_v2","pSARL_v260jt7emo","641420858e37d13196283812","freq","img/green_2bandit_a2.png","70","70","test","1","82","82","4","",""
"null","449976","pSARL_v2","pSARL_v260jt7emo","641420858e37d13196283812","freq_resp","img/green_2bandit_a.png","70","70","test","","","","4","",""
"null","450140","pSARL_v2","pSARL_v260jt7emo","641420858e37d13196283812","fixation","img/fixation.png","null","","test","","","","","",""
"280.19999998807907","450425","pSARL_v2","pSARL_v260jt7emo","641420858e37d13196283812","freq","img/green_2bandit_a2.png","70","70","test","1","83","83","4","",""
"null","450953","pSARL_v2","pSARL_v260jt7emo","641420858e37d13196283812","freq_resp","img/green_2bandit_a.png","70","70","test","","","","4","",""
"null","451119","pSARL_v2","pSARL_v260jt7emo","641420858e37d13196283812","fixation","img/fixation.png","null","","test","","","","","",""
"649.1999999880791","451773","pSARL_v2","pSARL_v260jt7emo","641420858e37d13196283812","reward","img/slot.png","74","","test","","","","","",""
"null","452532","pSARL_v2","pSARL_v260jt7emo","641420858e37d13196283812","points","<div class=""verylowPoints""> -3 </div>","null","na","test","","","","4","-3","3"
"591.6999999880791","453129","pSARL_v2","pSARL_v260jt7emo","641420858e37d13196283812","freq","img/green_2bandit_a2.png","70","70","test","1","84","84","5","",""
"null","453346","pSARL_v2","pSARL_v260jt7emo","641420858e37d13196283812","freq_resp","img/green_2bandit_a.png","70","70","test","","","","5","",""
"null","453516","pSARL_v2","pSARL_v260jt7emo","641420858e37d13196283812","fixation","img/fixation.png","null","","test","","","","","",""
"314.60000002384186","453835","pSARL_v2","pSARL_v260jt7emo","641420858e37d13196283812","freq","img/green_2bandit_a2.png","70","70","test","1","85","85","5","",""
"null","454331","pSARL_v2","pSARL_v260jt7emo","641420858e37d13196283812","freq_resp","img/green_2bandit_a.png","70","70","test","","","","5","",""
"null","454490","pSARL_v2","pSARL_v260jt7emo","641420858e37d13196283812","fixation","img/fixation.png","null","","test","","","","","",""
"301.60000002384186","454796","pSARL_v2","pSARL_v260jt7emo","641420858e37d13196283812","freq","img/green_2bandit_a2.png","70","70","test","1","86","86","5","",""
"null","455313","pSARL_v2","pSARL_v260jt7emo","641420858e37d13196283812","freq_resp","img/green_2bandit_a.png","70","70","test","","","","5","",""
"null","455482","pSARL_v2","pSARL_v260jt7emo","641420858e37d13196283812","fixation","img/fixation.png","null","","test","","","","","",""
"164.4000000357628","455651","pSARL_v2","pSARL_v260jt7emo","641420858e37d13196283812","freq","img/green_2bandit_a2.png","70","70","test","1","87","87","5","",""
"null","456302","pSARL_v2","pSARL_v260jt7emo","641420858e37d13196283812","freq_resp","img/green_2bandit_a.png","70","70","test","","","","5","",""
"null","456463","pSARL_v2","pSARL_v260jt7emo","641420858e37d13196283812","fixation","img/fixation.png","null","","test","","","","","",""
"153.0999999642372","456621","pSARL_v2","pSARL_v260jt7emo","641420858e37d13196283812","freq","img/green_2bandit_a2.png","70","70","test","1","88","88","5","",""
"null","457278","pSARL_v2","pSARL_v260jt7emo","641420858e37d13196283812","freq_resp","img/green_2bandit_a.png","70","70","test","","","","5","",""
"null","457437","pSARL_v2","pSARL_v260jt7emo","641420858e37d13196283812","fixation","img/fixation.png","null","","test","","","","","",""
"168.30000001192093","457610","pSARL_v2","pSARL_v260jt7emo","641420858e37d13196283812","freq","img/green_2bandit_a2.png","70","70","test","1","89","89","5","",""
"null","458252","pSARL_v2","pSARL_v260jt7emo","641420858e37d13196283812","freq_resp","img/green_2bandit_a.png","70","70","test","","","","5","",""
"null","458414","pSARL_v2","pSARL_v260jt7emo","641420858e37d13196283812","fixation","img/fixation.png","null","","test","","","","","",""
"132.80000001192093","458552","pSARL_v2","pSARL_v260jt7emo","641420858e37d13196283812","freq","img/green_2bandit_a2.png","70","70","test","1","90","90","5","",""
"null","459232","pSARL_v2","pSARL_v260jt7emo","641420858e37d13196283812","freq_resp","img/green_2bandit_a.png","70","70","test","","","","5","",""
"null","459398","pSARL_v2","pSARL_v260jt7emo","641420858e37d13196283812","fixation","img/fixation.png","null","","test","","","","","",""
"112.80000001192093","459516","pSARL_v2","pSARL_v260jt7emo","641420858e37d13196283812","freq","img/green_2bandit_a2.png","70","70","test","1","91","91","5","",""
"null","460213","pSARL_v2","pSARL_v260jt7emo","641420858e37d13196283812","freq_resp","img/green_2bandit_a.png","70","70","test","","","","5","",""
"null","460381","pSARL_v2","pSARL_v260jt7emo","641420858e37d13196283812","fixation","img/fixation.png","null","","test","","","","","",""
"150","460537","pSARL_v2","pSARL_v260jt7emo","641420858e37d13196283812","freq","img/green_2bandit_a2.png","70","70","test","1","92","92","5","",""
"null","461199","pSARL_v2","pSARL_v260jt7emo","641420858e37d13196283812","freq_resp","img/green_2bandit_a.png","70","70","test","","","","5","",""
"null","461367","pSARL_v2","pSARL_v260jt7emo","641420858e37d13196283812","fixation","img/fixation.png","null","","test","","","","","",""
"127.69999998807907","461500","pSARL_v2","pSARL_v260jt7emo","641420858e37d13196283812","freq","img/green_2bandit_a2.png","70","70","test","1","93","93","5","",""
"null","462183","pSARL_v2","pSARL_v260jt7emo","641420858e37d13196283812","freq_resp","img/green_2bandit_a.png","70","70","test","","","","5","",""
"null","462345","pSARL_v2","pSARL_v260jt7emo","641420858e37d13196283812","fixation","img/fixation.png","null","","test","","","","","",""
"136.69999998807907","462487","pSARL_v2","pSARL_v260jt7emo","641420858e37d13196283812","freq","img/green_2bandit_a2.png","70","70","test","1","94","94","5","",""
"null","463164","pSARL_v2","pSARL_v260jt7emo","641420858e37d13196283812","freq_resp","img/green_2bandit_a.png","70","70","test","","","","5","",""
"null","463328","pSARL_v2","pSARL_v260jt7emo","641420858e37d13196283812","fixation","img/fixation.png","null","","test","","","","","",""
"141.39999997615814","463474","pSARL_v2","pSARL_v260jt7emo","641420858e37d13196283812","freq","img/green_2bandit_a2.png","70","70","test","1","95","95","5","",""
"null","464146","pSARL_v2","pSARL_v260jt7emo","641420858e37d13196283812","freq_resp","img/green_2bandit_a.png","70","70","test","","","","5","",""
"null","464306","pSARL_v2","pSARL_v260jt7emo","641420858e37d13196283812","fixation","img/fixation.png","null","","test","","","","","",""
"194.5999999642372","464505","pSARL_v2","pSARL_v260jt7emo","641420858e37d13196283812","freq","img/green_2bandit_a2.png","70","70","test","1","96","96","5","",""
"null","465116","pSARL_v2","pSARL_v260jt7emo","641420858e37d13196283812","freq_resp","img/green_2bandit_a.png","70","70","test","","","","5","",""
"null","465274","pSARL_v2","pSARL_v260jt7emo","641420858e37d13196283812","fixation","img/fixation.png","null","","test","","","","","",""
"271.9000000357628","465551","pSARL_v2","pSARL_v260jt7emo","641420858e37d13196283812","freq","img/green_2bandit_a2.png","70","70","test","1","97","97","5","",""
"null","466085","pSARL_v2","pSARL_v260jt7emo","641420858e37d13196283812","freq_resp","img/green_2bandit_a.png","70","70","test","","","","5","",""
"null","466254","pSARL_v2","pSARL_v260jt7emo","641420858e37d13196283812","fixation","img/fixation.png","null","","test","","","","","",""
"284.69999998807907","466545","pSARL_v2","pSARL_v260jt7emo","641420858e37d13196283812","freq","img/green_2bandit_a2.png","70","70","test","1","98","98","5","",""
"null","467075","pSARL_v2","pSARL_v260jt7emo","641420858e37d13196283812","freq_resp","img/green_2bandit_a.png","70","70","test","","","","5","",""
"null","467235","pSARL_v2","pSARL_v260jt7emo","641420858e37d13196283812","fixation","img/fixation.png","null","","test","","","","","",""
"176.80000001192093","467417","pSARL_v2","pSARL_v260jt7emo","641420858e37d13196283812","freq","img/green_2bandit_a2.png","70","70","test","1","99","99","5","",""
"null","468055","pSARL_v2","pSARL_v260jt7emo","641420858e37d13196283812","freq_resp","img/green_2bandit_a.png","70","70","test","","","","5","",""
"null","468221","pSARL_v2","pSARL_v260jt7emo","641420858e37d13196283812","fixation","img/fixation.png","null","","test","","","","","",""
"135.5","468362","pSARL_v2","pSARL_v260jt7emo","641420858e37d13196283812","infreq","img/orange_2bandit_a2.png","70","68","test","0","100","100","5","",""
"null","469043","pSARL_v2","pSARL_v260jt7emo","641420858e37d13196283812","infreq_resp","img/orange_2bandit_a.png","70","68","test","","","","5","",""
"null","469211","pSARL_v2","pSARL_v260jt7emo","641420858e37d13196283812","fixation","img/fixation.png","null","","test","","","","","",""
"null","470018","pSARL_v2","pSARL_v260jt7emo","641420858e37d13196283812","infreq","img/orange_2bandit_a2.png","null","68","test","0","101","101","5","",""
"null","470174","pSARL_v2","pSARL_v260jt7emo","641420858e37d13196283812","fixation","img/fixation.png","null","","test","","","","","",""
"540.6999999880791","470720","pSARL_v2","pSARL_v260jt7emo","641420858e37d13196283812","freq","img/green_2bandit_a2.png","70","70","test","1","102","102","5","",""
"null","470999","pSARL_v2","pSARL_v260jt7emo","641420858e37d13196283812","freq_resp","img/green_2bandit_a.png","70","70","test","","","","5","",""
"null","471157","pSARL_v2","pSARL_v260jt7emo","641420858e37d13196283812","fixation","img/fixation.png","null","","test","","","","","",""
"null","471976","pSARL_v2","pSARL_v260jt7emo","641420858e37d13196283812","infreq","img/orange_2bandit_a2.png","null","68","test","0","103","103","5","",""
"null","472140","pSARL_v2","pSARL_v260jt7emo","641420858e37d13196283812","fixation","img/fixation.png","null","","test","","","","","",""
"48.09999996423721","472193","pSARL_v2","pSARL_v260jt7emo","641420858e37d13196283812","freq","img/green_2bandit_a2.png","68","70","test","0","104","104","5","",""
"null","472958","pSARL_v2","pSARL_v260jt7emo","641420858e37d13196283812","freq_resp","img/green_2bandit_a.png","68","70","test","","","","5","",""
"null","473128","pSARL_v2","pSARL_v260jt7emo","641420858e37d13196283812","fixation","img/fixation.png","null","","test","","","","","",""
"425","473558","pSARL_v2","pSARL_v260jt7emo","641420858e37d13196283812","freq","img/green_2bandit_a2.png","70","70","test","1","105","105","5","",""
"null","473946","pSARL_v2","pSARL_v260jt7emo","641420858e37d13196283812","freq_resp","img/green_2bandit_a.png","70","70","test","","","","5","",""
"null","474112","pSARL_v2","pSARL_v260jt7emo","641420858e37d13196283812","fixation","img/fixation.png","null","","test","","","","","",""
"323.89999997615814","474441","pSARL_v2","pSARL_v260jt7emo","641420858e37d13196283812","freq","img/green_2bandit_a2.png","70","70","test","1","106","106","5","",""
"null","474935","pSARL_v2","pSARL_v260jt7emo","641420858e37d13196283812","freq_resp","img/green_2bandit_a.png","70","70","test","","","","5","",""
"null","475090","pSARL_v2","pSARL_v260jt7emo","641420858e37d13196283812","fixation","img/fixation.png","null","","test","","","","","",""
"704.8999999761581","475800","pSARL_v2","pSARL_v260jt7emo","641420858e37d13196283812","reward","img/slot.png","74","","test","","","","","",""
"null","476563","pSARL_v2","pSARL_v260jt7emo","641420858e37d13196283812","points","<div class=""veryhighPoints""> +1 </div>","null","na","test","","","","5","1","4"
"615","477183","pSARL_v2","pSARL_v260jt7emo","641420858e37d13196283812","freq","img/green_2bandit_a2.png","70","70","test","1","107","107","6","",""
"null","477380","pSARL_v2","pSARL_v260jt7emo","641420858e37d13196283812","freq_resp","img/green_2bandit_a.png","70","70","test","","","","6","",""
"null","477538","pSARL_v2","pSARL_v260jt7emo","641420858e37d13196283812","fixation","img/fixation.png","null","","test","","","","","",""
"364.19999998807907","477908","pSARL_v2","pSARL_v260jt7emo","641420858e37d13196283812","freq","img/green_2bandit_a2.png","70","70","test","1","108","108","6","",""
"null","478352","pSARL_v2","pSARL_v260jt7emo","641420858e37d13196283812","freq_resp","img/green_2bandit_a.png","70","70","test","","","","6","",""
"null","478512","pSARL_v2","pSARL_v260jt7emo","641420858e37d13196283812","fixation","img/fixation.png","null","","test","","","","","",""
"298","478815","pSARL_v2","pSARL_v260jt7emo","641420858e37d13196283812","freq","img/green_2bandit_a2.png","70","70","test","1","109","109","6","",""
"null","479331","pSARL_v2","pSARL_v260jt7emo","641420858e37d13196283812","freq_resp","img/green_2bandit_a.png","70","70","test","","","","6","",""
"null","479492","pSARL_v2","pSARL_v260jt7emo","641420858e37d13196283812","fixation","img/fixation.png","null","","test","","","","","",""
"107.69999998807907","479605","pSARL_v2","pSARL_v260jt7emo","641420858e37d13196283812","freq","img/green_2bandit_a2.png","70","70","test","1","110","110","6","",""
"null","480316","pSARL_v2","pSARL_v260jt7emo","641420858e37d13196283812","freq_resp","img/green_2bandit_a.png","70","70","test","","","","6","",""
"null","480484","pSARL_v2","pSARL_v260jt7emo","641420858e37d13196283812","fixation","img/fixation.png","null","","test","","","","","",""
"115.10000002384186","480604","pSARL_v2","pSARL_v260jt7emo","641420858e37d13196283812","freq","img/green_2bandit_a2.png","70","70","test","1","111","111","6","",""
"null","481299","pSARL_v2","pSARL_v260jt7emo","641420858e37d13196283812","freq_resp","img/green_2bandit_a.png","70","70","test","","","","6","",""
"null","481461","pSARL_v2","pSARL_v260jt7emo","641420858e37d13196283812","fixation","img/fixation.png","null","","test","","","","","",""
"335.5","481802","pSARL_v2","pSARL_v260jt7emo","641420858e37d13196283812","freq","img/green_2bandit_a2.png","70","70","test","1","112","112","6","",""
"null","482281","pSARL_v2","pSARL_v260jt7emo","641420858e37d13196283812","freq_resp","img/green_2bandit_a.png","70","70","test","","","","6","",""
"null","482438","pSARL_v2","pSARL_v260jt7emo","641420858e37d13196283812","fixation","img/fixation.png","null","","test","","","","","",""
"286.10000002384186","482729","pSARL_v2","pSARL_v260jt7emo","641420858e37d13196283812","freq","img/green_2bandit_a2.png","70","70","test","1","113","113","6","",""
"null","483257","pSARL_v2","pSARL_v260jt7emo","641420858e37d13196283812","freq_resp","img/green_2bandit_a.png","70","70","test","","","","6","",""
"null","483415","pSARL_v2","pSARL_v260jt7emo","641420858e37d13196283812","fixation","img/fixation.png","null","","test","","","","","",""
"316","483736","pSARL_v2","pSARL_v260jt7emo","641420858e37d13196283812","freq","img/green_2bandit_a2.png","70","70","test","1","114","114","6","",""
"null","484233","pSARL_v2","pSARL_v260jt7emo","641420858e37d13196283812","freq_resp","img/green_2bandit_a.png","70","70","test","","","","6","",""
"null","484393","pSARL_v2","pSARL_v260jt7emo","641420858e37d13196283812","fixation","img/fixation.png","null","","test","","","","","",""
"245.4000000357628","484644","pSARL_v2","pSARL_v260jt7emo","641420858e37d13196283812","freq","img/green_2bandit_a2.png","70","70","test","1","115","115","6","",""
"null","485218","pSARL_v2","pSARL_v260jt7emo","641420858e37d13196283812","freq_resp","img/green_2bandit_a.png","70","70","test","","","","6","",""
"null","485381","pSARL_v2","pSARL_v260jt7emo","641420858e37d13196283812","fixation","img/fixation.png","null","","test","","","","","",""
"179.19999998807907","485566","pSARL_v2","pSARL_v260jt7emo","641420858e37d13196283812","infreq","img/orange_2bandit_a2.png","70","68","test","0","116","116","6","",""
"null","486200","pSARL_v2","pSARL_v260jt7emo","641420858e37d13196283812","infreq_resp","img/orange_2bandit_a.png","70","68","test","","","","6","",""
"null","486365","pSARL_v2","pSARL_v260jt7emo","641420858e37d13196283812","fixation","img/fixation.png","null","","test","","","","","",""
"438.30000001192093","486809","pSARL_v2","pSARL_v260jt7emo","641420858e37d13196283812","freq","img/green_2bandit_a2.png","70","70","test","1","117","117","6","",""
"null","487181","pSARL_v2","pSARL_v260jt7emo","641420858e37d13196283812","freq_resp","img/green_2bandit_a.png","70","70","test","","","","6","",""
"null","487346","pSARL_v2","pSARL_v260jt7emo","641420858e37d13196283812","fixation","img/fixation.png","null","","test","","","","","",""
"770.6999999880791","488122","pSARL_v2","pSARL_v260jt7emo","641420858e37d13196283812","infreq","img/orange_2bandit_a2.png","68","68","test","1","118","118","6","",""
"null","488156","pSARL_v2","pSARL_v260jt7emo","641420858e37d13196283812","infreq_resp","img/orange_2bandit_a.png","68","68","test","","","","6","",""
"null","488312","pSARL_v2","pSARL_v260jt7emo","641420858e37d13196283812","fixation","img/fixation.png","null","","test","","","","","",""
"396.60000002384186","488714","pSARL_v2","pSARL_v260jt7emo","641420858e37d13196283812","freq","img/green_2bandit_a2.png","70","70","test","1","119","119","6","",""
"null","489131","pSARL_v2","pSARL_v260jt7emo","641420858e37d13196283812","freq_resp","img/green_2bandit_a.png","70","70","test","","","","6","",""
"null","489296","pSARL_v2","pSARL_v260jt7emo","641420858e37d13196283812","fixation","img/fixation.png","null","","test","","","","","",""
"367.0999999642372","489668","pSARL_v2","pSARL_v260jt7emo","641420858e37d13196283812","freq","img/green_2bandit_a2.png","70","70","test","1","120","120","6","",""
"null","490110","pSARL_v2","pSARL_v260jt7emo","641420858e37d13196283812","freq_resp","img/green_2bandit_a.png","70","70","test","","","","6","",""
"null","490277","pSARL_v2","pSARL_v260jt7emo","641420858e37d13196283812","fixation","img/fixation.png","null","","test","","","","","",""
"320.19999998807907","490603","pSARL_v2","pSARL_v260jt7emo","641420858e37d13196283812","freq","img/green_2bandit_a2.png","70","70","test","1","121","121","6","",""
"null","491100","pSARL_v2","pSARL_v260jt7emo","641420858e37d13196283812","freq_resp","img/green_2bandit_a.png","70","70","test","","","","6","",""
"null","491257","pSARL_v2","pSARL_v260jt7emo","641420858e37d13196283812","fixation","img/fixation.png","null","","test","","","","","",""
"141.89999997615814","491404","pSARL_v2","pSARL_v260jt7emo","641420858e37d13196283812","freq","img/green_2bandit_a2.png","70","70","test","1","122","122","6","",""
"null","492074","pSARL_v2","pSARL_v260jt7emo","641420858e37d13196283812","freq_resp","img/green_2bandit_a.png","70","70","test","","","","6","",""
"null","492240","pSARL_v2","pSARL_v260jt7emo","641420858e37d13196283812","fixation","img/fixation.png","null","","test","","","","","",""
"189.80000001192093","492435","pSARL_v2","pSARL_v260jt7emo","641420858e37d13196283812","freq","img/green_2bandit_a2.png","70","70","test","1","123","123","6","",""
"null","493060","pSARL_v2","pSARL_v260jt7emo","641420858e37d13196283812","freq_resp","img/green_2bandit_a.png","70","70","test","","","","6","",""
"null","493221","pSARL_v2","pSARL_v260jt7emo","641420858e37d13196283812","fixation","img/fixation.png","null","","test","","","","","",""
"314.10000002384186","493540","pSARL_v2","pSARL_v260jt7emo","641420858e37d13196283812","freq","img/green_2bandit_a2.png","70","70","test","1","124","124","6","",""
"null","494035","pSARL_v2","pSARL_v260jt7emo","641420858e37d13196283812","freq_resp","img/green_2bandit_a.png","70","70","test","","","","6","",""
"null","494195","pSARL_v2","pSARL_v260jt7emo","641420858e37d13196283812","fixation","img/fixation.png","null","","test","","","","","",""
"296.10000002384186","494497","pSARL_v2","pSARL_v260jt7emo","641420858e37d13196283812","freq","img/green_2bandit_a2.png","70","70","test","1","125","125","6","",""
"null","495012","pSARL_v2","pSARL_v260jt7emo","641420858e37d13196283812","freq_resp","img/green_2bandit_a.png","70","70","test","","","","6","",""
"null","495173","pSARL_v2","pSARL_v260jt7emo","641420858e37d13196283812","fixation","img/fixation.png","null","","test","","","","","",""
"266.5","495445","pSARL_v2","pSARL_v260jt7emo","641420858e37d13196283812","freq","img/green_2bandit_a2.png","70","70","test","1","126","126","6","",""
"null","495998","pSARL_v2","pSARL_v260jt7emo","641420858e37d13196283812","freq_resp","img/green_2bandit_a.png","70","70","test","","","","6","",""
"null","496163","pSARL_v2","pSARL_v260jt7emo","641420858e37d13196283812","fixation","img/fixation.png","null","","test","","","","","",""
"322.10000002384186","496491","pSARL_v2","pSARL_v260jt7emo","641420858e37d13196283812","freq","img/green_2bandit_a2.png","70","70","test","1","127","127","6","",""
"null","496984","pSARL_v2","pSARL_v260jt7emo","641420858e37d13196283812","freq_resp","img/green_2bandit_a.png","70","70","test","","","","6","",""
"null","497154","pSARL_v2","pSARL_v260jt7emo","641420858e37d13196283812","fixation","img/fixation.png","null","","test","","","","","",""
"162","497322","pSARL_v2","pSARL_v260jt7emo","641420858e37d13196283812","freq","img/green_2bandit_a2.png","70","70","test","1","128","128","6","",""
"null","497973","pSARL_v2","pSARL_v260jt7emo","641420858e37d13196283812","freq_resp","img/green_2bandit_a.png","70","70","test","","","","6","",""
"null","498136","pSARL_v2","pSARL_v260jt7emo","641420858e37d13196283812","fixation","img/fixation.png","null","","test","","","","","",""
"230.30000001192093","498372","pSARL_v2","pSARL_v260jt7emo","641420858e37d13196283812","freq","img/green_2bandit_a2.png","70","70","test","1","129","129","6","",""
"null","498959","pSARL_v2","pSARL_v260jt7emo","641420858e37d13196283812","freq_resp","img/green_2bandit_a.png","70","70","test","","","","6","",""
"null","499125","pSARL_v2","pSARL_v260jt7emo","641420858e37d13196283812","fixation","img/fixation.png","null","","test","","","","","",""
"1287.5","500418","pSARL_v2","pSARL_v260jt7emo","641420858e37d13196283812","reward","img/slot.png","74","","test","","","","","",""
"null","501179","pSARL_v2","pSARL_v260jt7emo","641420858e37d13196283812","points","<div class=""verylowPoints""> -7 </div>","null","na","test","","","","6","-7","5"
"650.4000000357628","501834","pSARL_v2","pSARL_v260jt7emo","641420858e37d13196283812","freq","img/green_2bandit_a2.png","70","70","test","1","130","130","7","",""
"null","501994","pSARL_v2","pSARL_v260jt7emo","641420858e37d13196283812","freq_resp","img/green_2bandit_a.png","70","70","test","","","","7","",""
"null","502163","pSARL_v2","pSARL_v260jt7emo","641420858e37d13196283812","fixation","img/fixation.png","null","","test","","","","","",""
"350.7999999523163","502519","pSARL_v2","pSARL_v260jt7emo","641420858e37d13196283812","freq","img/green_2bandit_a2.png","70","70","test","1","131","131","7","",""
"null","502981","pSARL_v2","pSARL_v260jt7emo","641420858e37d13196283812","freq_resp","img/green_2bandit_a.png","70","70","test","","","","7","",""
"null","503151","pSARL_v2","pSARL_v260jt7emo","641420858e37d13196283812","fixation","img/fixation.png","null","","test","","","","","",""
"295.89999997615814","503452","pSARL_v2","pSARL_v260jt7emo","641420858e37d13196283812","freq","img/green_2bandit_a2.png","70","70","test","1","132","132","7","",""
"null","503975","pSARL_v2","pSARL_v260jt7emo","641420858e37d13196283812","freq_resp","img/green_2bandit_a.png","70","70","test","","","","7","",""
"null","504139","pSARL_v2","pSARL_v260jt7emo","641420858e37d13196283812","fixation","img/fixation.png","null","","test","","","","","",""
"215.60000002384186","504359","pSARL_v2","pSARL_v260jt7emo","641420858e37d13196283812","freq","img/green_2bandit_a2.png","70","70","test","1","133","133","7","",""
"null","504954","pSARL_v2","pSARL_v260jt7emo","641420858e37d13196283812","freq_resp","img/green_2bandit_a.png","70","70","test","","","","7","",""
"null","505112","pSARL_v2","pSARL_v260jt7emo","641420858e37d13196283812","fixation","img/fixation.png","null","","test","","","","","",""
"273.7000000476837","505391","pSARL_v2","pSARL_v260jt7emo","641420858e37d13196283812","freq","img/green_2bandit_a2.png","70","70","test","1","134","134","7","",""
"null","505925","pSARL_v2","pSARL_v260jt7emo","641420858e37d13196283812","freq_resp","img/green_2bandit_a.png","70","70","test","","","","7","",""
"null","506095","pSARL_v2","pSARL_v260jt7emo","641420858e37d13196283812","fixation","img/fixation.png","null","","test","","","","","",""
"130","506230","pSARL_v2","pSARL_v260jt7emo","641420858e37d13196283812","freq","img/green_2bandit_a2.png","70","70","test","1","135","135","7","",""
"null","506914","pSARL_v2","pSARL_v260jt7emo","641420858e37d13196283812","freq_resp","img/green_2bandit_a.png","70","70","test","","","","7","",""
"null","507071","pSARL_v2","pSARL_v260jt7emo","641420858e37d13196283812","fixation","img/fixation.png","null","","test","","","","","",""
"99.30000001192093","507175","pSARL_v2","pSARL_v260jt7emo","641420858e37d13196283812","freq","img/green_2bandit_a2.png","70","70","test","1","136","136","7","",""
"null","507895","pSARL_v2","pSARL_v260jt7emo","641420858e37d13196283812","freq_resp","img/green_2bandit_a.png","70","70","test","","","","7","",""
"null","508061","pSARL_v2","pSARL_v260jt7emo","641420858e37d13196283812","fixation","img/fixation.png","null","","test","","","","","",""
"97.79999995231628","508164","pSARL_v2","pSARL_v260jt7emo","641420858e37d13196283812","freq","img/green_2bandit_a2.png","70","70","test","1","137","137","7","",""
"null","508877","pSARL_v2","pSARL_v260jt7emo","641420858e37d13196283812","freq_resp","img/green_2bandit_a.png","70","70","test","","","","7","",""
"null","509041","pSARL_v2","pSARL_v260jt7emo","641420858e37d13196283812","fixation","img/fixation.png","null","","test","","","","","",""
"127.30000001192093","509173","pSARL_v2","pSARL_v260jt7emo","641420858e37d13196283812","infreq","img/orange_2bandit_a2.png","70","68","test","0","138","138","7","",""
"null","509858","pSARL_v2","pSARL_v260jt7emo","641420858e37d13196283812","infreq_resp","img/orange_2bandit_a.png","70","68","test","","","","7","",""
"null","510028","pSARL_v2","pSARL_v260jt7emo","641420858e37d13196283812","fixation","img/fixation.png","null","","test","","","","","",""
"335","510368","pSARL_v2","pSARL_v260jt7emo","641420858e37d13196283812","freq","img/green_2bandit_a2.png","70","70","test","1","139","139","7","",""
"null","510841","pSARL_v2","pSARL_v260jt7emo","641420858e37d13196283812","freq_resp","img/green_2bandit_a.png","70","70","test","","","","7","",""
"null","511005","pSARL_v2","pSARL_v260jt7emo","641420858e37d13196283812","fixation","img/fixation.png","null","","test","","","","","",""
"140.60000002384186","511151","pSARL_v2","pSARL_v260jt7emo","641420858e37d13196283812","freq","img/green_2bandit_a2.png","70","70","test","1","140","140","7","",""
"null","511821","pSARL_v2","pSARL_v260jt7emo","641420858e37d13196283812","freq_resp","img/green_2bandit_a.png","70","70","test","","","","7","",""
"null","511978","pSARL_v2","pSARL_v260jt7emo","641420858e37d13196283812","fixation","img/fixation.png","null","","test","","","","","",""
"100.69999998807907","512084","pSARL_v2","pSARL_v260jt7emo","641420858e37d13196283812","freq","img/green_2bandit_a2.png","70","70","test","1","141","141","7","",""
"null","512799","pSARL_v2","pSARL_v260jt7emo","641420858e37d13196283812","freq_resp","img/green_2bandit_a.png","70","70","test","","","","7","",""
"null","512962","pSARL_v2","pSARL_v260jt7emo","641420858e37d13196283812","fixation","img/fixation.png","null","","test","","","","","",""
"111.89999997615814","513079","pSARL_v2","pSARL_v260jt7emo","641420858e37d13196283812","freq","img/green_2bandit_a2.png","70","70","test","1","142","142","7","",""
"null","513775","pSARL_v2","pSARL_v260jt7emo","641420858e37d13196283812","freq_resp","img/green_2bandit_a.png","70","70","test","","","","7","",""
"null","513944","pSARL_v2","pSARL_v260jt7emo","641420858e37d13196283812","fixation","img/fixation.png","null","","test","","","","","",""
"98.5","514048","pSARL_v2","pSARL_v260jt7emo","641420858e37d13196283812","freq","img/green_2bandit_a2.png","70","70","test","1","143","143","7","",""
"null","514758","pSARL_v2","pSARL_v260jt7emo","641420858e37d13196283812","freq_resp","img/green_2bandit_a.png","70","70","test","","","","7","",""
"null","514926","pSARL_v2","pSARL_v260jt7emo","641420858e37d13196283812","fixation","img/fixation.png","null","","test","","","","","",""
"117","515048","pSARL_v2","pSARL_v260jt7emo","641420858e37d13196283812","freq","img/green_2bandit_a2.png","70","70","test","1","144","144","7","",""
"null","515740","pSARL_v2","pSARL_v260jt7emo","641420858e37d13196283812","freq_resp","img/green_2bandit_a.png","70","70","test","","","","7","",""
"null","515907","pSARL_v2","pSARL_v260jt7emo","641420858e37d13196283812","fixation","img/fixation.png","null","","test","","","","","",""
"187.20000004768372","516099","pSARL_v2","pSARL_v260jt7emo","641420858e37d13196283812","freq","img/green_2bandit_a2.png","70","70","test","1","145","145","7","",""
"null","516729","pSARL_v2","pSARL_v260jt7emo","641420858e37d13196283812","freq_resp","img/green_2bandit_a.png","70","70","test","","","","7","",""
"null","516894","pSARL_v2","pSARL_v260jt7emo","641420858e37d13196283812","fixation","img/fixation.png","null","","test","","","","","",""
"333.5","517232","pSARL_v2","pSARL_v260jt7emo","641420858e37d13196283812","freq","img/green_2bandit_a2.png","70","70","test","1","146","146","7","",""
"null","517718","pSARL_v2","pSARL_v260jt7emo","641420858e37d13196283812","freq_resp","img/green_2bandit_a.png","70","70","test","","","","7","",""
"null","517878","pSARL_v2","pSARL_v260jt7emo","641420858e37d13196283812","fixation","img/fixation.png","null","","test","","","","","",""
"287.69999998807907","518171","pSARL_v2","pSARL_v260jt7emo","641420858e37d13196283812","freq","img/green_2bandit_a2.png","70","70","test","1","147","147","7","",""
"null","518698","pSARL_v2","pSARL_v260jt7emo","641420858e37d13196283812","freq_resp","img/green_2bandit_a.png","70","70","test","","","","7","",""
"null","518858","pSARL_v2","pSARL_v260jt7emo","641420858e37d13196283812","fixation","img/fixation.png","null","","test","","","","","",""
"173","519036","pSARL_v2","pSARL_v260jt7emo","641420858e37d13196283812","freq","img/green_2bandit_a2.png","70","70","test","1","148","148","7","",""
"null","519674","pSARL_v2","pSARL_v260jt7emo","641420858e37d13196283812","freq_resp","img/green_2bandit_a.png","70","70","test","","","","7","",""
"null","519838","pSARL_v2","pSARL_v260jt7emo","641420858e37d13196283812","fixation","img/fixation.png","null","","test","","","","","",""
"321.5","520165","pSARL_v2","pSARL_v260jt7emo","641420858e37d13196283812","freq","img/green_2bandit_a2.png","70","70","test","1","149","149","7","",""
"null","520665","pSARL_v2","pSARL_v260jt7emo","641420858e37d13196283812","freq_resp","img/green_2bandit_a.png","70","70","test","","","","7","",""
"null","520833","pSARL_v2","pSARL_v260jt7emo","641420858e37d13196283812","fixation","img/fixation.png","null","","test","","","","","",""
"280","521119","pSARL_v2","pSARL_v260jt7emo","641420858e37d13196283812","freq","img/green_2bandit_a2.png","70","70","test","1","150","150","7","",""
"null","521647","pSARL_v2","pSARL_v260jt7emo","641420858e37d13196283812","freq_resp","img/green_2bandit_a.png","70","70","test","","","","7","",""
"null","521805","pSARL_v2","pSARL_v260jt7emo","641420858e37d13196283812","fixation","img/fixation.png","null","","test","","","","","",""
"421.7000000476837","522232","pSARL_v2","pSARL_v260jt7emo","641420858e37d13196283812","freq","img/green_2bandit_a2.png","70","70","test","1","151","151","7","",""
"null","522625","pSARL_v2","pSARL_v260jt7emo","641420858e37d13196283812","freq_resp","img/green_2bandit_a.png","70","70","test","","","","7","",""
"null","522786","pSARL_v2","pSARL_v260jt7emo","641420858e37d13196283812","fixation","img/fixation.png","null","","test","","","","","",""
"226.19999998807907","523018","pSARL_v2","pSARL_v260jt7emo","641420858e37d13196283812","infreq","img/orange_2bandit_a2.png","70","68","test","0","152","152","7","",""
"null","523608","pSARL_v2","pSARL_v260jt7emo","641420858e37d13196283812","infreq_resp","img/orange_2bandit_a.png","70","68","test","","","","7","",""
"null","523769","pSARL_v2","pSARL_v260jt7emo","641420858e37d13196283812","fixation","img/fixation.png","null","","test","","","","","",""
"364.39999997615814","524139","pSARL_v2","pSARL_v260jt7emo","641420858e37d13196283812","freq","img/green_2bandit_a2.png","70","70","test","1","153","153","7","",""
"null","524584","pSARL_v2","pSARL_v260jt7emo","641420858e37d13196283812","freq_resp","img/green_2bandit_a.png","70","70","test","","","","7","",""
"null","524754","pSARL_v2","pSARL_v260jt7emo","641420858e37d13196283812","fixation","img/fixation.png","null","","test","","","","","",""
"93","524852","pSARL_v2","pSARL_v260jt7emo","641420858e37d13196283812","freq","img/green_2bandit_a2.png","70","70","test","1","154","154","7","",""
"null","525565","pSARL_v2","pSARL_v260jt7emo","641420858e37d13196283812","freq_resp","img/green_2bandit_a.png","70","70","test","","","","7","",""
"null","525733","pSARL_v2","pSARL_v260jt7emo","641420858e37d13196283812","fixation","img/fixation.png","null","","test","","","","","",""
"134.5999999642372","525873","pSARL_v2","pSARL_v260jt7emo","641420858e37d13196283812","freq","img/green_2bandit_a2.png","70","70","test","1","155","155","7","",""
"null","526550","pSARL_v2","pSARL_v260jt7emo","641420858e37d13196283812","freq_resp","img/green_2bandit_a.png","70","70","test","","","","7","",""
"null","526717","pSARL_v2","pSARL_v260jt7emo","641420858e37d13196283812","fixation","img/fixation.png","null","","test","","","","","",""
"696.2000000476837","527418","pSARL_v2","pSARL_v260jt7emo","641420858e37d13196283812","reward","img/slot.png","74","","test","","","","","",""
"null","528188","pSARL_v2","pSARL_v260jt7emo","641420858e37d13196283812","points","<div class=""verylowPoints""> -6 </div>","null","na","test","","","","7","-6","6"
"582.5999999642372","528776","pSARL_v2","pSARL_v260jt7emo","641420858e37d13196283812","freq","img/green_2bandit_a2.png","70","70","test","1","156","156","8","",""
"null","529013","pSARL_v2","pSARL_v260jt7emo","641420858e37d13196283812","freq_resp","img/green_2bandit_a.png","70","70","test","","","","8","",""
"null","529177","pSARL_v2","pSARL_v260jt7emo","641420858e37d13196283812","fixation","img/fixation.png","null","","test","","","","","",""
"263.89999997615814","529446","pSARL_v2","pSARL_v260jt7emo","641420858e37d13196283812","freq","img/green_2bandit_a2.png","70","70","test","1","157","157","8","",""
"null","529989","pSARL_v2","pSARL_v260jt7emo","641420858e37d13196283812","freq_resp","img/green_2bandit_a.png","70","70","test","","","","8","",""
"null","530150","pSARL_v2","pSARL_v260jt7emo","641420858e37d13196283812","fixation","img/fixation.png","null","","test","","","","","",""
"315.9000000357628","530471","pSARL_v2","pSARL_v260jt7emo","641420858e37d13196283812","freq","img/green_2bandit_a2.png","70","70","test","1","158","158","8","",""
"null","530972","pSARL_v2","pSARL_v260jt7emo","641420858e37d13196283812","freq_resp","img/green_2bandit_a.png","70","70","test","","","","8","",""
"null","531139","pSARL_v2","pSARL_v260jt7emo","641420858e37d13196283812","fixation","img/fixation.png","null","","test","","","","","",""
"254.5","531399","pSARL_v2","pSARL_v260jt7emo","641420858e37d13196283812","freq","img/green_2bandit_a2.png","70","70","test","1","159","159","8","",""
"null","531965","pSARL_v2","pSARL_v260jt7emo","641420858e37d13196283812","freq_resp","img/green_2bandit_a.png","70","70","test","","","","8","",""
"null","532134","pSARL_v2","pSARL_v260jt7emo","641420858e37d13196283812","fixation","img/fixation.png","null","","test","","","","","",""
"143","532283","pSARL_v2","pSARL_v260jt7emo","641420858e37d13196283812","freq","img/green_2bandit_a2.png","70","70","test","1","160","160","8","",""
"null","532946","pSARL_v2","pSARL_v260jt7emo","641420858e37d13196283812","freq_resp","img/green_2bandit_a.png","70","70","test","","","","8","",""
"null","533114","pSARL_v2","pSARL_v260jt7emo","641420858e37d13196283812","fixation","img/fixation.png","null","","test","","","","","",""
"216.30000001192093","533335","pSARL_v2","pSARL_v260jt7emo","641420858e37d13196283812","freq","img/green_2bandit_a2.png","70","70","test","1","161","161","8","",""
"null","533936","pSARL_v2","pSARL_v260jt7emo","641420858e37d13196283812","freq_resp","img/green_2bandit_a.png","70","70","test","","","","8","",""
"null","534099","pSARL_v2","pSARL_v260jt7emo","641420858e37d13196283812","fixation","img/fixation.png","null","","test","","","","","",""
"231.5","534336","pSARL_v2","pSARL_v260jt7emo","641420858e37d13196283812","freq","img/green_2bandit_a2.png","70","70","test","1","162","162","8","",""
"null","534917","pSARL_v2","pSARL_v260jt7emo","641420858e37d13196283812","freq_resp","img/green_2bandit_a.png","70","70","test","","","","8","",""
"null","535086","pSARL_v2","pSARL_v260jt7emo","641420858e37d13196283812","fixation","img/fixation.png","null","","test","","","","","",""
"223.0999999642372","535315","pSARL_v2","pSARL_v260jt7emo","641420858e37d13196283812","freq","img/green_2bandit_a2.png","70","70","test","1","163","163","8","",""
"null","535900","pSARL_v2","pSARL_v260jt7emo","641420858e37d13196283812","freq_resp","img/green_2bandit_a.png","70","70","test","","","","8","",""
"null","536063","pSARL_v2","pSARL_v260jt7emo","641420858e37d13196283812","fixation","img/fixation.png","null","","test","","","","","",""
"202.5","536270","pSARL_v2","pSARL_v260jt7emo","641420858e37d13196283812","freq","img/green_2bandit_a2.png","70","70","test","1","164","164","8","",""
"null","536879","pSARL_v2","pSARL_v260jt7emo","641420858e37d13196283812","freq_resp","img/green_2bandit_a.png","70","70","test","","","","8","",""
"null","537039","pSARL_v2","pSARL_v260jt7emo","641420858e37d13196283812","fixation","img/fixation.png","null","","test","","","","","",""
"671.6999999880791","537716","pSARL_v2","pSARL_v260jt7emo","641420858e37d13196283812","infreq","img/orange_2bandit_a2.png","68","68","test","1","165","165","8","",""
"null","537850","pSARL_v2","pSARL_v260jt7emo","641420858e37d13196283812","infreq_resp","img/orange_2bandit_a.png","68","68","test","","","","8","",""
"null","538019","pSARL_v2","pSARL_v260jt7emo","641420858e37d13196283812","fixation","img/fixation.png","null","","test","","","","","",""
"337.30000001192093","538362","pSARL_v2","pSARL_v260jt7emo","641420858e37d13196283812","freq","img/green_2bandit_a2.png","70","70","test","1","166","166","8","",""
"null","538844","pSARL_v2","pSARL_v260jt7emo","641420858e37d13196283812","freq_resp","img/green_2bandit_a.png","70","70","test","","","","8","",""
"null","539003","pSARL_v2","pSARL_v260jt7emo","641420858e37d13196283812","fixation","img/fixation.png","null","","test","","","","","",""
"127.60000002384186","539136","pSARL_v2","pSARL_v260jt7emo","641420858e37d13196283812","infreq","img/orange_2bandit_a2.png","70","68","test","0","167","167","8","",""
"null","539829","pSARL_v2","pSARL_v260jt7emo","641420858e37d13196283812","infreq_resp","img/orange_2bandit_a.png","70","68","test","","","","8","",""
"null","539990","pSARL_v2","pSARL_v260jt7emo","641420858e37d13196283812","fixation","img/fixation.png","null","","test","","","","","",""
"374.69999998807907","540370","pSARL_v2","pSARL_v260jt7emo","641420858e37d13196283812","freq","img/green_2bandit_a2.png","70","70","test","1","168","168","8","",""
"null","540805","pSARL_v2","pSARL_v260jt7emo","641420858e37d13196283812","freq_resp","img/green_2bandit_a.png","70","70","test","","","","8","",""
"null","540974","pSARL_v2","pSARL_v260jt7emo","641420858e37d13196283812","fixation","img/fixation.png","null","","test","","","","","",""
"465.10000002384186","541445","pSARL_v2","pSARL_v260jt7emo","641420858e37d13196283812","freq","img/green_2bandit_a2.png","70","70","test","1","169","169","8","",""
"null","541792","pSARL_v2","pSARL_v260jt7emo","641420858e37d13196283812","freq_resp","img/green_2bandit_a.png","70","70","test","","","","8","",""
"null","541949","pSARL_v2","pSARL_v260jt7emo","641420858e37d13196283812","fixation","img/fixation.png","null","","test","","","","","",""
"343.10000002384186","542298","pSARL_v2","pSARL_v260jt7emo","641420858e37d13196283812","freq","img/green_2bandit_a2.png","70","70","test","1","170","170","8","",""
"null","542764","pSARL_v2","pSARL_v260jt7emo","641420858e37d13196283812","freq_resp","img/green_2bandit_a.png","70","70","test","","","","8","",""
"null","542933","pSARL_v2","pSARL_v260jt7emo","641420858e37d13196283812","fixation","img/fixation.png","null","","test","","","","","",""
"368.9000000357628","543307","pSARL_v2","pSARL_v260jt7emo","641420858e37d13196283812","freq","img/green_2bandit_a2.png","70","70","test","1","171","171","8","",""
"null","543754","pSARL_v2","pSARL_v260jt7emo","641420858e37d13196283812","freq_resp","img/green_2bandit_a.png","70","70","test","","","","8","",""
"null","543923","pSARL_v2","pSARL_v260jt7emo","641420858e37d13196283812","fixation","img/fixation.png","null","","test","","","","","",""
"368.19999998807907","544297","pSARL_v2","pSARL_v260jt7emo","641420858e37d13196283812","freq","img/green_2bandit_a2.png","70","70","test","1","172","172","8","",""
"null","544737","pSARL_v2","pSARL_v260jt7emo","641420858e37d13196283812","freq_resp","img/green_2bandit_a.png","70","70","test","","","","8","",""
"null","544907","pSARL_v2","pSARL_v260jt7emo","641420858e37d13196283812","fixation","img/fixation.png","null","","test","","","","","",""
"269.60000002384186","545181","pSARL_v2","pSARL_v260jt7emo","641420858e37d13196283812","freq","img/green_2bandit_a2.png","70","70","test","1","173","173","8","",""
"null","545727","pSARL_v2","pSARL_v260jt7emo","641420858e37d13196283812","freq_resp","img/green_2bandit_a.png","70","70","test","","","","8","",""
"null","545887","pSARL_v2","pSARL_v260jt7emo","641420858e37d13196283812","fixation","img/fixation.png","null","","test","","","","","",""
"332.10000002384186","546224","pSARL_v2","pSARL_v260jt7emo","641420858e37d13196283812","freq","img/green_2bandit_a2.png","70","70","test","1","174","174","8","",""
"null","546707","pSARL_v2","pSARL_v260jt7emo","641420858e37d13196283812","freq_resp","img/green_2bandit_a.png","70","70","test","","","","8","",""
"null","546876","pSARL_v2","pSARL_v260jt7emo","641420858e37d13196283812","fixation","img/fixation.png","null","","test","","","","","",""
"306.80000001192093","547188","pSARL_v2","pSARL_v260jt7emo","641420858e37d13196283812","freq","img/green_2bandit_a2.png","70","70","test","1","175","175","8","",""
"null","547695","pSARL_v2","pSARL_v260jt7emo","641420858e37d13196283812","freq_resp","img/green_2bandit_a.png","70","70","test","","","","8","",""
"null","547858","pSARL_v2","pSARL_v260jt7emo","641420858e37d13196283812","fixation","img/fixation.png","null","","test","","","","","",""
"638.3000000119209","548502","pSARL_v2","pSARL_v260jt7emo","641420858e37d13196283812","reward","img/slot.png","74","","test","","","","","",""
"null","549262","pSARL_v2","pSARL_v260jt7emo","641420858e37d13196283812","points","<div class=""verylowPoints""> -4 </div>","null","na","test","","","","8","-4","7"
"620.5","549888","pSARL_v2","pSARL_v260jt7emo","641420858e37d13196283812","freq","img/green_2bandit_a2.png","70","70","test","1","176","176","9","",""
"null","550073","pSARL_v2","pSARL_v260jt7emo","641420858e37d13196283812","freq_resp","img/green_2bandit_a.png","70","70","test","","","","9","",""
"null","550230","pSARL_v2","pSARL_v260jt7emo","641420858e37d13196283812","fixation","img/fixation.png","null","","test","","","","","",""
"415.7000000476837","550650","pSARL_v2","pSARL_v260jt7emo","641420858e37d13196283812","freq","img/green_2bandit_a2.png","70","70","test","1","177","177","9","",""
"null","551040","pSARL_v2","pSARL_v260jt7emo","641420858e37d13196283812","freq_resp","img/green_2bandit_a.png","70","70","test","","","","9","",""
"null","551205","pSARL_v2","pSARL_v260jt7emo","641420858e37d13196283812","fixation","img/fixation.png","null","","test","","","","","",""
"352","551563","pSARL_v2","pSARL_v260jt7emo","641420858e37d13196283812","freq","img/green_2bandit_a2.png","70","70","test","1","178","178","9","",""
"null","552029","pSARL_v2","pSARL_v260jt7emo","641420858e37d13196283812","freq_resp","img/green_2bandit_a.png","70","70","test","","","","9","",""
"null","552199","pSARL_v2","pSARL_v260jt7emo","641420858e37d13196283812","fixation","img/fixation.png","null","","test","","","","","",""
"306.19999998807907","552511","pSARL_v2","pSARL_v260jt7emo","641420858e37d13196283812","infreq","img/orange_2bandit_a2.png","70","68","test","0","179","179","9","",""
"null","553024","pSARL_v2","pSARL_v260jt7emo","641420858e37d13196283812","infreq_resp","img/orange_2bandit_a.png","70","68","test","","","","9","",""
"null","553181","pSARL_v2","pSARL_v260jt7emo","641420858e37d13196283812","fixation","img/fixation.png","null","","test","","","","","",""
"531.7000000476837","553719","pSARL_v2","pSARL_v260jt7emo","641420858e37d13196283812","freq","img/green_2bandit_a2.png","70","70","test","1","180","180","9","",""
"null","554005","pSARL_v2","pSARL_v260jt7emo","641420858e37d13196283812","freq_resp","img/green_2bandit_a.png","70","70","test","","","","9","",""
"null","554171","pSARL_v2","pSARL_v260jt7emo","641420858e37d13196283812","fixation","img/fixation.png","null","","test","","","","","",""
"407.5","554584","pSARL_v2","pSARL_v260jt7emo","641420858e37d13196283812","freq","img/green_2bandit_a2.png","70","70","test","1","181","181","9","",""
"null","554984","pSARL_v2","pSARL_v260jt7emo","641420858e37d13196283812","freq_resp","img/green_2bandit_a.png","70","70","test","","","","9","",""
"null","555147","pSARL_v2","pSARL_v260jt7emo","641420858e37d13196283812","fixation","img/fixation.png","null","","test","","","","","",""
"389.0999999642372","555542","pSARL_v2","pSARL_v260jt7emo","641420858e37d13196283812","freq","img/green_2bandit_a2.png","70","70","test","1","182","182","9","",""
"null","555963","pSARL_v2","pSARL_v260jt7emo","641420858e37d13196283812","freq_resp","img/green_2bandit_a.png","70","70","test","","","","9","",""
"null","556128","pSARL_v2","pSARL_v260jt7emo","641420858e37d13196283812","fixation","img/fixation.png","null","","test","","","","","",""
"340.30000001192093","556474","pSARL_v2","pSARL_v260jt7emo","641420858e37d13196283812","freq","img/green_2bandit_a2.png","70","70","test","1","183","183","9","",""
"null","556940","pSARL_v2","pSARL_v260jt7emo","641420858e37d13196283812","freq_resp","img/green_2bandit_a.png","70","70","test","","","","9","",""
"null","557111","pSARL_v2","pSARL_v260jt7emo","641420858e37d13196283812","fixation","img/fixation.png","null","","test","","","","","",""
"398.39999997615814","557515","pSARL_v2","pSARL_v260jt7emo","641420858e37d13196283812","freq","img/green_2bandit_a2.png","70","70","test","1","184","184","9","",""
"null","557924","pSARL_v2","pSARL_v260jt7emo","641420858e37d13196283812","freq_resp","img/green_2bandit_a.png","70","70","test","","","","9","",""
"null","558084","pSARL_v2","pSARL_v260jt7emo","641420858e37d13196283812","fixation","img/fixation.png","null","","test","","","","","",""
"332.10000002384186","558421","pSARL_v2","pSARL_v260jt7emo","641420858e37d13196283812","freq","img/green_2bandit_a2.png","70","70","test","1","185","185","9","",""
"null","558904","pSARL_v2","pSARL_v260jt7emo","641420858e37d13196283812","freq_resp","img/green_2bandit_a.png","70","70","test","","","","9","",""
"null","559074","pSARL_v2","pSARL_v260jt7emo","641420858e37d13196283812","fixation","img/fixation.png","null","","test","","","","","",""
"370.80000001192093","559449","pSARL_v2","pSARL_v260jt7emo","641420858e37d13196283812","freq","img/green_2bandit_a2.png","70","70","test","1","186","186","9","",""
"null","559892","pSARL_v2","pSARL_v260jt7emo","641420858e37d13196283812","freq_resp","img/green_2bandit_a.png","70","70","test","","","","9","",""
"null","560055","pSARL_v2","pSARL_v260jt7emo","641420858e37d13196283812","fixation","img/fixation.png","null","","test","","","","","",""
"317.39999997615814","560378","pSARL_v2","pSARL_v260jt7emo","641420858e37d13196283812","freq","img/green_2bandit_a2.png","70","70","test","1","187","187","9","",""
"null","560873","pSARL_v2","pSARL_v260jt7emo","641420858e37d13196283812","freq_resp","img/green_2bandit_a.png","70","70","test","","","","9","",""
"null","561037","pSARL_v2","pSARL_v260jt7emo","641420858e37d13196283812","fixation","img/fixation.png","null","","test","","","","","",""
"293.2999999523163","561336","pSARL_v2","pSARL_v260jt7emo","641420858e37d13196283812","freq","img/green_2bandit_a2.png","70","70","test","1","188","188","9","",""
"null","561851","pSARL_v2","pSARL_v260jt7emo","641420858e37d13196283812","freq_resp","img/green_2bandit_a.png","70","70","test","","","","9","",""
"null","562021","pSARL_v2","pSARL_v260jt7emo","641420858e37d13196283812","fixation","img/fixation.png","null","","test","","","","","",""
"312.19999998807907","562338","pSARL_v2","pSARL_v260jt7emo","641420858e37d13196283812","freq","img/green_2bandit_a2.png","70","70","test","1","189","189","9","",""
"null","562837","pSARL_v2","pSARL_v260jt7emo","641420858e37d13196283812","freq_resp","img/green_2bandit_a.png","70","70","test","","","","9","",""
"null","563003","pSARL_v2","pSARL_v260jt7emo","641420858e37d13196283812","fixation","img/fixation.png","null","","test","","","","","",""
"677.8000000119209","563686","pSARL_v2","pSARL_v260jt7emo","641420858e37d13196283812","infreq","img/orange_2bandit_a2.png","68","68","test","1","190","190","9","",""
"null","563824","pSARL_v2","pSARL_v260jt7emo","641420858e37d13196283812","infreq_resp","img/orange_2bandit_a.png","68","68","test","","","","9","",""
"null","563990","pSARL_v2","pSARL_v260jt7emo","641420858e37d13196283812","fixation","img/fixation.png","null","","test","","","","","",""
"378.19999998807907","564374","pSARL_v2","pSARL_v260jt7emo","641420858e37d13196283812","freq","img/green_2bandit_a2.png","70","70","test","1","191","191","9","",""
"null","564804","pSARL_v2","pSARL_v260jt7emo","641420858e37d13196283812","freq_resp","img/green_2bandit_a.png","70","70","test","","","","9","",""
"null","564961","pSARL_v2","pSARL_v260jt7emo","641420858e37d13196283812","fixation","img/fixation.png","null","","test","","","","","",""
"192.80000001192093","565159","pSARL_v2","pSARL_v260jt7emo","641420858e37d13196283812","freq","img/green_2bandit_a2.png","70","70","test","1","192","192","9","",""
"null","565773","pSARL_v2","pSARL_v260jt7emo","641420858e37d13196283812","freq_resp","img/green_2bandit_a.png","70","70","test","","","","9","",""
"null","565934","pSARL_v2","pSARL_v260jt7emo","641420858e37d13196283812","fixation","img/fixation.png","null","","test","","","","","",""
"377.30000001192093","566317","pSARL_v2","pSARL_v260jt7emo","641420858e37d13196283812","infreq","img/orange_2bandit_a2.png","70","68","test","0","193","193","9","",""
"null","566757","pSARL_v2","pSARL_v260jt7emo","641420858e37d13196283812","infreq_resp","img/orange_2bandit_a.png","70","68","test","","","","9","",""
"null","566921","pSARL_v2","pSARL_v260jt7emo","641420858e37d13196283812","fixation","img/fixation.png","null","","test","","","","","",""
"283.39999997615814","567210","pSARL_v2","pSARL_v260jt7emo","641420858e37d13196283812","freq","img/green_2bandit_a2.png","70","70","test","1","194","194","9","",""
"null","567747","pSARL_v2","pSARL_v260jt7emo","641420858e37d13196283812","freq_resp","img/green_2bandit_a.png","70","70","test","","","","9","",""
"null","567914","pSARL_v2","pSARL_v260jt7emo","641420858e37d13196283812","fixation","img/fixation.png","null","","test","","","","","",""
"361.60000002384186","568281","pSARL_v2","pSARL_v260jt7emo","641420858e37d13196283812","freq","img/green_2bandit_a2.png","70","70","test","1","195","195","9","",""
"null","568726","pSARL_v2","pSARL_v260jt7emo","641420858e37d13196283812","freq_resp","img/green_2bandit_a.png","70","70","test","","","","9","",""
"null","568886","pSARL_v2","pSARL_v260jt7emo","641420858e37d13196283812","fixation","img/fixation.png","null","","test","","","","","",""
"185.30000001192093","569076","pSARL_v2","pSARL_v260jt7emo","641420858e37d13196283812","freq","img/green_2bandit_a2.png","70","70","test","1","196","196","9","",""
"null","569699","pSARL_v2","pSARL_v260jt7emo","641420858e37d13196283812","freq_resp","img/green_2bandit_a.png","70","70","test","","","","9","",""
"null","569862","pSARL_v2","pSARL_v260jt7emo","641420858e37d13196283812","fixation","img/fixation.png","null","","test","","","","","",""
"407","570274","pSARL_v2","pSARL_v260jt7emo","641420858e37d13196283812","freq","img/green_2bandit_a2.png","70","70","test","1","197","197","9","",""
"null","570683","pSARL_v2","pSARL_v260jt7emo","641420858e37d13196283812","freq_resp","img/green_2bandit_a.png","70","70","test","","","","9","",""
"null","570852","pSARL_v2","pSARL_v260jt7emo","641420858e37d13196283812","fixation","img/fixation.png","null","","test","","","","","",""
"659.5999999642372","571517","pSARL_v2","pSARL_v260jt7emo","641420858e37d13196283812","reward","img/slot.png","74","","test","","","","","",""
"null","572288","pSARL_v2","pSARL_v260jt7emo","641420858e37d13196283812","points","<div class=""verylowPoints""> -3 </div>","null","na","test","","","","9","-3","8"
"679.7000000476837","572973","pSARL_v2","pSARL_v260jt7emo","641420858e37d13196283812","freq","img/green_2bandit_a2.png","70","70","test","1","198","198","10","",""
"null","573111","pSARL_v2","pSARL_v260jt7emo","641420858e37d13196283812","freq_resp","img/green_2bandit_a.png","70","70","test","","","","10","",""
"null","573276","pSARL_v2","pSARL_v260jt7emo","641420858e37d13196283812","fixation","img/fixation.png","null","","test","","","","","",""
"374.9000000357628","573656","pSARL_v2","pSARL_v260jt7emo","641420858e37d13196283812","freq","img/green_2bandit_a2.png","70","70","test","1","199","199","10","",""
"null","574097","pSARL_v2","pSARL_v260jt7emo","641420858e37d13196283812","freq_resp","img/green_2bandit_a.png","70","70","test","","","","10","",""
"null","574267","pSARL_v2","pSARL_v260jt7emo","641420858e37d13196283812","fixation","img/fixation.png","null","","test","","","","","",""
"389","574661","pSARL_v2","pSARL_v260jt7emo","641420858e37d13196283812","freq","img/green_2bandit_a2.png","70","70","test","1","200","200","10","",""
"null","575081","pSARL_v2","pSARL_v260jt7emo","641420858e37d13196283812","freq_resp","img/green_2bandit_a.png","70","70","test","","","","10","",""
"null","575247","pSARL_v2","pSARL_v260jt7emo","641420858e37d13196283812","fixation","img/fixation.png","null","","test","","","","","",""
"625.1000000238419","575877","pSARL_v2","pSARL_v260jt7emo","641420858e37d13196283812","freq","img/green_2bandit_a2.png","70","70","test","1","201","201","10","",""
"null","576058","pSARL_v2","pSARL_v260jt7emo","641420858e37d13196283812","freq_resp","img/green_2bandit_a.png","70","70","test","","","","10","",""
"null","576213","pSARL_v2","pSARL_v260jt7emo","641420858e37d13196283812","fixation","img/fixation.png","null","","test","","","","","",""
"671.4000000357628","576890","pSARL_v2","pSARL_v260jt7emo","641420858e37d13196283812","freq","img/green_2bandit_a2.png","70","70","test","1","202","202","10","",""
"null","577027","pSARL_v2","pSARL_v260jt7emo","641420858e37d13196283812","freq_resp","img/green_2bandit_a.png","70","70","test","","","","10","",""
"null","577194","pSARL_v2","pSARL_v260jt7emo","641420858e37d13196283812","fixation","img/fixation.png","null","","test","","","","","",""
"411.10000002384186","577611","pSARL_v2","pSARL_v260jt7emo","641420858e37d13196283812","freq","img/green_2bandit_a2.png","70","70","test","1","203","203","10","",""
"null","578015","pSARL_v2","pSARL_v260jt7emo","641420858e37d13196283812","freq_resp","img/green_2bandit_a.png","70","70","test","","","","10","",""
"null","578181","pSARL_v2","pSARL_v260jt7emo","641420858e37d13196283812","fixation","img/fixation.png","null","","test","","","","","",""
"362.5","578549","pSARL_v2","pSARL_v260jt7emo","641420858e37d13196283812","freq","img/green_2bandit_a2.png","70","70","test","1","204","204","10","",""
"null","578994","pSARL_v2","pSARL_v260jt7emo","641420858e37d13196283812","freq_resp","img/green_2bandit_a.png","70","70","test","","","","10","",""
"null","579154","pSARL_v2","pSARL_v260jt7emo","641420858e37d13196283812","fixation","img/fixation.png","null","","test","","","","","",""
"420.89999997615814","579580","pSARL_v2","pSARL_v260jt7emo","641420858e37d13196283812","freq","img/green_2bandit_a2.png","70","70","test","1","205","205","10","",""
"null","579978","pSARL_v2","pSARL_v260jt7emo","641420858e37d13196283812","freq_resp","img/green_2bandit_a.png","70","70","test","","","","10","",""
"null","580134","pSARL_v2","pSARL_v260jt7emo","641420858e37d13196283812","fixation","img/fixation.png","null","","test","","","","","",""
"306.5","580446","pSARL_v2","pSARL_v260jt7emo","641420858e37d13196283812","freq","img/green_2bandit_a2.png","70","70","test","1","206","206","10","",""
"null","580954","pSARL_v2","pSARL_v260jt7emo","641420858e37d13196283812","freq_resp","img/green_2bandit_a.png","70","70","test","","","","10","",""
"null","581116","pSARL_v2","pSARL_v260jt7emo","641420858e37d13196283812","fixation","img/fixation.png","null","","test","","","","","",""
"641.0999999642372","581763","pSARL_v2","pSARL_v260jt7emo","641420858e37d13196283812","infreq","img/orange_2bandit_a2.png","68","68","test","1","207","207","10","",""
"null","581928","pSARL_v2","pSARL_v260jt7emo","641420858e37d13196283812","infreq_resp","img/orange_2bandit_a.png","68","68","test","","","","10","",""
"null","582095","pSARL_v2","pSARL_v260jt7emo","641420858e37d13196283812","fixation","img/fixation.png","null","","test","","","","","",""
"378","582480","pSARL_v2","pSARL_v260jt7emo","641420858e37d13196283812","freq","img/green_2bandit_a2.png","70","70","test","1","208","208","10","",""
"null","582910","pSARL_v2","pSARL_v260jt7emo","641420858e37d13196283812","freq_resp","img/green_2bandit_a.png","70","70","test","","","","10","",""
"null","583072","pSARL_v2","pSARL_v260jt7emo","641420858e37d13196283812","fixation","img/fixation.png","null","","test","","","","","",""
"314","583391","pSARL_v2","pSARL_v260jt7emo","641420858e37d13196283812","freq","img/green_2bandit_a2.png","70","70","test","1","209","209","10","",""
"null","583886","pSARL_v2","pSARL_v260jt7emo","641420858e37d13196283812","freq_resp","img/green_2bandit_a.png","70","70","test","","","","10","",""
"null","584045","pSARL_v2","pSARL_v260jt7emo","641420858e37d13196283812","fixation","img/fixation.png","null","","test","","","","","",""
