"rt","time_elapsed","expId","subject","prolificID","trialType","stimulus","key_press","corrresp","phase","corr","trialNum","attentionRunNum","blockNum","points","rlNum"
"28079","28089","pSARL_v2","pSARL_v2kt0jwj38","55ae64defdf99b3f864653e7","","","","","","","","","","",""
"","32030","pSARL_v2","pSARL_v2kt0jwj38","55ae64defdf99b3f864653e7","fullscreen","","","","","","","","","",""
"60132","92167","pSARL_v2","pSARL_v2kt0jwj38","55ae64defdf99b3f864653e7","","","","","","","","","","",""
"null","92970","pSARL_v2","pSARL_v2kt0jwj38","55ae64defdf99b3f864653e7","freqPrac","img/orange_2bandit_b2.png","null","70","prac","0","","","","",""
"null","93978","pSARL_v2","pSARL_v2kt0jwj38","55ae64defdf99b3f864653e7","feedback","img/tooSlow.png","null","na","prac","","","","","",""
"null","94137","pSARL_v2","pSARL_v2kt0jwj38","55ae64defdf99b3f864653e7","fixation","img/fixation.png","null","","prac","","","","","",""
"535","94675","pSARL_v2","pSARL_v2kt0jwj38","55ae64defdf99b3f864653e7","infreqPrac","img/green_2bandit_b2.png","68","68","prac","1","","","","",""
"535","94953","pSARL_v2","pSARL_v2kt0jwj38","55ae64defdf99b3f864653e7","infreqPrac_resp","img/green_2bandit_b.png","68","68","prac","","","","","",""
"null","95113","pSARL_v2","pSARL_v2kt0jwj38","55ae64defdf99b3f864653e7","fixation","img/fixation.png","null","","prac","","","","","",""
"675","95791","pSARL_v2","pSARL_v2kt0jwj38","55ae64defdf99b3f864653e7","freqPrac","img/orange_2bandit_b2.png","70","70","prac","1","","","","",""
"675","95926","pSARL_v2","pSARL_v2kt0jwj38","55ae64defdf99b3f864653e7","freqPrac_resp","img/orange_2bandit_b.png","70","70","prac","","","","","",""
"null","96087","pSARL_v2","pSARL_v2kt0jwj38","55ae64defdf99b3f864653e7","fixation","img/fixation.png","null","","prac","","","","","",""
"450","96539","pSARL_v2","pSARL_v2kt0jwj38","55ae64defdf99b3f864653e7","infreqPrac","img/green_2bandit_b2.png","68","68","prac","1","","","","",""
"450","96904","pSARL_v2","pSARL_v2kt0jwj38","55ae64defdf99b3f864653e7","infreqPrac_resp","img/green_2bandit_b.png","68","68","prac","","","","","",""
"null","97063","pSARL_v2","pSARL_v2kt0jwj38","55ae64defdf99b3f864653e7","fixation","img/fixation.png","null","","prac","","","","","",""
"383","97449","pSARL_v2","pSARL_v2kt0jwj38","55ae64defdf99b3f864653e7","infreqPrac","img/green_2bandit_b2.png","70","68","prac","0","","","","",""
"383","97876","pSARL_v2","pSARL_v2kt0jwj38","55ae64defdf99b3f864653e7","infreqPrac_resp","img/green_2bandit_b.png","70","68","prac","","","","","",""
"null","98886","pSARL_v2","pSARL_v2kt0jwj38","55ae64defdf99b3f864653e7","feedback","img/wrongKey.png","null","na","prac","","","","","",""
"null","99045","pSARL_v2","pSARL_v2kt0jwj38","55ae64defdf99b3f864653e7","fixation","img/fixation.png","null","","prac","","","","","",""
"394","99442","pSARL_v2","pSARL_v2kt0jwj38","55ae64defdf99b3f864653e7","infreqPrac","img/green_2bandit_b2.png","68","68","prac","1","","","","",""
"394","99862","pSARL_v2","pSARL_v2kt0jwj38","55ae64defdf99b3f864653e7","infreqPrac_resp","img/green_2bandit_b.png","68","68","prac","","","","","",""
"null","100022","pSARL_v2","pSARL_v2kt0jwj38","55ae64defdf99b3f864653e7","fixation","img/fixation.png","null","","prac","","","","","",""
"390","100415","pSARL_v2","pSARL_v2kt0jwj38","55ae64defdf99b3f864653e7","freqPrac","img/orange_2bandit_b2.png","70","70","prac","1","","","","",""
"390","100836","pSARL_v2","pSARL_v2kt0jwj38","55ae64defdf99b3f864653e7","freqPrac_resp","img/orange_2bandit_b.png","70","70","prac","","","","","",""
"null","100997","pSARL_v2","pSARL_v2kt0jwj38","55ae64defdf99b3f864653e7","fixation","img/fixation.png","null","","prac","","","","","",""
"397","101396","pSARL_v2","pSARL_v2kt0jwj38","55ae64defdf99b3f864653e7","infreqPrac","img/green_2bandit_b2.png","68","68","prac","1","","","","",""
"397","101809","pSARL_v2","pSARL_v2kt0jwj38","55ae64defdf99b3f864653e7","infreqPrac_resp","img/green_2bandit_b.png","68","68","prac","","","","","",""
"null","101968","pSARL_v2","pSARL_v2kt0jwj38","55ae64defdf99b3f864653e7","fixation","img/fixation.png","null","","prac","","","","","",""
"374","102345","pSARL_v2","pSARL_v2kt0jwj38","55ae64defdf99b3f864653e7","freqPrac","img/orange_2bandit_b2.png","70","70","prac","1","","","","",""
"374","102784","pSARL_v2","pSARL_v2kt0jwj38","55ae64defdf99b3f864653e7","freqPrac_resp","img/orange_2bandit_b.png","70","70","prac","","","","","",""
"null","102943","pSARL_v2","pSARL_v2kt0jwj38","55ae64defdf99b3f864653e7","fixation","img/fixation.png","null","","prac","","","","","",""
"500","103446","pSARL_v2","pSARL_v2kt0jwj38","55ae64defdf99b3f864653e7","freqPrac","img/orange_2bandit_b2.png","70","70","prac","1","","","","",""
"500","103761","pSARL_v2","pSARL_v2kt0jwj38","55ae64defdf99b3f864653e7","freqPrac_resp","img/orange_2bandit_b.png","70","70","prac","","","","","",""
"null","103920","pSARL_v2","pSARL_v2kt0jwj38","55ae64defdf99b3f864653e7","fixation","img/fixation.png","null","","prac","","","","","",""
"60383","164306","pSARL_v2","pSARL_v2kt0jwj38","55ae64defdf99b3f864653e7","","","","","prac","","","","","",""
"455","164764","pSARL_v2","pSARL_v2kt0jwj38","55ae64defdf99b3f864653e7","rewardPractice","img/slot.png","74","","prac","","","","","",""
"null","165522","pSARL_v2","pSARL_v2kt0jwj38","55ae64defdf99b3f864653e7","feedback","<div class=""veryhighPoints""> +15 </div>","null","na","prac","","","","","",""
"null","165681","pSARL_v2","pSARL_v2kt0jwj38","55ae64defdf99b3f864653e7","fixation","img/fixation.png","null","","prac","","","","","",""
"14478","180163","pSARL_v2","pSARL_v2kt0jwj38","55ae64defdf99b3f864653e7","","","","","prac","","","","","",""
"691","180857","pSARL_v2","pSARL_v2kt0jwj38","55ae64defdf99b3f864653e7","freq","img/orange_2bandit_b2.png","68","70","test","0","1","1","1","",""
"null","180971","pSARL_v2","pSARL_v2kt0jwj38","55ae64defdf99b3f864653e7","freq_resp","img/orange_2bandit_b.png","68","70","test","","","","1","",""
"null","181133","pSARL_v2","pSARL_v2kt0jwj38","55ae64defdf99b3f864653e7","fixation","img/fixation.png","null","","test","","","","","",""
"387","181523","pSARL_v2","pSARL_v2kt0jwj38","55ae64defdf99b3f864653e7","freq","img/orange_2bandit_b2.png","68","70","test","0","2","2","1","",""
"null","181949","pSARL_v2","pSARL_v2kt0jwj38","55ae64defdf99b3f864653e7","freq_resp","img/orange_2bandit_b.png","68","70","test","","","","1","",""
"null","182109","pSARL_v2","pSARL_v2kt0jwj38","55ae64defdf99b3f864653e7","fixation","img/fixation.png","null","","test","","","","","",""
"null","182925","pSARL_v2","pSARL_v2kt0jwj38","55ae64defdf99b3f864653e7","infreq","img/green_2bandit_b2.png","null","68","test","0","3","3","1","",""
"null","183085","pSARL_v2","pSARL_v2kt0jwj38","55ae64defdf99b3f864653e7","fixation","img/fixation.png","null","","test","","","","","",""
"507","183596","pSARL_v2","pSARL_v2kt0jwj38","55ae64defdf99b3f864653e7","freq","img/orange_2bandit_b2.png","70","70","test","1","4","4","1","",""
"null","183902","pSARL_v2","pSARL_v2kt0jwj38","55ae64defdf99b3f864653e7","freq_resp","img/orange_2bandit_b.png","70","70","test","","","","1","",""
"null","184061","pSARL_v2","pSARL_v2kt0jwj38","55ae64defdf99b3f864653e7","fixation","img/fixation.png","null","","test","","","","","",""
"353","184417","pSARL_v2","pSARL_v2kt0jwj38","55ae64defdf99b3f864653e7","freq","img/orange_2bandit_b2.png","70","70","test","1","5","5","1","",""
"null","184876","pSARL_v2","pSARL_v2kt0jwj38","55ae64defdf99b3f864653e7","freq_resp","img/orange_2bandit_b.png","70","70","test","","","","1","",""
"null","185035","pSARL_v2","pSARL_v2kt0jwj38","55ae64defdf99b3f864653e7","fixation","img/fixation.png","null","","test","","","","","",""
"314","185354","pSARL_v2","pSARL_v2kt0jwj38","55ae64defdf99b3f864653e7","freq","img/orange_2bandit_b2.png","70","70","test","1","6","6","1","",""
"null","185851","pSARL_v2","pSARL_v2kt0jwj38","55ae64defdf99b3f864653e7","freq_resp","img/orange_2bandit_b.png","70","70","test","","","","1","",""
"null","186010","pSARL_v2","pSARL_v2kt0jwj38","55ae64defdf99b3f864653e7","fixation","img/fixation.png","null","","test","","","","","",""
"323","186337","pSARL_v2","pSARL_v2kt0jwj38","55ae64defdf99b3f864653e7","freq","img/orange_2bandit_b2.png","70","70","test","1","7","7","1","",""
"null","186825","pSARL_v2","pSARL_v2kt0jwj38","55ae64defdf99b3f864653e7","freq_resp","img/orange_2bandit_b.png","70","70","test","","","","1","",""
"null","186984","pSARL_v2","pSARL_v2kt0jwj38","55ae64defdf99b3f864653e7","fixation","img/fixation.png","null","","test","","","","","",""
"396","187382","pSARL_v2","pSARL_v2kt0jwj38","55ae64defdf99b3f864653e7","freq","img/orange_2bandit_b2.png","70","70","test","1","8","8","1","",""
"null","187799","pSARL_v2","pSARL_v2kt0jwj38","55ae64defdf99b3f864653e7","freq_resp","img/orange_2bandit_b.png","70","70","test","","","","1","",""
"null","187959","pSARL_v2","pSARL_v2kt0jwj38","55ae64defdf99b3f864653e7","fixation","img/fixation.png","null","","test","","","","","",""
"322","188284","pSARL_v2","pSARL_v2kt0jwj38","55ae64defdf99b3f864653e7","freq","img/orange_2bandit_b2.png","70","70","test","1","9","9","1","",""
"null","188776","pSARL_v2","pSARL_v2kt0jwj38","55ae64defdf99b3f864653e7","freq_resp","img/orange_2bandit_b.png","70","70","test","","","","1","",""
"null","188935","pSARL_v2","pSARL_v2kt0jwj38","55ae64defdf99b3f864653e7","fixation","img/fixation.png","null","","test","","","","","",""
"264","189202","pSARL_v2","pSARL_v2kt0jwj38","55ae64defdf99b3f864653e7","freq","img/orange_2bandit_b2.png","70","70","test","1","10","10","1","",""
"null","189752","pSARL_v2","pSARL_v2kt0jwj38","55ae64defdf99b3f864653e7","freq_resp","img/orange_2bandit_b.png","70","70","test","","","","1","",""
"null","189913","pSARL_v2","pSARL_v2kt0jwj38","55ae64defdf99b3f864653e7","fixation","img/fixation.png","null","","test","","","","","",""
"270","190185","pSARL_v2","pSARL_v2kt0jwj38","55ae64defdf99b3f864653e7","freq","img/orange_2bandit_b2.png","70","70","test","1","11","11","1","",""
"null","190726","pSARL_v2","pSARL_v2kt0jwj38","55ae64defdf99b3f864653e7","freq_resp","img/orange_2bandit_b.png","70","70","test","","","","1","",""
"null","190886","pSARL_v2","pSARL_v2kt0jwj38","55ae64defdf99b3f864653e7","fixation","img/fixation.png","null","","test","","","","","",""
"243","191132","pSARL_v2","pSARL_v2kt0jwj38","55ae64defdf99b3f864653e7","freq","img/orange_2bandit_b2.png","70","70","test","1","12","12","1","",""
"null","191701","pSARL_v2","pSARL_v2kt0jwj38","55ae64defdf99b3f864653e7","freq_resp","img/orange_2bandit_b.png","70","70","test","","","","1","",""
"null","191861","pSARL_v2","pSARL_v2kt0jwj38","55ae64defdf99b3f864653e7","fixation","img/fixation.png","null","","test","","","","","",""
"385","192248","pSARL_v2","pSARL_v2kt0jwj38","55ae64defdf99b3f864653e7","infreq","img/green_2bandit_b2.png","68","68","test","1","13","13","1","",""
"null","192677","pSARL_v2","pSARL_v2kt0jwj38","55ae64defdf99b3f864653e7","infreq_resp","img/green_2bandit_b.png","68","68","test","","","","1","",""
"null","192837","pSARL_v2","pSARL_v2kt0jwj38","55ae64defdf99b3f864653e7","fixation","img/fixation.png","null","","test","","","","","",""
"437","193278","pSARL_v2","pSARL_v2kt0jwj38","55ae64defdf99b3f864653e7","freq","img/orange_2bandit_b2.png","70","70","test","1","14","14","1","",""
"null","193654","pSARL_v2","pSARL_v2kt0jwj38","55ae64defdf99b3f864653e7","freq_resp","img/orange_2bandit_b.png","70","70","test","","","","1","",""
"null","193814","pSARL_v2","pSARL_v2kt0jwj38","55ae64defdf99b3f864653e7","fixation","img/fixation.png","null","","test","","","","","",""
"309","194126","pSARL_v2","pSARL_v2kt0jwj38","55ae64defdf99b3f864653e7","freq","img/orange_2bandit_b2.png","70","70","test","1","15","15","1","",""
"null","194628","pSARL_v2","pSARL_v2kt0jwj38","55ae64defdf99b3f864653e7","freq_resp","img/orange_2bandit_b.png","70","70","test","","","","1","",""
"null","194788","pSARL_v2","pSARL_v2kt0jwj38","55ae64defdf99b3f864653e7","fixation","img/fixation.png","null","","test","","","","","",""
"326","195117","pSARL_v2","pSARL_v2kt0jwj38","55ae64defdf99b3f864653e7","freq","img/orange_2bandit_b2.png","70","70","test","1","16","16","1","",""
"null","195605","pSARL_v2","pSARL_v2kt0jwj38","55ae64defdf99b3f864653e7","freq_resp","img/orange_2bandit_b.png","70","70","test","","","","1","",""
"null","195764","pSARL_v2","pSARL_v2kt0jwj38","55ae64defdf99b3f864653e7","fixation","img/fixation.png","null","","test","","","","","",""
"253","196019","pSARL_v2","pSARL_v2kt0jwj38","55ae64defdf99b3f864653e7","freq","img/orange_2bandit_b2.png","70","70","test","1","17","17","1","",""
"null","196579","pSARL_v2","pSARL_v2kt0jwj38","55ae64defdf99b3f864653e7","freq_resp","img/orange_2bandit_b.png","70","70","test","","","","1","",""
"null","196738","pSARL_v2","pSARL_v2kt0jwj38","55ae64defdf99b3f864653e7","fixation","img/fixation.png","null","","test","","","","","",""
"307","197048","pSARL_v2","pSARL_v2kt0jwj38","55ae64defdf99b3f864653e7","freq","img/orange_2bandit_b2.png","70","70","test","1","18","18","1","",""
"null","197554","pSARL_v2","pSARL_v2kt0jwj38","55ae64defdf99b3f864653e7","freq_resp","img/orange_2bandit_b.png","70","70","test","","","","1","",""
"null","197714","pSARL_v2","pSARL_v2kt0jwj38","55ae64defdf99b3f864653e7","fixation","img/fixation.png","null","","test","","","","","",""
"267","197985","pSARL_v2","pSARL_v2kt0jwj38","55ae64defdf99b3f864653e7","freq","img/orange_2bandit_b2.png","70","70","test","1","19","19","1","",""
"null","198531","pSARL_v2","pSARL_v2kt0jwj38","55ae64defdf99b3f864653e7","freq_resp","img/orange_2bandit_b.png","70","70","test","","","","1","",""
"null","198690","pSARL_v2","pSARL_v2kt0jwj38","55ae64defdf99b3f864653e7","fixation","img/fixation.png","null","","test","","","","","",""
"510","199202","pSARL_v2","pSARL_v2kt0jwj38","55ae64defdf99b3f864653e7","reward","img/slot.png","74","","test","","","","","",""
"null","199971","pSARL_v2","pSARL_v2kt0jwj38","55ae64defdf99b3f864653e7","points","<div class=""verylowPoints""> -6 </div>","null","na","test","","","","1","-6","0"
"574","200548","pSARL_v2","pSARL_v2kt0jwj38","55ae64defdf99b3f864653e7","freq","img/orange_2bandit_b2.png","70","70","test","1","20","20","2","",""
"null","200785","pSARL_v2","pSARL_v2kt0jwj38","55ae64defdf99b3f864653e7","freq_resp","img/orange_2bandit_b.png","70","70","test","","","","2","",""
"null","200946","pSARL_v2","pSARL_v2kt0jwj38","55ae64defdf99b3f864653e7","fixation","img/fixation.png","null","","test","","","","","",""
"301","201251","pSARL_v2","pSARL_v2kt0jwj38","55ae64defdf99b3f864653e7","freq","img/orange_2bandit_b2.png","70","70","test","1","21","21","2","",""
"null","201761","pSARL_v2","pSARL_v2kt0jwj38","55ae64defdf99b3f864653e7","freq_resp","img/orange_2bandit_b.png","70","70","test","","","","2","",""
"null","201922","pSARL_v2","pSARL_v2kt0jwj38","55ae64defdf99b3f864653e7","fixation","img/fixation.png","null","","test","","","","","",""
"299","202223","pSARL_v2","pSARL_v2kt0jwj38","55ae64defdf99b3f864653e7","freq","img/orange_2bandit_b2.png","70","70","test","1","22","22","2","",""
"null","202738","pSARL_v2","pSARL_v2kt0jwj38","55ae64defdf99b3f864653e7","freq_resp","img/orange_2bandit_b.png","70","70","test","","","","2","",""
"null","202899","pSARL_v2","pSARL_v2kt0jwj38","55ae64defdf99b3f864653e7","fixation","img/fixation.png","null","","test","","","","","",""
"304","203206","pSARL_v2","pSARL_v2kt0jwj38","55ae64defdf99b3f864653e7","freq","img/orange_2bandit_b2.png","70","70","test","1","23","23","2","",""
"null","203713","pSARL_v2","pSARL_v2kt0jwj38","55ae64defdf99b3f864653e7","freq_resp","img/orange_2bandit_b.png","70","70","test","","","","2","",""
"null","203874","pSARL_v2","pSARL_v2kt0jwj38","55ae64defdf99b3f864653e7","fixation","img/fixation.png","null","","test","","","","","",""
"239","204117","pSARL_v2","pSARL_v2kt0jwj38","55ae64defdf99b3f864653e7","freq","img/orange_2bandit_b2.png","70","70","test","1","24","24","2","",""
"null","204690","pSARL_v2","pSARL_v2kt0jwj38","55ae64defdf99b3f864653e7","freq_resp","img/orange_2bandit_b.png","70","70","test","","","","2","",""
"null","204850","pSARL_v2","pSARL_v2kt0jwj38","55ae64defdf99b3f864653e7","fixation","img/fixation.png","null","","test","","","","","",""
"275","205128","pSARL_v2","pSARL_v2kt0jwj38","55ae64defdf99b3f864653e7","freq","img/orange_2bandit_b2.png","70","70","test","1","25","25","2","",""
"null","205663","pSARL_v2","pSARL_v2kt0jwj38","55ae64defdf99b3f864653e7","freq_resp","img/orange_2bandit_b.png","70","70","test","","","","2","",""
"null","205824","pSARL_v2","pSARL_v2kt0jwj38","55ae64defdf99b3f864653e7","fixation","img/fixation.png","null","","test","","","","","",""
"265","206092","pSARL_v2","pSARL_v2kt0jwj38","55ae64defdf99b3f864653e7","freq","img/orange_2bandit_b2.png","70","70","test","1","26","26","2","",""
"null","206640","pSARL_v2","pSARL_v2kt0jwj38","55ae64defdf99b3f864653e7","freq_resp","img/orange_2bandit_b.png","70","70","test","","","","2","",""
"null","206797","pSARL_v2","pSARL_v2kt0jwj38","55ae64defdf99b3f864653e7","fixation","img/fixation.png","null","","test","","","","","",""
"280","207082","pSARL_v2","pSARL_v2kt0jwj38","55ae64defdf99b3f864653e7","freq","img/orange_2bandit_b2.png","70","70","test","1","27","27","2","",""
"null","207614","pSARL_v2","pSARL_v2kt0jwj38","55ae64defdf99b3f864653e7","freq_resp","img/orange_2bandit_b.png","70","70","test","","","","2","",""
"null","207774","pSARL_v2","pSARL_v2kt0jwj38","55ae64defdf99b3f864653e7","fixation","img/fixation.png","null","","test","","","","","",""
"253","208030","pSARL_v2","pSARL_v2kt0jwj38","55ae64defdf99b3f864653e7","freq","img/orange_2bandit_b2.png","70","70","test","1","28","28","2","",""
"null","208589","pSARL_v2","pSARL_v2kt0jwj38","55ae64defdf99b3f864653e7","freq_resp","img/orange_2bandit_b.png","70","70","test","","","","2","",""
"null","208749","pSARL_v2","pSARL_v2kt0jwj38","55ae64defdf99b3f864653e7","fixation","img/fixation.png","null","","test","","","","","",""
"334","209086","pSARL_v2","pSARL_v2kt0jwj38","55ae64defdf99b3f864653e7","freq","img/orange_2bandit_b2.png","70","70","test","1","29","29","2","",""
"null","209563","pSARL_v2","pSARL_v2kt0jwj38","55ae64defdf99b3f864653e7","freq_resp","img/orange_2bandit_b.png","70","70","test","","","","2","",""
"null","209723","pSARL_v2","pSARL_v2kt0jwj38","55ae64defdf99b3f864653e7","fixation","img/fixation.png","null","","test","","","","","",""
"244","209970","pSARL_v2","pSARL_v2kt0jwj38","55ae64defdf99b3f864653e7","freq","img/orange_2bandit_b2.png","70","70","test","1","30","30","2","",""
"null","210538","pSARL_v2","pSARL_v2kt0jwj38","55ae64defdf99b3f864653e7","freq_resp","img/orange_2bandit_b.png","70","70","test","","","","2","",""
"null","210698","pSARL_v2","pSARL_v2kt0jwj38","55ae64defdf99b3f864653e7","fixation","img/fixation.png","null","","test","","","","","",""
"278","210979","pSARL_v2","pSARL_v2kt0jwj38","55ae64defdf99b3f864653e7","freq","img/orange_2bandit_b2.png","70","70","test","1","31","31","2","",""
"null","211515","pSARL_v2","pSARL_v2kt0jwj38","55ae64defdf99b3f864653e7","freq_resp","img/orange_2bandit_b.png","70","70","test","","","","2","",""
"null","211675","pSARL_v2","pSARL_v2kt0jwj38","55ae64defdf99b3f864653e7","fixation","img/fixation.png","null","","test","","","","","",""
"249","211926","pSARL_v2","pSARL_v2kt0jwj38","55ae64defdf99b3f864653e7","freq","img/orange_2bandit_b2.png","70","70","test","1","32","32","2","",""
"null","212489","pSARL_v2","pSARL_v2kt0jwj38","55ae64defdf99b3f864653e7","freq_resp","img/orange_2bandit_b.png","70","70","test","","","","2","",""
"null","212648","pSARL_v2","pSARL_v2kt0jwj38","55ae64defdf99b3f864653e7","fixation","img/fixation.png","null","","test","","","","","",""
"222","212873","pSARL_v2","pSARL_v2kt0jwj38","55ae64defdf99b3f864653e7","infreq","img/green_2bandit_b2.png","70","68","test","0","33","33","2","",""
"null","213465","pSARL_v2","pSARL_v2kt0jwj38","55ae64defdf99b3f864653e7","infreq_resp","img/green_2bandit_b.png","70","68","test","","","","2","",""
"null","213625","pSARL_v2","pSARL_v2kt0jwj38","55ae64defdf99b3f864653e7","fixation","img/fixation.png","null","","test","","","","","",""
"381","214010","pSARL_v2","pSARL_v2kt0jwj38","55ae64defdf99b3f864653e7","freq","img/orange_2bandit_b2.png","70","70","test","1","34","34","2","",""
"null","214439","pSARL_v2","pSARL_v2kt0jwj38","55ae64defdf99b3f864653e7","freq_resp","img/orange_2bandit_b.png","70","70","test","","","","2","",""
"null","214599","pSARL_v2","pSARL_v2kt0jwj38","55ae64defdf99b3f864653e7","fixation","img/fixation.png","null","","test","","","","","",""
"292","214894","pSARL_v2","pSARL_v2kt0jwj38","55ae64defdf99b3f864653e7","freq","img/orange_2bandit_b2.png","70","70","test","1","35","35","2","",""
"null","215416","pSARL_v2","pSARL_v2kt0jwj38","55ae64defdf99b3f864653e7","freq_resp","img/orange_2bandit_b.png","70","70","test","","","","2","",""
"null","215575","pSARL_v2","pSARL_v2kt0jwj38","55ae64defdf99b3f864653e7","fixation","img/fixation.png","null","","test","","","","","",""
"307","215885","pSARL_v2","pSARL_v2kt0jwj38","55ae64defdf99b3f864653e7","freq","img/orange_2bandit_b2.png","70","70","test","1","36","36","2","",""
"null","216389","pSARL_v2","pSARL_v2kt0jwj38","55ae64defdf99b3f864653e7","freq_resp","img/orange_2bandit_b.png","70","70","test","","","","2","",""
"null","216549","pSARL_v2","pSARL_v2kt0jwj38","55ae64defdf99b3f864653e7","fixation","img/fixation.png","null","","test","","","","","",""
"325","216876","pSARL_v2","pSARL_v2kt0jwj38","55ae64defdf99b3f864653e7","freq","img/orange_2bandit_b2.png","70","70","test","1","37","37","2","",""
"null","217365","pSARL_v2","pSARL_v2kt0jwj38","55ae64defdf99b3f864653e7","freq_resp","img/orange_2bandit_b.png","70","70","test","","","","2","",""
"null","217524","pSARL_v2","pSARL_v2kt0jwj38","55ae64defdf99b3f864653e7","fixation","img/fixation.png","null","","test","","","","","",""
"421","217948","pSARL_v2","pSARL_v2kt0jwj38","55ae64defdf99b3f864653e7","infreq","img/green_2bandit_b2.png","68","68","test","1","38","38","2","",""
"null","218339","pSARL_v2","pSARL_v2kt0jwj38","55ae64defdf99b3f864653e7","infreq_resp","img/green_2bandit_b.png","68","68","test","","","","2","",""
"null","218499","pSARL_v2","pSARL_v2kt0jwj38","55ae64defdf99b3f864653e7","fixation","img/fixation.png","null","","test","","","","","",""
"268","218770","pSARL_v2","pSARL_v2kt0jwj38","55ae64defdf99b3f864653e7","freq","img/orange_2bandit_b2.png","70","70","test","1","39","39","2","",""
"null","219316","pSARL_v2","pSARL_v2kt0jwj38","55ae64defdf99b3f864653e7","freq_resp","img/orange_2bandit_b.png","70","70","test","","","","2","",""
"null","219476","pSARL_v2","pSARL_v2kt0jwj38","55ae64defdf99b3f864653e7","fixation","img/fixation.png","null","","test","","","","","",""
"257","219736","pSARL_v2","pSARL_v2kt0jwj38","55ae64defdf99b3f864653e7","freq","img/orange_2bandit_b2.png","70","70","test","1","40","40","2","",""
"null","220292","pSARL_v2","pSARL_v2kt0jwj38","55ae64defdf99b3f864653e7","freq_resp","img/orange_2bandit_b.png","70","70","test","","","","2","",""
"null","220450","pSARL_v2","pSARL_v2kt0jwj38","55ae64defdf99b3f864653e7","fixation","img/fixation.png","null","","test","","","","","",""
"219","220673","pSARL_v2","pSARL_v2kt0jwj38","55ae64defdf99b3f864653e7","freq","img/orange_2bandit_b2.png","70","70","test","1","41","41","2","",""
"null","221267","pSARL_v2","pSARL_v2kt0jwj38","55ae64defdf99b3f864653e7","freq_resp","img/orange_2bandit_b.png","70","70","test","","","","2","",""
"null","221425","pSARL_v2","pSARL_v2kt0jwj38","55ae64defdf99b3f864653e7","fixation","img/fixation.png","null","","test","","","","","",""
"236","221665","pSARL_v2","pSARL_v2kt0jwj38","55ae64defdf99b3f864653e7","freq","img/orange_2bandit_b2.png","70","70","test","1","42","42","2","",""
"null","222242","pSARL_v2","pSARL_v2kt0jwj38","55ae64defdf99b3f864653e7","freq_resp","img/orange_2bandit_b.png","70","70","test","","","","2","",""
"null","222402","pSARL_v2","pSARL_v2kt0jwj38","55ae64defdf99b3f864653e7","fixation","img/fixation.png","null","","test","","","","","",""
"296","222701","pSARL_v2","pSARL_v2kt0jwj38","55ae64defdf99b3f864653e7","freq","img/orange_2bandit_b2.png","70","70","test","1","43","43","2","",""
"null","223217","pSARL_v2","pSARL_v2kt0jwj38","55ae64defdf99b3f864653e7","freq_resp","img/orange_2bandit_b.png","70","70","test","","","","2","",""
"null","223377","pSARL_v2","pSARL_v2kt0jwj38","55ae64defdf99b3f864653e7","fixation","img/fixation.png","null","","test","","","","","",""
"283","223664","pSARL_v2","pSARL_v2kt0jwj38","55ae64defdf99b3f864653e7","freq","img/orange_2bandit_b2.png","70","70","test","1","44","44","2","",""
"null","224194","pSARL_v2","pSARL_v2kt0jwj38","55ae64defdf99b3f864653e7","freq_resp","img/orange_2bandit_b.png","70","70","test","","","","2","",""
"null","224352","pSARL_v2","pSARL_v2kt0jwj38","55ae64defdf99b3f864653e7","fixation","img/fixation.png","null","","test","","","","","",""
"328","224683","pSARL_v2","pSARL_v2kt0jwj38","55ae64defdf99b3f864653e7","freq","img/orange_2bandit_b2.png","70","70","test","1","45","45","2","",""
"null","225169","pSARL_v2","pSARL_v2kt0jwj38","55ae64defdf99b3f864653e7","freq_resp","img/orange_2bandit_b.png","70","70","test","","","","2","",""
"null","225327","pSARL_v2","pSARL_v2kt0jwj38","55ae64defdf99b3f864653e7","fixation","img/fixation.png","null","","test","","","","","",""
"343","225674","pSARL_v2","pSARL_v2kt0jwj38","55ae64defdf99b3f864653e7","reward","img/slot.png","74","","test","","","","","",""
"null","226448","pSARL_v2","pSARL_v2kt0jwj38","55ae64defdf99b3f864653e7","points","<div class=""verylowPoints""> -11 </div>","null","na","test","","","","2","-11","1"
"477","226929","pSARL_v2","pSARL_v2kt0jwj38","55ae64defdf99b3f864653e7","freq","img/orange_2bandit_b2.png","70","70","test","1","46","46","3","",""
"null","227265","pSARL_v2","pSARL_v2kt0jwj38","55ae64defdf99b3f864653e7","freq_resp","img/orange_2bandit_b.png","70","70","test","","","","3","",""
"null","227424","pSARL_v2","pSARL_v2kt0jwj38","55ae64defdf99b3f864653e7","fixation","img/fixation.png","null","","test","","","","","",""
"347","227775","pSARL_v2","pSARL_v2kt0jwj38","55ae64defdf99b3f864653e7","freq","img/orange_2bandit_b2.png","70","70","test","1","47","47","3","",""
"null","228241","pSARL_v2","pSARL_v2kt0jwj38","55ae64defdf99b3f864653e7","freq_resp","img/orange_2bandit_b.png","70","70","test","","","","3","",""
"null","228399","pSARL_v2","pSARL_v2kt0jwj38","55ae64defdf99b3f864653e7","fixation","img/fixation.png","null","","test","","","","","",""
"327","228730","pSARL_v2","pSARL_v2kt0jwj38","55ae64defdf99b3f864653e7","freq","img/orange_2bandit_b2.png","70","70","test","1","48","48","3","",""
"null","229217","pSARL_v2","pSARL_v2kt0jwj38","55ae64defdf99b3f864653e7","freq_resp","img/orange_2bandit_b.png","70","70","test","","","","3","",""
"null","229376","pSARL_v2","pSARL_v2kt0jwj38","55ae64defdf99b3f864653e7","fixation","img/fixation.png","null","","test","","","","","",""
"335","229715","pSARL_v2","pSARL_v2kt0jwj38","55ae64defdf99b3f864653e7","freq","img/orange_2bandit_b2.png","70","70","test","1","49","49","3","",""
"null","230191","pSARL_v2","pSARL_v2kt0jwj38","55ae64defdf99b3f864653e7","freq_resp","img/orange_2bandit_b.png","70","70","test","","","","3","",""
"null","230350","pSARL_v2","pSARL_v2kt0jwj38","55ae64defdf99b3f864653e7","fixation","img/fixation.png","null","","test","","","","","",""
"282","230634","pSARL_v2","pSARL_v2kt0jwj38","55ae64defdf99b3f864653e7","freq","img/orange_2bandit_b2.png","70","70","test","1","50","50","3","",""
"null","231165","pSARL_v2","pSARL_v2kt0jwj38","55ae64defdf99b3f864653e7","freq_resp","img/orange_2bandit_b.png","70","70","test","","","","3","",""
"null","231325","pSARL_v2","pSARL_v2kt0jwj38","55ae64defdf99b3f864653e7","fixation","img/fixation.png","null","","test","","","","","",""
"415","231742","pSARL_v2","pSARL_v2kt0jwj38","55ae64defdf99b3f864653e7","infreq","img/green_2bandit_b2.png","68","68","test","1","51","51","3","",""
"null","232140","pSARL_v2","pSARL_v2kt0jwj38","55ae64defdf99b3f864653e7","infreq_resp","img/green_2bandit_b.png","68","68","test","","","","3","",""
"null","232301","pSARL_v2","pSARL_v2kt0jwj38","55ae64defdf99b3f864653e7","fixation","img/fixation.png","null","","test","","","","","",""
"376","232680","pSARL_v2","pSARL_v2kt0jwj38","55ae64defdf99b3f864653e7","freq","img/orange_2bandit_b2.png","70","70","test","1","52","52","3","",""
"null","233116","pSARL_v2","pSARL_v2kt0jwj38","55ae64defdf99b3f864653e7","freq_resp","img/orange_2bandit_b.png","70","70","test","","","","3","",""
"null","233277","pSARL_v2","pSARL_v2kt0jwj38","55ae64defdf99b3f864653e7","fixation","img/fixation.png","null","","test","","","","","",""
"299","233579","pSARL_v2","pSARL_v2kt0jwj38","55ae64defdf99b3f864653e7","freq","img/orange_2bandit_b2.png","70","70","test","1","53","53","3","",""
"null","234090","pSARL_v2","pSARL_v2kt0jwj38","55ae64defdf99b3f864653e7","freq_resp","img/orange_2bandit_b.png","70","70","test","","","","3","",""
"null","234250","pSARL_v2","pSARL_v2kt0jwj38","55ae64defdf99b3f864653e7","fixation","img/fixation.png","null","","test","","","","","",""
"240","234493","pSARL_v2","pSARL_v2kt0jwj38","55ae64defdf99b3f864653e7","freq","img/orange_2bandit_b2.png","70","70","test","1","54","54","3","",""
"null","235065","pSARL_v2","pSARL_v2kt0jwj38","55ae64defdf99b3f864653e7","freq_resp","img/orange_2bandit_b.png","70","70","test","","","","3","",""
"null","235225","pSARL_v2","pSARL_v2kt0jwj38","55ae64defdf99b3f864653e7","fixation","img/fixation.png","null","","test","","","","","",""
"257","235484","pSARL_v2","pSARL_v2kt0jwj38","55ae64defdf99b3f864653e7","freq","img/orange_2bandit_b2.png","70","70","test","1","55","55","3","",""
"null","236040","pSARL_v2","pSARL_v2kt0jwj38","55ae64defdf99b3f864653e7","freq_resp","img/orange_2bandit_b.png","70","70","test","","","","3","",""
"null","236199","pSARL_v2","pSARL_v2kt0jwj38","55ae64defdf99b3f864653e7","fixation","img/fixation.png","null","","test","","","","","",""
"292","236494","pSARL_v2","pSARL_v2kt0jwj38","55ae64defdf99b3f864653e7","freq","img/orange_2bandit_b2.png","70","70","test","1","56","56","3","",""
"null","237015","pSARL_v2","pSARL_v2kt0jwj38","55ae64defdf99b3f864653e7","freq_resp","img/orange_2bandit_b.png","70","70","test","","","","3","",""
"null","237175","pSARL_v2","pSARL_v2kt0jwj38","55ae64defdf99b3f864653e7","fixation","img/fixation.png","null","","test","","","","","",""
"254","237433","pSARL_v2","pSARL_v2kt0jwj38","55ae64defdf99b3f864653e7","freq","img/orange_2bandit_b2.png","70","70","test","1","57","57","3","",""
"null","237990","pSARL_v2","pSARL_v2kt0jwj38","55ae64defdf99b3f864653e7","freq_resp","img/orange_2bandit_b.png","70","70","test","","","","3","",""
"null","238150","pSARL_v2","pSARL_v2kt0jwj38","55ae64defdf99b3f864653e7","fixation","img/fixation.png","null","","test","","","","","",""
"307","238462","pSARL_v2","pSARL_v2kt0jwj38","55ae64defdf99b3f864653e7","freq","img/orange_2bandit_b2.png","70","70","test","1","58","58","3","",""
"null","238965","pSARL_v2","pSARL_v2kt0jwj38","55ae64defdf99b3f864653e7","freq_resp","img/orange_2bandit_b.png","70","70","test","","","","3","",""
"null","239124","pSARL_v2","pSARL_v2kt0jwj38","55ae64defdf99b3f864653e7","fixation","img/fixation.png","null","","test","","","","","",""
"271","239398","pSARL_v2","pSARL_v2kt0jwj38","55ae64defdf99b3f864653e7","freq","img/orange_2bandit_b2.png","70","70","test","1","59","59","3","",""
"null","239939","pSARL_v2","pSARL_v2kt0jwj38","55ae64defdf99b3f864653e7","freq_resp","img/orange_2bandit_b.png","70","70","test","","","","3","",""
"null","240098","pSARL_v2","pSARL_v2kt0jwj38","55ae64defdf99b3f864653e7","fixation","img/fixation.png","null","","test","","","","","",""
"271","240374","pSARL_v2","pSARL_v2kt0jwj38","55ae64defdf99b3f864653e7","freq","img/orange_2bandit_b2.png","70","70","test","1","60","60","3","",""
"null","240914","pSARL_v2","pSARL_v2kt0jwj38","55ae64defdf99b3f864653e7","freq_resp","img/orange_2bandit_b.png","70","70","test","","","","3","",""
"null","241073","pSARL_v2","pSARL_v2kt0jwj38","55ae64defdf99b3f864653e7","fixation","img/fixation.png","null","","test","","","","","",""
"442","241519","pSARL_v2","pSARL_v2kt0jwj38","55ae64defdf99b3f864653e7","infreq","img/green_2bandit_b2.png","68","68","test","1","61","61","3","",""
"null","241890","pSARL_v2","pSARL_v2kt0jwj38","55ae64defdf99b3f864653e7","infreq_resp","img/green_2bandit_b.png","68","68","test","","","","3","",""
"null","242050","pSARL_v2","pSARL_v2kt0jwj38","55ae64defdf99b3f864653e7","fixation","img/fixation.png","null","","test","","","","","",""
"340","242392","pSARL_v2","pSARL_v2kt0jwj38","55ae64defdf99b3f864653e7","freq","img/orange_2bandit_b2.png","70","70","test","1","62","62","3","",""
"null","242867","pSARL_v2","pSARL_v2kt0jwj38","55ae64defdf99b3f864653e7","freq_resp","img/orange_2bandit_b.png","70","70","test","","","","3","",""
"null","243026","pSARL_v2","pSARL_v2kt0jwj38","55ae64defdf99b3f864653e7","fixation","img/fixation.png","null","","test","","","","","",""
"300","243330","pSARL_v2","pSARL_v2kt0jwj38","55ae64defdf99b3f864653e7","freq","img/orange_2bandit_b2.png","70","70","test","1","63","63","3","",""
"null","243842","pSARL_v2","pSARL_v2kt0jwj38","55ae64defdf99b3f864653e7","freq_resp","img/orange_2bandit_b.png","70","70","test","","","","3","",""
"null","244000","pSARL_v2","pSARL_v2kt0jwj38","55ae64defdf99b3f864653e7","fixation","img/fixation.png","null","","test","","","","","",""
"235","244240","pSARL_v2","pSARL_v2kt0jwj38","55ae64defdf99b3f864653e7","freq","img/orange_2bandit_b2.png","70","70","test","1","64","64","3","",""
"null","244815","pSARL_v2","pSARL_v2kt0jwj38","55ae64defdf99b3f864653e7","freq_resp","img/orange_2bandit_b.png","70","70","test","","","","3","",""
"null","244974","pSARL_v2","pSARL_v2kt0jwj38","55ae64defdf99b3f864653e7","fixation","img/fixation.png","null","","test","","","","","",""
"216","245193","pSARL_v2","pSARL_v2kt0jwj38","55ae64defdf99b3f864653e7","freq","img/orange_2bandit_b2.png","70","70","test","1","65","65","3","",""
"null","245791","pSARL_v2","pSARL_v2kt0jwj38","55ae64defdf99b3f864653e7","freq_resp","img/orange_2bandit_b.png","70","70","test","","","","3","",""
"null","245951","pSARL_v2","pSARL_v2kt0jwj38","55ae64defdf99b3f864653e7","fixation","img/fixation.png","null","","test","","","","","",""
"288","246242","pSARL_v2","pSARL_v2kt0jwj38","55ae64defdf99b3f864653e7","freq","img/orange_2bandit_b2.png","70","70","test","1","66","66","3","",""
"null","246766","pSARL_v2","pSARL_v2kt0jwj38","55ae64defdf99b3f864653e7","freq_resp","img/orange_2bandit_b.png","70","70","test","","","","3","",""
"null","246925","pSARL_v2","pSARL_v2kt0jwj38","55ae64defdf99b3f864653e7","fixation","img/fixation.png","null","","test","","","","","",""
"477","247405","pSARL_v2","pSARL_v2kt0jwj38","55ae64defdf99b3f864653e7","reward","img/slot.png","74","","test","","","","","",""
"null","248174","pSARL_v2","pSARL_v2kt0jwj38","55ae64defdf99b3f864653e7","points","<div class=""verylowPoints""> -7 </div>","null","na","test","","","","3","-7","2"
"355","248532","pSARL_v2","pSARL_v2kt0jwj38","55ae64defdf99b3f864653e7","freq","img/orange_2bandit_b2.png","70","70","test","1","67","67","4","",""
"null","248989","pSARL_v2","pSARL_v2kt0jwj38","55ae64defdf99b3f864653e7","freq_resp","img/orange_2bandit_b.png","70","70","test","","","","4","",""
"null","249148","pSARL_v2","pSARL_v2kt0jwj38","55ae64defdf99b3f864653e7","fixation","img/fixation.png","null","","test","","","","","",""
"291","249443","pSARL_v2","pSARL_v2kt0jwj38","55ae64defdf99b3f864653e7","freq","img/orange_2bandit_b2.png","70","70","test","1","68","68","4","",""
"null","249966","pSARL_v2","pSARL_v2kt0jwj38","55ae64defdf99b3f864653e7","freq_resp","img/orange_2bandit_b.png","70","70","test","","","","4","",""
"null","250123","pSARL_v2","pSARL_v2kt0jwj38","55ae64defdf99b3f864653e7","fixation","img/fixation.png","null","","test","","","","","",""
"262","250388","pSARL_v2","pSARL_v2kt0jwj38","55ae64defdf99b3f864653e7","freq","img/orange_2bandit_b2.png","70","70","test","1","69","69","4","",""
"null","250938","pSARL_v2","pSARL_v2kt0jwj38","55ae64defdf99b3f864653e7","freq_resp","img/orange_2bandit_b.png","70","70","test","","","","4","",""
"null","251097","pSARL_v2","pSARL_v2kt0jwj38","55ae64defdf99b3f864653e7","fixation","img/fixation.png","null","","test","","","","","",""
"246","251344","pSARL_v2","pSARL_v2kt0jwj38","55ae64defdf99b3f864653e7","freq","img/orange_2bandit_b2.png","70","70","test","1","70","70","4","",""
"null","251914","pSARL_v2","pSARL_v2kt0jwj38","55ae64defdf99b3f864653e7","freq_resp","img/orange_2bandit_b.png","70","70","test","","","","4","",""
"null","252073","pSARL_v2","pSARL_v2kt0jwj38","55ae64defdf99b3f864653e7","fixation","img/fixation.png","null","","test","","","","","",""
"307","252383","pSARL_v2","pSARL_v2kt0jwj38","55ae64defdf99b3f864653e7","freq","img/orange_2bandit_b2.png","70","70","test","1","71","71","4","",""
"null","252890","pSARL_v2","pSARL_v2kt0jwj38","55ae64defdf99b3f864653e7","freq_resp","img/orange_2bandit_b.png","70","70","test","","","","4","",""
"null","253051","pSARL_v2","pSARL_v2kt0jwj38","55ae64defdf99b3f864653e7","fixation","img/fixation.png","null","","test","","","","","",""
"348","253401","pSARL_v2","pSARL_v2kt0jwj38","55ae64defdf99b3f864653e7","freq","img/orange_2bandit_b2.png","70","70","test","1","72","72","4","",""
"null","253866","pSARL_v2","pSARL_v2kt0jwj38","55ae64defdf99b3f864653e7","freq_resp","img/orange_2bandit_b.png","70","70","test","","","","4","",""
"null","254025","pSARL_v2","pSARL_v2kt0jwj38","55ae64defdf99b3f864653e7","fixation","img/fixation.png","null","","test","","","","","",""
"275","254303","pSARL_v2","pSARL_v2kt0jwj38","55ae64defdf99b3f864653e7","freq","img/orange_2bandit_b2.png","70","70","test","1","73","73","4","",""
"null","254841","pSARL_v2","pSARL_v2kt0jwj38","55ae64defdf99b3f864653e7","freq_resp","img/orange_2bandit_b.png","70","70","test","","","","4","",""
"null","255000","pSARL_v2","pSARL_v2kt0jwj38","55ae64defdf99b3f864653e7","fixation","img/fixation.png","null","","test","","","","","",""
"299","255303","pSARL_v2","pSARL_v2kt0jwj38","55ae64defdf99b3f864653e7","freq","img/orange_2bandit_b2.png","70","70","test","1","74","74","4","",""
"null","255816","pSARL_v2","pSARL_v2kt0jwj38","55ae64defdf99b3f864653e7","freq_resp","img/orange_2bandit_b.png","70","70","test","","","","4","",""
"null","255975","pSARL_v2","pSARL_v2kt0jwj38","55ae64defdf99b3f864653e7","fixation","img/fixation.png","null","","test","","","","","",""
"463","256441","pSARL_v2","pSARL_v2kt0jwj38","55ae64defdf99b3f864653e7","freq","img/orange_2bandit_b2.png","70","70","test","1","75","75","4","",""
"null","256790","pSARL_v2","pSARL_v2kt0jwj38","55ae64defdf99b3f864653e7","freq_resp","img/orange_2bandit_b.png","70","70","test","","","","4","",""
"null","256950","pSARL_v2","pSARL_v2kt0jwj38","55ae64defdf99b3f864653e7","fixation","img/fixation.png","null","","test","","","","","",""
"343","257295","pSARL_v2","pSARL_v2kt0jwj38","55ae64defdf99b3f864653e7","infreq","img/green_2bandit_b2.png","68","68","test","1","76","76","4","",""
"null","257767","pSARL_v2","pSARL_v2kt0jwj38","55ae64defdf99b3f864653e7","infreq_resp","img/green_2bandit_b.png","68","68","test","","","","4","",""
"null","257927","pSARL_v2","pSARL_v2kt0jwj38","55ae64defdf99b3f864653e7","fixation","img/fixation.png","null","","test","","","","","",""
"295","258225","pSARL_v2","pSARL_v2kt0jwj38","55ae64defdf99b3f864653e7","freq","img/orange_2bandit_b2.png","70","70","test","1","77","77","4","",""
"null","258742","pSARL_v2","pSARL_v2kt0jwj38","55ae64defdf99b3f864653e7","freq_resp","img/orange_2bandit_b.png","70","70","test","","","","4","",""
"null","258901","pSARL_v2","pSARL_v2kt0jwj38","55ae64defdf99b3f864653e7","fixation","img/fixation.png","null","","test","","","","","",""
"627","259531","pSARL_v2","pSARL_v2kt0jwj38","55ae64defdf99b3f864653e7","infreq","img/green_2bandit_b2.png","68","68","test","1","78","78","4","",""
"null","259718","pSARL_v2","pSARL_v2kt0jwj38","55ae64defdf99b3f864653e7","infreq_resp","img/green_2bandit_b.png","68","68","test","","","","4","",""
"null","259878","pSARL_v2","pSARL_v2kt0jwj38","55ae64defdf99b3f864653e7","fixation","img/fixation.png","null","","test","","","","","",""
"406","260289","pSARL_v2","pSARL_v2kt0jwj38","55ae64defdf99b3f864653e7","freq","img/orange_2bandit_b2.png","70","70","test","1","79","79","4","",""
"null","260693","pSARL_v2","pSARL_v2kt0jwj38","55ae64defdf99b3f864653e7","freq_resp","img/orange_2bandit_b.png","70","70","test","","","","4","",""
"null","260852","pSARL_v2","pSARL_v2kt0jwj38","55ae64defdf99b3f864653e7","fixation","img/fixation.png","null","","test","","","","","",""
"296","261153","pSARL_v2","pSARL_v2kt0jwj38","55ae64defdf99b3f864653e7","freq","img/orange_2bandit_b2.png","70","70","test","1","80","80","4","",""
"null","261669","pSARL_v2","pSARL_v2kt0jwj38","55ae64defdf99b3f864653e7","freq_resp","img/orange_2bandit_b.png","70","70","test","","","","4","",""
"null","261829","pSARL_v2","pSARL_v2kt0jwj38","55ae64defdf99b3f864653e7","fixation","img/fixation.png","null","","test","","","","","",""
"278","262110","pSARL_v2","pSARL_v2kt0jwj38","55ae64defdf99b3f864653e7","freq","img/orange_2bandit_b2.png","70","70","test","1","81","81","4","",""
"null","262645","pSARL_v2","pSARL_v2kt0jwj38","55ae64defdf99b3f864653e7","freq_resp","img/orange_2bandit_b.png","70","70","test","","","","4","",""
"null","262805","pSARL_v2","pSARL_v2kt0jwj38","55ae64defdf99b3f864653e7","fixation","img/fixation.png","null","","test","","","","","",""
"257","263065","pSARL_v2","pSARL_v2kt0jwj38","55ae64defdf99b3f864653e7","freq","img/orange_2bandit_b2.png","70","70","test","1","82","82","4","",""
"null","263618","pSARL_v2","pSARL_v2kt0jwj38","55ae64defdf99b3f864653e7","freq_resp","img/orange_2bandit_b.png","70","70","test","","","","4","",""
"null","263778","pSARL_v2","pSARL_v2kt0jwj38","55ae64defdf99b3f864653e7","fixation","img/fixation.png","null","","test","","","","","",""
"284","264064","pSARL_v2","pSARL_v2kt0jwj38","55ae64defdf99b3f864653e7","freq","img/orange_2bandit_b2.png","70","70","test","1","83","83","4","",""
"null","264595","pSARL_v2","pSARL_v2kt0jwj38","55ae64defdf99b3f864653e7","freq_resp","img/orange_2bandit_b.png","70","70","test","","","","4","",""
"null","264753","pSARL_v2","pSARL_v2kt0jwj38","55ae64defdf99b3f864653e7","fixation","img/fixation.png","null","","test","","","","","",""
"254","265010","pSARL_v2","pSARL_v2kt0jwj38","55ae64defdf99b3f864653e7","freq","img/orange_2bandit_b2.png","70","70","test","1","84","84","4","",""
"null","265570","pSARL_v2","pSARL_v2kt0jwj38","55ae64defdf99b3f864653e7","freq_resp","img/orange_2bandit_b.png","70","70","test","","","","4","",""
"null","265729","pSARL_v2","pSARL_v2kt0jwj38","55ae64defdf99b3f864653e7","fixation","img/fixation.png","null","","test","","","","","",""
"288","266020","pSARL_v2","pSARL_v2kt0jwj38","55ae64defdf99b3f864653e7","freq","img/orange_2bandit_b2.png","70","70","test","1","85","85","4","",""
"null","266547","pSARL_v2","pSARL_v2kt0jwj38","55ae64defdf99b3f864653e7","freq_resp","img/orange_2bandit_b.png","70","70","test","","","","4","",""
"null","266705","pSARL_v2","pSARL_v2kt0jwj38","55ae64defdf99b3f864653e7","fixation","img/fixation.png","null","","test","","","","","",""
"322","267032","pSARL_v2","pSARL_v2kt0jwj38","55ae64defdf99b3f864653e7","freq","img/orange_2bandit_b2.png","70","70","test","1","86","86","4","",""
"null","267520","pSARL_v2","pSARL_v2kt0jwj38","55ae64defdf99b3f864653e7","freq_resp","img/orange_2bandit_b.png","70","70","test","","","","4","",""
"null","267680","pSARL_v2","pSARL_v2kt0jwj38","55ae64defdf99b3f864653e7","fixation","img/fixation.png","null","","test","","","","","",""
"439","268122","pSARL_v2","pSARL_v2kt0jwj38","55ae64defdf99b3f864653e7","infreq","img/green_2bandit_b2.png","68","68","test","1","87","87","4","",""
"null","268495","pSARL_v2","pSARL_v2kt0jwj38","55ae64defdf99b3f864653e7","infreq_resp","img/green_2bandit_b.png","68","68","test","","","","4","",""
"null","268656","pSARL_v2","pSARL_v2kt0jwj38","55ae64defdf99b3f864653e7","fixation","img/fixation.png","null","","test","","","","","",""
"301","268960","pSARL_v2","pSARL_v2kt0jwj38","55ae64defdf99b3f864653e7","freq","img/orange_2bandit_b2.png","70","70","test","1","88","88","4","",""
"null","269470","pSARL_v2","pSARL_v2kt0jwj38","55ae64defdf99b3f864653e7","freq_resp","img/orange_2bandit_b.png","70","70","test","","","","4","",""
"null","269630","pSARL_v2","pSARL_v2kt0jwj38","55ae64defdf99b3f864653e7","fixation","img/fixation.png","null","","test","","","","","",""
"257","269889","pSARL_v2","pSARL_v2kt0jwj38","55ae64defdf99b3f864653e7","freq","img/orange_2bandit_b2.png","70","70","test","1","89","89","4","",""
"null","270444","pSARL_v2","pSARL_v2kt0jwj38","55ae64defdf99b3f864653e7","freq_resp","img/orange_2bandit_b.png","70","70","test","","","","4","",""
"null","270604","pSARL_v2","pSARL_v2kt0jwj38","55ae64defdf99b3f864653e7","fixation","img/fixation.png","null","","test","","","","","",""
"471","271078","pSARL_v2","pSARL_v2kt0jwj38","55ae64defdf99b3f864653e7","reward","img/slot.png","74","","test","","","","","",""
"null","271837","pSARL_v2","pSARL_v2kt0jwj38","55ae64defdf99b3f864653e7","points","<div class=""verylowPoints""> -3 </div>","null","na","test","","","","4","-3","3"
"608","272447","pSARL_v2","pSARL_v2kt0jwj38","55ae64defdf99b3f864653e7","freq","img/orange_2bandit_b2.png","70","70","test","1","90","90","5","",""
"null","272653","pSARL_v2","pSARL_v2kt0jwj38","55ae64defdf99b3f864653e7","freq_resp","img/orange_2bandit_b.png","70","70","test","","","","5","",""
"null","272813","pSARL_v2","pSARL_v2kt0jwj38","55ae64defdf99b3f864653e7","fixation","img/fixation.png","null","","test","","","","","",""
"614","273429","pSARL_v2","pSARL_v2kt0jwj38","55ae64defdf99b3f864653e7","freq","img/orange_2bandit_b2.png","70","70","test","1","91","91","5","",""
"null","273628","pSARL_v2","pSARL_v2kt0jwj38","55ae64defdf99b3f864653e7","freq_resp","img/orange_2bandit_b.png","70","70","test","","","","5","",""
"null","273788","pSARL_v2","pSARL_v2kt0jwj38","55ae64defdf99b3f864653e7","fixation","img/fixation.png","null","","test","","","","","",""
"504","274296","pSARL_v2","pSARL_v2kt0jwj38","55ae64defdf99b3f864653e7","freq","img/orange_2bandit_b2.png","70","70","test","1","92","92","5","",""
"null","274601","pSARL_v2","pSARL_v2kt0jwj38","55ae64defdf99b3f864653e7","freq_resp","img/orange_2bandit_b.png","70","70","test","","","","5","",""
"null","274761","pSARL_v2","pSARL_v2kt0jwj38","55ae64defdf99b3f864653e7","fixation","img/fixation.png","null","","test","","","","","",""
"406","275169","pSARL_v2","pSARL_v2kt0jwj38","55ae64defdf99b3f864653e7","freq","img/orange_2bandit_b2.png","70","70","test","1","93","93","5","",""
"null","275578","pSARL_v2","pSARL_v2kt0jwj38","55ae64defdf99b3f864653e7","freq_resp","img/orange_2bandit_b.png","70","70","test","","","","5","",""
"null","275738","pSARL_v2","pSARL_v2kt0jwj38","55ae64defdf99b3f864653e7","fixation","img/fixation.png","null","","test","","","","","",""
"348","276088","pSARL_v2","pSARL_v2kt0jwj38","55ae64defdf99b3f864653e7","freq","img/orange_2bandit_b2.png","70","70","test","1","94","94","5","",""
"null","276552","pSARL_v2","pSARL_v2kt0jwj38","55ae64defdf99b3f864653e7","freq_resp","img/orange_2bandit_b.png","70","70","test","","","","5","",""
"null","276711","pSARL_v2","pSARL_v2kt0jwj38","55ae64defdf99b3f864653e7","fixation","img/fixation.png","null","","test","","","","","",""
"293","277007","pSARL_v2","pSARL_v2kt0jwj38","55ae64defdf99b3f864653e7","freq","img/orange_2bandit_b2.png","70","70","test","1","95","95","5","",""
"null","277528","pSARL_v2","pSARL_v2kt0jwj38","55ae64defdf99b3f864653e7","freq_resp","img/orange_2bandit_b.png","70","70","test","","","","5","",""
"null","277687","pSARL_v2","pSARL_v2kt0jwj38","55ae64defdf99b3f864653e7","fixation","img/fixation.png","null","","test","","","","","",""
"211","277901","pSARL_v2","pSARL_v2kt0jwj38","55ae64defdf99b3f864653e7","freq","img/orange_2bandit_b2.png","70","70","test","1","96","96","5","",""
"null","278504","pSARL_v2","pSARL_v2kt0jwj38","55ae64defdf99b3f864653e7","freq_resp","img/orange_2bandit_b.png","70","70","test","","","","5","",""
"null","278664","pSARL_v2","pSARL_v2kt0jwj38","55ae64defdf99b3f864653e7","fixation","img/fixation.png","null","","test","","","","","",""
"161","278830","pSARL_v2","pSARL_v2kt0jwj38","55ae64defdf99b3f864653e7","freq","img/orange_2bandit_b2.png","70","70","test","1","97","97","5","",""
"null","279479","pSARL_v2","pSARL_v2kt0jwj38","55ae64defdf99b3f864653e7","freq_resp","img/orange_2bandit_b.png","70","70","test","","","","5","",""
"null","279638","pSARL_v2","pSARL_v2kt0jwj38","55ae64defdf99b3f864653e7","fixation","img/fixation.png","null","","test","","","","","",""
"139","279781","pSARL_v2","pSARL_v2kt0jwj38","55ae64defdf99b3f864653e7","freq","img/orange_2bandit_b2.png","70","70","test","1","98","98","5","",""
"null","280455","pSARL_v2","pSARL_v2kt0jwj38","55ae64defdf99b3f864653e7","freq_resp","img/orange_2bandit_b.png","70","70","test","","","","5","",""
"null","280615","pSARL_v2","pSARL_v2kt0jwj38","55ae64defdf99b3f864653e7","fixation","img/fixation.png","null","","test","","","","","",""
"276","280894","pSARL_v2","pSARL_v2kt0jwj38","55ae64defdf99b3f864653e7","freq","img/orange_2bandit_b2.png","70","70","test","1","99","99","5","",""
"null","281432","pSARL_v2","pSARL_v2kt0jwj38","55ae64defdf99b3f864653e7","freq_resp","img/orange_2bandit_b.png","70","70","test","","","","5","",""
"null","281591","pSARL_v2","pSARL_v2kt0jwj38","55ae64defdf99b3f864653e7","fixation","img/fixation.png","null","","test","","","","","",""
"320","281914","pSARL_v2","pSARL_v2kt0jwj38","55ae64defdf99b3f864653e7","freq","img/orange_2bandit_b2.png","70","70","test","1","100","100","5","",""
"null","282405","pSARL_v2","pSARL_v2kt0jwj38","55ae64defdf99b3f864653e7","freq_resp","img/orange_2bandit_b.png","70","70","test","","","","5","",""
"null","282564","pSARL_v2","pSARL_v2kt0jwj38","55ae64defdf99b3f864653e7","fixation","img/fixation.png","null","","test","","","","","",""
"291","282858","pSARL_v2","pSARL_v2kt0jwj38","55ae64defdf99b3f864653e7","freq","img/orange_2bandit_b2.png","70","70","test","1","101","101","5","",""
"null","283379","pSARL_v2","pSARL_v2kt0jwj38","55ae64defdf99b3f864653e7","freq_resp","img/orange_2bandit_b.png","70","70","test","","","","5","",""
"null","283537","pSARL_v2","pSARL_v2kt0jwj38","55ae64defdf99b3f864653e7","fixation","img/fixation.png","null","","test","","","","","",""
"437","283977","pSARL_v2","pSARL_v2kt0jwj38","55ae64defdf99b3f864653e7","infreq","img/green_2bandit_b2.png","68","68","test","1","102","102","5","",""
"null","284355","pSARL_v2","pSARL_v2kt0jwj38","55ae64defdf99b3f864653e7","infreq_resp","img/green_2bandit_b.png","68","68","test","","","","5","",""
"null","284514","pSARL_v2","pSARL_v2kt0jwj38","55ae64defdf99b3f864653e7","fixation","img/fixation.png","null","","test","","","","","",""
"343","284860","pSARL_v2","pSARL_v2kt0jwj38","55ae64defdf99b3f864653e7","freq","img/orange_2bandit_b2.png","70","70","test","1","103","103","5","",""
"null","285328","pSARL_v2","pSARL_v2kt0jwj38","55ae64defdf99b3f864653e7","freq_resp","img/orange_2bandit_b.png","70","70","test","","","","5","",""
"null","285487","pSARL_v2","pSARL_v2kt0jwj38","55ae64defdf99b3f864653e7","fixation","img/fixation.png","null","","test","","","","","",""
"299","285788","pSARL_v2","pSARL_v2kt0jwj38","55ae64defdf99b3f864653e7","freq","img/orange_2bandit_b2.png","70","70","test","1","104","104","5","",""
"null","286304","pSARL_v2","pSARL_v2kt0jwj38","55ae64defdf99b3f864653e7","freq_resp","img/orange_2bandit_b.png","70","70","test","","","","5","",""
"null","286463","pSARL_v2","pSARL_v2kt0jwj38","55ae64defdf99b3f864653e7","fixation","img/fixation.png","null","","test","","","","","",""
"304","286770","pSARL_v2","pSARL_v2kt0jwj38","55ae64defdf99b3f864653e7","freq","img/orange_2bandit_b2.png","70","70","test","1","105","105","5","",""
"null","287278","pSARL_v2","pSARL_v2kt0jwj38","55ae64defdf99b3f864653e7","freq_resp","img/orange_2bandit_b.png","70","70","test","","","","5","",""
"null","287438","pSARL_v2","pSARL_v2kt0jwj38","55ae64defdf99b3f864653e7","fixation","img/fixation.png","null","","test","","","","","",""
"241","287682","pSARL_v2","pSARL_v2kt0jwj38","55ae64defdf99b3f864653e7","freq","img/orange_2bandit_b2.png","70","70","test","1","106","106","5","",""
"null","288254","pSARL_v2","pSARL_v2kt0jwj38","55ae64defdf99b3f864653e7","freq_resp","img/orange_2bandit_b.png","70","70","test","","","","5","",""
"null","288414","pSARL_v2","pSARL_v2kt0jwj38","55ae64defdf99b3f864653e7","fixation","img/fixation.png","null","","test","","","","","",""
"228","288646","pSARL_v2","pSARL_v2kt0jwj38","55ae64defdf99b3f864653e7","freq","img/orange_2bandit_b2.png","70","70","test","1","107","107","5","",""
"null","289231","pSARL_v2","pSARL_v2kt0jwj38","55ae64defdf99b3f864653e7","freq_resp","img/orange_2bandit_b.png","70","70","test","","","","5","",""
"null","289390","pSARL_v2","pSARL_v2kt0jwj38","55ae64defdf99b3f864653e7","fixation","img/fixation.png","null","","test","","","","","",""
"188","289582","pSARL_v2","pSARL_v2kt0jwj38","55ae64defdf99b3f864653e7","freq","img/orange_2bandit_b2.png","70","70","test","1","108","108","5","",""
"null","290206","pSARL_v2","pSARL_v2kt0jwj38","55ae64defdf99b3f864653e7","freq_resp","img/orange_2bandit_b.png","70","70","test","","","","5","",""
"null","290365","pSARL_v2","pSARL_v2kt0jwj38","55ae64defdf99b3f864653e7","fixation","img/fixation.png","null","","test","","","","","",""
"205","290574","pSARL_v2","pSARL_v2kt0jwj38","55ae64defdf99b3f864653e7","freq","img/orange_2bandit_b2.png","70","70","test","1","109","109","5","",""
"null","291182","pSARL_v2","pSARL_v2kt0jwj38","55ae64defdf99b3f864653e7","freq_resp","img/orange_2bandit_b.png","70","70","test","","","","5","",""
"null","291341","pSARL_v2","pSARL_v2kt0jwj38","55ae64defdf99b3f864653e7","fixation","img/fixation.png","null","","test","","","","","",""
"320","291664","pSARL_v2","pSARL_v2kt0jwj38","55ae64defdf99b3f864653e7","freq","img/orange_2bandit_b2.png","70","70","test","1","110","110","5","",""
"null","292158","pSARL_v2","pSARL_v2kt0jwj38","55ae64defdf99b3f864653e7","freq_resp","img/orange_2bandit_b.png","70","70","test","","","","5","",""
"null","292317","pSARL_v2","pSARL_v2kt0jwj38","55ae64defdf99b3f864653e7","fixation","img/fixation.png","null","","test","","","","","",""
"300","292621","pSARL_v2","pSARL_v2kt0jwj38","55ae64defdf99b3f864653e7","freq","img/orange_2bandit_b2.png","70","70","test","1","111","111","5","",""
"null","293134","pSARL_v2","pSARL_v2kt0jwj38","55ae64defdf99b3f864653e7","freq_resp","img/orange_2bandit_b.png","70","70","test","","","","5","",""
"null","293294","pSARL_v2","pSARL_v2kt0jwj38","55ae64defdf99b3f864653e7","fixation","img/fixation.png","null","","test","","","","","",""
"243","293539","pSARL_v2","pSARL_v2kt0jwj38","55ae64defdf99b3f864653e7","freq","img/orange_2bandit_b2.png","70","70","test","1","112","112","5","",""
"null","294109","pSARL_v2","pSARL_v2kt0jwj38","55ae64defdf99b3f864653e7","freq_resp","img/orange_2bandit_b.png","70","70","test","","","","5","",""
"null","294268","pSARL_v2","pSARL_v2kt0jwj38","55ae64defdf99b3f864653e7","fixation","img/fixation.png","null","","test","","","","","",""
"269","294540","pSARL_v2","pSARL_v2kt0jwj38","55ae64defdf99b3f864653e7","infreq","img/green_2bandit_b2.png","70","68","test","0","113","113","5","",""
"null","295083","pSARL_v2","pSARL_v2kt0jwj38","55ae64defdf99b3f864653e7","infreq_resp","img/green_2bandit_b.png","70","68","test","","","","5","",""
"null","295243","pSARL_v2","pSARL_v2kt0jwj38","55ae64defdf99b3f864653e7","fixation","img/fixation.png","null","","test","","","","","",""
"484","295731","pSARL_v2","pSARL_v2kt0jwj38","55ae64defdf99b3f864653e7","freq","img/orange_2bandit_b2.png","70","70","test","1","114","114","5","",""
"null","296060","pSARL_v2","pSARL_v2kt0jwj38","55ae64defdf99b3f864653e7","freq_resp","img/orange_2bandit_b.png","70","70","test","","","","5","",""
"null","296221","pSARL_v2","pSARL_v2kt0jwj38","55ae64defdf99b3f864653e7","fixation","img/fixation.png","null","","test","","","","","",""
"453","296677","pSARL_v2","pSARL_v2kt0jwj38","55ae64defdf99b3f864653e7","reward","img/slot.png","74","","test","","","","","",""
"null","297436","pSARL_v2","pSARL_v2kt0jwj38","55ae64defdf99b3f864653e7","points","<div class=""veryhighPoints""> +1 </div>","null","na","test","","","","5","1","4"
"544","297983","pSARL_v2","pSARL_v2kt0jwj38","55ae64defdf99b3f864653e7","freq","img/orange_2bandit_b2.png","70","70","test","1","115","115","6","",""
"null","298252","pSARL_v2","pSARL_v2kt0jwj38","55ae64defdf99b3f864653e7","freq_resp","img/orange_2bandit_b.png","70","70","test","","","","6","",""
"null","298410","pSARL_v2","pSARL_v2kt0jwj38","55ae64defdf99b3f864653e7","fixation","img/fixation.png","null","","test","","","","","",""
"545","298957","pSARL_v2","pSARL_v2kt0jwj38","55ae64defdf99b3f864653e7","infreq","img/green_2bandit_b2.png","68","68","test","1","116","116","6","",""
"null","299225","pSARL_v2","pSARL_v2kt0jwj38","55ae64defdf99b3f864653e7","infreq_resp","img/green_2bandit_b.png","68","68","test","","","","6","",""
"null","299385","pSARL_v2","pSARL_v2kt0jwj38","55ae64defdf99b3f864653e7","fixation","img/fixation.png","null","","test","","","","","",""
"389","299777","pSARL_v2","pSARL_v2kt0jwj38","55ae64defdf99b3f864653e7","freq","img/orange_2bandit_b2.png","70","70","test","1","117","117","6","",""
"null","300202","pSARL_v2","pSARL_v2kt0jwj38","55ae64defdf99b3f864653e7","freq_resp","img/orange_2bandit_b.png","70","70","test","","","","6","",""
"null","300362","pSARL_v2","pSARL_v2kt0jwj38","55ae64defdf99b3f864653e7","fixation","img/fixation.png","null","","test","","","","","",""
"286","300651","pSARL_v2","pSARL_v2kt0jwj38","55ae64defdf99b3f864653e7","freq","img/orange_2bandit_b2.png","70","70","test","1","118","118","6","",""
"null","301195","pSARL_v2","pSARL_v2kt0jwj38","55ae64defdf99b3f864653e7","freq_resp","img/orange_2bandit_b.png","70","70","test","","","","6","",""
"null","301354","pSARL_v2","pSARL_v2kt0jwj38","55ae64defdf99b3f864653e7","fixation","img/fixation.png","null","","test","","","","","",""
"285","301643","pSARL_v2","pSARL_v2kt0jwj38","55ae64defdf99b3f864653e7","freq","img/orange_2bandit_b2.png","70","70","test","1","119","119","6","",""
"null","302170","pSARL_v2","pSARL_v2kt0jwj38","55ae64defdf99b3f864653e7","freq_resp","img/orange_2bandit_b.png","70","70","test","","","","6","",""
"null","302330","pSARL_v2","pSARL_v2kt0jwj38","55ae64defdf99b3f864653e7","fixation","img/fixation.png","null","","test","","","","","",""
"301","302632","pSARL_v2","pSARL_v2kt0jwj38","55ae64defdf99b3f864653e7","freq","img/orange_2bandit_b2.png","70","70","test","1","120","120","6","",""
"null","303146","pSARL_v2","pSARL_v2kt0jwj38","55ae64defdf99b3f864653e7","freq_resp","img/orange_2bandit_b.png","70","70","test","","","","6","",""
"null","303304","pSARL_v2","pSARL_v2kt0jwj38","55ae64defdf99b3f864653e7","fixation","img/fixation.png","null","","test","","","","","",""
"282","303588","pSARL_v2","pSARL_v2kt0jwj38","55ae64defdf99b3f864653e7","freq","img/orange_2bandit_b2.png","70","70","test","1","121","121","6","",""
"null","304120","pSARL_v2","pSARL_v2kt0jwj38","55ae64defdf99b3f864653e7","freq_resp","img/orange_2bandit_b.png","70","70","test","","","","6","",""
"null","304280","pSARL_v2","pSARL_v2kt0jwj38","55ae64defdf99b3f864653e7","fixation","img/fixation.png","null","","test","","","","","",""
"296","304581","pSARL_v2","pSARL_v2kt0jwj38","55ae64defdf99b3f864653e7","freq","img/orange_2bandit_b2.png","70","70","test","1","122","122","6","",""
"null","305097","pSARL_v2","pSARL_v2kt0jwj38","55ae64defdf99b3f864653e7","freq_resp","img/orange_2bandit_b.png","70","70","test","","","","6","",""
"null","305256","pSARL_v2","pSARL_v2kt0jwj38","55ae64defdf99b3f864653e7","fixation","img/fixation.png","null","","test","","","","","",""
"304","305563","pSARL_v2","pSARL_v2kt0jwj38","55ae64defdf99b3f864653e7","freq","img/orange_2bandit_b2.png","70","70","test","1","123","123","6","",""
"null","306071","pSARL_v2","pSARL_v2kt0jwj38","55ae64defdf99b3f864653e7","freq_resp","img/orange_2bandit_b.png","70","70","test","","","","6","",""
"null","306230","pSARL_v2","pSARL_v2kt0jwj38","55ae64defdf99b3f864653e7","fixation","img/fixation.png","null","","test","","","","","",""
"312","306545","pSARL_v2","pSARL_v2kt0jwj38","55ae64defdf99b3f864653e7","freq","img/orange_2bandit_b2.png","70","70","test","1","124","124","6","",""
"null","307047","pSARL_v2","pSARL_v2kt0jwj38","55ae64defdf99b3f864653e7","freq_resp","img/orange_2bandit_b.png","70","70","test","","","","6","",""
"null","307206","pSARL_v2","pSARL_v2kt0jwj38","55ae64defdf99b3f864653e7","fixation","img/fixation.png","null","","test","","","","","",""
"417","307626","pSARL_v2","pSARL_v2kt0jwj38","55ae64defdf99b3f864653e7","infreq","img/green_2bandit_b2.png","68","68","test","1","125","125","6","",""
"null","308023","pSARL_v2","pSARL_v2kt0jwj38","55ae64defdf99b3f864653e7","infreq_resp","img/green_2bandit_b.png","68","68","test","","","","6","",""
"null","308182","pSARL_v2","pSARL_v2kt0jwj38","55ae64defdf99b3f864653e7","fixation","img/fixation.png","null","","test","","","","","",""
"289","308473","pSARL_v2","pSARL_v2kt0jwj38","55ae64defdf99b3f864653e7","freq","img/orange_2bandit_b2.png","70","70","test","1","126","126","6","",""
"null","308997","pSARL_v2","pSARL_v2kt0jwj38","55ae64defdf99b3f864653e7","freq_resp","img/orange_2bandit_b.png","70","70","test","","","","6","",""
"null","309157","pSARL_v2","pSARL_v2kt0jwj38","55ae64defdf99b3f864653e7","fixation","img/fixation.png","null","","test","","","","","",""
"214","309375","pSARL_v2","pSARL_v2kt0jwj38","55ae64defdf99b3f864653e7","infreq","img/green_2bandit_b2.png","70","68","test","0","127","127","6","",""
"null","309973","pSARL_v2","pSARL_v2kt0jwj38","55ae64defdf99b3f864653e7","infreq_resp","img/green_2bandit_b.png","70","68","test","","","","6","",""
"null","310133","pSARL_v2","pSARL_v2kt0jwj38","55ae64defdf99b3f864653e7","fixation","img/fixation.png","null","","test","","","","","",""
"294","310430","pSARL_v2","pSARL_v2kt0jwj38","55ae64defdf99b3f864653e7","freq","img/orange_2bandit_b2.png","70","70","test","1","128","128","6","",""
"null","310949","pSARL_v2","pSARL_v2kt0jwj38","55ae64defdf99b3f864653e7","freq_resp","img/orange_2bandit_b.png","70","70","test","","","","6","",""
"null","311108","pSARL_v2","pSARL_v2kt0jwj38","55ae64defdf99b3f864653e7","fixation","img/fixation.png","null","","test","","","","","",""
"300","311412","pSARL_v2","pSARL_v2kt0jwj38","55ae64defdf99b3f864653e7","freq","img/orange_2bandit_b2.png","70","70","test","1","129","129","6","",""
"null","311925","pSARL_v2","pSARL_v2kt0jwj38","55ae64defdf99b3f864653e7","freq_resp","img/orange_2bandit_b.png","70","70","test","","","","6","",""
"null","312085","pSARL_v2","pSARL_v2kt0jwj38","55ae64defdf99b3f864653e7","fixation","img/fixation.png","null","","test","","","","","",""
"360","312450","pSARL_v2","pSARL_v2kt0jwj38","55ae64defdf99b3f864653e7","freq","img/orange_2bandit_b2.png","70","70","test","1","130","130","6","",""
"null","312899","pSARL_v2","pSARL_v2kt0jwj38","55ae64defdf99b3f864653e7","freq_resp","img/orange_2bandit_b.png","70","70","test","","","","6","",""
"null","313058","pSARL_v2","pSARL_v2kt0jwj38","55ae64defdf99b3f864653e7","fixation","img/fixation.png","null","","test","","","","","",""
"334","313395","pSARL_v2","pSARL_v2kt0jwj38","55ae64defdf99b3f864653e7","freq","img/orange_2bandit_b2.png","70","70","test","1","131","131","6","",""
"null","313874","pSARL_v2","pSARL_v2kt0jwj38","55ae64defdf99b3f864653e7","freq_resp","img/orange_2bandit_b.png","70","70","test","","","","6","",""
"null","314033","pSARL_v2","pSARL_v2kt0jwj38","55ae64defdf99b3f864653e7","fixation","img/fixation.png","null","","test","","","","","",""
"314","314351","pSARL_v2","pSARL_v2kt0jwj38","55ae64defdf99b3f864653e7","freq","img/orange_2bandit_b2.png","70","70","test","1","132","132","6","",""
"null","314848","pSARL_v2","pSARL_v2kt0jwj38","55ae64defdf99b3f864653e7","freq_resp","img/orange_2bandit_b.png","70","70","test","","","","6","",""
"null","315008","pSARL_v2","pSARL_v2kt0jwj38","55ae64defdf99b3f864653e7","fixation","img/fixation.png","null","","test","","","","","",""
"297","315308","pSARL_v2","pSARL_v2kt0jwj38","55ae64defdf99b3f864653e7","freq","img/orange_2bandit_b2.png","70","70","test","1","133","133","6","",""
"null","315824","pSARL_v2","pSARL_v2kt0jwj38","55ae64defdf99b3f864653e7","freq_resp","img/orange_2bandit_b.png","70","70","test","","","","6","",""
"null","315984","pSARL_v2","pSARL_v2kt0jwj38","55ae64defdf99b3f864653e7","fixation","img/fixation.png","null","","test","","","","","",""
"329","316316","pSARL_v2","pSARL_v2kt0jwj38","55ae64defdf99b3f864653e7","freq","img/orange_2bandit_b2.png","70","70","test","1","134","134","6","",""
"null","316800","pSARL_v2","pSARL_v2kt0jwj38","55ae64defdf99b3f864653e7","freq_resp","img/orange_2bandit_b.png","70","70","test","","","","6","",""
"null","316958","pSARL_v2","pSARL_v2kt0jwj38","55ae64defdf99b3f864653e7","fixation","img/fixation.png","null","","test","","","","","",""
"336","317299","pSARL_v2","pSARL_v2kt0jwj38","55ae64defdf99b3f864653e7","freq","img/orange_2bandit_b2.png","70","70","test","1","135","135","6","",""
"null","317774","pSARL_v2","pSARL_v2kt0jwj38","55ae64defdf99b3f864653e7","freq_resp","img/orange_2bandit_b.png","70","70","test","","","","6","",""
"null","317933","pSARL_v2","pSARL_v2kt0jwj38","55ae64defdf99b3f864653e7","fixation","img/fixation.png","null","","test","","","","","",""
"336","318273","pSARL_v2","pSARL_v2kt0jwj38","55ae64defdf99b3f864653e7","freq","img/orange_2bandit_b2.png","70","70","test","1","136","136","6","",""
"null","318747","pSARL_v2","pSARL_v2kt0jwj38","55ae64defdf99b3f864653e7","freq_resp","img/orange_2bandit_b.png","70","70","test","","","","6","",""
"null","318907","pSARL_v2","pSARL_v2kt0jwj38","55ae64defdf99b3f864653e7","fixation","img/fixation.png","null","","test","","","","","",""
"318","319230","pSARL_v2","pSARL_v2kt0jwj38","55ae64defdf99b3f864653e7","freq","img/orange_2bandit_b2.png","70","70","test","1","137","137","6","",""
"null","319721","pSARL_v2","pSARL_v2kt0jwj38","55ae64defdf99b3f864653e7","freq_resp","img/orange_2bandit_b.png","70","70","test","","","","6","",""
"null","319881","pSARL_v2","pSARL_v2kt0jwj38","55ae64defdf99b3f864653e7","fixation","img/fixation.png","null","","test","","","","","",""
"327","320211","pSARL_v2","pSARL_v2kt0jwj38","55ae64defdf99b3f864653e7","freq","img/orange_2bandit_b2.png","70","70","test","1","138","138","6","",""
"null","320696","pSARL_v2","pSARL_v2kt0jwj38","55ae64defdf99b3f864653e7","freq_resp","img/orange_2bandit_b.png","70","70","test","","","","6","",""
"null","320856","pSARL_v2","pSARL_v2kt0jwj38","55ae64defdf99b3f864653e7","fixation","img/fixation.png","null","","test","","","","","",""
"506","321365","pSARL_v2","pSARL_v2kt0jwj38","55ae64defdf99b3f864653e7","reward","img/slot.png","74","","test","","","","","",""
"null","322121","pSARL_v2","pSARL_v2kt0jwj38","55ae64defdf99b3f864653e7","points","<div class=""verylowPoints""> -7 </div>","null","na","test","","","","6","-7","5"
"394","322519","pSARL_v2","pSARL_v2kt0jwj38","55ae64defdf99b3f864653e7","freq","img/orange_2bandit_b2.png","70","70","test","1","139","139","7","",""
"null","322936","pSARL_v2","pSARL_v2kt0jwj38","55ae64defdf99b3f864653e7","freq_resp","img/orange_2bandit_b.png","70","70","test","","","","7","",""
"null","323097","pSARL_v2","pSARL_v2kt0jwj38","55ae64defdf99b3f864653e7","fixation","img/fixation.png","null","","test","","","","","",""
"321","323421","pSARL_v2","pSARL_v2kt0jwj38","55ae64defdf99b3f864653e7","freq","img/orange_2bandit_b2.png","70","70","test","1","140","140","7","",""
"null","323912","pSARL_v2","pSARL_v2kt0jwj38","55ae64defdf99b3f864653e7","freq_resp","img/orange_2bandit_b.png","70","70","test","","","","7","",""
"null","324073","pSARL_v2","pSARL_v2kt0jwj38","55ae64defdf99b3f864653e7","fixation","img/fixation.png","null","","test","","","","","",""
"481","324556","pSARL_v2","pSARL_v2kt0jwj38","55ae64defdf99b3f864653e7","infreq","img/green_2bandit_b2.png","68","68","test","1","141","141","7","",""
"null","324888","pSARL_v2","pSARL_v2kt0jwj38","55ae64defdf99b3f864653e7","infreq_resp","img/green_2bandit_b.png","68","68","test","","","","7","",""
"null","325047","pSARL_v2","pSARL_v2kt0jwj38","55ae64defdf99b3f864653e7","fixation","img/fixation.png","null","","test","","","","","",""
"307","325359","pSARL_v2","pSARL_v2kt0jwj38","55ae64defdf99b3f864653e7","freq","img/orange_2bandit_b2.png","70","70","test","1","142","142","7","",""
"null","325864","pSARL_v2","pSARL_v2kt0jwj38","55ae64defdf99b3f864653e7","freq_resp","img/orange_2bandit_b.png","70","70","test","","","","7","",""
"null","326023","pSARL_v2","pSARL_v2kt0jwj38","55ae64defdf99b3f864653e7","fixation","img/fixation.png","null","","test","","","","","",""
"316","326341","pSARL_v2","pSARL_v2kt0jwj38","55ae64defdf99b3f864653e7","freq","img/orange_2bandit_b2.png","70","70","test","1","143","143","7","",""
"null","326837","pSARL_v2","pSARL_v2kt0jwj38","55ae64defdf99b3f864653e7","freq_resp","img/orange_2bandit_b.png","70","70","test","","","","7","",""
"null","326997","pSARL_v2","pSARL_v2kt0jwj38","55ae64defdf99b3f864653e7","fixation","img/fixation.png","null","","test","","","","","",""
"315","327316","pSARL_v2","pSARL_v2kt0jwj38","55ae64defdf99b3f864653e7","freq","img/orange_2bandit_b2.png","70","70","test","1","144","144","7","",""
"null","327813","pSARL_v2","pSARL_v2kt0jwj38","55ae64defdf99b3f864653e7","freq_resp","img/orange_2bandit_b.png","70","70","test","","","","7","",""
"null","327973","pSARL_v2","pSARL_v2kt0jwj38","55ae64defdf99b3f864653e7","fixation","img/fixation.png","null","","test","","","","","",""
"296","328272","pSARL_v2","pSARL_v2kt0jwj38","55ae64defdf99b3f864653e7","freq","img/orange_2bandit_b2.png","70","70","test","1","145","145","7","",""
"null","328788","pSARL_v2","pSARL_v2kt0jwj38","55ae64defdf99b3f864653e7","freq_resp","img/orange_2bandit_b.png","70","70","test","","","","7","",""
"null","328948","pSARL_v2","pSARL_v2kt0jwj38","55ae64defdf99b3f864653e7","fixation","img/fixation.png","null","","test","","","","","",""
"329","329280","pSARL_v2","pSARL_v2kt0jwj38","55ae64defdf99b3f864653e7","freq","img/orange_2bandit_b2.png","70","70","test","1","146","146","7","",""
"null","329764","pSARL_v2","pSARL_v2kt0jwj38","55ae64defdf99b3f864653e7","freq_resp","img/orange_2bandit_b.png","70","70","test","","","","7","",""
"null","329924","pSARL_v2","pSARL_v2kt0jwj38","55ae64defdf99b3f864653e7","fixation","img/fixation.png","null","","test","","","","","",""
"307","330235","pSARL_v2","pSARL_v2kt0jwj38","55ae64defdf99b3f864653e7","freq","img/orange_2bandit_b2.png","70","70","test","1","147","147","7","",""
"null","330740","pSARL_v2","pSARL_v2kt0jwj38","55ae64defdf99b3f864653e7","freq_resp","img/orange_2bandit_b.png","70","70","test","","","","7","",""
"null","330898","pSARL_v2","pSARL_v2kt0jwj38","55ae64defdf99b3f864653e7","fixation","img/fixation.png","null","","test","","","","","",""
"290","331192","pSARL_v2","pSARL_v2kt0jwj38","55ae64defdf99b3f864653e7","freq","img/orange_2bandit_b2.png","70","70","test","1","148","148","7","",""
"null","331714","pSARL_v2","pSARL_v2kt0jwj38","55ae64defdf99b3f864653e7","freq_resp","img/orange_2bandit_b.png","70","70","test","","","","7","",""
"null","331874","pSARL_v2","pSARL_v2kt0jwj38","55ae64defdf99b3f864653e7","fixation","img/fixation.png","null","","test","","","","","",""
"352","332228","pSARL_v2","pSARL_v2kt0jwj38","55ae64defdf99b3f864653e7","freq","img/orange_2bandit_b2.png","70","70","test","1","149","149","7","",""
"null","332690","pSARL_v2","pSARL_v2kt0jwj38","55ae64defdf99b3f864653e7","freq_resp","img/orange_2bandit_b.png","70","70","test","","","","7","",""
"null","332849","pSARL_v2","pSARL_v2kt0jwj38","55ae64defdf99b3f864653e7","fixation","img/fixation.png","null","","test","","","","","",""
"466","333318","pSARL_v2","pSARL_v2kt0jwj38","55ae64defdf99b3f864653e7","infreq","img/green_2bandit_b2.png","68","68","test","1","150","150","7","",""
"null","333665","pSARL_v2","pSARL_v2kt0jwj38","55ae64defdf99b3f864653e7","infreq_resp","img/green_2bandit_b.png","68","68","test","","","","7","",""
"null","333825","pSARL_v2","pSARL_v2kt0jwj38","55ae64defdf99b3f864653e7","fixation","img/fixation.png","null","","test","","","","","",""
"392","334221","pSARL_v2","pSARL_v2kt0jwj38","55ae64defdf99b3f864653e7","freq","img/orange_2bandit_b2.png","70","70","test","1","151","151","7","",""
"null","334639","pSARL_v2","pSARL_v2kt0jwj38","55ae64defdf99b3f864653e7","freq_resp","img/orange_2bandit_b.png","70","70","test","","","","7","",""
"null","334799","pSARL_v2","pSARL_v2kt0jwj38","55ae64defdf99b3f864653e7","fixation","img/fixation.png","null","","test","","","","","",""
"446","335248","pSARL_v2","pSARL_v2kt0jwj38","55ae64defdf99b3f864653e7","freq","img/orange_2bandit_b2.png","70","70","test","1","152","152","7","",""
"null","335615","pSARL_v2","pSARL_v2kt0jwj38","55ae64defdf99b3f864653e7","freq_resp","img/orange_2bandit_b.png","70","70","test","","","","7","",""
"null","335774","pSARL_v2","pSARL_v2kt0jwj38","55ae64defdf99b3f864653e7","fixation","img/fixation.png","null","","test","","","","","",""
"300","336079","pSARL_v2","pSARL_v2kt0jwj38","55ae64defdf99b3f864653e7","freq","img/orange_2bandit_b2.png","70","70","test","1","153","153","7","",""
"null","336592","pSARL_v2","pSARL_v2kt0jwj38","55ae64defdf99b3f864653e7","freq_resp","img/orange_2bandit_b.png","70","70","test","","","","7","",""
"null","336750","pSARL_v2","pSARL_v2kt0jwj38","55ae64defdf99b3f864653e7","fixation","img/fixation.png","null","","test","","","","","",""
"354","337108","pSARL_v2","pSARL_v2kt0jwj38","55ae64defdf99b3f864653e7","freq","img/orange_2bandit_b2.png","70","70","test","1","154","154","7","",""
"null","337568","pSARL_v2","pSARL_v2kt0jwj38","55ae64defdf99b3f864653e7","freq_resp","img/orange_2bandit_b.png","70","70","test","","","","7","",""
"null","337727","pSARL_v2","pSARL_v2kt0jwj38","55ae64defdf99b3f864653e7","fixation","img/fixation.png","null","","test","","","","","",""
"306","338037","pSARL_v2","pSARL_v2kt0jwj38","55ae64defdf99b3f864653e7","freq","img/orange_2bandit_b2.png","70","70","test","1","155","155","7","",""
"null","338543","pSARL_v2","pSARL_v2kt0jwj38","55ae64defdf99b3f864653e7","freq_resp","img/orange_2bandit_b.png","70","70","test","","","","7","",""
"null","338702","pSARL_v2","pSARL_v2kt0jwj38","55ae64defdf99b3f864653e7","fixation","img/fixation.png","null","","test","","","","","",""
"295","339002","pSARL_v2","pSARL_v2kt0jwj38","55ae64defdf99b3f864653e7","freq","img/orange_2bandit_b2.png","70","70","test","1","156","156","7","",""
"null","339517","pSARL_v2","pSARL_v2kt0jwj38","55ae64defdf99b3f864653e7","freq_resp","img/orange_2bandit_b.png","70","70","test","","","","7","",""
"null","339677","pSARL_v2","pSARL_v2kt0jwj38","55ae64defdf99b3f864653e7","fixation","img/fixation.png","null","","test","","","","","",""
"339","340019","pSARL_v2","pSARL_v2kt0jwj38","55ae64defdf99b3f864653e7","freq","img/orange_2bandit_b2.png","70","70","test","1","157","157","7","",""
"null","340494","pSARL_v2","pSARL_v2kt0jwj38","55ae64defdf99b3f864653e7","freq_resp","img/orange_2bandit_b.png","70","70","test","","","","7","",""
"null","340654","pSARL_v2","pSARL_v2kt0jwj38","55ae64defdf99b3f864653e7","fixation","img/fixation.png","null","","test","","","","","",""
"300","340956","pSARL_v2","pSARL_v2kt0jwj38","55ae64defdf99b3f864653e7","freq","img/orange_2bandit_b2.png","70","70","test","1","158","158","7","",""
"null","341470","pSARL_v2","pSARL_v2kt0jwj38","55ae64defdf99b3f864653e7","freq_resp","img/orange_2bandit_b.png","70","70","test","","","","7","",""
"null","341629","pSARL_v2","pSARL_v2kt0jwj38","55ae64defdf99b3f864653e7","fixation","img/fixation.png","null","","test","","","","","",""
"352","341985","pSARL_v2","pSARL_v2kt0jwj38","55ae64defdf99b3f864653e7","freq","img/orange_2bandit_b2.png","70","70","test","1","159","159","7","",""
"null","342445","pSARL_v2","pSARL_v2kt0jwj38","55ae64defdf99b3f864653e7","freq_resp","img/orange_2bandit_b.png","70","70","test","","","","7","",""
"null","342605","pSARL_v2","pSARL_v2kt0jwj38","55ae64defdf99b3f864653e7","fixation","img/fixation.png","null","","test","","","","","",""
"368","342976","pSARL_v2","pSARL_v2kt0jwj38","55ae64defdf99b3f864653e7","freq","img/orange_2bandit_b2.png","70","70","test","1","160","160","7","",""
"null","343421","pSARL_v2","pSARL_v2kt0jwj38","55ae64defdf99b3f864653e7","freq_resp","img/orange_2bandit_b.png","70","70","test","","","","7","",""
"null","343580","pSARL_v2","pSARL_v2kt0jwj38","55ae64defdf99b3f864653e7","fixation","img/fixation.png","null","","test","","","","","",""
"376","343960","pSARL_v2","pSARL_v2kt0jwj38","55ae64defdf99b3f864653e7","freq","img/orange_2bandit_b2.png","70","70","test","1","161","161","7","",""
"null","344396","pSARL_v2","pSARL_v2kt0jwj38","55ae64defdf99b3f864653e7","freq_resp","img/orange_2bandit_b.png","70","70","test","","","","7","",""
"null","344555","pSARL_v2","pSARL_v2kt0jwj38","55ae64defdf99b3f864653e7","fixation","img/fixation.png","null","","test","","","","","",""
"349","344906","pSARL_v2","pSARL_v2kt0jwj38","55ae64defdf99b3f864653e7","freq","img/orange_2bandit_b2.png","70","70","test","1","162","162","7","",""
"null","345371","pSARL_v2","pSARL_v2kt0jwj38","55ae64defdf99b3f864653e7","freq_resp","img/orange_2bandit_b.png","70","70","test","","","","7","",""
"null","345531","pSARL_v2","pSARL_v2kt0jwj38","55ae64defdf99b3f864653e7","fixation","img/fixation.png","null","","test","","","","","",""
"425","345961","pSARL_v2","pSARL_v2kt0jwj38","55ae64defdf99b3f864653e7","freq","img/orange_2bandit_b2.png","70","70","test","1","163","163","7","",""
"null","346347","pSARL_v2","pSARL_v2kt0jwj38","55ae64defdf99b3f864653e7","freq_resp","img/orange_2bandit_b.png","70","70","test","","","","7","",""
"null","346506","pSARL_v2","pSARL_v2kt0jwj38","55ae64defdf99b3f864653e7","fixation","img/fixation.png","null","","test","","","","","",""
"477","346987","pSARL_v2","pSARL_v2kt0jwj38","55ae64defdf99b3f864653e7","reward","img/slot.png","74","","test","","","","","",""
"null","347755","pSARL_v2","pSARL_v2kt0jwj38","55ae64defdf99b3f864653e7","points","<div class=""verylowPoints""> -6 </div>","null","na","test","","","","7","-6","6"
"328","348087","pSARL_v2","pSARL_v2kt0jwj38","55ae64defdf99b3f864653e7","freq","img/orange_2bandit_b2.png","70","70","test","1","164","164","8","",""
"null","348569","pSARL_v2","pSARL_v2kt0jwj38","55ae64defdf99b3f864653e7","freq_resp","img/orange_2bandit_b.png","70","70","test","","","","8","",""
"null","348729","pSARL_v2","pSARL_v2kt0jwj38","55ae64defdf99b3f864653e7","fixation","img/fixation.png","null","","test","","","","","",""
"345","349077","pSARL_v2","pSARL_v2kt0jwj38","55ae64defdf99b3f864653e7","freq","img/orange_2bandit_b2.png","70","70","test","1","165","165","8","",""
"null","349545","pSARL_v2","pSARL_v2kt0jwj38","55ae64defdf99b3f864653e7","freq_resp","img/orange_2bandit_b.png","70","70","test","","","","8","",""
"null","349704","pSARL_v2","pSARL_v2kt0jwj38","55ae64defdf99b3f864653e7","fixation","img/fixation.png","null","","test","","","","","",""
"325","350033","pSARL_v2","pSARL_v2kt0jwj38","55ae64defdf99b3f864653e7","freq","img/orange_2bandit_b2.png","70","70","test","1","166","166","8","",""
"null","350521","pSARL_v2","pSARL_v2kt0jwj38","55ae64defdf99b3f864653e7","freq_resp","img/orange_2bandit_b.png","70","70","test","","","","8","",""
"null","350680","pSARL_v2","pSARL_v2kt0jwj38","55ae64defdf99b3f864653e7","fixation","img/fixation.png","null","","test","","","","","",""
"322","351007","pSARL_v2","pSARL_v2kt0jwj38","55ae64defdf99b3f864653e7","freq","img/orange_2bandit_b2.png","70","70","test","1","167","167","8","",""
"null","351497","pSARL_v2","pSARL_v2kt0jwj38","55ae64defdf99b3f864653e7","freq_resp","img/orange_2bandit_b.png","70","70","test","","","","8","",""
"null","351656","pSARL_v2","pSARL_v2kt0jwj38","55ae64defdf99b3f864653e7","fixation","img/fixation.png","null","","test","","","","","",""
"331","351989","pSARL_v2","pSARL_v2kt0jwj38","55ae64defdf99b3f864653e7","freq","img/orange_2bandit_b2.png","70","70","test","1","168","168","8","",""
"null","352474","pSARL_v2","pSARL_v2kt0jwj38","55ae64defdf99b3f864653e7","freq_resp","img/orange_2bandit_b.png","70","70","test","","","","8","",""
"null","352634","pSARL_v2","pSARL_v2kt0jwj38","55ae64defdf99b3f864653e7","fixation","img/fixation.png","null","","test","","","","","",""
"325","352962","pSARL_v2","pSARL_v2kt0jwj38","55ae64defdf99b3f864653e7","freq","img/orange_2bandit_b2.png","70","70","test","1","169","169","8","",""
"null","353448","pSARL_v2","pSARL_v2kt0jwj38","55ae64defdf99b3f864653e7","freq_resp","img/orange_2bandit_b.png","70","70","test","","","","8","",""
"null","353609","pSARL_v2","pSARL_v2kt0jwj38","55ae64defdf99b3f864653e7","fixation","img/fixation.png","null","","test","","","","","",""
"315","353928","pSARL_v2","pSARL_v2kt0jwj38","55ae64defdf99b3f864653e7","freq","img/orange_2bandit_b2.png","70","70","test","1","170","170","8","",""
"null","354422","pSARL_v2","pSARL_v2kt0jwj38","55ae64defdf99b3f864653e7","freq_resp","img/orange_2bandit_b.png","70","70","test","","","","8","",""
"null","354582","pSARL_v2","pSARL_v2kt0jwj38","55ae64defdf99b3f864653e7","fixation","img/fixation.png","null","","test","","","","","",""
"351","354937","pSARL_v2","pSARL_v2kt0jwj38","55ae64defdf99b3f864653e7","freq","img/orange_2bandit_b2.png","70","70","test","1","171","171","8","",""
"null","355397","pSARL_v2","pSARL_v2kt0jwj38","55ae64defdf99b3f864653e7","freq_resp","img/orange_2bandit_b.png","70","70","test","","","","8","",""
"null","355557","pSARL_v2","pSARL_v2kt0jwj38","55ae64defdf99b3f864653e7","fixation","img/fixation.png","null","","test","","","","","",""
"306","355866","pSARL_v2","pSARL_v2kt0jwj38","55ae64defdf99b3f864653e7","freq","img/orange_2bandit_b2.png","70","70","test","1","172","172","8","",""
"null","356371","pSARL_v2","pSARL_v2kt0jwj38","55ae64defdf99b3f864653e7","freq_resp","img/orange_2bandit_b.png","70","70","test","","","","8","",""
"null","356531","pSARL_v2","pSARL_v2kt0jwj38","55ae64defdf99b3f864653e7","fixation","img/fixation.png","null","","test","","","","","",""
"371","356905","pSARL_v2","pSARL_v2kt0jwj38","55ae64defdf99b3f864653e7","freq","img/orange_2bandit_b2.png","70","70","test","1","173","173","8","",""
"null","357346","pSARL_v2","pSARL_v2kt0jwj38","55ae64defdf99b3f864653e7","freq_resp","img/orange_2bandit_b.png","70","70","test","","","","8","",""
"null","357505","pSARL_v2","pSARL_v2kt0jwj38","55ae64defdf99b3f864653e7","fixation","img/fixation.png","null","","test","","","","","",""
"559","358067","pSARL_v2","pSARL_v2kt0jwj38","55ae64defdf99b3f864653e7","infreq","img/green_2bandit_b2.png","68","68","test","1","174","174","8","",""
"null","358320","pSARL_v2","pSARL_v2kt0jwj38","55ae64defdf99b3f864653e7","infreq_resp","img/green_2bandit_b.png","68","68","test","","","","8","",""
"null","358481","pSARL_v2","pSARL_v2kt0jwj38","55ae64defdf99b3f864653e7","fixation","img/fixation.png","null","","test","","","","","",""
"412","358896","pSARL_v2","pSARL_v2kt0jwj38","55ae64defdf99b3f864653e7","freq","img/orange_2bandit_b2.png","70","70","test","1","175","175","8","",""
"null","359297","pSARL_v2","pSARL_v2kt0jwj38","55ae64defdf99b3f864653e7","freq_resp","img/orange_2bandit_b.png","70","70","test","","","","8","",""
"null","359457","pSARL_v2","pSARL_v2kt0jwj38","55ae64defdf99b3f864653e7","fixation","img/fixation.png","null","","test","","","","","",""
"301","359762","pSARL_v2","pSARL_v2kt0jwj38","55ae64defdf99b3f864653e7","freq","img/orange_2bandit_b2.png","70","70","test","1","176","176","8","",""
"null","360273","pSARL_v2","pSARL_v2kt0jwj38","55ae64defdf99b3f864653e7","freq_resp","img/orange_2bandit_b.png","70","70","test","","","","8","",""
"null","360433","pSARL_v2","pSARL_v2kt0jwj38","55ae64defdf99b3f864653e7","fixation","img/fixation.png","null","","test","","","","","",""
"352","360790","pSARL_v2","pSARL_v2kt0jwj38","55ae64defdf99b3f864653e7","freq","img/orange_2bandit_b2.png","70","70","test","1","177","177","8","",""
"null","361250","pSARL_v2","pSARL_v2kt0jwj38","55ae64defdf99b3f864653e7","freq_resp","img/orange_2bandit_b.png","70","70","test","","","","8","",""
"null","361408","pSARL_v2","pSARL_v2kt0jwj38","55ae64defdf99b3f864653e7","fixation","img/fixation.png","null","","test","","","","","",""
"327","361738","pSARL_v2","pSARL_v2kt0jwj38","55ae64defdf99b3f864653e7","freq","img/orange_2bandit_b2.png","70","70","test","1","178","178","8","",""
"null","362224","pSARL_v2","pSARL_v2kt0jwj38","55ae64defdf99b3f864653e7","freq_resp","img/orange_2bandit_b.png","70","70","test","","","","8","",""
"null","362384","pSARL_v2","pSARL_v2kt0jwj38","55ae64defdf99b3f864653e7","fixation","img/fixation.png","null","","test","","","","","",""
"305","362692","pSARL_v2","pSARL_v2kt0jwj38","55ae64defdf99b3f864653e7","freq","img/orange_2bandit_b2.png","70","70","test","1","179","179","8","",""
"null","363200","pSARL_v2","pSARL_v2kt0jwj38","55ae64defdf99b3f864653e7","freq_resp","img/orange_2bandit_b.png","70","70","test","","","","8","",""
"null","363358","pSARL_v2","pSARL_v2kt0jwj38","55ae64defdf99b3f864653e7","fixation","img/fixation.png","null","","test","","","","","",""
"251","363613","pSARL_v2","pSARL_v2kt0jwj38","55ae64defdf99b3f864653e7","freq","img/orange_2bandit_b2.png","70","70","test","1","180","180","8","",""
"null","364175","pSARL_v2","pSARL_v2kt0jwj38","55ae64defdf99b3f864653e7","freq_resp","img/orange_2bandit_b.png","70","70","test","","","","8","",""
"null","364334","pSARL_v2","pSARL_v2kt0jwj38","55ae64defdf99b3f864653e7","fixation","img/fixation.png","null","","test","","","","","",""
"211","364549","pSARL_v2","pSARL_v2kt0jwj38","55ae64defdf99b3f864653e7","freq","img/orange_2bandit_b2.png","70","70","test","1","181","181","8","",""
"null","365150","pSARL_v2","pSARL_v2kt0jwj38","55ae64defdf99b3f864653e7","freq_resp","img/orange_2bandit_b.png","70","70","test","","","","8","",""
"null","365311","pSARL_v2","pSARL_v2kt0jwj38","55ae64defdf99b3f864653e7","fixation","img/fixation.png","null","","test","","","","","",""
"182","365495","pSARL_v2","pSARL_v2kt0jwj38","55ae64defdf99b3f864653e7","freq","img/orange_2bandit_b2.png","70","70","test","1","182","182","8","",""
"null","366127","pSARL_v2","pSARL_v2kt0jwj38","55ae64defdf99b3f864653e7","freq_resp","img/orange_2bandit_b.png","70","70","test","","","","8","",""
"null","366287","pSARL_v2","pSARL_v2kt0jwj38","55ae64defdf99b3f864653e7","fixation","img/fixation.png","null","","test","","","","","",""
"234","366524","pSARL_v2","pSARL_v2kt0jwj38","55ae64defdf99b3f864653e7","freq","img/orange_2bandit_b2.png","70","70","test","1","183","183","8","",""
"null","367102","pSARL_v2","pSARL_v2kt0jwj38","55ae64defdf99b3f864653e7","freq_resp","img/orange_2bandit_b.png","70","70","test","","","","8","",""
"null","367261","pSARL_v2","pSARL_v2kt0jwj38","55ae64defdf99b3f864653e7","fixation","img/fixation.png","null","","test","","","","","",""
"358","367623","pSARL_v2","pSARL_v2kt0jwj38","55ae64defdf99b3f864653e7","freq","img/orange_2bandit_b2.png","70","70","test","1","184","184","8","",""
"null","368076","pSARL_v2","pSARL_v2kt0jwj38","55ae64defdf99b3f864653e7","freq_resp","img/orange_2bandit_b.png","70","70","test","","","","8","",""
"null","368236","pSARL_v2","pSARL_v2kt0jwj38","55ae64defdf99b3f864653e7","fixation","img/fixation.png","null","","test","","","","","",""
"294","368533","pSARL_v2","pSARL_v2kt0jwj38","55ae64defdf99b3f864653e7","freq","img/orange_2bandit_b2.png","70","70","test","1","185","185","8","",""
"null","369053","pSARL_v2","pSARL_v2kt0jwj38","55ae64defdf99b3f864653e7","freq_resp","img/orange_2bandit_b.png","70","70","test","","","","8","",""
"null","369213","pSARL_v2","pSARL_v2kt0jwj38","55ae64defdf99b3f864653e7","fixation","img/fixation.png","null","","test","","","","","",""
"282","369497","pSARL_v2","pSARL_v2kt0jwj38","55ae64defdf99b3f864653e7","infreq","img/green_2bandit_b2.png","70","68","test","0","186","186","8","",""
"null","370028","pSARL_v2","pSARL_v2kt0jwj38","55ae64defdf99b3f864653e7","infreq_resp","img/green_2bandit_b.png","70","68","test","","","","8","",""
"null","370189","pSARL_v2","pSARL_v2kt0jwj38","55ae64defdf99b3f864653e7","fixation","img/fixation.png","null","","test","","","","","",""
"280","370472","pSARL_v2","pSARL_v2kt0jwj38","55ae64defdf99b3f864653e7","freq","img/orange_2bandit_b2.png","70","70","test","1","187","187","8","",""
"null","371005","pSARL_v2","pSARL_v2kt0jwj38","55ae64defdf99b3f864653e7","freq_resp","img/orange_2bandit_b.png","70","70","test","","","","8","",""
"null","371164","pSARL_v2","pSARL_v2kt0jwj38","55ae64defdf99b3f864653e7","fixation","img/fixation.png","null","","test","","","","","",""
"215","371383","pSARL_v2","pSARL_v2kt0jwj38","55ae64defdf99b3f864653e7","freq","img/orange_2bandit_b2.png","70","70","test","1","188","188","8","",""
"null","371979","pSARL_v2","pSARL_v2kt0jwj38","55ae64defdf99b3f864653e7","freq_resp","img/orange_2bandit_b.png","70","70","test","","","","8","",""
"null","372138","pSARL_v2","pSARL_v2kt0jwj38","55ae64defdf99b3f864653e7","fixation","img/fixation.png","null","","test","","","","","",""
"303","372446","pSARL_v2","pSARL_v2kt0jwj38","55ae64defdf99b3f864653e7","freq","img/orange_2bandit_b2.png","70","70","test","1","189","189","8","",""
"null","372954","pSARL_v2","pSARL_v2kt0jwj38","55ae64defdf99b3f864653e7","freq_resp","img/orange_2bandit_b.png","70","70","test","","","","8","",""
"null","373114","pSARL_v2","pSARL_v2kt0jwj38","55ae64defdf99b3f864653e7","fixation","img/fixation.png","null","","test","","","","","",""
"456","373572","pSARL_v2","pSARL_v2kt0jwj38","55ae64defdf99b3f864653e7","reward","img/slot.png","74","","test","","","","","",""
"null","374329","pSARL_v2","pSARL_v2kt0jwj38","55ae64defdf99b3f864653e7","points","<div class=""verylowPoints""> -4 </div>","null","na","test","","","","8","-4","7"
"377","374708","pSARL_v2","pSARL_v2kt0jwj38","55ae64defdf99b3f864653e7","freq","img/orange_2bandit_b2.png","70","70","test","1","190","190","9","",""
"null","375144","pSARL_v2","pSARL_v2kt0jwj38","55ae64defdf99b3f864653e7","freq_resp","img/orange_2bandit_b.png","70","70","test","","","","9","",""
"null","375304","pSARL_v2","pSARL_v2kt0jwj38","55ae64defdf99b3f864653e7","fixation","img/fixation.png","null","","test","","","","","",""
"285","375591","pSARL_v2","pSARL_v2kt0jwj38","55ae64defdf99b3f864653e7","freq","img/orange_2bandit_b2.png","70","70","test","1","191","191","9","",""
"null","376120","pSARL_v2","pSARL_v2kt0jwj38","55ae64defdf99b3f864653e7","freq_resp","img/orange_2bandit_b.png","70","70","test","","","","9","",""
"null","376280","pSARL_v2","pSARL_v2kt0jwj38","55ae64defdf99b3f864653e7","fixation","img/fixation.png","null","","test","","","","","",""
"264","376547","pSARL_v2","pSARL_v2kt0jwj38","55ae64defdf99b3f864653e7","freq","img/orange_2bandit_b2.png","70","70","test","1","192","192","9","",""
"null","377094","pSARL_v2","pSARL_v2kt0jwj38","55ae64defdf99b3f864653e7","freq_resp","img/orange_2bandit_b.png","70","70","test","","","","9","",""
"null","377254","pSARL_v2","pSARL_v2kt0jwj38","55ae64defdf99b3f864653e7","fixation","img/fixation.png","null","","test","","","","","",""
"299","377556","pSARL_v2","pSARL_v2kt0jwj38","55ae64defdf99b3f864653e7","freq","img/orange_2bandit_b2.png","70","70","test","1","193","193","9","",""
"null","378070","pSARL_v2","pSARL_v2kt0jwj38","55ae64defdf99b3f864653e7","freq_resp","img/orange_2bandit_b.png","70","70","test","","","","9","",""
"null","378230","pSARL_v2","pSARL_v2kt0jwj38","55ae64defdf99b3f864653e7","fixation","img/fixation.png","null","","test","","","","","",""
"323","378557","pSARL_v2","pSARL_v2kt0jwj38","55ae64defdf99b3f864653e7","freq","img/orange_2bandit_b2.png","70","70","test","1","194","194","9","",""
"null","379047","pSARL_v2","pSARL_v2kt0jwj38","55ae64defdf99b3f864653e7","freq_resp","img/orange_2bandit_b.png","70","70","test","","","","9","",""
"null","379206","pSARL_v2","pSARL_v2kt0jwj38","55ae64defdf99b3f864653e7","fixation","img/fixation.png","null","","test","","","","","",""
"339","379548","pSARL_v2","pSARL_v2kt0jwj38","55ae64defdf99b3f864653e7","freq","img/orange_2bandit_b2.png","70","70","test","1","195","195","9","",""
"null","380023","pSARL_v2","pSARL_v2kt0jwj38","55ae64defdf99b3f864653e7","freq_resp","img/orange_2bandit_b.png","70","70","test","","","","9","",""
"null","380181","pSARL_v2","pSARL_v2kt0jwj38","55ae64defdf99b3f864653e7","fixation","img/fixation.png","null","","test","","","","","",""
"327","380512","pSARL_v2","pSARL_v2kt0jwj38","55ae64defdf99b3f864653e7","freq","img/orange_2bandit_b2.png","70","70","test","1","196","196","9","",""
"null","380998","pSARL_v2","pSARL_v2kt0jwj38","55ae64defdf99b3f864653e7","freq_resp","img/orange_2bandit_b.png","70","70","test","","","","9","",""
"null","381157","pSARL_v2","pSARL_v2kt0jwj38","55ae64defdf99b3f864653e7","fixation","img/fixation.png","null","","test","","","","","",""
"333","381495","pSARL_v2","pSARL_v2kt0jwj38","55ae64defdf99b3f864653e7","freq","img/orange_2bandit_b2.png","70","70","test","1","197","197","9","",""
"null","381974","pSARL_v2","pSARL_v2kt0jwj38","55ae64defdf99b3f864653e7","freq_resp","img/orange_2bandit_b.png","70","70","test","","","","9","",""
"null","382132","pSARL_v2","pSARL_v2kt0jwj38","55ae64defdf99b3f864653e7","fixation","img/fixation.png","null","","test","","","","","",""
"323","382458","pSARL_v2","pSARL_v2kt0jwj38","55ae64defdf99b3f864653e7","freq","img/orange_2bandit_b2.png","70","70","test","1","198","198","9","",""
"null","382948","pSARL_v2","pSARL_v2kt0jwj38","55ae64defdf99b3f864653e7","freq_resp","img/orange_2bandit_b.png","70","70","test","","","","9","",""
"null","383107","pSARL_v2","pSARL_v2kt0jwj38","55ae64defdf99b3f864653e7","fixation","img/fixation.png","null","","test","","","","","",""
"324","383434","pSARL_v2","pSARL_v2kt0jwj38","55ae64defdf99b3f864653e7","freq","img/orange_2bandit_b2.png","70","70","test","1","199","199","9","",""
"null","383922","pSARL_v2","pSARL_v2kt0jwj38","55ae64defdf99b3f864653e7","freq_resp","img/orange_2bandit_b.png","70","70","test","","","","9","",""
"null","384081","pSARL_v2","pSARL_v2kt0jwj38","55ae64defdf99b3f864653e7","fixation","img/fixation.png","null","","test","","","","","",""
"325","384408","pSARL_v2","pSARL_v2kt0jwj38","55ae64defdf99b3f864653e7","freq","img/orange_2bandit_b2.png","70","70","test","1","200","200","9","",""
"null","384896","pSARL_v2","pSARL_v2kt0jwj38","55ae64defdf99b3f864653e7","freq_resp","img/orange_2bandit_b.png","70","70","test","","","","9","",""
"null","385056","pSARL_v2","pSARL_v2kt0jwj38","55ae64defdf99b3f864653e7","fixation","img/fixation.png","null","","test","","","","","",""
"441","385500","pSARL_v2","pSARL_v2kt0jwj38","55ae64defdf99b3f864653e7","infreq","img/green_2bandit_b2.png","68","68","test","1","201","201","9","",""
"null","385870","pSARL_v2","pSARL_v2kt0jwj38","55ae64defdf99b3f864653e7","infreq_resp","img/green_2bandit_b.png","68","68","test","","","","9","",""
"null","386032","pSARL_v2","pSARL_v2kt0jwj38","55ae64defdf99b3f864653e7","fixation","img/fixation.png","null","","test","","","","","",""
"293","386329","pSARL_v2","pSARL_v2kt0jwj38","55ae64defdf99b3f864653e7","freq","img/orange_2bandit_b2.png","70","70","test","1","202","202","9","",""
"null","386844","pSARL_v2","pSARL_v2kt0jwj38","55ae64defdf99b3f864653e7","freq_resp","img/orange_2bandit_b.png","70","70","test","","","","9","",""
"null","387003","pSARL_v2","pSARL_v2kt0jwj38","55ae64defdf99b3f864653e7","fixation","img/fixation.png","null","","test","","","","","",""
"258","387265","pSARL_v2","pSARL_v2kt0jwj38","55ae64defdf99b3f864653e7","freq","img/orange_2bandit_b2.png","70","70","test","1","203","203","9","",""
"null","387821","pSARL_v2","pSARL_v2kt0jwj38","55ae64defdf99b3f864653e7","freq_resp","img/orange_2bandit_b.png","70","70","test","","","","9","",""
"null","387980","pSARL_v2","pSARL_v2kt0jwj38","55ae64defdf99b3f864653e7","fixation","img/fixation.png","null","","test","","","","","",""
"309","388293","pSARL_v2","pSARL_v2kt0jwj38","55ae64defdf99b3f864653e7","freq","img/orange_2bandit_b2.png","70","70","test","1","204","204","9","",""
"null","388797","pSARL_v2","pSARL_v2kt0jwj38","55ae64defdf99b3f864653e7","freq_resp","img/orange_2bandit_b.png","70","70","test","","","","9","",""
"null","388956","pSARL_v2","pSARL_v2kt0jwj38","55ae64defdf99b3f864653e7","fixation","img/fixation.png","null","","test","","","","","",""
"260","389219","pSARL_v2","pSARL_v2kt0jwj38","55ae64defdf99b3f864653e7","infreq","img/green_2bandit_b2.png","70","68","test","0","205","205","9","",""
"null","389772","pSARL_v2","pSARL_v2kt0jwj38","55ae64defdf99b3f864653e7","infreq_resp","img/green_2bandit_b.png","70","68","test","","","","9","",""
"null","389931","pSARL_v2","pSARL_v2kt0jwj38","55ae64defdf99b3f864653e7","fixation","img/fixation.png","null","","test","","","","","",""
"268","390202","pSARL_v2","pSARL_v2kt0jwj38","55ae64defdf99b3f864653e7","freq","img/orange_2bandit_b2.png","70","70","test","1","206","206","9","",""
"null","390746","pSARL_v2","pSARL_v2kt0jwj38","55ae64defdf99b3f864653e7","freq_resp","img/orange_2bandit_b.png","70","70","test","","","","9","",""
"null","390905","pSARL_v2","pSARL_v2kt0jwj38","55ae64defdf99b3f864653e7","fixation","img/fixation.png","null","","test","","","","","",""
"239","391147","pSARL_v2","pSARL_v2kt0jwj38","55ae64defdf99b3f864653e7","freq","img/orange_2bandit_b2.png","70","70","test","1","207","207","9","",""
"null","391721","pSARL_v2","pSARL_v2kt0jwj38","55ae64defdf99b3f864653e7","freq_resp","img/orange_2bandit_b.png","70","70","test","","","","9","",""
"null","391881","pSARL_v2","pSARL_v2kt0jwj38","55ae64defdf99b3f864653e7","fixation","img/fixation.png","null","","test","","","","","",""
"209","392095","pSARL_v2","pSARL_v2kt0jwj38","55ae64defdf99b3f864653e7","freq","img/orange_2bandit_b2.png","70","70","test","1","208","208","9","",""
"null","392696","pSARL_v2","pSARL_v2kt0jwj38","55ae64defdf99b3f864653e7","freq_resp","img/orange_2bandit_b.png","70","70","test","","","","9","",""
"null","392856","pSARL_v2","pSARL_v2kt0jwj38","55ae64defdf99b3f864653e7","fixation","img/fixation.png","null","","test","","","","","",""
"316","393176","pSARL_v2","pSARL_v2kt0jwj38","55ae64defdf99b3f864653e7","freq","img/orange_2bandit_b2.png","70","70","test","1","209","209","9","",""
"null","393672","pSARL_v2","pSARL_v2kt0jwj38","55ae64defdf99b3f864653e7","freq_resp","img/orange_2bandit_b.png","70","70","test","","","","9","",""
"null","393832","pSARL_v2","pSARL_v2kt0jwj38","55ae64defdf99b3f864653e7","fixation","img/fixation.png","null","","test","","","","","",""
"267","394102","pSARL_v2","pSARL_v2kt0jwj38","55ae64defdf99b3f864653e7","freq","img/orange_2bandit_b2.png","70","70","test","1","210","210","9","",""
"null","394647","pSARL_v2","pSARL_v2kt0jwj38","55ae64defdf99b3f864653e7","freq_resp","img/orange_2bandit_b.png","70","70","test","","","","9","",""
"null","394806","pSARL_v2","pSARL_v2kt0jwj38","55ae64defdf99b3f864653e7","fixation","img/fixation.png","null","","test","","","","","",""
"428","395240","pSARL_v2","pSARL_v2kt0jwj38","55ae64defdf99b3f864653e7","infreq","img/green_2bandit_b2.png","68","68","test","1","211","211","9","",""
"null","395620","pSARL_v2","pSARL_v2kt0jwj38","55ae64defdf99b3f864653e7","infreq_resp","img/green_2bandit_b.png","68","68","test","","","","9","",""
"null","395780","pSARL_v2","pSARL_v2kt0jwj38","55ae64defdf99b3f864653e7","fixation","img/fixation.png","null","","test","","","","","",""
"276","396059","pSARL_v2","pSARL_v2kt0jwj38","55ae64defdf99b3f864653e7","freq","img/orange_2bandit_b2.png","70","70","test","1","212","212","9","",""
"null","396597","pSARL_v2","pSARL_v2kt0jwj38","55ae64defdf99b3f864653e7","freq_resp","img/orange_2bandit_b.png","70","70","test","","","","9","",""
