"rt","time_elapsed","expId","subject","prolificID","trialType","stimulus","key_press","corrresp","phase","corr","trialNum","attentionRunNum","blockNum","points","rlNum"
"459079.5","459096","pSARL_v2","pSARL_v2ds2bycbx","63f794e7d8d24753edbbb136","","","","","","","","","","",""
"","461868","pSARL_v2","pSARL_v2ds2bycbx","63f794e7d8d24753edbbb136","fullscreen","","","","","","","","","",""
"81709.19999998808","543584","pSARL_v2","pSARL_v2ds2bycbx","63f794e7d8d24753edbbb136","","","","","","","","","","",""
"597.3000000119209","544190","pSARL_v2","pSARL_v2ds2bycbx","63f794e7d8d24753edbbb136","freqPrac","img/orange_2bandit_a2.png","68","70","prac","0","","","","",""
"597.3000000119209","544403","pSARL_v2","pSARL_v2ds2bycbx","63f794e7d8d24753edbbb136","freqPrac_resp","img/orange_2bandit_a.png","68","70","prac","","","","","",""
"null","545413","pSARL_v2","pSARL_v2ds2bycbx","63f794e7d8d24753edbbb136","feedback","img/wrongKey.png","null","na","prac","","","","","",""
"null","545571","pSARL_v2","pSARL_v2ds2bycbx","63f794e7d8d24753edbbb136","fixation","img/fixation.png","null","","prac","","","","","",""
"433.5999999642372","546011","pSARL_v2","pSARL_v2ds2bycbx","63f794e7d8d24753edbbb136","infreqPrac","img/green_2bandit_a2.png","68","68","prac","1","","","","",""
"433.5999999642372","546386","pSARL_v2","pSARL_v2ds2bycbx","63f794e7d8d24753edbbb136","infreqPrac_resp","img/green_2bandit_a.png","68","68","prac","","","","","",""
"null","546545","pSARL_v2","pSARL_v2ds2bycbx","63f794e7d8d24753edbbb136","fixation","img/fixation.png","null","","prac","","","","","",""
"526","547078","pSARL_v2","pSARL_v2ds2bycbx","63f794e7d8d24753edbbb136","freqPrac","img/orange_2bandit_a2.png","70","70","prac","1","","","","",""
"526","547360","pSARL_v2","pSARL_v2ds2bycbx","63f794e7d8d24753edbbb136","freqPrac_resp","img/orange_2bandit_a.png","70","70","prac","","","","","",""
"null","547520","pSARL_v2","pSARL_v2ds2bycbx","63f794e7d8d24753edbbb136","fixation","img/fixation.png","null","","prac","","","","","",""
"322.10000002384186","547848","pSARL_v2","pSARL_v2ds2bycbx","63f794e7d8d24753edbbb136","infreqPrac","img/green_2bandit_a2.png","68","68","prac","1","","","","",""
"322.10000002384186","548334","pSARL_v2","pSARL_v2ds2bycbx","63f794e7d8d24753edbbb136","infreqPrac_resp","img/green_2bandit_a.png","68","68","prac","","","","","",""
"null","548496","pSARL_v2","pSARL_v2ds2bycbx","63f794e7d8d24753edbbb136","fixation","img/fixation.png","null","","prac","","","","","",""
"479.89999997615814","548981","pSARL_v2","pSARL_v2ds2bycbx","63f794e7d8d24753edbbb136","infreqPrac","img/green_2bandit_a2.png","68","68","prac","1","","","","",""
"479.89999997615814","549308","pSARL_v2","pSARL_v2ds2bycbx","63f794e7d8d24753edbbb136","infreqPrac_resp","img/green_2bandit_a.png","68","68","prac","","","","","",""
"null","549467","pSARL_v2","pSARL_v2ds2bycbx","63f794e7d8d24753edbbb136","fixation","img/fixation.png","null","","prac","","","","","",""
"397.80000001192093","549871","pSARL_v2","pSARL_v2ds2bycbx","63f794e7d8d24753edbbb136","infreqPrac","img/green_2bandit_a2.png","68","68","prac","1","","","","",""
"397.80000001192093","550284","pSARL_v2","pSARL_v2ds2bycbx","63f794e7d8d24753edbbb136","infreqPrac_resp","img/green_2bandit_a.png","68","68","prac","","","","","",""
"null","550443","pSARL_v2","pSARL_v2ds2bycbx","63f794e7d8d24753edbbb136","fixation","img/fixation.png","null","","prac","","","","","",""
"358.30000001192093","550807","pSARL_v2","pSARL_v2ds2bycbx","63f794e7d8d24753edbbb136","freqPrac","img/orange_2bandit_a2.png","70","70","prac","1","","","","",""
"358.30000001192093","551259","pSARL_v2","pSARL_v2ds2bycbx","63f794e7d8d24753edbbb136","freqPrac_resp","img/orange_2bandit_a.png","70","70","prac","","","","","",""
"null","551422","pSARL_v2","pSARL_v2ds2bycbx","63f794e7d8d24753edbbb136","fixation","img/fixation.png","null","","prac","","","","","",""
"514.5","551943","pSARL_v2","pSARL_v2ds2bycbx","63f794e7d8d24753edbbb136","infreqPrac","img/green_2bandit_a2.png","68","68","prac","1","","","","",""
"514.5","552240","pSARL_v2","pSARL_v2ds2bycbx","63f794e7d8d24753edbbb136","infreqPrac_resp","img/green_2bandit_a.png","68","68","prac","","","","","",""
"null","552397","pSARL_v2","pSARL_v2ds2bycbx","63f794e7d8d24753edbbb136","fixation","img/fixation.png","null","","prac","","","","","",""
"374.60000002384186","552777","pSARL_v2","pSARL_v2ds2bycbx","63f794e7d8d24753edbbb136","freqPrac","img/orange_2bandit_a2.png","68","70","prac","0","","","","",""
"374.60000002384186","553210","pSARL_v2","pSARL_v2ds2bycbx","63f794e7d8d24753edbbb136","freqPrac_resp","img/orange_2bandit_a.png","68","70","prac","","","","","",""
"null","554220","pSARL_v2","pSARL_v2ds2bycbx","63f794e7d8d24753edbbb136","feedback","img/wrongKey.png","null","na","prac","","","","","",""
"null","554379","pSARL_v2","pSARL_v2ds2bycbx","63f794e7d8d24753edbbb136","fixation","img/fixation.png","null","","prac","","","","","",""
"552","554935","pSARL_v2","pSARL_v2ds2bycbx","63f794e7d8d24753edbbb136","freqPrac","img/orange_2bandit_a2.png","70","70","prac","1","","","","",""
"552","555189","pSARL_v2","pSARL_v2ds2bycbx","63f794e7d8d24753edbbb136","freqPrac_resp","img/orange_2bandit_a.png","70","70","prac","","","","","",""
"null","555350","pSARL_v2","pSARL_v2ds2bycbx","63f794e7d8d24753edbbb136","fixation","img/fixation.png","null","","prac","","","","","",""
"30047.30000001192","585404","pSARL_v2","pSARL_v2ds2bycbx","63f794e7d8d24753edbbb136","","","","","prac","","","","","",""
"668.5999999642372","586078","pSARL_v2","pSARL_v2ds2bycbx","63f794e7d8d24753edbbb136","rewardPractice","img/slot.png","74","","prac","","","","","",""
"null","586840","pSARL_v2","pSARL_v2ds2bycbx","63f794e7d8d24753edbbb136","feedback","<div class=""veryhighPoints""> +15 </div>","null","na","prac","","","","","",""
"null","586999","pSARL_v2","pSARL_v2ds2bycbx","63f794e7d8d24753edbbb136","fixation","img/fixation.png","null","","prac","","","","","",""
"30679.30000001192","617684","pSARL_v2","pSARL_v2ds2bycbx","63f794e7d8d24753edbbb136","","","","","prac","","","","","",""
"469.60000002384186","618161","pSARL_v2","pSARL_v2ds2bycbx","63f794e7d8d24753edbbb136","freq","img/orange_2bandit_a2.png","68","70","test","0","1","1","1","",""
"null","618502","pSARL_v2","pSARL_v2ds2bycbx","63f794e7d8d24753edbbb136","freq_resp","img/orange_2bandit_a.png","68","70","test","","","","1","",""
"null","618664","pSARL_v2","pSARL_v2ds2bycbx","63f794e7d8d24753edbbb136","fixation","img/fixation.png","null","","test","","","","","",""
"693.1999999880791","619362","pSARL_v2","pSARL_v2ds2bycbx","63f794e7d8d24753edbbb136","freq","img/orange_2bandit_a2.png","70","70","test","1","2","2","1","",""
"null","619477","pSARL_v2","pSARL_v2ds2bycbx","63f794e7d8d24753edbbb136","freq_resp","img/orange_2bandit_a.png","70","70","test","","","","1","",""
"null","619638","pSARL_v2","pSARL_v2ds2bycbx","63f794e7d8d24753edbbb136","fixation","img/fixation.png","null","","test","","","","","",""
"574.1000000238419","620218","pSARL_v2","pSARL_v2ds2bycbx","63f794e7d8d24753edbbb136","freq","img/orange_2bandit_a2.png","70","70","test","1","3","3","1","",""
"null","620457","pSARL_v2","pSARL_v2ds2bycbx","63f794e7d8d24753edbbb136","freq_resp","img/orange_2bandit_a.png","70","70","test","","","","1","",""
"null","620618","pSARL_v2","pSARL_v2ds2bycbx","63f794e7d8d24753edbbb136","fixation","img/fixation.png","null","","test","","","","","",""
"429.80000001192093","621054","pSARL_v2","pSARL_v2ds2bycbx","63f794e7d8d24753edbbb136","freq","img/orange_2bandit_a2.png","70","70","test","1","4","4","1","",""
"null","621432","pSARL_v2","pSARL_v2ds2bycbx","63f794e7d8d24753edbbb136","freq_resp","img/orange_2bandit_a.png","70","70","test","","","","1","",""
"null","621595","pSARL_v2","pSARL_v2ds2bycbx","63f794e7d8d24753edbbb136","fixation","img/fixation.png","null","","test","","","","","",""
"378.19999998807907","621979","pSARL_v2","pSARL_v2ds2bycbx","63f794e7d8d24753edbbb136","freq","img/orange_2bandit_a2.png","70","70","test","1","5","5","1","",""
"null","622410","pSARL_v2","pSARL_v2ds2bycbx","63f794e7d8d24753edbbb136","freq_resp","img/orange_2bandit_a.png","70","70","test","","","","1","",""
"null","622570","pSARL_v2","pSARL_v2ds2bycbx","63f794e7d8d24753edbbb136","fixation","img/fixation.png","null","","test","","","","","",""
"407.39999997615814","622983","pSARL_v2","pSARL_v2ds2bycbx","63f794e7d8d24753edbbb136","freq","img/orange_2bandit_a2.png","70","70","test","1","6","6","1","",""
"null","623388","pSARL_v2","pSARL_v2ds2bycbx","63f794e7d8d24753edbbb136","freq_resp","img/orange_2bandit_a.png","70","70","test","","","","1","",""
"null","623552","pSARL_v2","pSARL_v2ds2bycbx","63f794e7d8d24753edbbb136","fixation","img/fixation.png","null","","test","","","","","",""
"345.30000001192093","623903","pSARL_v2","pSARL_v2ds2bycbx","63f794e7d8d24753edbbb136","freq","img/orange_2bandit_a2.png","70","70","test","1","7","7","1","",""
"null","624368","pSARL_v2","pSARL_v2ds2bycbx","63f794e7d8d24753edbbb136","freq_resp","img/orange_2bandit_a.png","70","70","test","","","","1","",""
"null","624527","pSARL_v2","pSARL_v2ds2bycbx","63f794e7d8d24753edbbb136","fixation","img/fixation.png","null","","test","","","","","",""
"445.2999999523163","624977","pSARL_v2","pSARL_v2ds2bycbx","63f794e7d8d24753edbbb136","freq","img/orange_2bandit_a2.png","70","70","test","1","8","8","1","",""
"null","625338","pSARL_v2","pSARL_v2ds2bycbx","63f794e7d8d24753edbbb136","freq_resp","img/orange_2bandit_a.png","70","70","test","","","","1","",""
"null","625501","pSARL_v2","pSARL_v2ds2bycbx","63f794e7d8d24753edbbb136","fixation","img/fixation.png","null","","test","","","","","",""
"389.60000002384186","625897","pSARL_v2","pSARL_v2ds2bycbx","63f794e7d8d24753edbbb136","freq","img/orange_2bandit_a2.png","70","70","test","1","9","9","1","",""
"null","626321","pSARL_v2","pSARL_v2ds2bycbx","63f794e7d8d24753edbbb136","freq_resp","img/orange_2bandit_a.png","70","70","test","","","","1","",""
"null","626484","pSARL_v2","pSARL_v2ds2bycbx","63f794e7d8d24753edbbb136","fixation","img/fixation.png","null","","test","","","","","",""
"385.5999999642372","626876","pSARL_v2","pSARL_v2ds2bycbx","63f794e7d8d24753edbbb136","freq","img/orange_2bandit_a2.png","70","70","test","1","10","10","1","",""
"null","627302","pSARL_v2","pSARL_v2ds2bycbx","63f794e7d8d24753edbbb136","freq_resp","img/orange_2bandit_a.png","70","70","test","","","","1","",""
"null","627465","pSARL_v2","pSARL_v2ds2bycbx","63f794e7d8d24753edbbb136","fixation","img/fixation.png","null","","test","","","","","",""
"412.19999998807907","627883","pSARL_v2","pSARL_v2ds2bycbx","63f794e7d8d24753edbbb136","freq","img/orange_2bandit_a2.png","70","70","test","1","11","11","1","",""
"null","628279","pSARL_v2","pSARL_v2ds2bycbx","63f794e7d8d24753edbbb136","freq_resp","img/orange_2bandit_a.png","70","70","test","","","","1","",""
"null","628438","pSARL_v2","pSARL_v2ds2bycbx","63f794e7d8d24753edbbb136","fixation","img/fixation.png","null","","test","","","","","",""
"328.30000001192093","628772","pSARL_v2","pSARL_v2ds2bycbx","63f794e7d8d24753edbbb136","freq","img/orange_2bandit_a2.png","70","70","test","1","12","12","1","",""
"null","629251","pSARL_v2","pSARL_v2ds2bycbx","63f794e7d8d24753edbbb136","freq_resp","img/orange_2bandit_a.png","70","70","test","","","","1","",""
"null","629413","pSARL_v2","pSARL_v2ds2bycbx","63f794e7d8d24753edbbb136","fixation","img/fixation.png","null","","test","","","","","",""
"377.30000001192093","629796","pSARL_v2","pSARL_v2ds2bycbx","63f794e7d8d24753edbbb136","freq","img/orange_2bandit_a2.png","70","70","test","1","13","13","1","",""
"null","630228","pSARL_v2","pSARL_v2ds2bycbx","63f794e7d8d24753edbbb136","freq_resp","img/orange_2bandit_a.png","70","70","test","","","","1","",""
"null","630390","pSARL_v2","pSARL_v2ds2bycbx","63f794e7d8d24753edbbb136","fixation","img/fixation.png","null","","test","","","","","",""
"350.89999997615814","630747","pSARL_v2","pSARL_v2ds2bycbx","63f794e7d8d24753edbbb136","freq","img/orange_2bandit_a2.png","70","70","test","1","14","14","1","",""
"null","631209","pSARL_v2","pSARL_v2ds2bycbx","63f794e7d8d24753edbbb136","freq_resp","img/orange_2bandit_a.png","70","70","test","","","","1","",""
"null","631370","pSARL_v2","pSARL_v2ds2bycbx","63f794e7d8d24753edbbb136","fixation","img/fixation.png","null","","test","","","","","",""
"297.69999998807907","631673","pSARL_v2","pSARL_v2ds2bycbx","63f794e7d8d24753edbbb136","freq","img/orange_2bandit_a2.png","70","70","test","1","15","15","1","",""
"null","632183","pSARL_v2","pSARL_v2ds2bycbx","63f794e7d8d24753edbbb136","freq_resp","img/orange_2bandit_a.png","70","70","test","","","","1","",""
"null","632347","pSARL_v2","pSARL_v2ds2bycbx","63f794e7d8d24753edbbb136","fixation","img/fixation.png","null","","test","","","","","",""
"326.19999998807907","632679","pSARL_v2","pSARL_v2ds2bycbx","63f794e7d8d24753edbbb136","freq","img/orange_2bandit_a2.png","70","70","test","1","16","16","1","",""
"null","633160","pSARL_v2","pSARL_v2ds2bycbx","63f794e7d8d24753edbbb136","freq_resp","img/orange_2bandit_a.png","70","70","test","","","","1","",""
"null","633322","pSARL_v2","pSARL_v2ds2bycbx","63f794e7d8d24753edbbb136","fixation","img/fixation.png","null","","test","","","","","",""
"451.60000002384186","633779","pSARL_v2","pSARL_v2ds2bycbx","63f794e7d8d24753edbbb136","infreq","img/green_2bandit_a2.png","68","68","test","1","17","17","1","",""
"null","634140","pSARL_v2","pSARL_v2ds2bycbx","63f794e7d8d24753edbbb136","infreq_resp","img/green_2bandit_a.png","68","68","test","","","","1","",""
"null","634300","pSARL_v2","pSARL_v2ds2bycbx","63f794e7d8d24753edbbb136","fixation","img/fixation.png","null","","test","","","","","",""
"333.60000002384186","634640","pSARL_v2","pSARL_v2ds2bycbx","63f794e7d8d24753edbbb136","infreq","img/green_2bandit_a2.png","68","68","test","1","18","18","1","",""
"null","635113","pSARL_v2","pSARL_v2ds2bycbx","63f794e7d8d24753edbbb136","infreq_resp","img/green_2bandit_a.png","68","68","test","","","","1","",""
"null","635277","pSARL_v2","pSARL_v2ds2bycbx","63f794e7d8d24753edbbb136","fixation","img/fixation.png","null","","test","","","","","",""
"568.9000000357628","635852","pSARL_v2","pSARL_v2ds2bycbx","63f794e7d8d24753edbbb136","freq","img/orange_2bandit_a2.png","70","70","test","1","19","19","1","",""
"null","636095","pSARL_v2","pSARL_v2ds2bycbx","63f794e7d8d24753edbbb136","freq_resp","img/orange_2bandit_a.png","70","70","test","","","","1","",""
"null","636258","pSARL_v2","pSARL_v2ds2bycbx","63f794e7d8d24753edbbb136","fixation","img/fixation.png","null","","test","","","","","",""
"630.3999999761581","636894","pSARL_v2","pSARL_v2ds2bycbx","63f794e7d8d24753edbbb136","reward","img/slot.png","74","","test","","","","","",""
"null","637653","pSARL_v2","pSARL_v2ds2bycbx","63f794e7d8d24753edbbb136","points","<div class=""verylowPoints""> -6 </div>","null","na","test","","","","1","-6","0"
"null","638464","pSARL_v2","pSARL_v2ds2bycbx","63f794e7d8d24753edbbb136","freq","img/orange_2bandit_a2.png","null","70","test","0","20","20","2","",""
"null","638623","pSARL_v2","pSARL_v2ds2bycbx","63f794e7d8d24753edbbb136","fixation","img/fixation.png","null","","test","","","","","",""
"547.8000000119209","639177","pSARL_v2","pSARL_v2ds2bycbx","63f794e7d8d24753edbbb136","freq","img/orange_2bandit_a2.png","70","70","test","1","21","21","2","",""
"null","639441","pSARL_v2","pSARL_v2ds2bycbx","63f794e7d8d24753edbbb136","freq_resp","img/orange_2bandit_a.png","70","70","test","","","","2","",""
"null","639603","pSARL_v2","pSARL_v2ds2bycbx","63f794e7d8d24753edbbb136","fixation","img/fixation.png","null","","test","","","","","",""
"563.5","640173","pSARL_v2","pSARL_v2ds2bycbx","63f794e7d8d24753edbbb136","freq","img/orange_2bandit_a2.png","70","70","test","1","22","22","2","",""
"null","640420","pSARL_v2","pSARL_v2ds2bycbx","63f794e7d8d24753edbbb136","freq_resp","img/orange_2bandit_a.png","70","70","test","","","","2","",""
"null","640579","pSARL_v2","pSARL_v2ds2bycbx","63f794e7d8d24753edbbb136","fixation","img/fixation.png","null","","test","","","","","",""
"432.5","641018","pSARL_v2","pSARL_v2ds2bycbx","63f794e7d8d24753edbbb136","freq","img/orange_2bandit_a2.png","70","70","test","1","23","23","2","",""
"null","641394","pSARL_v2","pSARL_v2ds2bycbx","63f794e7d8d24753edbbb136","freq_resp","img/orange_2bandit_a.png","70","70","test","","","","2","",""
"null","641553","pSARL_v2","pSARL_v2ds2bycbx","63f794e7d8d24753edbbb136","fixation","img/fixation.png","null","","test","","","","","",""
"335.39999997615814","641894","pSARL_v2","pSARL_v2ds2bycbx","63f794e7d8d24753edbbb136","freq","img/orange_2bandit_a2.png","70","70","test","1","24","24","2","",""
"null","642373","pSARL_v2","pSARL_v2ds2bycbx","63f794e7d8d24753edbbb136","freq_resp","img/orange_2bandit_a.png","70","70","test","","","","2","",""
"null","642535","pSARL_v2","pSARL_v2ds2bycbx","63f794e7d8d24753edbbb136","fixation","img/fixation.png","null","","test","","","","","",""
"477","643018","pSARL_v2","pSARL_v2ds2bycbx","63f794e7d8d24753edbbb136","freq","img/orange_2bandit_a2.png","70","70","test","1","25","25","2","",""
"null","643350","pSARL_v2","pSARL_v2ds2bycbx","63f794e7d8d24753edbbb136","freq_resp","img/orange_2bandit_a.png","70","70","test","","","","2","",""
"null","643510","pSARL_v2","pSARL_v2ds2bycbx","63f794e7d8d24753edbbb136","fixation","img/fixation.png","null","","test","","","","","",""
"351.80000001192093","643868","pSARL_v2","pSARL_v2ds2bycbx","63f794e7d8d24753edbbb136","freq","img/orange_2bandit_a2.png","70","70","test","1","26","26","2","",""
"null","644328","pSARL_v2","pSARL_v2ds2bycbx","63f794e7d8d24753edbbb136","freq_resp","img/orange_2bandit_a.png","70","70","test","","","","2","",""
"null","644489","pSARL_v2","pSARL_v2ds2bycbx","63f794e7d8d24753edbbb136","fixation","img/fixation.png","null","","test","","","","","",""
"370.80000001192093","644866","pSARL_v2","pSARL_v2ds2bycbx","63f794e7d8d24753edbbb136","freq","img/orange_2bandit_a2.png","70","70","test","1","27","27","2","",""
"null","645303","pSARL_v2","pSARL_v2ds2bycbx","63f794e7d8d24753edbbb136","freq_resp","img/orange_2bandit_a.png","70","70","test","","","","2","",""
"null","645466","pSARL_v2","pSARL_v2ds2bycbx","63f794e7d8d24753edbbb136","fixation","img/fixation.png","null","","test","","","","","",""
"421.2999999523163","645894","pSARL_v2","pSARL_v2ds2bycbx","63f794e7d8d24753edbbb136","freq","img/orange_2bandit_a2.png","70","70","test","1","28","28","2","",""
"null","646280","pSARL_v2","pSARL_v2ds2bycbx","63f794e7d8d24753edbbb136","freq_resp","img/orange_2bandit_a.png","70","70","test","","","","2","",""
"null","646439","pSARL_v2","pSARL_v2ds2bycbx","63f794e7d8d24753edbbb136","fixation","img/fixation.png","null","","test","","","","","",""
"516.3999999761581","646960","pSARL_v2","pSARL_v2ds2bycbx","63f794e7d8d24753edbbb136","infreq","img/green_2bandit_a2.png","68","68","test","1","29","29","2","",""
"null","647255","pSARL_v2","pSARL_v2ds2bycbx","63f794e7d8d24753edbbb136","infreq_resp","img/green_2bandit_a.png","68","68","test","","","","2","",""
"null","647415","pSARL_v2","pSARL_v2ds2bycbx","63f794e7d8d24753edbbb136","fixation","img/fixation.png","null","","test","","","","","",""
"354","647775","pSARL_v2","pSARL_v2ds2bycbx","63f794e7d8d24753edbbb136","infreq","img/green_2bandit_a2.png","68","68","test","1","30","30","2","",""
"null","648231","pSARL_v2","pSARL_v2ds2bycbx","63f794e7d8d24753edbbb136","infreq_resp","img/green_2bandit_a.png","68","68","test","","","","2","",""
"null","648390","pSARL_v2","pSARL_v2ds2bycbx","63f794e7d8d24753edbbb136","fixation","img/fixation.png","null","","test","","","","","",""
"598.1000000238419","648994","pSARL_v2","pSARL_v2ds2bycbx","63f794e7d8d24753edbbb136","freq","img/orange_2bandit_a2.png","70","70","test","1","31","31","2","",""
"null","649204","pSARL_v2","pSARL_v2ds2bycbx","63f794e7d8d24753edbbb136","freq_resp","img/orange_2bandit_a.png","70","70","test","","","","2","",""
"null","649366","pSARL_v2","pSARL_v2ds2bycbx","63f794e7d8d24753edbbb136","fixation","img/fixation.png","null","","test","","","","","",""
"499.9000000357628","649872","pSARL_v2","pSARL_v2ds2bycbx","63f794e7d8d24753edbbb136","freq","img/orange_2bandit_a2.png","70","70","test","1","32","32","2","",""
"null","650183","pSARL_v2","pSARL_v2ds2bycbx","63f794e7d8d24753edbbb136","freq_resp","img/orange_2bandit_a.png","70","70","test","","","","2","",""
"null","650340","pSARL_v2","pSARL_v2ds2bycbx","63f794e7d8d24753edbbb136","fixation","img/fixation.png","null","","test","","","","","",""
"336","650682","pSARL_v2","pSARL_v2ds2bycbx","63f794e7d8d24753edbbb136","freq","img/orange_2bandit_a2.png","70","70","test","1","33","33","2","",""
"null","651156","pSARL_v2","pSARL_v2ds2bycbx","63f794e7d8d24753edbbb136","freq_resp","img/orange_2bandit_a.png","70","70","test","","","","2","",""
"null","651314","pSARL_v2","pSARL_v2ds2bycbx","63f794e7d8d24753edbbb136","fixation","img/fixation.png","null","","test","","","","","",""
"554.6999999880791","651874","pSARL_v2","pSARL_v2ds2bycbx","63f794e7d8d24753edbbb136","infreq","img/green_2bandit_a2.png","68","68","test","1","34","34","2","",""
"null","652123","pSARL_v2","pSARL_v2ds2bycbx","63f794e7d8d24753edbbb136","infreq_resp","img/green_2bandit_a.png","68","68","test","","","","2","",""
"null","652279","pSARL_v2","pSARL_v2ds2bycbx","63f794e7d8d24753edbbb136","fixation","img/fixation.png","null","","test","","","","","",""
"329.19999998807907","652614","pSARL_v2","pSARL_v2ds2bycbx","63f794e7d8d24753edbbb136","freq","img/orange_2bandit_a2.png","68","70","test","0","35","35","2","",""
"null","653092","pSARL_v2","pSARL_v2ds2bycbx","63f794e7d8d24753edbbb136","freq_resp","img/orange_2bandit_a.png","68","70","test","","","","2","",""
"null","653249","pSARL_v2","pSARL_v2ds2bycbx","63f794e7d8d24753edbbb136","fixation","img/fixation.png","null","","test","","","","","",""
"373.19999998807907","653628","pSARL_v2","pSARL_v2ds2bycbx","63f794e7d8d24753edbbb136","freq","img/orange_2bandit_a2.png","70","70","test","1","36","36","2","",""
"null","654063","pSARL_v2","pSARL_v2ds2bycbx","63f794e7d8d24753edbbb136","freq_resp","img/orange_2bandit_a.png","70","70","test","","","","2","",""
"null","654224","pSARL_v2","pSARL_v2ds2bycbx","63f794e7d8d24753edbbb136","fixation","img/fixation.png","null","","test","","","","","",""
"444.19999998807907","654675","pSARL_v2","pSARL_v2ds2bycbx","63f794e7d8d24753edbbb136","freq","img/orange_2bandit_a2.png","70","70","test","1","37","37","2","",""
"null","655040","pSARL_v2","pSARL_v2ds2bycbx","63f794e7d8d24753edbbb136","freq_resp","img/orange_2bandit_a.png","70","70","test","","","","2","",""
"null","655202","pSARL_v2","pSARL_v2ds2bycbx","63f794e7d8d24753edbbb136","fixation","img/fixation.png","null","","test","","","","","",""
"346.60000002384186","655555","pSARL_v2","pSARL_v2ds2bycbx","63f794e7d8d24753edbbb136","freq","img/orange_2bandit_a2.png","68","70","test","0","38","38","2","",""
"null","656021","pSARL_v2","pSARL_v2ds2bycbx","63f794e7d8d24753edbbb136","freq_resp","img/orange_2bandit_a.png","68","70","test","","","","2","",""
"null","656182","pSARL_v2","pSARL_v2ds2bycbx","63f794e7d8d24753edbbb136","fixation","img/fixation.png","null","","test","","","","","",""
"617.5999999642372","656806","pSARL_v2","pSARL_v2ds2bycbx","63f794e7d8d24753edbbb136","freq","img/orange_2bandit_a2.png","70","70","test","1","39","39","2","",""
"null","656995","pSARL_v2","pSARL_v2ds2bycbx","63f794e7d8d24753edbbb136","freq_resp","img/orange_2bandit_a.png","70","70","test","","","","2","",""
"null","657152","pSARL_v2","pSARL_v2ds2bycbx","63f794e7d8d24753edbbb136","fixation","img/fixation.png","null","","test","","","","","",""
"340.10000002384186","657497","pSARL_v2","pSARL_v2ds2bycbx","63f794e7d8d24753edbbb136","freq","img/orange_2bandit_a2.png","70","70","test","1","40","40","2","",""
"null","657964","pSARL_v2","pSARL_v2ds2bycbx","63f794e7d8d24753edbbb136","freq_resp","img/orange_2bandit_a.png","70","70","test","","","","2","",""
"null","658125","pSARL_v2","pSARL_v2ds2bycbx","63f794e7d8d24753edbbb136","fixation","img/fixation.png","null","","test","","","","","",""
"0","658130","pSARL_v2","pSARL_v2ds2bycbx","63f794e7d8d24753edbbb136","freq","img/orange_2bandit_a2.png","70","70","test","1","41","41","2","",""
"null","658943","pSARL_v2","pSARL_v2ds2bycbx","63f794e7d8d24753edbbb136","freq_resp","img/orange_2bandit_a.png","70","70","test","","","","2","",""
"null","659105","pSARL_v2","pSARL_v2ds2bycbx","63f794e7d8d24753edbbb136","fixation","img/fixation.png","null","","test","","","","","",""
"649.3999999761581","659761","pSARL_v2","pSARL_v2ds2bycbx","63f794e7d8d24753edbbb136","reward","img/slot.png","74","","test","","","","","",""
"null","660520","pSARL_v2","pSARL_v2ds2bycbx","63f794e7d8d24753edbbb136","points","<div class=""verylowPoints""> -11 </div>","null","na","test","","","","2","-11","1"
"723.6000000238419","661250","pSARL_v2","pSARL_v2ds2bycbx","63f794e7d8d24753edbbb136","freq","img/orange_2bandit_a2.png","70","70","test","1","42","42","3","",""
"null","661336","pSARL_v2","pSARL_v2ds2bycbx","63f794e7d8d24753edbbb136","freq_resp","img/orange_2bandit_a.png","70","70","test","","","","3","",""
"null","661498","pSARL_v2","pSARL_v2ds2bycbx","63f794e7d8d24753edbbb136","fixation","img/fixation.png","null","","test","","","","","",""
"455.89999997615814","661959","pSARL_v2","pSARL_v2ds2bycbx","63f794e7d8d24753edbbb136","freq","img/orange_2bandit_a2.png","70","70","test","1","43","43","3","",""
"null","662315","pSARL_v2","pSARL_v2ds2bycbx","63f794e7d8d24753edbbb136","freq_resp","img/orange_2bandit_a.png","70","70","test","","","","3","",""
"null","662475","pSARL_v2","pSARL_v2ds2bycbx","63f794e7d8d24753edbbb136","fixation","img/fixation.png","null","","test","","","","","",""
"429","662911","pSARL_v2","pSARL_v2ds2bycbx","63f794e7d8d24753edbbb136","freq","img/orange_2bandit_a2.png","70","70","test","1","44","44","3","",""
"null","663288","pSARL_v2","pSARL_v2ds2bycbx","63f794e7d8d24753edbbb136","freq_resp","img/orange_2bandit_a.png","70","70","test","","","","3","",""
"null","663448","pSARL_v2","pSARL_v2ds2bycbx","63f794e7d8d24753edbbb136","fixation","img/fixation.png","null","","test","","","","","",""
"440.4000000357628","663895","pSARL_v2","pSARL_v2ds2bycbx","63f794e7d8d24753edbbb136","freq","img/orange_2bandit_a2.png","70","70","test","1","45","45","3","",""
"null","664268","pSARL_v2","pSARL_v2ds2bycbx","63f794e7d8d24753edbbb136","freq_resp","img/orange_2bandit_a.png","70","70","test","","","","3","",""
"null","664426","pSARL_v2","pSARL_v2ds2bycbx","63f794e7d8d24753edbbb136","fixation","img/fixation.png","null","","test","","","","","",""
"379.7999999523163","664812","pSARL_v2","pSARL_v2ds2bycbx","63f794e7d8d24753edbbb136","freq","img/orange_2bandit_a2.png","70","70","test","1","46","46","3","",""
"null","665241","pSARL_v2","pSARL_v2ds2bycbx","63f794e7d8d24753edbbb136","freq_resp","img/orange_2bandit_a.png","70","70","test","","","","3","",""
"null","665404","pSARL_v2","pSARL_v2ds2bycbx","63f794e7d8d24753edbbb136","fixation","img/fixation.png","null","","test","","","","","",""
"441.2999999523163","665851","pSARL_v2","pSARL_v2ds2bycbx","63f794e7d8d24753edbbb136","freq","img/orange_2bandit_a2.png","70","70","test","1","47","47","3","",""
"null","666219","pSARL_v2","pSARL_v2ds2bycbx","63f794e7d8d24753edbbb136","freq_resp","img/orange_2bandit_a.png","70","70","test","","","","3","",""
"null","666378","pSARL_v2","pSARL_v2ds2bycbx","63f794e7d8d24753edbbb136","fixation","img/fixation.png","null","","test","","","","","",""
"385.5","666770","pSARL_v2","pSARL_v2ds2bycbx","63f794e7d8d24753edbbb136","freq","img/orange_2bandit_a2.png","70","70","test","1","48","48","3","",""
"null","667192","pSARL_v2","pSARL_v2ds2bycbx","63f794e7d8d24753edbbb136","freq_resp","img/orange_2bandit_a.png","70","70","test","","","","3","",""
"null","667352","pSARL_v2","pSARL_v2ds2bycbx","63f794e7d8d24753edbbb136","fixation","img/fixation.png","null","","test","","","","","",""
"436.10000002384186","667794","pSARL_v2","pSARL_v2ds2bycbx","63f794e7d8d24753edbbb136","freq","img/orange_2bandit_a2.png","70","70","test","1","49","49","3","",""
"null","668167","pSARL_v2","pSARL_v2ds2bycbx","63f794e7d8d24753edbbb136","freq_resp","img/orange_2bandit_a.png","70","70","test","","","","3","",""
"null","668329","pSARL_v2","pSARL_v2ds2bycbx","63f794e7d8d24753edbbb136","fixation","img/fixation.png","null","","test","","","","","",""
"436","668771","pSARL_v2","pSARL_v2ds2bycbx","63f794e7d8d24753edbbb136","freq","img/orange_2bandit_a2.png","70","70","test","1","50","50","3","",""
"null","669145","pSARL_v2","pSARL_v2ds2bycbx","63f794e7d8d24753edbbb136","freq_resp","img/orange_2bandit_a.png","70","70","test","","","","3","",""
"null","669305","pSARL_v2","pSARL_v2ds2bycbx","63f794e7d8d24753edbbb136","fixation","img/fixation.png","null","","test","","","","","",""
"396","669707","pSARL_v2","pSARL_v2ds2bycbx","63f794e7d8d24753edbbb136","freq","img/orange_2bandit_a2.png","70","70","test","1","51","51","3","",""
"null","670119","pSARL_v2","pSARL_v2ds2bycbx","63f794e7d8d24753edbbb136","freq_resp","img/orange_2bandit_a.png","70","70","test","","","","3","",""
"null","670278","pSARL_v2","pSARL_v2ds2bycbx","63f794e7d8d24753edbbb136","fixation","img/fixation.png","null","","test","","","","","",""
"372.69999998807907","670657","pSARL_v2","pSARL_v2ds2bycbx","63f794e7d8d24753edbbb136","freq","img/orange_2bandit_a2.png","70","70","test","1","52","52","3","",""
"null","671093","pSARL_v2","pSARL_v2ds2bycbx","63f794e7d8d24753edbbb136","freq_resp","img/orange_2bandit_a.png","70","70","test","","","","3","",""
"null","671256","pSARL_v2","pSARL_v2ds2bycbx","63f794e7d8d24753edbbb136","fixation","img/fixation.png","null","","test","","","","","",""
"397.30000001192093","671660","pSARL_v2","pSARL_v2ds2bycbx","63f794e7d8d24753edbbb136","freq","img/orange_2bandit_a2.png","70","70","test","1","53","53","3","",""
"null","672074","pSARL_v2","pSARL_v2ds2bycbx","63f794e7d8d24753edbbb136","freq_resp","img/orange_2bandit_a.png","70","70","test","","","","3","",""
"null","672237","pSARL_v2","pSARL_v2ds2bycbx","63f794e7d8d24753edbbb136","fixation","img/fixation.png","null","","test","","","","","",""
"557.4000000357628","672801","pSARL_v2","pSARL_v2ds2bycbx","63f794e7d8d24753edbbb136","infreq","img/green_2bandit_a2.png","68","68","test","1","54","54","3","",""
"null","673056","pSARL_v2","pSARL_v2ds2bycbx","63f794e7d8d24753edbbb136","infreq_resp","img/green_2bandit_a.png","68","68","test","","","","3","",""
"null","673216","pSARL_v2","pSARL_v2ds2bycbx","63f794e7d8d24753edbbb136","fixation","img/fixation.png","null","","test","","","","","",""
"392.10000002384186","673615","pSARL_v2","pSARL_v2ds2bycbx","63f794e7d8d24753edbbb136","infreq","img/green_2bandit_a2.png","68","68","test","1","55","55","3","",""
"null","674034","pSARL_v2","pSARL_v2ds2bycbx","63f794e7d8d24753edbbb136","infreq_resp","img/green_2bandit_a.png","68","68","test","","","","3","",""
"null","674192","pSARL_v2","pSARL_v2ds2bycbx","63f794e7d8d24753edbbb136","fixation","img/fixation.png","null","","test","","","","","",""
"515","674713","pSARL_v2","pSARL_v2ds2bycbx","63f794e7d8d24753edbbb136","freq","img/orange_2bandit_a2.png","70","70","test","1","56","56","3","",""
"null","675006","pSARL_v2","pSARL_v2ds2bycbx","63f794e7d8d24753edbbb136","freq_resp","img/orange_2bandit_a.png","70","70","test","","","","3","",""
"null","675166","pSARL_v2","pSARL_v2ds2bycbx","63f794e7d8d24753edbbb136","fixation","img/fixation.png","null","","test","","","","","",""
"414","675585","pSARL_v2","pSARL_v2ds2bycbx","63f794e7d8d24753edbbb136","freq","img/orange_2bandit_a2.png","70","70","test","1","57","57","3","",""
"null","675982","pSARL_v2","pSARL_v2ds2bycbx","63f794e7d8d24753edbbb136","freq_resp","img/orange_2bandit_a.png","70","70","test","","","","3","",""
"null","676145","pSARL_v2","pSARL_v2ds2bycbx","63f794e7d8d24753edbbb136","fixation","img/fixation.png","null","","test","","","","","",""
"544.6999999880791","676694","pSARL_v2","pSARL_v2ds2bycbx","63f794e7d8d24753edbbb136","infreq","img/green_2bandit_a2.png","68","68","test","1","58","58","3","",""
"null","676956","pSARL_v2","pSARL_v2ds2bycbx","63f794e7d8d24753edbbb136","infreq_resp","img/green_2bandit_a.png","68","68","test","","","","3","",""
"null","677120","pSARL_v2","pSARL_v2ds2bycbx","63f794e7d8d24753edbbb136","fixation","img/fixation.png","null","","test","","","","","",""
"753.3999999761581","677879","pSARL_v2","pSARL_v2ds2bycbx","63f794e7d8d24753edbbb136","freq","img/orange_2bandit_a2.png","70","70","test","1","59","59","3","",""
"null","677933","pSARL_v2","pSARL_v2ds2bycbx","63f794e7d8d24753edbbb136","freq_resp","img/orange_2bandit_a.png","70","70","test","","","","3","",""
"null","678093","pSARL_v2","pSARL_v2ds2bycbx","63f794e7d8d24753edbbb136","fixation","img/fixation.png","null","","test","","","","","",""
"474.7999999523163","678574","pSARL_v2","pSARL_v2ds2bycbx","63f794e7d8d24753edbbb136","freq","img/orange_2bandit_a2.png","70","70","test","1","60","60","3","",""
"null","678907","pSARL_v2","pSARL_v2ds2bycbx","63f794e7d8d24753edbbb136","freq_resp","img/orange_2bandit_a.png","70","70","test","","","","3","",""
"null","679069","pSARL_v2","pSARL_v2ds2bycbx","63f794e7d8d24753edbbb136","fixation","img/fixation.png","null","","test","","","","","",""
"414.39999997615814","679490","pSARL_v2","pSARL_v2ds2bycbx","63f794e7d8d24753edbbb136","freq","img/orange_2bandit_a2.png","70","70","test","1","61","61","3","",""
"null","679884","pSARL_v2","pSARL_v2ds2bycbx","63f794e7d8d24753edbbb136","freq_resp","img/orange_2bandit_a.png","70","70","test","","","","3","",""
"null","680047","pSARL_v2","pSARL_v2ds2bycbx","63f794e7d8d24753edbbb136","fixation","img/fixation.png","null","","test","","","","","",""
"632.1999999880791","680685","pSARL_v2","pSARL_v2ds2bycbx","63f794e7d8d24753edbbb136","freq","img/orange_2bandit_a2.png","70","70","test","1","62","62","3","",""
"null","680863","pSARL_v2","pSARL_v2ds2bycbx","63f794e7d8d24753edbbb136","freq_resp","img/orange_2bandit_a.png","70","70","test","","","","3","",""
"null","681022","pSARL_v2","pSARL_v2ds2bycbx","63f794e7d8d24753edbbb136","fixation","img/fixation.png","null","","test","","","","","",""
"668.2000000476837","681696","pSARL_v2","pSARL_v2ds2bycbx","63f794e7d8d24753edbbb136","reward","img/slot.png","74","","test","","","","","",""
"null","682456","pSARL_v2","pSARL_v2ds2bycbx","63f794e7d8d24753edbbb136","points","<div class=""verylowPoints""> -7 </div>","null","na","test","","","","3","-7","2"
"520.8999999761581","682983","pSARL_v2","pSARL_v2ds2bycbx","63f794e7d8d24753edbbb136","freq","img/orange_2bandit_a2.png","70","70","test","1","63","63","4","",""
"null","683272","pSARL_v2","pSARL_v2ds2bycbx","63f794e7d8d24753edbbb136","freq_resp","img/orange_2bandit_a.png","70","70","test","","","","4","",""
"null","683433","pSARL_v2","pSARL_v2ds2bycbx","63f794e7d8d24753edbbb136","fixation","img/fixation.png","null","","test","","","","","",""
"396.39999997615814","683835","pSARL_v2","pSARL_v2ds2bycbx","63f794e7d8d24753edbbb136","freq","img/orange_2bandit_a2.png","70","70","test","1","64","64","4","",""
"null","684248","pSARL_v2","pSARL_v2ds2bycbx","63f794e7d8d24753edbbb136","freq_resp","img/orange_2bandit_a.png","70","70","test","","","","4","",""
"null","684407","pSARL_v2","pSARL_v2ds2bycbx","63f794e7d8d24753edbbb136","fixation","img/fixation.png","null","","test","","","","","",""
"405.19999998807907","684818","pSARL_v2","pSARL_v2ds2bycbx","63f794e7d8d24753edbbb136","freq","img/orange_2bandit_a2.png","70","70","test","1","65","65","4","",""
"null","685224","pSARL_v2","pSARL_v2ds2bycbx","63f794e7d8d24753edbbb136","freq_resp","img/orange_2bandit_a.png","70","70","test","","","","4","",""
"null","685386","pSARL_v2","pSARL_v2ds2bycbx","63f794e7d8d24753edbbb136","fixation","img/fixation.png","null","","test","","","","","",""
"351.60000002384186","685744","pSARL_v2","pSARL_v2ds2bycbx","63f794e7d8d24753edbbb136","freq","img/orange_2bandit_a2.png","70","70","test","1","66","66","4","",""
"null","686201","pSARL_v2","pSARL_v2ds2bycbx","63f794e7d8d24753edbbb136","freq_resp","img/orange_2bandit_a.png","70","70","test","","","","4","",""
"null","686362","pSARL_v2","pSARL_v2ds2bycbx","63f794e7d8d24753edbbb136","fixation","img/fixation.png","null","","test","","","","","",""
"364.5","686733","pSARL_v2","pSARL_v2ds2bycbx","63f794e7d8d24753edbbb136","freq","img/orange_2bandit_a2.png","70","70","test","1","67","67","4","",""
"null","687180","pSARL_v2","pSARL_v2ds2bycbx","63f794e7d8d24753edbbb136","freq_resp","img/orange_2bandit_a.png","70","70","test","","","","4","",""
"null","687345","pSARL_v2","pSARL_v2ds2bycbx","63f794e7d8d24753edbbb136","fixation","img/fixation.png","null","","test","","","","","",""
"388.89999997615814","687740","pSARL_v2","pSARL_v2ds2bycbx","63f794e7d8d24753edbbb136","freq","img/orange_2bandit_a2.png","70","70","test","1","68","68","4","",""
"null","688161","pSARL_v2","pSARL_v2ds2bycbx","63f794e7d8d24753edbbb136","freq_resp","img/orange_2bandit_a.png","70","70","test","","","","4","",""
"null","688318","pSARL_v2","pSARL_v2ds2bycbx","63f794e7d8d24753edbbb136","fixation","img/fixation.png","null","","test","","","","","",""
"436.10000002384186","688761","pSARL_v2","pSARL_v2ds2bycbx","63f794e7d8d24753edbbb136","infreq","img/green_2bandit_a2.png","68","68","test","1","69","69","4","",""
"null","689135","pSARL_v2","pSARL_v2ds2bycbx","63f794e7d8d24753edbbb136","infreq_resp","img/green_2bandit_a.png","68","68","test","","","","4","",""
"null","689292","pSARL_v2","pSARL_v2ds2bycbx","63f794e7d8d24753edbbb136","fixation","img/fixation.png","null","","test","","","","","",""
"530.1000000238419","689827","pSARL_v2","pSARL_v2ds2bycbx","63f794e7d8d24753edbbb136","freq","img/orange_2bandit_a2.png","70","70","test","1","70","70","4","",""
"null","690105","pSARL_v2","pSARL_v2ds2bycbx","63f794e7d8d24753edbbb136","freq_resp","img/orange_2bandit_a.png","70","70","test","","","","4","",""
"null","690265","pSARL_v2","pSARL_v2ds2bycbx","63f794e7d8d24753edbbb136","fixation","img/fixation.png","null","","test","","","","","",""
"515.5","690787","pSARL_v2","pSARL_v2ds2bycbx","63f794e7d8d24753edbbb136","infreq","img/green_2bandit_a2.png","68","68","test","1","71","71","4","",""
"null","691084","pSARL_v2","pSARL_v2ds2bycbx","63f794e7d8d24753edbbb136","infreq_resp","img/green_2bandit_a.png","68","68","test","","","","4","",""
"null","691246","pSARL_v2","pSARL_v2ds2bycbx","63f794e7d8d24753edbbb136","fixation","img/fixation.png","null","","test","","","","","",""
"507","691759","pSARL_v2","pSARL_v2ds2bycbx","63f794e7d8d24753edbbb136","freq","img/orange_2bandit_a2.png","70","70","test","1","72","72","4","",""
"null","692061","pSARL_v2","pSARL_v2ds2bycbx","63f794e7d8d24753edbbb136","freq_resp","img/orange_2bandit_a.png","70","70","test","","","","4","",""
"null","692218","pSARL_v2","pSARL_v2ds2bycbx","63f794e7d8d24753edbbb136","fixation","img/fixation.png","null","","test","","","","","",""
"364.4000000357628","692588","pSARL_v2","pSARL_v2ds2bycbx","63f794e7d8d24753edbbb136","freq","img/orange_2bandit_a2.png","70","70","test","1","73","73","4","",""
"null","693032","pSARL_v2","pSARL_v2ds2bycbx","63f794e7d8d24753edbbb136","freq_resp","img/orange_2bandit_a.png","70","70","test","","","","4","",""
"null","693191","pSARL_v2","pSARL_v2ds2bycbx","63f794e7d8d24753edbbb136","fixation","img/fixation.png","null","","test","","","","","",""
"354.69999998807907","693552","pSARL_v2","pSARL_v2ds2bycbx","63f794e7d8d24753edbbb136","freq","img/orange_2bandit_a2.png","70","70","test","1","74","74","4","",""
"null","694007","pSARL_v2","pSARL_v2ds2bycbx","63f794e7d8d24753edbbb136","freq_resp","img/orange_2bandit_a.png","70","70","test","","","","4","",""
"null","694168","pSARL_v2","pSARL_v2ds2bycbx","63f794e7d8d24753edbbb136","fixation","img/fixation.png","null","","test","","","","","",""
"359.80000001192093","694534","pSARL_v2","pSARL_v2ds2bycbx","63f794e7d8d24753edbbb136","freq","img/orange_2bandit_a2.png","70","70","test","1","75","75","4","",""
"null","694985","pSARL_v2","pSARL_v2ds2bycbx","63f794e7d8d24753edbbb136","freq_resp","img/orange_2bandit_a.png","70","70","test","","","","4","",""
"null","695145","pSARL_v2","pSARL_v2ds2bycbx","63f794e7d8d24753edbbb136","fixation","img/fixation.png","null","","test","","","","","",""
"364.89999997615814","695516","pSARL_v2","pSARL_v2ds2bycbx","63f794e7d8d24753edbbb136","freq","img/orange_2bandit_a2.png","70","70","test","1","76","76","4","",""
"null","695960","pSARL_v2","pSARL_v2ds2bycbx","63f794e7d8d24753edbbb136","freq_resp","img/orange_2bandit_a.png","70","70","test","","","","4","",""
"null","696122","pSARL_v2","pSARL_v2ds2bycbx","63f794e7d8d24753edbbb136","fixation","img/fixation.png","null","","test","","","","","",""
"208.79999995231628","696338","pSARL_v2","pSARL_v2ds2bycbx","63f794e7d8d24753edbbb136","freq","img/orange_2bandit_a2.png","70","70","test","1","77","77","4","",""
"null","696938","pSARL_v2","pSARL_v2ds2bycbx","63f794e7d8d24753edbbb136","freq_resp","img/orange_2bandit_a.png","70","70","test","","","","4","",""
"null","697096","pSARL_v2","pSARL_v2ds2bycbx","63f794e7d8d24753edbbb136","fixation","img/fixation.png","null","","test","","","","","",""
"381","697483","pSARL_v2","pSARL_v2ds2bycbx","63f794e7d8d24753edbbb136","freq","img/orange_2bandit_a2.png","70","70","test","1","78","78","4","",""
"null","697911","pSARL_v2","pSARL_v2ds2bycbx","63f794e7d8d24753edbbb136","freq_resp","img/orange_2bandit_a.png","70","70","test","","","","4","",""
"null","698073","pSARL_v2","pSARL_v2ds2bycbx","63f794e7d8d24753edbbb136","fixation","img/fixation.png","null","","test","","","","","",""
"236.5","698315","pSARL_v2","pSARL_v2ds2bycbx","63f794e7d8d24753edbbb136","freq","img/orange_2bandit_a2.png","70","70","test","1","79","79","4","",""
"null","698890","pSARL_v2","pSARL_v2ds2bycbx","63f794e7d8d24753edbbb136","freq_resp","img/orange_2bandit_a.png","70","70","test","","","","4","",""
"null","699047","pSARL_v2","pSARL_v2ds2bycbx","63f794e7d8d24753edbbb136","fixation","img/fixation.png","null","","test","","","","","",""
"327.39999997615814","699380","pSARL_v2","pSARL_v2ds2bycbx","63f794e7d8d24753edbbb136","freq","img/orange_2bandit_a2.png","70","70","test","1","80","80","4","",""
"null","699862","pSARL_v2","pSARL_v2ds2bycbx","63f794e7d8d24753edbbb136","freq_resp","img/orange_2bandit_a.png","70","70","test","","","","4","",""
"null","700023","pSARL_v2","pSARL_v2ds2bycbx","63f794e7d8d24753edbbb136","fixation","img/fixation.png","null","","test","","","","","",""
"282.69999998807907","700311","pSARL_v2","pSARL_v2ds2bycbx","63f794e7d8d24753edbbb136","freq","img/orange_2bandit_a2.png","70","70","test","1","81","81","4","",""
"null","700834","pSARL_v2","pSARL_v2ds2bycbx","63f794e7d8d24753edbbb136","freq_resp","img/orange_2bandit_a.png","70","70","test","","","","4","",""
"null","700993","pSARL_v2","pSARL_v2ds2bycbx","63f794e7d8d24753edbbb136","fixation","img/fixation.png","null","","test","","","","","",""
"314.89999997615814","701314","pSARL_v2","pSARL_v2ds2bycbx","63f794e7d8d24753edbbb136","freq","img/orange_2bandit_a2.png","70","70","test","1","82","82","4","",""
"null","701806","pSARL_v2","pSARL_v2ds2bycbx","63f794e7d8d24753edbbb136","freq_resp","img/orange_2bandit_a.png","70","70","test","","","","4","",""
"null","701964","pSARL_v2","pSARL_v2ds2bycbx","63f794e7d8d24753edbbb136","fixation","img/fixation.png","null","","test","","","","","",""
"306.69999998807907","702276","pSARL_v2","pSARL_v2ds2bycbx","63f794e7d8d24753edbbb136","freq","img/orange_2bandit_a2.png","70","70","test","1","83","83","4","",""
"null","702777","pSARL_v2","pSARL_v2ds2bycbx","63f794e7d8d24753edbbb136","freq_resp","img/orange_2bandit_a.png","70","70","test","","","","4","",""
"null","702934","pSARL_v2","pSARL_v2ds2bycbx","63f794e7d8d24753edbbb136","fixation","img/fixation.png","null","","test","","","","","",""
"267.5999999642372","703207","pSARL_v2","pSARL_v2ds2bycbx","63f794e7d8d24753edbbb136","infreq","img/green_2bandit_a2.png","70","68","test","0","84","84","4","",""
"null","703750","pSARL_v2","pSARL_v2ds2bycbx","63f794e7d8d24753edbbb136","infreq_resp","img/green_2bandit_a.png","70","68","test","","","","4","",""
"null","703911","pSARL_v2","pSARL_v2ds2bycbx","63f794e7d8d24753edbbb136","fixation","img/fixation.png","null","","test","","","","","",""
"73.89999997615814","703990","pSARL_v2","pSARL_v2ds2bycbx","63f794e7d8d24753edbbb136","freq","img/orange_2bandit_a2.png","68","70","test","0","85","85","4","",""
"null","704724","pSARL_v2","pSARL_v2ds2bycbx","63f794e7d8d24753edbbb136","freq_resp","img/orange_2bandit_a.png","68","70","test","","","","4","",""
"null","704880","pSARL_v2","pSARL_v2ds2bycbx","63f794e7d8d24753edbbb136","fixation","img/fixation.png","null","","test","","","","","",""
"663","705549","pSARL_v2","pSARL_v2ds2bycbx","63f794e7d8d24753edbbb136","freq","img/orange_2bandit_a2.png","70","70","test","1","86","86","4","",""
"null","705694","pSARL_v2","pSARL_v2ds2bycbx","63f794e7d8d24753edbbb136","freq_resp","img/orange_2bandit_a.png","70","70","test","","","","4","",""
"null","705853","pSARL_v2","pSARL_v2ds2bycbx","63f794e7d8d24753edbbb136","fixation","img/fixation.png","null","","test","","","","","",""
"445.30000001192093","706305","pSARL_v2","pSARL_v2ds2bycbx","63f794e7d8d24753edbbb136","freq","img/orange_2bandit_a2.png","70","70","test","1","87","87","4","",""
"null","706670","pSARL_v2","pSARL_v2ds2bycbx","63f794e7d8d24753edbbb136","freq_resp","img/orange_2bandit_a.png","70","70","test","","","","4","",""
"null","706833","pSARL_v2","pSARL_v2ds2bycbx","63f794e7d8d24753edbbb136","fixation","img/fixation.png","null","","test","","","","","",""
"400.80000001192093","707240","pSARL_v2","pSARL_v2ds2bycbx","63f794e7d8d24753edbbb136","freq","img/orange_2bandit_a2.png","70","70","test","1","88","88","4","",""
"null","707652","pSARL_v2","pSARL_v2ds2bycbx","63f794e7d8d24753edbbb136","freq_resp","img/orange_2bandit_a.png","70","70","test","","","","4","",""
"null","707813","pSARL_v2","pSARL_v2ds2bycbx","63f794e7d8d24753edbbb136","fixation","img/fixation.png","null","","test","","","","","",""
"267.19999998807907","708086","pSARL_v2","pSARL_v2ds2bycbx","63f794e7d8d24753edbbb136","freq","img/orange_2bandit_a2.png","70","70","test","1","89","89","4","",""
"null","708628","pSARL_v2","pSARL_v2ds2bycbx","63f794e7d8d24753edbbb136","freq_resp","img/orange_2bandit_a.png","70","70","test","","","","4","",""
"null","708787","pSARL_v2","pSARL_v2ds2bycbx","63f794e7d8d24753edbbb136","fixation","img/fixation.png","null","","test","","","","","",""
"647.8000000119209","709441","pSARL_v2","pSARL_v2ds2bycbx","63f794e7d8d24753edbbb136","reward","img/slot.png","74","","test","","","","","",""
"null","710201","pSARL_v2","pSARL_v2ds2bycbx","63f794e7d8d24753edbbb136","points","<div class=""verylowPoints""> -3 </div>","null","na","test","","","","4","-3","3"
"417.5","710624","pSARL_v2","pSARL_v2ds2bycbx","63f794e7d8d24753edbbb136","freq","img/orange_2bandit_a2.png","70","70","test","1","90","90","5","",""
"null","711019","pSARL_v2","pSARL_v2ds2bycbx","63f794e7d8d24753edbbb136","freq_resp","img/orange_2bandit_a.png","70","70","test","","","","5","",""
"null","711180","pSARL_v2","pSARL_v2ds2bycbx","63f794e7d8d24753edbbb136","fixation","img/fixation.png","null","","test","","","","","",""
"556.5","711743","pSARL_v2","pSARL_v2ds2bycbx","63f794e7d8d24753edbbb136","freq","img/orange_2bandit_a2.png","70","70","test","1","91","91","5","",""
"null","711993","pSARL_v2","pSARL_v2ds2bycbx","63f794e7d8d24753edbbb136","freq_resp","img/orange_2bandit_a.png","70","70","test","","","","5","",""
"null","712150","pSARL_v2","pSARL_v2ds2bycbx","63f794e7d8d24753edbbb136","fixation","img/fixation.png","null","","test","","","","","",""
"520.8000000119209","712677","pSARL_v2","pSARL_v2ds2bycbx","63f794e7d8d24753edbbb136","freq","img/orange_2bandit_a2.png","70","70","test","1","92","92","5","",""
"null","712963","pSARL_v2","pSARL_v2ds2bycbx","63f794e7d8d24753edbbb136","freq_resp","img/orange_2bandit_a.png","70","70","test","","","","5","",""
"null","713127","pSARL_v2","pSARL_v2ds2bycbx","63f794e7d8d24753edbbb136","fixation","img/fixation.png","null","","test","","","","","",""
"368.5999999642372","713501","pSARL_v2","pSARL_v2ds2bycbx","63f794e7d8d24753edbbb136","freq","img/orange_2bandit_a2.png","70","70","test","1","93","93","5","",""
"null","713940","pSARL_v2","pSARL_v2ds2bycbx","63f794e7d8d24753edbbb136","freq_resp","img/orange_2bandit_a.png","70","70","test","","","","5","",""
"null","714100","pSARL_v2","pSARL_v2ds2bycbx","63f794e7d8d24753edbbb136","fixation","img/fixation.png","null","","test","","","","","",""
"380.4000000357628","714486","pSARL_v2","pSARL_v2ds2bycbx","63f794e7d8d24753edbbb136","freq","img/orange_2bandit_a2.png","70","70","test","1","94","94","5","",""
"null","714914","pSARL_v2","pSARL_v2ds2bycbx","63f794e7d8d24753edbbb136","freq_resp","img/orange_2bandit_a.png","70","70","test","","","","5","",""
"null","715076","pSARL_v2","pSARL_v2ds2bycbx","63f794e7d8d24753edbbb136","fixation","img/fixation.png","null","","test","","","","","",""
"459.10000002384186","715541","pSARL_v2","pSARL_v2ds2bycbx","63f794e7d8d24753edbbb136","infreq","img/green_2bandit_a2.png","68","68","test","1","95","95","5","",""
"null","715895","pSARL_v2","pSARL_v2ds2bycbx","63f794e7d8d24753edbbb136","infreq_resp","img/green_2bandit_a.png","68","68","test","","","","5","",""
"null","716056","pSARL_v2","pSARL_v2ds2bycbx","63f794e7d8d24753edbbb136","fixation","img/fixation.png","null","","test","","","","","",""
"460.30000001192093","716522","pSARL_v2","pSARL_v2ds2bycbx","63f794e7d8d24753edbbb136","freq","img/orange_2bandit_a2.png","70","70","test","1","96","96","5","",""
"null","716871","pSARL_v2","pSARL_v2ds2bycbx","63f794e7d8d24753edbbb136","freq_resp","img/orange_2bandit_a.png","70","70","test","","","","5","",""
"null","717032","pSARL_v2","pSARL_v2ds2bycbx","63f794e7d8d24753edbbb136","fixation","img/fixation.png","null","","test","","","","","",""
"371.4000000357628","717408","pSARL_v2","pSARL_v2ds2bycbx","63f794e7d8d24753edbbb136","freq","img/orange_2bandit_a2.png","70","70","test","1","97","97","5","",""
"null","717842","pSARL_v2","pSARL_v2ds2bycbx","63f794e7d8d24753edbbb136","freq_resp","img/orange_2bandit_a.png","70","70","test","","","","5","",""
"null","718002","pSARL_v2","pSARL_v2ds2bycbx","63f794e7d8d24753edbbb136","fixation","img/fixation.png","null","","test","","","","","",""
"345.39999997615814","718353","pSARL_v2","pSARL_v2ds2bycbx","63f794e7d8d24753edbbb136","freq","img/orange_2bandit_a2.png","70","70","test","1","98","98","5","",""
"null","718818","pSARL_v2","pSARL_v2ds2bycbx","63f794e7d8d24753edbbb136","freq_resp","img/orange_2bandit_a.png","70","70","test","","","","5","",""
"null","718978","pSARL_v2","pSARL_v2ds2bycbx","63f794e7d8d24753edbbb136","fixation","img/fixation.png","null","","test","","","","","",""
"442.9000000357628","719427","pSARL_v2","pSARL_v2ds2bycbx","63f794e7d8d24753edbbb136","freq","img/orange_2bandit_a2.png","70","70","test","1","99","99","5","",""
"null","719797","pSARL_v2","pSARL_v2ds2bycbx","63f794e7d8d24753edbbb136","freq_resp","img/orange_2bandit_a.png","70","70","test","","","","5","",""
"null","719958","pSARL_v2","pSARL_v2ds2bycbx","63f794e7d8d24753edbbb136","fixation","img/fixation.png","null","","test","","","","","",""
"445.5","720409","pSARL_v2","pSARL_v2ds2bycbx","63f794e7d8d24753edbbb136","freq","img/orange_2bandit_a2.png","70","70","test","1","100","100","5","",""
"null","720770","pSARL_v2","pSARL_v2ds2bycbx","63f794e7d8d24753edbbb136","freq_resp","img/orange_2bandit_a.png","70","70","test","","","","5","",""
"null","720926","pSARL_v2","pSARL_v2ds2bycbx","63f794e7d8d24753edbbb136","fixation","img/fixation.png","null","","test","","","","","",""
"392.5","721324","pSARL_v2","pSARL_v2ds2bycbx","63f794e7d8d24753edbbb136","freq","img/orange_2bandit_a2.png","70","70","test","1","101","101","5","",""
"null","721738","pSARL_v2","pSARL_v2ds2bycbx","63f794e7d8d24753edbbb136","freq_resp","img/orange_2bandit_a.png","70","70","test","","","","5","",""
"null","721899","pSARL_v2","pSARL_v2ds2bycbx","63f794e7d8d24753edbbb136","fixation","img/fixation.png","null","","test","","","","","",""
"325","722229","pSARL_v2","pSARL_v2ds2bycbx","63f794e7d8d24753edbbb136","freq","img/orange_2bandit_a2.png","70","70","test","1","102","102","5","",""
"null","722717","pSARL_v2","pSARL_v2ds2bycbx","63f794e7d8d24753edbbb136","freq_resp","img/orange_2bandit_a.png","70","70","test","","","","5","",""
"null","722877","pSARL_v2","pSARL_v2ds2bycbx","63f794e7d8d24753edbbb136","fixation","img/fixation.png","null","","test","","","","","",""
"488.89999997615814","723372","pSARL_v2","pSARL_v2ds2bycbx","63f794e7d8d24753edbbb136","infreq","img/green_2bandit_a2.png","68","68","test","1","103","103","5","",""
"null","723690","pSARL_v2","pSARL_v2ds2bycbx","63f794e7d8d24753edbbb136","infreq_resp","img/green_2bandit_a.png","68","68","test","","","","5","",""
"null","723846","pSARL_v2","pSARL_v2ds2bycbx","63f794e7d8d24753edbbb136","fixation","img/fixation.png","null","","test","","","","","",""
"456.5999999642372","724307","pSARL_v2","pSARL_v2ds2bycbx","63f794e7d8d24753edbbb136","freq","img/orange_2bandit_a2.png","70","70","test","1","104","104","5","",""
"null","724660","pSARL_v2","pSARL_v2ds2bycbx","63f794e7d8d24753edbbb136","freq_resp","img/orange_2bandit_a.png","70","70","test","","","","5","",""
"null","724820","pSARL_v2","pSARL_v2ds2bycbx","63f794e7d8d24753edbbb136","fixation","img/fixation.png","null","","test","","","","","",""
"383.5999999642372","725210","pSARL_v2","pSARL_v2ds2bycbx","63f794e7d8d24753edbbb136","freq","img/orange_2bandit_a2.png","70","70","test","1","105","105","5","",""
"null","725640","pSARL_v2","pSARL_v2ds2bycbx","63f794e7d8d24753edbbb136","freq_resp","img/orange_2bandit_a.png","70","70","test","","","","5","",""
"null","725799","pSARL_v2","pSARL_v2ds2bycbx","63f794e7d8d24753edbbb136","fixation","img/fixation.png","null","","test","","","","","",""
"438.80000001192093","726244","pSARL_v2","pSARL_v2ds2bycbx","63f794e7d8d24753edbbb136","freq","img/orange_2bandit_a2.png","70","70","test","1","106","106","5","",""
"null","726616","pSARL_v2","pSARL_v2ds2bycbx","63f794e7d8d24753edbbb136","freq_resp","img/orange_2bandit_a.png","70","70","test","","","","5","",""
"null","726775","pSARL_v2","pSARL_v2ds2bycbx","63f794e7d8d24753edbbb136","fixation","img/fixation.png","null","","test","","","","","",""
"493","727274","pSARL_v2","pSARL_v2ds2bycbx","63f794e7d8d24753edbbb136","freq","img/orange_2bandit_a2.png","70","70","test","1","107","107","5","",""
"null","727593","pSARL_v2","pSARL_v2ds2bycbx","63f794e7d8d24753edbbb136","freq_resp","img/orange_2bandit_a.png","70","70","test","","","","5","",""
"null","727755","pSARL_v2","pSARL_v2ds2bycbx","63f794e7d8d24753edbbb136","fixation","img/fixation.png","null","","test","","","","","",""
"335.9000000357628","728098","pSARL_v2","pSARL_v2ds2bycbx","63f794e7d8d24753edbbb136","freq","img/orange_2bandit_a2.png","70","70","test","1","108","108","5","",""
"null","728575","pSARL_v2","pSARL_v2ds2bycbx","63f794e7d8d24753edbbb136","freq_resp","img/orange_2bandit_a.png","70","70","test","","","","5","",""
"null","728737","pSARL_v2","pSARL_v2ds2bycbx","63f794e7d8d24753edbbb136","fixation","img/fixation.png","null","","test","","","","","",""
"239.20000004768372","728980","pSARL_v2","pSARL_v2ds2bycbx","63f794e7d8d24753edbbb136","freq","img/orange_2bandit_a2.png","70","70","test","1","109","109","5","",""
"null","729550","pSARL_v2","pSARL_v2ds2bycbx","63f794e7d8d24753edbbb136","freq_resp","img/orange_2bandit_a.png","70","70","test","","","","5","",""
"null","729709","pSARL_v2","pSARL_v2ds2bycbx","63f794e7d8d24753edbbb136","fixation","img/fixation.png","null","","test","","","","","",""
"192.19999998807907","729908","pSARL_v2","pSARL_v2ds2bycbx","63f794e7d8d24753edbbb136","freq","img/orange_2bandit_a2.png","70","70","test","1","110","110","5","",""
"null","730523","pSARL_v2","pSARL_v2ds2bycbx","63f794e7d8d24753edbbb136","freq_resp","img/orange_2bandit_a.png","70","70","test","","","","5","",""
"null","730687","pSARL_v2","pSARL_v2ds2bycbx","63f794e7d8d24753edbbb136","fixation","img/fixation.png","null","","test","","","","","",""
"110.89999997615814","730804","pSARL_v2","pSARL_v2ds2bycbx","63f794e7d8d24753edbbb136","freq","img/orange_2bandit_a2.png","70","70","test","1","111","111","5","",""
"null","731504","pSARL_v2","pSARL_v2ds2bycbx","63f794e7d8d24753edbbb136","freq_resp","img/orange_2bandit_a.png","70","70","test","","","","5","",""
"null","731663","pSARL_v2","pSARL_v2ds2bycbx","63f794e7d8d24753edbbb136","fixation","img/fixation.png","null","","test","","","","","",""
"167.30000001192093","731836","pSARL_v2","pSARL_v2ds2bycbx","63f794e7d8d24753edbbb136","freq","img/orange_2bandit_a2.png","70","70","test","1","112","112","5","",""
"null","732481","pSARL_v2","pSARL_v2ds2bycbx","63f794e7d8d24753edbbb136","freq_resp","img/orange_2bandit_a.png","70","70","test","","","","5","",""
"null","732644","pSARL_v2","pSARL_v2ds2bycbx","63f794e7d8d24753edbbb136","fixation","img/fixation.png","null","","test","","","","","",""
"416.39999997615814","733066","pSARL_v2","pSARL_v2ds2bycbx","63f794e7d8d24753edbbb136","freq","img/orange_2bandit_a2.png","70","70","test","1","113","113","5","",""
"null","733462","pSARL_v2","pSARL_v2ds2bycbx","63f794e7d8d24753edbbb136","freq_resp","img/orange_2bandit_a.png","70","70","test","","","","5","",""
"null","733623","pSARL_v2","pSARL_v2ds2bycbx","63f794e7d8d24753edbbb136","fixation","img/fixation.png","null","","test","","","","","",""
"210.69999998807907","733840","pSARL_v2","pSARL_v2ds2bycbx","63f794e7d8d24753edbbb136","freq","img/orange_2bandit_a2.png","70","70","test","1","114","114","5","",""
"null","734438","pSARL_v2","pSARL_v2ds2bycbx","63f794e7d8d24753edbbb136","freq_resp","img/orange_2bandit_a.png","70","70","test","","","","5","",""
"null","734600","pSARL_v2","pSARL_v2ds2bycbx","63f794e7d8d24753edbbb136","fixation","img/fixation.png","null","","test","","","","","",""
"154.10000002384186","734760","pSARL_v2","pSARL_v2ds2bycbx","63f794e7d8d24753edbbb136","freq","img/orange_2bandit_a2.png","70","70","test","1","115","115","5","",""
"null","735419","pSARL_v2","pSARL_v2ds2bycbx","63f794e7d8d24753edbbb136","freq_resp","img/orange_2bandit_a.png","70","70","test","","","","5","",""
"null","735579","pSARL_v2","pSARL_v2ds2bycbx","63f794e7d8d24753edbbb136","fixation","img/fixation.png","null","","test","","","","","",""
"550.7000000476837","736136","pSARL_v2","pSARL_v2ds2bycbx","63f794e7d8d24753edbbb136","reward","img/slot.png","74","","test","","","","","",""
"null","736897","pSARL_v2","pSARL_v2ds2bycbx","63f794e7d8d24753edbbb136","points","<div class=""veryhighPoints""> +1 </div>","null","na","test","","","","5","1","4"
"388.30000001192093","737292","pSARL_v2","pSARL_v2ds2bycbx","63f794e7d8d24753edbbb136","freq","img/orange_2bandit_a2.png","70","70","test","1","116","116","6","",""
"null","737715","pSARL_v2","pSARL_v2ds2bycbx","63f794e7d8d24753edbbb136","freq_resp","img/orange_2bandit_a.png","70","70","test","","","","6","",""
"null","737873","pSARL_v2","pSARL_v2ds2bycbx","63f794e7d8d24753edbbb136","fixation","img/fixation.png","null","","test","","","","","",""
"273.5","738153","pSARL_v2","pSARL_v2ds2bycbx","63f794e7d8d24753edbbb136","freq","img/orange_2bandit_a2.png","70","70","test","1","117","117","6","",""
"null","738687","pSARL_v2","pSARL_v2ds2bycbx","63f794e7d8d24753edbbb136","freq_resp","img/orange_2bandit_a.png","70","70","test","","","","6","",""
"null","738850","pSARL_v2","pSARL_v2ds2bycbx","63f794e7d8d24753edbbb136","fixation","img/fixation.png","null","","test","","","","","",""
"256.60000002384186","739113","pSARL_v2","pSARL_v2ds2bycbx","63f794e7d8d24753edbbb136","infreq","img/green_2bandit_a2.png","70","68","test","0","118","118","6","",""
"null","739666","pSARL_v2","pSARL_v2ds2bycbx","63f794e7d8d24753edbbb136","infreq_resp","img/green_2bandit_a.png","70","68","test","","","","6","",""
"null","739823","pSARL_v2","pSARL_v2ds2bycbx","63f794e7d8d24753edbbb136","fixation","img/fixation.png","null","","test","","","","","",""
"643.5","740473","pSARL_v2","pSARL_v2ds2bycbx","63f794e7d8d24753edbbb136","freq","img/orange_2bandit_a2.png","70","70","test","1","119","119","6","",""
"null","740639","pSARL_v2","pSARL_v2ds2bycbx","63f794e7d8d24753edbbb136","freq_resp","img/orange_2bandit_a.png","70","70","test","","","","6","",""
"null","740796","pSARL_v2","pSARL_v2ds2bycbx","63f794e7d8d24753edbbb136","fixation","img/fixation.png","null","","test","","","","","",""
"507.19999998807907","741307","pSARL_v2","pSARL_v2ds2bycbx","63f794e7d8d24753edbbb136","freq","img/orange_2bandit_a2.png","70","70","test","1","120","120","6","",""
"null","741607","pSARL_v2","pSARL_v2ds2bycbx","63f794e7d8d24753edbbb136","freq_resp","img/orange_2bandit_a.png","70","70","test","","","","6","",""
"null","741768","pSARL_v2","pSARL_v2ds2bycbx","63f794e7d8d24753edbbb136","fixation","img/fixation.png","null","","test","","","","","",""
"436.19999998807907","742210","pSARL_v2","pSARL_v2ds2bycbx","63f794e7d8d24753edbbb136","freq","img/orange_2bandit_a2.png","70","70","test","1","121","121","6","",""
"null","742582","pSARL_v2","pSARL_v2ds2bycbx","63f794e7d8d24753edbbb136","freq_resp","img/orange_2bandit_a.png","70","70","test","","","","6","",""
"null","742746","pSARL_v2","pSARL_v2ds2bycbx","63f794e7d8d24753edbbb136","fixation","img/fixation.png","null","","test","","","","","",""
"456.89999997615814","743209","pSARL_v2","pSARL_v2ds2bycbx","63f794e7d8d24753edbbb136","freq","img/orange_2bandit_a2.png","70","70","test","1","122","122","6","",""
"null","743563","pSARL_v2","pSARL_v2ds2bycbx","63f794e7d8d24753edbbb136","freq_resp","img/orange_2bandit_a.png","70","70","test","","","","6","",""
"null","743725","pSARL_v2","pSARL_v2ds2bycbx","63f794e7d8d24753edbbb136","fixation","img/fixation.png","null","","test","","","","","",""
"366.10000002384186","744097","pSARL_v2","pSARL_v2ds2bycbx","63f794e7d8d24753edbbb136","freq","img/orange_2bandit_a2.png","70","70","test","1","123","123","6","",""
"null","744541","pSARL_v2","pSARL_v2ds2bycbx","63f794e7d8d24753edbbb136","freq_resp","img/orange_2bandit_a.png","70","70","test","","","","6","",""
"null","744700","pSARL_v2","pSARL_v2ds2bycbx","63f794e7d8d24753edbbb136","fixation","img/fixation.png","null","","test","","","","","",""
"552.6999999880791","745259","pSARL_v2","pSARL_v2ds2bycbx","63f794e7d8d24753edbbb136","infreq","img/green_2bandit_a2.png","68","68","test","1","124","124","6","",""
"null","745516","pSARL_v2","pSARL_v2ds2bycbx","63f794e7d8d24753edbbb136","infreq_resp","img/green_2bandit_a.png","68","68","test","","","","6","",""
"null","745675","pSARL_v2","pSARL_v2ds2bycbx","63f794e7d8d24753edbbb136","fixation","img/fixation.png","null","","test","","","","","",""
"628.5999999642372","746310","pSARL_v2","pSARL_v2ds2bycbx","63f794e7d8d24753edbbb136","freq","img/orange_2bandit_a2.png","70","70","test","1","125","125","6","",""
"null","746491","pSARL_v2","pSARL_v2ds2bycbx","63f794e7d8d24753edbbb136","freq_resp","img/orange_2bandit_a.png","70","70","test","","","","6","",""
"null","746652","pSARL_v2","pSARL_v2ds2bycbx","63f794e7d8d24753edbbb136","fixation","img/fixation.png","null","","test","","","","","",""
"670.1000000238419","747326","pSARL_v2","pSARL_v2ds2bycbx","63f794e7d8d24753edbbb136","freq","img/orange_2bandit_a2.png","70","70","test","1","126","126","6","",""
"null","747461","pSARL_v2","pSARL_v2ds2bycbx","63f794e7d8d24753edbbb136","freq_resp","img/orange_2bandit_a.png","70","70","test","","","","6","",""
"null","747619","pSARL_v2","pSARL_v2ds2bycbx","63f794e7d8d24753edbbb136","fixation","img/fixation.png","null","","test","","","","","",""
"502.19999998807907","748127","pSARL_v2","pSARL_v2ds2bycbx","63f794e7d8d24753edbbb136","freq","img/orange_2bandit_a2.png","70","70","test","1","127","127","6","",""
"null","748434","pSARL_v2","pSARL_v2ds2bycbx","63f794e7d8d24753edbbb136","freq_resp","img/orange_2bandit_a.png","70","70","test","","","","6","",""
"null","748593","pSARL_v2","pSARL_v2ds2bycbx","63f794e7d8d24753edbbb136","fixation","img/fixation.png","null","","test","","","","","",""
"443.80000001192093","749043","pSARL_v2","pSARL_v2ds2bycbx","63f794e7d8d24753edbbb136","freq","img/orange_2bandit_a2.png","70","70","test","1","128","128","6","",""
"null","749409","pSARL_v2","pSARL_v2ds2bycbx","63f794e7d8d24753edbbb136","freq_resp","img/orange_2bandit_a.png","70","70","test","","","","6","",""
"null","749569","pSARL_v2","pSARL_v2ds2bycbx","63f794e7d8d24753edbbb136","fixation","img/fixation.png","null","","test","","","","","",""
"377.5","749953","pSARL_v2","pSARL_v2ds2bycbx","63f794e7d8d24753edbbb136","freq","img/orange_2bandit_a2.png","70","70","test","1","129","129","6","",""
"null","750383","pSARL_v2","pSARL_v2ds2bycbx","63f794e7d8d24753edbbb136","freq_resp","img/orange_2bandit_a.png","70","70","test","","","","6","",""
"null","750545","pSARL_v2","pSARL_v2ds2bycbx","63f794e7d8d24753edbbb136","fixation","img/fixation.png","null","","test","","","","","",""
"419.89999997615814","750971","pSARL_v2","pSARL_v2ds2bycbx","63f794e7d8d24753edbbb136","freq","img/orange_2bandit_a2.png","70","70","test","1","130","130","6","",""
"null","751360","pSARL_v2","pSARL_v2ds2bycbx","63f794e7d8d24753edbbb136","freq_resp","img/orange_2bandit_a.png","70","70","test","","","","6","",""
"null","751520","pSARL_v2","pSARL_v2ds2bycbx","63f794e7d8d24753edbbb136","fixation","img/fixation.png","null","","test","","","","","",""
"465.5","751992","pSARL_v2","pSARL_v2ds2bycbx","63f794e7d8d24753edbbb136","freq","img/orange_2bandit_a2.png","70","70","test","1","131","131","6","",""
"null","752338","pSARL_v2","pSARL_v2ds2bycbx","63f794e7d8d24753edbbb136","freq_resp","img/orange_2bandit_a.png","70","70","test","","","","6","",""
"null","752497","pSARL_v2","pSARL_v2ds2bycbx","63f794e7d8d24753edbbb136","fixation","img/fixation.png","null","","test","","","","","",""
"655","753159","pSARL_v2","pSARL_v2ds2bycbx","63f794e7d8d24753edbbb136","freq","img/orange_2bandit_a2.png","70","70","test","1","132","132","6","",""
"null","753313","pSARL_v2","pSARL_v2ds2bycbx","63f794e7d8d24753edbbb136","freq_resp","img/orange_2bandit_a.png","70","70","test","","","","6","",""
"null","753470","pSARL_v2","pSARL_v2ds2bycbx","63f794e7d8d24753edbbb136","fixation","img/fixation.png","null","","test","","","","","",""
"708.9000000357628","754185","pSARL_v2","pSARL_v2ds2bycbx","63f794e7d8d24753edbbb136","freq","img/orange_2bandit_a2.png","70","70","test","1","133","133","6","",""
"null","754285","pSARL_v2","pSARL_v2ds2bycbx","63f794e7d8d24753edbbb136","freq_resp","img/orange_2bandit_a.png","70","70","test","","","","6","",""
"null","754446","pSARL_v2","pSARL_v2ds2bycbx","63f794e7d8d24753edbbb136","fixation","img/fixation.png","null","","test","","","","","",""
"578.5","755029","pSARL_v2","pSARL_v2ds2bycbx","63f794e7d8d24753edbbb136","freq","img/orange_2bandit_a2.png","70","70","test","1","134","134","6","",""
"null","755259","pSARL_v2","pSARL_v2ds2bycbx","63f794e7d8d24753edbbb136","freq_resp","img/orange_2bandit_a.png","70","70","test","","","","6","",""
"null","755416","pSARL_v2","pSARL_v2ds2bycbx","63f794e7d8d24753edbbb136","fixation","img/fixation.png","null","","test","","","","","",""
"577.3000000119209","756001","pSARL_v2","pSARL_v2ds2bycbx","63f794e7d8d24753edbbb136","freq","img/orange_2bandit_a2.png","70","70","test","1","135","135","6","",""
"null","756235","pSARL_v2","pSARL_v2ds2bycbx","63f794e7d8d24753edbbb136","freq_resp","img/orange_2bandit_a.png","70","70","test","","","","6","",""
"null","756397","pSARL_v2","pSARL_v2ds2bycbx","63f794e7d8d24753edbbb136","fixation","img/fixation.png","null","","test","","","","","",""
"395.19999998807907","756798","pSARL_v2","pSARL_v2ds2bycbx","63f794e7d8d24753edbbb136","freq","img/orange_2bandit_a2.png","70","70","test","1","136","136","6","",""
"null","757209","pSARL_v2","pSARL_v2ds2bycbx","63f794e7d8d24753edbbb136","freq_resp","img/orange_2bandit_a.png","70","70","test","","","","6","",""
"null","757366","pSARL_v2","pSARL_v2ds2bycbx","63f794e7d8d24753edbbb136","fixation","img/fixation.png","null","","test","","","","","",""
"395.5","757768","pSARL_v2","pSARL_v2ds2bycbx","63f794e7d8d24753edbbb136","freq","img/orange_2bandit_a2.png","70","70","test","1","137","137","6","",""
"null","758186","pSARL_v2","pSARL_v2ds2bycbx","63f794e7d8d24753edbbb136","freq_resp","img/orange_2bandit_a.png","70","70","test","","","","6","",""
"null","758349","pSARL_v2","pSARL_v2ds2bycbx","63f794e7d8d24753edbbb136","fixation","img/fixation.png","null","","test","","","","","",""
"426.5","758782","pSARL_v2","pSARL_v2ds2bycbx","63f794e7d8d24753edbbb136","freq","img/orange_2bandit_a2.png","70","70","test","1","138","138","6","",""
"null","759166","pSARL_v2","pSARL_v2ds2bycbx","63f794e7d8d24753edbbb136","freq_resp","img/orange_2bandit_a.png","70","70","test","","","","6","",""
"null","759326","pSARL_v2","pSARL_v2ds2bycbx","63f794e7d8d24753edbbb136","fixation","img/fixation.png","null","","test","","","","","",""
"408.30000001192093","759740","pSARL_v2","pSARL_v2ds2bycbx","63f794e7d8d24753edbbb136","freq","img/orange_2bandit_a2.png","70","70","test","1","139","139","6","",""
"null","760143","pSARL_v2","pSARL_v2ds2bycbx","63f794e7d8d24753edbbb136","freq_resp","img/orange_2bandit_a.png","70","70","test","","","","6","",""
"null","760304","pSARL_v2","pSARL_v2ds2bycbx","63f794e7d8d24753edbbb136","fixation","img/fixation.png","null","","test","","","","","",""
"617.8999999761581","760927","pSARL_v2","pSARL_v2ds2bycbx","63f794e7d8d24753edbbb136","reward","img/slot.png","74","","test","","","","","",""
"null","761687","pSARL_v2","pSARL_v2ds2bycbx","63f794e7d8d24753edbbb136","points","<div class=""verylowPoints""> -7 </div>","null","na","test","","","","6","-7","5"
"367.80000001192093","762061","pSARL_v2","pSARL_v2ds2bycbx","63f794e7d8d24753edbbb136","freq","img/orange_2bandit_a2.png","70","70","test","1","140","140","7","",""
"null","762503","pSARL_v2","pSARL_v2ds2bycbx","63f794e7d8d24753edbbb136","freq_resp","img/orange_2bandit_a.png","70","70","test","","","","7","",""
"null","762664","pSARL_v2","pSARL_v2ds2bycbx","63f794e7d8d24753edbbb136","fixation","img/fixation.png","null","","test","","","","","",""
"364.30000001192093","763035","pSARL_v2","pSARL_v2ds2bycbx","63f794e7d8d24753edbbb136","freq","img/orange_2bandit_a2.png","70","70","test","1","141","141","7","",""
"null","763479","pSARL_v2","pSARL_v2ds2bycbx","63f794e7d8d24753edbbb136","freq_resp","img/orange_2bandit_a.png","70","70","test","","","","7","",""
"null","763636","pSARL_v2","pSARL_v2ds2bycbx","63f794e7d8d24753edbbb136","fixation","img/fixation.png","null","","test","","","","","",""
"432.30000001192093","764075","pSARL_v2","pSARL_v2ds2bycbx","63f794e7d8d24753edbbb136","freq","img/orange_2bandit_a2.png","70","70","test","1","142","142","7","",""
"null","764451","pSARL_v2","pSARL_v2ds2bycbx","63f794e7d8d24753edbbb136","freq_resp","img/orange_2bandit_a.png","70","70","test","","","","7","",""
"null","764612","pSARL_v2","pSARL_v2ds2bycbx","63f794e7d8d24753edbbb136","fixation","img/fixation.png","null","","test","","","","","",""
"645.5","765264","pSARL_v2","pSARL_v2ds2bycbx","63f794e7d8d24753edbbb136","infreq","img/green_2bandit_a2.png","68","68","test","1","143","143","7","",""
"null","765425","pSARL_v2","pSARL_v2ds2bycbx","63f794e7d8d24753edbbb136","infreq_resp","img/green_2bandit_a.png","68","68","test","","","","7","",""
"null","765588","pSARL_v2","pSARL_v2ds2bycbx","63f794e7d8d24753edbbb136","fixation","img/fixation.png","null","","test","","","","","",""
"532.8999999761581","766128","pSARL_v2","pSARL_v2ds2bycbx","63f794e7d8d24753edbbb136","freq","img/orange_2bandit_a2.png","70","70","test","1","144","144","7","",""
"null","766403","pSARL_v2","pSARL_v2ds2bycbx","63f794e7d8d24753edbbb136","freq_resp","img/orange_2bandit_a.png","70","70","test","","","","7","",""
"null","766564","pSARL_v2","pSARL_v2ds2bycbx","63f794e7d8d24753edbbb136","fixation","img/fixation.png","null","","test","","","","","",""
"359.5","766928","pSARL_v2","pSARL_v2ds2bycbx","63f794e7d8d24753edbbb136","freq","img/orange_2bandit_a2.png","70","70","test","1","145","145","7","",""
"null","767382","pSARL_v2","pSARL_v2ds2bycbx","63f794e7d8d24753edbbb136","freq_resp","img/orange_2bandit_a.png","70","70","test","","","","7","",""
"null","767542","pSARL_v2","pSARL_v2ds2bycbx","63f794e7d8d24753edbbb136","fixation","img/fixation.png","null","","test","","","","","",""
"408.7999999523163","767958","pSARL_v2","pSARL_v2ds2bycbx","63f794e7d8d24753edbbb136","freq","img/orange_2bandit_a2.png","70","70","test","1","146","146","7","",""
"null","768363","pSARL_v2","pSARL_v2ds2bycbx","63f794e7d8d24753edbbb136","freq_resp","img/orange_2bandit_a.png","70","70","test","","","","7","",""
"null","768526","pSARL_v2","pSARL_v2ds2bycbx","63f794e7d8d24753edbbb136","fixation","img/fixation.png","null","","test","","","","","",""
"340.60000002384186","768873","pSARL_v2","pSARL_v2ds2bycbx","63f794e7d8d24753edbbb136","infreq","img/green_2bandit_a2.png","70","68","test","0","147","147","7","",""
"null","769339","pSARL_v2","pSARL_v2ds2bycbx","63f794e7d8d24753edbbb136","infreq_resp","img/green_2bandit_a.png","70","68","test","","","","7","",""
"null","769499","pSARL_v2","pSARL_v2ds2bycbx","63f794e7d8d24753edbbb136","fixation","img/fixation.png","null","","test","","","","","",""
"714.3999999761581","770219","pSARL_v2","pSARL_v2ds2bycbx","63f794e7d8d24753edbbb136","freq","img/orange_2bandit_a2.png","70","70","test","1","148","148","7","",""
"null","770313","pSARL_v2","pSARL_v2ds2bycbx","63f794e7d8d24753edbbb136","freq_resp","img/orange_2bandit_a.png","70","70","test","","","","7","",""
"null","770475","pSARL_v2","pSARL_v2ds2bycbx","63f794e7d8d24753edbbb136","fixation","img/fixation.png","null","","test","","","","","",""
"556.0999999642372","771037","pSARL_v2","pSARL_v2ds2bycbx","63f794e7d8d24753edbbb136","freq","img/orange_2bandit_a2.png","70","70","test","1","149","149","7","",""
"null","771292","pSARL_v2","pSARL_v2ds2bycbx","63f794e7d8d24753edbbb136","freq_resp","img/orange_2bandit_a.png","70","70","test","","","","7","",""
"null","771451","pSARL_v2","pSARL_v2ds2bycbx","63f794e7d8d24753edbbb136","fixation","img/fixation.png","null","","test","","","","","",""
"439.5","771897","pSARL_v2","pSARL_v2ds2bycbx","63f794e7d8d24753edbbb136","freq","img/orange_2bandit_a2.png","70","70","test","1","150","150","7","",""
"null","772270","pSARL_v2","pSARL_v2ds2bycbx","63f794e7d8d24753edbbb136","freq_resp","img/orange_2bandit_a.png","70","70","test","","","","7","",""
"null","772427","pSARL_v2","pSARL_v2ds2bycbx","63f794e7d8d24753edbbb136","fixation","img/fixation.png","null","","test","","","","","",""
"433.9000000357628","772868","pSARL_v2","pSARL_v2ds2bycbx","63f794e7d8d24753edbbb136","freq","img/orange_2bandit_a2.png","70","70","test","1","151","151","7","",""
"null","773242","pSARL_v2","pSARL_v2ds2bycbx","63f794e7d8d24753edbbb136","freq_resp","img/orange_2bandit_a.png","70","70","test","","","","7","",""
"null","773399","pSARL_v2","pSARL_v2ds2bycbx","63f794e7d8d24753edbbb136","fixation","img/fixation.png","null","","test","","","","","",""
"406","773812","pSARL_v2","pSARL_v2ds2bycbx","63f794e7d8d24753edbbb136","freq","img/orange_2bandit_a2.png","70","70","test","1","152","152","7","",""
"null","774215","pSARL_v2","pSARL_v2ds2bycbx","63f794e7d8d24753edbbb136","freq_resp","img/orange_2bandit_a.png","70","70","test","","","","7","",""
"null","774376","pSARL_v2","pSARL_v2ds2bycbx","63f794e7d8d24753edbbb136","fixation","img/fixation.png","null","","test","","","","","",""
"444.2000000476837","774826","pSARL_v2","pSARL_v2ds2bycbx","63f794e7d8d24753edbbb136","freq","img/orange_2bandit_a2.png","70","70","test","1","153","153","7","",""
"null","775196","pSARL_v2","pSARL_v2ds2bycbx","63f794e7d8d24753edbbb136","freq_resp","img/orange_2bandit_a.png","70","70","test","","","","7","",""
"null","775357","pSARL_v2","pSARL_v2ds2bycbx","63f794e7d8d24753edbbb136","fixation","img/fixation.png","null","","test","","","","","",""
"383.39999997615814","775747","pSARL_v2","pSARL_v2ds2bycbx","63f794e7d8d24753edbbb136","freq","img/orange_2bandit_a2.png","70","70","test","1","154","154","7","",""
"null","776173","pSARL_v2","pSARL_v2ds2bycbx","63f794e7d8d24753edbbb136","freq_resp","img/orange_2bandit_a.png","70","70","test","","","","7","",""
"null","776331","pSARL_v2","pSARL_v2ds2bycbx","63f794e7d8d24753edbbb136","fixation","img/fixation.png","null","","test","","","","","",""
"484.0999999642372","776821","pSARL_v2","pSARL_v2ds2bycbx","63f794e7d8d24753edbbb136","freq","img/orange_2bandit_a2.png","70","70","test","1","155","155","7","",""
"null","777146","pSARL_v2","pSARL_v2ds2bycbx","63f794e7d8d24753edbbb136","freq_resp","img/orange_2bandit_a.png","70","70","test","","","","7","",""
"null","777304","pSARL_v2","pSARL_v2ds2bycbx","63f794e7d8d24753edbbb136","fixation","img/fixation.png","null","","test","","","","","",""
"394.19999998807907","777704","pSARL_v2","pSARL_v2ds2bycbx","63f794e7d8d24753edbbb136","freq","img/orange_2bandit_a2.png","70","70","test","1","156","156","7","",""
"null","778121","pSARL_v2","pSARL_v2ds2bycbx","63f794e7d8d24753edbbb136","freq_resp","img/orange_2bandit_a.png","70","70","test","","","","7","",""
"null","778280","pSARL_v2","pSARL_v2ds2bycbx","63f794e7d8d24753edbbb136","fixation","img/fixation.png","null","","test","","","","","",""
"371.9000000357628","778659","pSARL_v2","pSARL_v2ds2bycbx","63f794e7d8d24753edbbb136","freq","img/orange_2bandit_a2.png","70","70","test","1","157","157","7","",""
"null","779095","pSARL_v2","pSARL_v2ds2bycbx","63f794e7d8d24753edbbb136","freq_resp","img/orange_2bandit_a.png","70","70","test","","","","7","",""
"null","779253","pSARL_v2","pSARL_v2ds2bycbx","63f794e7d8d24753edbbb136","fixation","img/fixation.png","null","","test","","","","","",""
"538","779798","pSARL_v2","pSARL_v2ds2bycbx","63f794e7d8d24753edbbb136","infreq","img/green_2bandit_a2.png","68","68","test","1","158","158","7","",""
"null","780072","pSARL_v2","pSARL_v2ds2bycbx","63f794e7d8d24753edbbb136","infreq_resp","img/green_2bandit_a.png","68","68","test","","","","7","",""
"null","780233","pSARL_v2","pSARL_v2ds2bycbx","63f794e7d8d24753edbbb136","fixation","img/fixation.png","null","","test","","","","","",""
"359.30000001192093","780598","pSARL_v2","pSARL_v2ds2bycbx","63f794e7d8d24753edbbb136","freq","img/orange_2bandit_a2.png","70","70","test","1","159","159","7","",""
"null","781052","pSARL_v2","pSARL_v2ds2bycbx","63f794e7d8d24753edbbb136","freq_resp","img/orange_2bandit_a.png","70","70","test","","","","7","",""
"null","781215","pSARL_v2","pSARL_v2ds2bycbx","63f794e7d8d24753edbbb136","fixation","img/fixation.png","null","","test","","","","","",""
"391.5","781613","pSARL_v2","pSARL_v2ds2bycbx","63f794e7d8d24753edbbb136","freq","img/orange_2bandit_a2.png","70","70","test","1","160","160","7","",""
"null","782032","pSARL_v2","pSARL_v2ds2bycbx","63f794e7d8d24753edbbb136","freq_resp","img/orange_2bandit_a.png","70","70","test","","","","7","",""
"null","782190","pSARL_v2","pSARL_v2ds2bycbx","63f794e7d8d24753edbbb136","fixation","img/fixation.png","null","","test","","","","","",""
"362.69999998807907","782560","pSARL_v2","pSARL_v2ds2bycbx","63f794e7d8d24753edbbb136","freq","img/orange_2bandit_a2.png","70","70","test","1","161","161","7","",""
"null","783009","pSARL_v2","pSARL_v2ds2bycbx","63f794e7d8d24753edbbb136","freq_resp","img/orange_2bandit_a.png","70","70","test","","","","7","",""
"null","783170","pSARL_v2","pSARL_v2ds2bycbx","63f794e7d8d24753edbbb136","fixation","img/fixation.png","null","","test","","","","","",""
"261.5","783438","pSARL_v2","pSARL_v2ds2bycbx","63f794e7d8d24753edbbb136","freq","img/orange_2bandit_a2.png","70","70","test","1","162","162","7","",""
"null","783982","pSARL_v2","pSARL_v2ds2bycbx","63f794e7d8d24753edbbb136","freq_resp","img/orange_2bandit_a.png","70","70","test","","","","7","",""
"null","784140","pSARL_v2","pSARL_v2ds2bycbx","63f794e7d8d24753edbbb136","fixation","img/fixation.png","null","","test","","","","","",""
"521.6000000238419","784667","pSARL_v2","pSARL_v2ds2bycbx","63f794e7d8d24753edbbb136","reward","img/slot.png","74","","test","","","","","",""
"null","785429","pSARL_v2","pSARL_v2ds2bycbx","63f794e7d8d24753edbbb136","points","<div class=""verylowPoints""> -6 </div>","null","na","test","","","","7","-6","6"
"366.39999997615814","785802","pSARL_v2","pSARL_v2ds2bycbx","63f794e7d8d24753edbbb136","freq","img/orange_2bandit_a2.png","70","70","test","1","163","163","8","",""
"null","786243","pSARL_v2","pSARL_v2ds2bycbx","63f794e7d8d24753edbbb136","freq_resp","img/orange_2bandit_a.png","70","70","test","","","","8","",""
"null","786400","pSARL_v2","pSARL_v2ds2bycbx","63f794e7d8d24753edbbb136","fixation","img/fixation.png","null","","test","","","","","",""
"345","786751","pSARL_v2","pSARL_v2ds2bycbx","63f794e7d8d24753edbbb136","freq","img/orange_2bandit_a2.png","70","70","test","1","164","164","8","",""
"null","787215","pSARL_v2","pSARL_v2ds2bycbx","63f794e7d8d24753edbbb136","freq_resp","img/orange_2bandit_a.png","70","70","test","","","","8","",""
"null","787375","pSARL_v2","pSARL_v2ds2bycbx","63f794e7d8d24753edbbb136","fixation","img/fixation.png","null","","test","","","","","",""
"409.2000000476837","787790","pSARL_v2","pSARL_v2ds2bycbx","63f794e7d8d24753edbbb136","freq","img/orange_2bandit_a2.png","70","70","test","1","165","165","8","",""
"null","788188","pSARL_v2","pSARL_v2ds2bycbx","63f794e7d8d24753edbbb136","freq_resp","img/orange_2bandit_a.png","70","70","test","","","","8","",""
"null","788348","pSARL_v2","pSARL_v2ds2bycbx","63f794e7d8d24753edbbb136","fixation","img/fixation.png","null","","test","","","","","",""
"412.30000001192093","788767","pSARL_v2","pSARL_v2ds2bycbx","63f794e7d8d24753edbbb136","freq","img/orange_2bandit_a2.png","70","70","test","1","166","166","8","",""
"null","789166","pSARL_v2","pSARL_v2ds2bycbx","63f794e7d8d24753edbbb136","freq_resp","img/orange_2bandit_a.png","70","70","test","","","","8","",""
"null","789326","pSARL_v2","pSARL_v2ds2bycbx","63f794e7d8d24753edbbb136","fixation","img/fixation.png","null","","test","","","","","",""
"546.0999999642372","789879","pSARL_v2","pSARL_v2ds2bycbx","63f794e7d8d24753edbbb136","freq","img/orange_2bandit_a2.png","70","70","test","1","167","167","8","",""
"null","790144","pSARL_v2","pSARL_v2ds2bycbx","63f794e7d8d24753edbbb136","freq_resp","img/orange_2bandit_a.png","70","70","test","","","","8","",""
"null","790303","pSARL_v2","pSARL_v2ds2bycbx","63f794e7d8d24753edbbb136","fixation","img/fixation.png","null","","test","","","","","",""
"477","790786","pSARL_v2","pSARL_v2ds2bycbx","63f794e7d8d24753edbbb136","freq","img/orange_2bandit_a2.png","70","70","test","1","168","168","8","",""
"null","791117","pSARL_v2","pSARL_v2ds2bycbx","63f794e7d8d24753edbbb136","freq_resp","img/orange_2bandit_a.png","70","70","test","","","","8","",""
"null","791274","pSARL_v2","pSARL_v2ds2bycbx","63f794e7d8d24753edbbb136","fixation","img/fixation.png","null","","test","","","","","",""
"391.2999999523163","791671","pSARL_v2","pSARL_v2ds2bycbx","63f794e7d8d24753edbbb136","freq","img/orange_2bandit_a2.png","70","70","test","1","169","169","8","",""
"null","792087","pSARL_v2","pSARL_v2ds2bycbx","63f794e7d8d24753edbbb136","freq_resp","img/orange_2bandit_a.png","70","70","test","","","","8","",""
"null","792249","pSARL_v2","pSARL_v2ds2bycbx","63f794e7d8d24753edbbb136","fixation","img/fixation.png","null","","test","","","","","",""
"370.69999998807907","792626","pSARL_v2","pSARL_v2ds2bycbx","63f794e7d8d24753edbbb136","freq","img/orange_2bandit_a2.png","70","70","test","1","170","170","8","",""
"null","793067","pSARL_v2","pSARL_v2ds2bycbx","63f794e7d8d24753edbbb136","freq_resp","img/orange_2bandit_a.png","70","70","test","","","","8","",""
"null","793227","pSARL_v2","pSARL_v2ds2bycbx","63f794e7d8d24753edbbb136","fixation","img/fixation.png","null","","test","","","","","",""
"505.2999999523163","793738","pSARL_v2","pSARL_v2ds2bycbx","63f794e7d8d24753edbbb136","freq","img/orange_2bandit_a2.png","70","70","test","1","171","171","8","",""
"null","794045","pSARL_v2","pSARL_v2ds2bycbx","63f794e7d8d24753edbbb136","freq_resp","img/orange_2bandit_a.png","70","70","test","","","","8","",""
"null","794207","pSARL_v2","pSARL_v2ds2bycbx","63f794e7d8d24753edbbb136","fixation","img/fixation.png","null","","test","","","","","",""
"407.5","794621","pSARL_v2","pSARL_v2ds2bycbx","63f794e7d8d24753edbbb136","freq","img/orange_2bandit_a2.png","70","70","test","1","172","172","8","",""
"null","795026","pSARL_v2","pSARL_v2ds2bycbx","63f794e7d8d24753edbbb136","freq_resp","img/orange_2bandit_a.png","70","70","test","","","","8","",""
"null","795188","pSARL_v2","pSARL_v2ds2bycbx","63f794e7d8d24753edbbb136","fixation","img/fixation.png","null","","test","","","","","",""
"null","795999","pSARL_v2","pSARL_v2ds2bycbx","63f794e7d8d24753edbbb136","infreq","img/green_2bandit_a2.png","null","68","test","0","173","173","8","",""
"null","796161","pSARL_v2","pSARL_v2ds2bycbx","63f794e7d8d24753edbbb136","fixation","img/fixation.png","null","","test","","","","","",""
"null","796970","pSARL_v2","pSARL_v2ds2bycbx","63f794e7d8d24753edbbb136","freq","img/orange_2bandit_a2.png","null","70","test","0","174","174","8","",""
"null","797130","pSARL_v2","pSARL_v2ds2bycbx","63f794e7d8d24753edbbb136","fixation","img/fixation.png","null","","test","","","","","",""
"461.4000000357628","797596","pSARL_v2","pSARL_v2ds2bycbx","63f794e7d8d24753edbbb136","freq","img/orange_2bandit_a2.png","70","70","test","1","175","175","8","",""
"null","797941","pSARL_v2","pSARL_v2ds2bycbx","63f794e7d8d24753edbbb136","freq_resp","img/orange_2bandit_a.png","70","70","test","","","","8","",""
"null","798100","pSARL_v2","pSARL_v2ds2bycbx","63f794e7d8d24753edbbb136","fixation","img/fixation.png","null","","test","","","","","",""
"711.4000000357628","798816","pSARL_v2","pSARL_v2ds2bycbx","63f794e7d8d24753edbbb136","freq","img/orange_2bandit_a2.png","70","70","test","1","176","176","8","",""
"null","798914","pSARL_v2","pSARL_v2ds2bycbx","63f794e7d8d24753edbbb136","freq_resp","img/orange_2bandit_a.png","70","70","test","","","","8","",""
"null","799074","pSARL_v2","pSARL_v2ds2bycbx","63f794e7d8d24753edbbb136","fixation","img/fixation.png","null","","test","","","","","",""
"704.3000000119209","799785","pSARL_v2","pSARL_v2ds2bycbx","63f794e7d8d24753edbbb136","freq","img/orange_2bandit_a2.png","70","70","test","1","177","177","8","",""
"null","799887","pSARL_v2","pSARL_v2ds2bycbx","63f794e7d8d24753edbbb136","freq_resp","img/orange_2bandit_a.png","70","70","test","","","","8","",""
"null","800045","pSARL_v2","pSARL_v2ds2bycbx","63f794e7d8d24753edbbb136","fixation","img/fixation.png","null","","test","","","","","",""
"607.1999999880791","800659","pSARL_v2","pSARL_v2ds2bycbx","63f794e7d8d24753edbbb136","infreq","img/green_2bandit_a2.png","68","68","test","1","178","178","8","",""
"null","800861","pSARL_v2","pSARL_v2ds2bycbx","63f794e7d8d24753edbbb136","infreq_resp","img/green_2bandit_a.png","68","68","test","","","","8","",""
"null","801021","pSARL_v2","pSARL_v2ds2bycbx","63f794e7d8d24753edbbb136","fixation","img/fixation.png","null","","test","","","","","",""
"582.8999999761581","801610","pSARL_v2","pSARL_v2ds2bycbx","63f794e7d8d24753edbbb136","freq","img/orange_2bandit_a2.png","70","70","test","1","179","179","8","",""
"null","801834","pSARL_v2","pSARL_v2ds2bycbx","63f794e7d8d24753edbbb136","freq_resp","img/orange_2bandit_a.png","70","70","test","","","","8","",""
"null","801995","pSARL_v2","pSARL_v2ds2bycbx","63f794e7d8d24753edbbb136","fixation","img/fixation.png","null","","test","","","","","",""
"445.5","802446","pSARL_v2","pSARL_v2ds2bycbx","63f794e7d8d24753edbbb136","freq","img/orange_2bandit_a2.png","70","70","test","1","180","180","8","",""
"null","802809","pSARL_v2","pSARL_v2ds2bycbx","63f794e7d8d24753edbbb136","freq_resp","img/orange_2bandit_a.png","70","70","test","","","","8","",""
"null","802969","pSARL_v2","pSARL_v2ds2bycbx","63f794e7d8d24753edbbb136","fixation","img/fixation.png","null","","test","","","","","",""
"371.69999998807907","803346","pSARL_v2","pSARL_v2ds2bycbx","63f794e7d8d24753edbbb136","freq","img/orange_2bandit_a2.png","70","70","test","1","181","181","8","",""
"null","803784","pSARL_v2","pSARL_v2ds2bycbx","63f794e7d8d24753edbbb136","freq_resp","img/orange_2bandit_a.png","70","70","test","","","","8","",""
"null","803946","pSARL_v2","pSARL_v2ds2bycbx","63f794e7d8d24753edbbb136","fixation","img/fixation.png","null","","test","","","","","",""
"449","804401","pSARL_v2","pSARL_v2ds2bycbx","63f794e7d8d24753edbbb136","freq","img/orange_2bandit_a2.png","70","70","test","1","182","182","8","",""
"null","804759","pSARL_v2","pSARL_v2ds2bycbx","63f794e7d8d24753edbbb136","freq_resp","img/orange_2bandit_a.png","70","70","test","","","","8","",""
"null","804916","pSARL_v2","pSARL_v2ds2bycbx","63f794e7d8d24753edbbb136","fixation","img/fixation.png","null","","test","","","","","",""
"382.0999999642372","805303","pSARL_v2","pSARL_v2ds2bycbx","63f794e7d8d24753edbbb136","freq","img/orange_2bandit_a2.png","70","70","test","1","183","183","8","",""
"null","805731","pSARL_v2","pSARL_v2ds2bycbx","63f794e7d8d24753edbbb136","freq_resp","img/orange_2bandit_a.png","70","70","test","","","","8","",""
"null","805893","pSARL_v2","pSARL_v2ds2bycbx","63f794e7d8d24753edbbb136","fixation","img/fixation.png","null","","test","","","","","",""
"374","806273","pSARL_v2","pSARL_v2ds2bycbx","63f794e7d8d24753edbbb136","freq","img/orange_2bandit_a2.png","70","70","test","1","184","184","8","",""
"null","806709","pSARL_v2","pSARL_v2ds2bycbx","63f794e7d8d24753edbbb136","freq_resp","img/orange_2bandit_a.png","70","70","test","","","","8","",""
"null","806867","pSARL_v2","pSARL_v2ds2bycbx","63f794e7d8d24753edbbb136","fixation","img/fixation.png","null","","test","","","","","",""
"375.5","807249","pSARL_v2","pSARL_v2ds2bycbx","63f794e7d8d24753edbbb136","freq","img/orange_2bandit_a2.png","70","70","test","1","185","185","8","",""
"null","807683","pSARL_v2","pSARL_v2ds2bycbx","63f794e7d8d24753edbbb136","freq_resp","img/orange_2bandit_a.png","70","70","test","","","","8","",""
"null","807844","pSARL_v2","pSARL_v2ds2bycbx","63f794e7d8d24753edbbb136","fixation","img/fixation.png","null","","test","","","","","",""
"458","808307","pSARL_v2","pSARL_v2ds2bycbx","63f794e7d8d24753edbbb136","freq","img/orange_2bandit_a2.png","70","70","test","1","186","186","8","",""
"null","808661","pSARL_v2","pSARL_v2ds2bycbx","63f794e7d8d24753edbbb136","freq_resp","img/orange_2bandit_a.png","70","70","test","","","","8","",""
"null","808821","pSARL_v2","pSARL_v2ds2bycbx","63f794e7d8d24753edbbb136","fixation","img/fixation.png","null","","test","","","","","",""
"281.30000001192093","809109","pSARL_v2","pSARL_v2ds2bycbx","63f794e7d8d24753edbbb136","freq","img/orange_2bandit_a2.png","70","70","test","1","187","187","8","",""
"null","809637","pSARL_v2","pSARL_v2ds2bycbx","63f794e7d8d24753edbbb136","freq_resp","img/orange_2bandit_a.png","70","70","test","","","","8","",""
"null","809799","pSARL_v2","pSARL_v2ds2bycbx","63f794e7d8d24753edbbb136","fixation","img/fixation.png","null","","test","","","","","",""
"693.5","810499","pSARL_v2","pSARL_v2ds2bycbx","63f794e7d8d24753edbbb136","reward","img/slot.png","74","","test","","","","","",""
"null","811258","pSARL_v2","pSARL_v2ds2bycbx","63f794e7d8d24753edbbb136","points","<div class=""verylowPoints""> -4 </div>","null","na","test","","","","8","-4","7"
"407.80000001192093","811672","pSARL_v2","pSARL_v2ds2bycbx","63f794e7d8d24753edbbb136","freq","img/orange_2bandit_a2.png","70","70","test","1","188","188","9","",""
"null","812073","pSARL_v2","pSARL_v2ds2bycbx","63f794e7d8d24753edbbb136","freq_resp","img/orange_2bandit_a.png","70","70","test","","","","9","",""
"null","812231","pSARL_v2","pSARL_v2ds2bycbx","63f794e7d8d24753edbbb136","fixation","img/fixation.png","null","","test","","","","","",""
"231.69999998807907","812469","pSARL_v2","pSARL_v2ds2bycbx","63f794e7d8d24753edbbb136","freq","img/orange_2bandit_a2.png","70","70","test","1","189","189","9","",""
"null","813047","pSARL_v2","pSARL_v2ds2bycbx","63f794e7d8d24753edbbb136","freq_resp","img/orange_2bandit_a.png","70","70","test","","","","9","",""
"null","813204","pSARL_v2","pSARL_v2ds2bycbx","63f794e7d8d24753edbbb136","fixation","img/fixation.png","null","","test","","","","","",""
"45.60000002384186","813256","pSARL_v2","pSARL_v2ds2bycbx","63f794e7d8d24753edbbb136","freq","img/orange_2bandit_a2.png","70","70","test","1","190","190","9","",""
"null","814020","pSARL_v2","pSARL_v2ds2bycbx","63f794e7d8d24753edbbb136","freq_resp","img/orange_2bandit_a.png","70","70","test","","","","9","",""
"null","814179","pSARL_v2","pSARL_v2ds2bycbx","63f794e7d8d24753edbbb136","fixation","img/fixation.png","null","","test","","","","","",""
"0.09999996423721313","814185","pSARL_v2","pSARL_v2ds2bycbx","63f794e7d8d24753edbbb136","freq","img/orange_2bandit_a2.png","70","70","test","1","191","191","9","",""
"null","814994","pSARL_v2","pSARL_v2ds2bycbx","63f794e7d8d24753edbbb136","freq_resp","img/orange_2bandit_a.png","70","70","test","","","","9","",""
"null","815155","pSARL_v2","pSARL_v2ds2bycbx","63f794e7d8d24753edbbb136","fixation","img/fixation.png","null","","test","","","","","",""
"264.2000000476837","815425","pSARL_v2","pSARL_v2ds2bycbx","63f794e7d8d24753edbbb136","freq","img/orange_2bandit_a2.png","70","70","test","1","192","192","9","",""
"null","815968","pSARL_v2","pSARL_v2ds2bycbx","63f794e7d8d24753edbbb136","freq_resp","img/orange_2bandit_a.png","70","70","test","","","","9","",""
"null","816125","pSARL_v2","pSARL_v2ds2bycbx","63f794e7d8d24753edbbb136","fixation","img/fixation.png","null","","test","","","","","",""
"326.60000002384186","816458","pSARL_v2","pSARL_v2ds2bycbx","63f794e7d8d24753edbbb136","freq","img/orange_2bandit_a2.png","70","70","test","1","193","193","9","",""
"null","816940","pSARL_v2","pSARL_v2ds2bycbx","63f794e7d8d24753edbbb136","freq_resp","img/orange_2bandit_a.png","70","70","test","","","","9","",""
"null","817101","pSARL_v2","pSARL_v2ds2bycbx","63f794e7d8d24753edbbb136","fixation","img/fixation.png","null","","test","","","","","",""
"343.4000000357628","817451","pSARL_v2","pSARL_v2ds2bycbx","63f794e7d8d24753edbbb136","freq","img/orange_2bandit_a2.png","70","70","test","1","194","194","9","",""
"null","817916","pSARL_v2","pSARL_v2ds2bycbx","63f794e7d8d24753edbbb136","freq_resp","img/orange_2bandit_a.png","70","70","test","","","","9","",""
"null","818072","pSARL_v2","pSARL_v2ds2bycbx","63f794e7d8d24753edbbb136","fixation","img/fixation.png","null","","test","","","","","",""
"304.2000000476837","818383","pSARL_v2","pSARL_v2ds2bycbx","63f794e7d8d24753edbbb136","freq","img/orange_2bandit_a2.png","70","70","test","1","195","195","9","",""
"null","818886","pSARL_v2","pSARL_v2ds2bycbx","63f794e7d8d24753edbbb136","freq_resp","img/orange_2bandit_a.png","70","70","test","","","","9","",""
"null","819047","pSARL_v2","pSARL_v2ds2bycbx","63f794e7d8d24753edbbb136","fixation","img/fixation.png","null","","test","","","","","",""
"397.5","819451","pSARL_v2","pSARL_v2ds2bycbx","63f794e7d8d24753edbbb136","freq","img/orange_2bandit_a2.png","70","70","test","1","196","196","9","",""
"null","819865","pSARL_v2","pSARL_v2ds2bycbx","63f794e7d8d24753edbbb136","freq_resp","img/orange_2bandit_a.png","70","70","test","","","","9","",""
"null","820025","pSARL_v2","pSARL_v2ds2bycbx","63f794e7d8d24753edbbb136","fixation","img/fixation.png","null","","test","","","","","",""
"384","820416","pSARL_v2","pSARL_v2ds2bycbx","63f794e7d8d24753edbbb136","freq","img/orange_2bandit_a2.png","70","70","test","1","197","197","9","",""
"null","820841","pSARL_v2","pSARL_v2ds2bycbx","63f794e7d8d24753edbbb136","freq_resp","img/orange_2bandit_a.png","70","70","test","","","","9","",""
"null","821004","pSARL_v2","pSARL_v2ds2bycbx","63f794e7d8d24753edbbb136","fixation","img/fixation.png","null","","test","","","","","",""
"359.4000000357628","821369","pSARL_v2","pSARL_v2ds2bycbx","63f794e7d8d24753edbbb136","freq","img/orange_2bandit_a2.png","70","70","test","1","198","198","9","",""
"null","821817","pSARL_v2","pSARL_v2ds2bycbx","63f794e7d8d24753edbbb136","freq_resp","img/orange_2bandit_a.png","70","70","test","","","","9","",""
"null","821976","pSARL_v2","pSARL_v2ds2bycbx","63f794e7d8d24753edbbb136","fixation","img/fixation.png","null","","test","","","","","",""
"607.3999999761581","822590","pSARL_v2","pSARL_v2ds2bycbx","63f794e7d8d24753edbbb136","infreq","img/green_2bandit_a2.png","68","68","test","1","199","199","9","",""
"null","822789","pSARL_v2","pSARL_v2ds2bycbx","63f794e7d8d24753edbbb136","infreq_resp","img/green_2bandit_a.png","68","68","test","","","","9","",""
"null","822953","pSARL_v2","pSARL_v2ds2bycbx","63f794e7d8d24753edbbb136","fixation","img/fixation.png","null","","test","","","","","",""
"437.10000002384186","823397","pSARL_v2","pSARL_v2ds2bycbx","63f794e7d8d24753edbbb136","freq","img/orange_2bandit_a2.png","70","70","test","1","200","200","9","",""
"null","823771","pSARL_v2","pSARL_v2ds2bycbx","63f794e7d8d24753edbbb136","freq_resp","img/orange_2bandit_a.png","70","70","test","","","","9","",""
"null","823928","pSARL_v2","pSARL_v2ds2bycbx","63f794e7d8d24753edbbb136","fixation","img/fixation.png","null","","test","","","","","",""
"404.89999997615814","824339","pSARL_v2","pSARL_v2ds2bycbx","63f794e7d8d24753edbbb136","freq","img/orange_2bandit_a2.png","70","70","test","1","201","201","9","",""
"null","824744","pSARL_v2","pSARL_v2ds2bycbx","63f794e7d8d24753edbbb136","freq_resp","img/orange_2bandit_a.png","70","70","test","","","","9","",""
"null","824905","pSARL_v2","pSARL_v2ds2bycbx","63f794e7d8d24753edbbb136","fixation","img/fixation.png","null","","test","","","","","",""
"334.19999998807907","825246","pSARL_v2","pSARL_v2ds2bycbx","63f794e7d8d24753edbbb136","freq","img/orange_2bandit_a2.png","70","70","test","1","202","202","9","",""
"null","825724","pSARL_v2","pSARL_v2ds2bycbx","63f794e7d8d24753edbbb136","freq_resp","img/orange_2bandit_a.png","70","70","test","","","","9","",""
"null","825884","pSARL_v2","pSARL_v2ds2bycbx","63f794e7d8d24753edbbb136","fixation","img/fixation.png","null","","test","","","","","",""
"463.10000002384186","826354","pSARL_v2","pSARL_v2ds2bycbx","63f794e7d8d24753edbbb136","freq","img/orange_2bandit_a2.png","70","70","test","1","203","203","9","",""
"null","826699","pSARL_v2","pSARL_v2ds2bycbx","63f794e7d8d24753edbbb136","freq_resp","img/orange_2bandit_a.png","70","70","test","","","","9","",""
"null","826861","pSARL_v2","pSARL_v2ds2bycbx","63f794e7d8d24753edbbb136","fixation","img/fixation.png","null","","test","","","","","",""
"439.5999999642372","827307","pSARL_v2","pSARL_v2ds2bycbx","63f794e7d8d24753edbbb136","freq","img/orange_2bandit_a2.png","70","70","test","1","204","204","9","",""
"null","827680","pSARL_v2","pSARL_v2ds2bycbx","63f794e7d8d24753edbbb136","freq_resp","img/orange_2bandit_a.png","70","70","test","","","","9","",""
"null","827844","pSARL_v2","pSARL_v2ds2bycbx","63f794e7d8d24753edbbb136","fixation","img/fixation.png","null","","test","","","","","",""
"520","828370","pSARL_v2","pSARL_v2ds2bycbx","63f794e7d8d24753edbbb136","infreq","img/green_2bandit_a2.png","68","68","test","1","205","205","9","",""
"null","828661","pSARL_v2","pSARL_v2ds2bycbx","63f794e7d8d24753edbbb136","infreq_resp","img/green_2bandit_a.png","68","68","test","","","","9","",""
"null","828822","pSARL_v2","pSARL_v2ds2bycbx","63f794e7d8d24753edbbb136","fixation","img/fixation.png","null","","test","","","","","",""
"351.69999998807907","829180","pSARL_v2","pSARL_v2ds2bycbx","63f794e7d8d24753edbbb136","freq","img/orange_2bandit_a2.png","70","70","test","1","206","206","9","",""
"null","829642","pSARL_v2","pSARL_v2ds2bycbx","63f794e7d8d24753edbbb136","freq_resp","img/orange_2bandit_a.png","70","70","test","","","","9","",""
