"rt","time_elapsed","expId","subject","prolificID","trialType","stimulus","key_press","corrresp","phase","corr","trialNum","attentionRunNum","blockNum","points","rlNum"
"2562.2999999970198","2569","pSARL_v2","pSARL_v2dxa5mhew","5fc6df58f380620a09116434","","","","","","","","","","",""
"","7478","pSARL_v2","pSARL_v2dxa5mhew","5fc6df58f380620a09116434","fullscreen","","","","","","","","","",""
"34470.70000000298","41959","pSARL_v2","pSARL_v2dxa5mhew","5fc6df58f380620a09116434","","","","","","","","","","",""
"562","42532","pSARL_v2","pSARL_v2dxa5mhew","5fc6df58f380620a09116434","freqPrac","img/orange_2bandit_b2.png","70","70","prac","1","","","","",""
"562","42785","pSARL_v2","pSARL_v2dxa5mhew","5fc6df58f380620a09116434","freqPrac_resp","img/orange_2bandit_b.png","70","70","prac","","","","","",""
"null","42948","pSARL_v2","pSARL_v2dxa5mhew","5fc6df58f380620a09116434","fixation","img/fixation.png","null","","prac","","","","","",""
"442.09999999403954","43397","pSARL_v2","pSARL_v2dxa5mhew","5fc6df58f380620a09116434","infreqPrac","img/green_2bandit_b2.png","68","68","prac","1","","","","",""
"442.09999999403954","43769","pSARL_v2","pSARL_v2dxa5mhew","5fc6df58f380620a09116434","infreqPrac_resp","img/green_2bandit_b.png","68","68","prac","","","","","",""
"null","43933","pSARL_v2","pSARL_v2dxa5mhew","5fc6df58f380620a09116434","fixation","img/fixation.png","null","","prac","","","","","",""
"505.5","44442","pSARL_v2","pSARL_v2dxa5mhew","5fc6df58f380620a09116434","freqPrac","img/orange_2bandit_b2.png","70","70","prac","1","","","","",""
"505.5","44747","pSARL_v2","pSARL_v2dxa5mhew","5fc6df58f380620a09116434","freqPrac_resp","img/orange_2bandit_b.png","70","70","prac","","","","","",""
"null","44908","pSARL_v2","pSARL_v2dxa5mhew","5fc6df58f380620a09116434","fixation","img/fixation.png","null","","prac","","","","","",""
"437","45353","pSARL_v2","pSARL_v2dxa5mhew","5fc6df58f380620a09116434","infreqPrac","img/green_2bandit_b2.png","68","68","prac","1","","","","",""
"437","45729","pSARL_v2","pSARL_v2dxa5mhew","5fc6df58f380620a09116434","infreqPrac_resp","img/green_2bandit_b.png","68","68","prac","","","","","",""
"null","45893","pSARL_v2","pSARL_v2dxa5mhew","5fc6df58f380620a09116434","fixation","img/fixation.png","null","","prac","","","","","",""
"412.79999999701977","46313","pSARL_v2","pSARL_v2dxa5mhew","5fc6df58f380620a09116434","infreqPrac","img/green_2bandit_b2.png","68","68","prac","1","","","","",""
"412.79999999701977","46708","pSARL_v2","pSARL_v2dxa5mhew","5fc6df58f380620a09116434","infreqPrac_resp","img/green_2bandit_b.png","68","68","prac","","","","","",""
"null","46869","pSARL_v2","pSARL_v2dxa5mhew","5fc6df58f380620a09116434","fixation","img/fixation.png","null","","prac","","","","","",""
"362.30000001192093","47238","pSARL_v2","pSARL_v2dxa5mhew","5fc6df58f380620a09116434","infreqPrac","img/green_2bandit_b2.png","68","68","prac","1","","","","",""
"362.30000001192093","47682","pSARL_v2","pSARL_v2dxa5mhew","5fc6df58f380620a09116434","infreqPrac_resp","img/green_2bandit_b.png","68","68","prac","","","","","",""
"null","47846","pSARL_v2","pSARL_v2dxa5mhew","5fc6df58f380620a09116434","fixation","img/fixation.png","null","","prac","","","","","",""
"376.3999999910593","48227","pSARL_v2","pSARL_v2dxa5mhew","5fc6df58f380620a09116434","freqPrac","img/orange_2bandit_b2.png","70","70","prac","1","","","","",""
"376.3999999910593","48663","pSARL_v2","pSARL_v2dxa5mhew","5fc6df58f380620a09116434","freqPrac_resp","img/orange_2bandit_b.png","70","70","prac","","","","","",""
"null","48829","pSARL_v2","pSARL_v2dxa5mhew","5fc6df58f380620a09116434","fixation","img/fixation.png","null","","prac","","","","","",""
"380.6000000089407","49217","pSARL_v2","pSARL_v2dxa5mhew","5fc6df58f380620a09116434","infreqPrac","img/green_2bandit_b2.png","68","68","prac","1","","","","",""
"380.6000000089407","49648","pSARL_v2","pSARL_v2dxa5mhew","5fc6df58f380620a09116434","infreqPrac_resp","img/green_2bandit_b.png","68","68","prac","","","","","",""
"null","49809","pSARL_v2","pSARL_v2dxa5mhew","5fc6df58f380620a09116434","fixation","img/fixation.png","null","","prac","","","","","",""
"512.2999999970198","50324","pSARL_v2","pSARL_v2dxa5mhew","5fc6df58f380620a09116434","freqPrac","img/orange_2bandit_b2.png","70","70","prac","1","","","","",""
"512.2999999970198","50616","pSARL_v2","pSARL_v2dxa5mhew","5fc6df58f380620a09116434","freqPrac_resp","img/orange_2bandit_b.png","70","70","prac","","","","","",""
"null","50778","pSARL_v2","pSARL_v2dxa5mhew","5fc6df58f380620a09116434","fixation","img/fixation.png","null","","prac","","","","","",""
"361.90000000596046","51149","pSARL_v2","pSARL_v2dxa5mhew","5fc6df58f380620a09116434","freqPrac","img/orange_2bandit_b2.png","70","70","prac","1","","","","",""
"361.90000000596046","51594","pSARL_v2","pSARL_v2dxa5mhew","5fc6df58f380620a09116434","freqPrac_resp","img/orange_2bandit_b.png","70","70","prac","","","","","",""
"null","51758","pSARL_v2","pSARL_v2dxa5mhew","5fc6df58f380620a09116434","fixation","img/fixation.png","null","","prac","","","","","",""
"14701.79999999702","66471","pSARL_v2","pSARL_v2dxa5mhew","5fc6df58f380620a09116434","","","","","prac","","","","","",""
"1959.2999999970198","68435","pSARL_v2","pSARL_v2dxa5mhew","5fc6df58f380620a09116434","rewardPractice","img/slot.png","74","","prac","","","","","",""
"null","69200","pSARL_v2","pSARL_v2dxa5mhew","5fc6df58f380620a09116434","feedback","<div class=""veryhighPoints""> +15 </div>","null","na","prac","","","","","",""
"null","69366","pSARL_v2","pSARL_v2dxa5mhew","5fc6df58f380620a09116434","fixation","img/fixation.png","null","","prac","","","","","",""
"8018.5999999940395","77396","pSARL_v2","pSARL_v2dxa5mhew","5fc6df58f380620a09116434","","","","","prac","","","","","",""
"623.6000000089407","78030","pSARL_v2","pSARL_v2dxa5mhew","5fc6df58f380620a09116434","freq","img/orange_2bandit_b2.png","70","70","test","1","1","1","1","",""
"null","78218","pSARL_v2","pSARL_v2dxa5mhew","5fc6df58f380620a09116434","freq_resp","img/orange_2bandit_b.png","70","70","test","","","","1","",""
"null","78379","pSARL_v2","pSARL_v2dxa5mhew","5fc6df58f380620a09116434","fixation","img/fixation.png","null","","test","","","","","",""
"379.6000000089407","78767","pSARL_v2","pSARL_v2dxa5mhew","5fc6df58f380620a09116434","freq","img/orange_2bandit_b2.png","70","70","test","1","2","2","1","",""
"null","79199","pSARL_v2","pSARL_v2dxa5mhew","5fc6df58f380620a09116434","freq_resp","img/orange_2bandit_b.png","70","70","test","","","","1","",""
"null","79361","pSARL_v2","pSARL_v2dxa5mhew","5fc6df58f380620a09116434","fixation","img/fixation.png","null","","test","","","","","",""
"338.59999999403954","79708","pSARL_v2","pSARL_v2dxa5mhew","5fc6df58f380620a09116434","freq","img/orange_2bandit_b2.png","70","70","test","1","3","3","1","",""
"null","80181","pSARL_v2","pSARL_v2dxa5mhew","5fc6df58f380620a09116434","freq_resp","img/orange_2bandit_b.png","70","70","test","","","","1","",""
"null","80347","pSARL_v2","pSARL_v2dxa5mhew","5fc6df58f380620a09116434","fixation","img/fixation.png","null","","test","","","","","",""
"357.6000000089407","80713","pSARL_v2","pSARL_v2dxa5mhew","5fc6df58f380620a09116434","freq","img/orange_2bandit_b2.png","70","70","test","1","4","4","1","",""
"null","81167","pSARL_v2","pSARL_v2dxa5mhew","5fc6df58f380620a09116434","freq_resp","img/orange_2bandit_b.png","70","70","test","","","","1","",""
"null","81331","pSARL_v2","pSARL_v2dxa5mhew","5fc6df58f380620a09116434","fixation","img/fixation.png","null","","test","","","","","",""
"344.59999999403954","81682","pSARL_v2","pSARL_v2dxa5mhew","5fc6df58f380620a09116434","freq","img/orange_2bandit_b2.png","70","70","test","1","5","5","1","",""
"null","82146","pSARL_v2","pSARL_v2dxa5mhew","5fc6df58f380620a09116434","freq_resp","img/orange_2bandit_b.png","70","70","test","","","","1","",""
"null","82309","pSARL_v2","pSARL_v2dxa5mhew","5fc6df58f380620a09116434","fixation","img/fixation.png","null","","test","","","","","",""
"308.70000000298023","82625","pSARL_v2","pSARL_v2dxa5mhew","5fc6df58f380620a09116434","freq","img/orange_2bandit_b2.png","70","70","test","1","6","6","1","",""
"null","83124","pSARL_v2","pSARL_v2dxa5mhew","5fc6df58f380620a09116434","freq_resp","img/orange_2bandit_b.png","70","70","test","","","","1","",""
"null","83287","pSARL_v2","pSARL_v2dxa5mhew","5fc6df58f380620a09116434","fixation","img/fixation.png","null","","test","","","","","",""
"286.79999999701977","83580","pSARL_v2","pSARL_v2dxa5mhew","5fc6df58f380620a09116434","freq","img/orange_2bandit_b2.png","70","70","test","1","7","7","1","",""
"null","84104","pSARL_v2","pSARL_v2dxa5mhew","5fc6df58f380620a09116434","freq_resp","img/orange_2bandit_b.png","70","70","test","","","","1","",""
"null","84266","pSARL_v2","pSARL_v2dxa5mhew","5fc6df58f380620a09116434","fixation","img/fixation.png","null","","test","","","","","",""
"495.09999999403954","84770","pSARL_v2","pSARL_v2dxa5mhew","5fc6df58f380620a09116434","infreq","img/green_2bandit_b2.png","68","68","test","1","8","8","1","",""
"null","85084","pSARL_v2","pSARL_v2dxa5mhew","5fc6df58f380620a09116434","infreq_resp","img/green_2bandit_b.png","68","68","test","","","","1","",""
"null","85246","pSARL_v2","pSARL_v2dxa5mhew","5fc6df58f380620a09116434","fixation","img/fixation.png","null","","test","","","","","",""
"461.5","85714","pSARL_v2","pSARL_v2dxa5mhew","5fc6df58f380620a09116434","freq","img/orange_2bandit_b2.png","70","70","test","1","9","9","1","",""
"null","86063","pSARL_v2","pSARL_v2dxa5mhew","5fc6df58f380620a09116434","freq_resp","img/orange_2bandit_b.png","70","70","test","","","","1","",""
"null","86220","pSARL_v2","pSARL_v2dxa5mhew","5fc6df58f380620a09116434","fixation","img/fixation.png","null","","test","","","","","",""
"338.80000001192093","86566","pSARL_v2","pSARL_v2dxa5mhew","5fc6df58f380620a09116434","freq","img/orange_2bandit_b2.png","70","70","test","1","10","10","1","",""
"null","87041","pSARL_v2","pSARL_v2dxa5mhew","5fc6df58f380620a09116434","freq_resp","img/orange_2bandit_b.png","70","70","test","","","","1","",""
"null","87199","pSARL_v2","pSARL_v2dxa5mhew","5fc6df58f380620a09116434","fixation","img/fixation.png","null","","test","","","","","",""
"354.69999998807907","87559","pSARL_v2","pSARL_v2dxa5mhew","5fc6df58f380620a09116434","freq","img/orange_2bandit_b2.png","70","70","test","1","11","11","1","",""
"null","88015","pSARL_v2","pSARL_v2dxa5mhew","5fc6df58f380620a09116434","freq_resp","img/orange_2bandit_b.png","70","70","test","","","","1","",""
"null","88179","pSARL_v2","pSARL_v2dxa5mhew","5fc6df58f380620a09116434","fixation","img/fixation.png","null","","test","","","","","",""
"347.90000000596046","88531","pSARL_v2","pSARL_v2dxa5mhew","5fc6df58f380620a09116434","freq","img/orange_2bandit_b2.png","70","70","test","1","12","12","1","",""
"null","88995","pSARL_v2","pSARL_v2dxa5mhew","5fc6df58f380620a09116434","freq_resp","img/orange_2bandit_b.png","70","70","test","","","","1","",""
"null","89154","pSARL_v2","pSARL_v2dxa5mhew","5fc6df58f380620a09116434","fixation","img/fixation.png","null","","test","","","","","",""
"335.09999999403954","89495","pSARL_v2","pSARL_v2dxa5mhew","5fc6df58f380620a09116434","freq","img/orange_2bandit_b2.png","70","70","test","1","13","13","1","",""
"null","89974","pSARL_v2","pSARL_v2dxa5mhew","5fc6df58f380620a09116434","freq_resp","img/orange_2bandit_b.png","70","70","test","","","","1","",""
"null","90138","pSARL_v2","pSARL_v2dxa5mhew","5fc6df58f380620a09116434","fixation","img/fixation.png","null","","test","","","","","",""
"295.29999999701977","90440","pSARL_v2","pSARL_v2dxa5mhew","5fc6df58f380620a09116434","freq","img/orange_2bandit_b2.png","70","70","test","1","14","14","1","",""
"null","90953","pSARL_v2","pSARL_v2dxa5mhew","5fc6df58f380620a09116434","freq_resp","img/orange_2bandit_b.png","70","70","test","","","","1","",""
"null","91115","pSARL_v2","pSARL_v2dxa5mhew","5fc6df58f380620a09116434","fixation","img/fixation.png","null","","test","","","","","",""
"308.20000000298023","91430","pSARL_v2","pSARL_v2dxa5mhew","5fc6df58f380620a09116434","freq","img/orange_2bandit_b2.png","70","70","test","1","15","15","1","",""
"null","91933","pSARL_v2","pSARL_v2dxa5mhew","5fc6df58f380620a09116434","freq_resp","img/orange_2bandit_b.png","70","70","test","","","","1","",""
"null","92097","pSARL_v2","pSARL_v2dxa5mhew","5fc6df58f380620a09116434","fixation","img/fixation.png","null","","test","","","","","",""
"326.79999999701977","92431","pSARL_v2","pSARL_v2dxa5mhew","5fc6df58f380620a09116434","freq","img/orange_2bandit_b2.png","70","70","test","1","16","16","1","",""
"null","92920","pSARL_v2","pSARL_v2dxa5mhew","5fc6df58f380620a09116434","freq_resp","img/orange_2bandit_b.png","70","70","test","","","","1","",""
"null","93084","pSARL_v2","pSARL_v2dxa5mhew","5fc6df58f380620a09116434","fixation","img/fixation.png","null","","test","","","","","",""
"343.70000000298023","93434","pSARL_v2","pSARL_v2dxa5mhew","5fc6df58f380620a09116434","freq","img/orange_2bandit_b2.png","70","70","test","1","17","17","1","",""
"null","93901","pSARL_v2","pSARL_v2dxa5mhew","5fc6df58f380620a09116434","freq_resp","img/orange_2bandit_b.png","70","70","test","","","","1","",""
"null","94065","pSARL_v2","pSARL_v2dxa5mhew","5fc6df58f380620a09116434","fixation","img/fixation.png","null","","test","","","","","",""
"321.59999999403954","94396","pSARL_v2","pSARL_v2dxa5mhew","5fc6df58f380620a09116434","freq","img/orange_2bandit_b2.png","70","70","test","1","18","18","1","",""
"null","94886","pSARL_v2","pSARL_v2dxa5mhew","5fc6df58f380620a09116434","freq_resp","img/orange_2bandit_b.png","70","70","test","","","","1","",""
"null","95050","pSARL_v2","pSARL_v2dxa5mhew","5fc6df58f380620a09116434","fixation","img/fixation.png","null","","test","","","","","",""
"344","95402","pSARL_v2","pSARL_v2dxa5mhew","5fc6df58f380620a09116434","freq","img/orange_2bandit_b2.png","70","70","test","1","19","19","1","",""
"null","95872","pSARL_v2","pSARL_v2dxa5mhew","5fc6df58f380620a09116434","freq_resp","img/orange_2bandit_b.png","70","70","test","","","","1","",""
"null","96035","pSARL_v2","pSARL_v2dxa5mhew","5fc6df58f380620a09116434","fixation","img/fixation.png","null","","test","","","","","",""
"314.5","96357","pSARL_v2","pSARL_v2dxa5mhew","5fc6df58f380620a09116434","infreq","img/green_2bandit_b2.png","70","68","test","0","20","20","1","",""
"null","96852","pSARL_v2","pSARL_v2dxa5mhew","5fc6df58f380620a09116434","infreq_resp","img/green_2bandit_b.png","70","68","test","","","","1","",""
"null","97011","pSARL_v2","pSARL_v2dxa5mhew","5fc6df58f380620a09116434","fixation","img/fixation.png","null","","test","","","","","",""
"435.90000000596046","97449","pSARL_v2","pSARL_v2dxa5mhew","5fc6df58f380620a09116434","freq","img/orange_2bandit_b2.png","70","70","test","1","21","21","1","",""
"null","97825","pSARL_v2","pSARL_v2dxa5mhew","5fc6df58f380620a09116434","freq_resp","img/orange_2bandit_b.png","70","70","test","","","","1","",""
"null","97986","pSARL_v2","pSARL_v2dxa5mhew","5fc6df58f380620a09116434","fixation","img/fixation.png","null","","test","","","","","",""
"507.79999999701977","98500","pSARL_v2","pSARL_v2dxa5mhew","5fc6df58f380620a09116434","reward","img/slot.png","74","","test","","","","","",""
"null","99263","pSARL_v2","pSARL_v2dxa5mhew","5fc6df58f380620a09116434","points","<div class=""verylowPoints""> -6 </div>","null","na","test","","","","1","-6","0"
"516.8999999910593","99790","pSARL_v2","pSARL_v2dxa5mhew","5fc6df58f380620a09116434","freq","img/orange_2bandit_b2.png","70","70","test","1","22","22","2","",""
"null","100084","pSARL_v2","pSARL_v2dxa5mhew","5fc6df58f380620a09116434","freq_resp","img/orange_2bandit_b.png","70","70","test","","","","2","",""
"null","100245","pSARL_v2","pSARL_v2dxa5mhew","5fc6df58f380620a09116434","fixation","img/fixation.png","null","","test","","","","","",""
"480.6000000089407","100733","pSARL_v2","pSARL_v2dxa5mhew","5fc6df58f380620a09116434","freq","img/orange_2bandit_b2.png","70","70","test","1","23","23","2","",""
"null","101061","pSARL_v2","pSARL_v2dxa5mhew","5fc6df58f380620a09116434","freq_resp","img/orange_2bandit_b.png","70","70","test","","","","2","",""
"null","101218","pSARL_v2","pSARL_v2dxa5mhew","5fc6df58f380620a09116434","fixation","img/fixation.png","null","","test","","","","","",""
"485.19999998807907","101710","pSARL_v2","pSARL_v2dxa5mhew","5fc6df58f380620a09116434","infreq","img/green_2bandit_b2.png","68","68","test","1","24","24","2","",""
"null","102038","pSARL_v2","pSARL_v2dxa5mhew","5fc6df58f380620a09116434","infreq_resp","img/green_2bandit_b.png","68","68","test","","","","2","",""
"null","102197","pSARL_v2","pSARL_v2dxa5mhew","5fc6df58f380620a09116434","fixation","img/fixation.png","null","","test","","","","","",""
"453","102656","pSARL_v2","pSARL_v2dxa5mhew","5fc6df58f380620a09116434","freq","img/orange_2bandit_b2.png","70","70","test","1","25","25","2","",""
"null","103015","pSARL_v2","pSARL_v2dxa5mhew","5fc6df58f380620a09116434","freq_resp","img/orange_2bandit_b.png","70","70","test","","","","2","",""
"null","103174","pSARL_v2","pSARL_v2dxa5mhew","5fc6df58f380620a09116434","fixation","img/fixation.png","null","","test","","","","","",""
"427.1000000089407","103608","pSARL_v2","pSARL_v2dxa5mhew","5fc6df58f380620a09116434","infreq","img/green_2bandit_b2.png","68","68","test","1","26","26","2","",""
"null","103990","pSARL_v2","pSARL_v2dxa5mhew","5fc6df58f380620a09116434","infreq_resp","img/green_2bandit_b.png","68","68","test","","","","2","",""
"null","104150","pSARL_v2","pSARL_v2dxa5mhew","5fc6df58f380620a09116434","fixation","img/fixation.png","null","","test","","","","","",""
"424.5","104582","pSARL_v2","pSARL_v2dxa5mhew","5fc6df58f380620a09116434","freq","img/orange_2bandit_b2.png","70","70","test","1","27","27","2","",""
"null","104968","pSARL_v2","pSARL_v2dxa5mhew","5fc6df58f380620a09116434","freq_resp","img/orange_2bandit_b.png","70","70","test","","","","2","",""
"null","105131","pSARL_v2","pSARL_v2dxa5mhew","5fc6df58f380620a09116434","fixation","img/fixation.png","null","","test","","","","","",""
"370.1000000089407","105510","pSARL_v2","pSARL_v2dxa5mhew","5fc6df58f380620a09116434","freq","img/orange_2bandit_b2.png","70","70","test","1","28","28","2","",""
"null","105953","pSARL_v2","pSARL_v2dxa5mhew","5fc6df58f380620a09116434","freq_resp","img/orange_2bandit_b.png","70","70","test","","","","2","",""
"null","106118","pSARL_v2","pSARL_v2dxa5mhew","5fc6df58f380620a09116434","fixation","img/fixation.png","null","","test","","","","","",""
"359.59999999403954","106485","pSARL_v2","pSARL_v2dxa5mhew","5fc6df58f380620a09116434","freq","img/orange_2bandit_b2.png","70","70","test","1","29","29","2","",""
"null","106938","pSARL_v2","pSARL_v2dxa5mhew","5fc6df58f380620a09116434","freq_resp","img/orange_2bandit_b.png","70","70","test","","","","2","",""
"null","107102","pSARL_v2","pSARL_v2dxa5mhew","5fc6df58f380620a09116434","fixation","img/fixation.png","null","","test","","","","","",""
"382.09999999403954","107487","pSARL_v2","pSARL_v2dxa5mhew","5fc6df58f380620a09116434","freq","img/orange_2bandit_b2.png","70","70","test","1","30","30","2","",""
"null","107916","pSARL_v2","pSARL_v2dxa5mhew","5fc6df58f380620a09116434","freq_resp","img/orange_2bandit_b.png","70","70","test","","","","2","",""
"null","108079","pSARL_v2","pSARL_v2dxa5mhew","5fc6df58f380620a09116434","fixation","img/fixation.png","null","","test","","","","","",""
"364","108452","pSARL_v2","pSARL_v2dxa5mhew","5fc6df58f380620a09116434","freq","img/orange_2bandit_b2.png","70","70","test","1","31","31","2","",""
"null","108899","pSARL_v2","pSARL_v2dxa5mhew","5fc6df58f380620a09116434","freq_resp","img/orange_2bandit_b.png","70","70","test","","","","2","",""
"null","109062","pSARL_v2","pSARL_v2dxa5mhew","5fc6df58f380620a09116434","fixation","img/fixation.png","null","","test","","","","","",""
"328.20000000298023","109396","pSARL_v2","pSARL_v2dxa5mhew","5fc6df58f380620a09116434","freq","img/orange_2bandit_b2.png","70","70","test","1","32","32","2","",""
"null","109883","pSARL_v2","pSARL_v2dxa5mhew","5fc6df58f380620a09116434","freq_resp","img/orange_2bandit_b.png","70","70","test","","","","2","",""
"null","110047","pSARL_v2","pSARL_v2dxa5mhew","5fc6df58f380620a09116434","fixation","img/fixation.png","null","","test","","","","","",""
"331.80000001192093","110387","pSARL_v2","pSARL_v2dxa5mhew","5fc6df58f380620a09116434","freq","img/orange_2bandit_b2.png","70","70","test","1","33","33","2","",""
"null","110868","pSARL_v2","pSARL_v2dxa5mhew","5fc6df58f380620a09116434","freq_resp","img/orange_2bandit_b.png","70","70","test","","","","2","",""
"null","111033","pSARL_v2","pSARL_v2dxa5mhew","5fc6df58f380620a09116434","fixation","img/fixation.png","null","","test","","","","","",""
"305.69999998807907","111345","pSARL_v2","pSARL_v2dxa5mhew","5fc6df58f380620a09116434","freq","img/orange_2bandit_b2.png","70","70","test","1","34","34","2","",""
"null","111850","pSARL_v2","pSARL_v2dxa5mhew","5fc6df58f380620a09116434","freq_resp","img/orange_2bandit_b.png","70","70","test","","","","2","",""
"null","112012","pSARL_v2","pSARL_v2dxa5mhew","5fc6df58f380620a09116434","fixation","img/fixation.png","null","","test","","","","","",""
"281.5","112300","pSARL_v2","pSARL_v2dxa5mhew","5fc6df58f380620a09116434","freq","img/orange_2bandit_b2.png","70","70","test","1","35","35","2","",""
"null","112835","pSARL_v2","pSARL_v2dxa5mhew","5fc6df58f380620a09116434","freq_resp","img/orange_2bandit_b.png","70","70","test","","","","2","",""
"null","112997","pSARL_v2","pSARL_v2dxa5mhew","5fc6df58f380620a09116434","fixation","img/fixation.png","null","","test","","","","","",""
"302.5","113307","pSARL_v2","pSARL_v2dxa5mhew","5fc6df58f380620a09116434","freq","img/orange_2bandit_b2.png","70","70","test","1","36","36","2","",""
"null","113816","pSARL_v2","pSARL_v2dxa5mhew","5fc6df58f380620a09116434","freq_resp","img/orange_2bandit_b.png","70","70","test","","","","2","",""
"null","113981","pSARL_v2","pSARL_v2dxa5mhew","5fc6df58f380620a09116434","fixation","img/fixation.png","null","","test","","","","","",""
"324.79999999701977","114313","pSARL_v2","pSARL_v2dxa5mhew","5fc6df58f380620a09116434","freq","img/orange_2bandit_b2.png","70","70","test","1","37","37","2","",""
"null","114800","pSARL_v2","pSARL_v2dxa5mhew","5fc6df58f380620a09116434","freq_resp","img/orange_2bandit_b.png","70","70","test","","","","2","",""
"null","114961","pSARL_v2","pSARL_v2dxa5mhew","5fc6df58f380620a09116434","fixation","img/fixation.png","null","","test","","","","","",""
"302.40000000596046","115271","pSARL_v2","pSARL_v2dxa5mhew","5fc6df58f380620a09116434","freq","img/orange_2bandit_b2.png","70","70","test","1","38","38","2","",""
"null","115777","pSARL_v2","pSARL_v2dxa5mhew","5fc6df58f380620a09116434","freq_resp","img/orange_2bandit_b.png","70","70","test","","","","2","",""
"null","115940","pSARL_v2","pSARL_v2dxa5mhew","5fc6df58f380620a09116434","fixation","img/fixation.png","null","","test","","","","","",""
"234.40000000596046","116180","pSARL_v2","pSARL_v2dxa5mhew","5fc6df58f380620a09116434","freq","img/orange_2bandit_b2.png","70","70","test","1","39","39","2","",""
"null","116761","pSARL_v2","pSARL_v2dxa5mhew","5fc6df58f380620a09116434","freq_resp","img/orange_2bandit_b.png","70","70","test","","","","2","",""
"null","116924","pSARL_v2","pSARL_v2dxa5mhew","5fc6df58f380620a09116434","fixation","img/fixation.png","null","","test","","","","","",""
"311.09999999403954","117241","pSARL_v2","pSARL_v2dxa5mhew","5fc6df58f380620a09116434","freq","img/orange_2bandit_b2.png","70","70","test","1","40","40","2","",""
"null","117740","pSARL_v2","pSARL_v2dxa5mhew","5fc6df58f380620a09116434","freq_resp","img/orange_2bandit_b.png","70","70","test","","","","2","",""
"null","117904","pSARL_v2","pSARL_v2dxa5mhew","5fc6df58f380620a09116434","fixation","img/fixation.png","null","","test","","","","","",""
"531.1000000089407","118437","pSARL_v2","pSARL_v2dxa5mhew","5fc6df58f380620a09116434","reward","img/slot.png","74","","test","","","","","",""
"null","119201","pSARL_v2","pSARL_v2dxa5mhew","5fc6df58f380620a09116434","points","<div class=""verylowPoints""> -11 </div>","null","na","test","","","","2","-11","1"
"436.19999998807907","119643","pSARL_v2","pSARL_v2dxa5mhew","5fc6df58f380620a09116434","freq","img/orange_2bandit_b2.png","70","70","test","1","41","41","3","",""
"null","120017","pSARL_v2","pSARL_v2dxa5mhew","5fc6df58f380620a09116434","freq_resp","img/orange_2bandit_b.png","70","70","test","","","","3","",""
"null","120176","pSARL_v2","pSARL_v2dxa5mhew","5fc6df58f380620a09116434","fixation","img/fixation.png","null","","test","","","","","",""
"373.40000000596046","120552","pSARL_v2","pSARL_v2dxa5mhew","5fc6df58f380620a09116434","freq","img/orange_2bandit_b2.png","70","70","test","1","42","42","3","",""
"null","120994","pSARL_v2","pSARL_v2dxa5mhew","5fc6df58f380620a09116434","freq_resp","img/orange_2bandit_b.png","70","70","test","","","","3","",""
"null","121162","pSARL_v2","pSARL_v2dxa5mhew","5fc6df58f380620a09116434","fixation","img/fixation.png","null","","test","","","","","",""
"314.5","121483","pSARL_v2","pSARL_v2dxa5mhew","5fc6df58f380620a09116434","freq","img/orange_2bandit_b2.png","70","70","test","1","43","43","3","",""
"null","121979","pSARL_v2","pSARL_v2dxa5mhew","5fc6df58f380620a09116434","freq_resp","img/orange_2bandit_b.png","70","70","test","","","","3","",""
"null","122141","pSARL_v2","pSARL_v2dxa5mhew","5fc6df58f380620a09116434","fixation","img/fixation.png","null","","test","","","","","",""
"283.5","122434","pSARL_v2","pSARL_v2dxa5mhew","5fc6df58f380620a09116434","freq","img/orange_2bandit_b2.png","70","70","test","1","44","44","3","",""
"null","122968","pSARL_v2","pSARL_v2dxa5mhew","5fc6df58f380620a09116434","freq_resp","img/orange_2bandit_b.png","70","70","test","","","","3","",""
"null","123132","pSARL_v2","pSARL_v2dxa5mhew","5fc6df58f380620a09116434","fixation","img/fixation.png","null","","test","","","","","",""
"286.1000000089407","123428","pSARL_v2","pSARL_v2dxa5mhew","5fc6df58f380620a09116434","freq","img/orange_2bandit_b2.png","70","70","test","1","45","45","3","",""
"null","123953","pSARL_v2","pSARL_v2dxa5mhew","5fc6df58f380620a09116434","freq_resp","img/orange_2bandit_b.png","70","70","test","","","","3","",""
"null","124115","pSARL_v2","pSARL_v2dxa5mhew","5fc6df58f380620a09116434","fixation","img/fixation.png","null","","test","","","","","",""
"294.59999999403954","124419","pSARL_v2","pSARL_v2dxa5mhew","5fc6df58f380620a09116434","freq","img/orange_2bandit_b2.png","70","70","test","1","46","46","3","",""
"null","124935","pSARL_v2","pSARL_v2dxa5mhew","5fc6df58f380620a09116434","freq_resp","img/orange_2bandit_b.png","70","70","test","","","","3","",""
"null","125096","pSARL_v2","pSARL_v2dxa5mhew","5fc6df58f380620a09116434","fixation","img/fixation.png","null","","test","","","","","",""
"293.30000001192093","125396","pSARL_v2","pSARL_v2dxa5mhew","5fc6df58f380620a09116434","freq","img/orange_2bandit_b2.png","70","70","test","1","47","47","3","",""
"null","125914","pSARL_v2","pSARL_v2dxa5mhew","5fc6df58f380620a09116434","freq_resp","img/orange_2bandit_b.png","70","70","test","","","","3","",""
"null","126077","pSARL_v2","pSARL_v2dxa5mhew","5fc6df58f380620a09116434","fixation","img/fixation.png","null","","test","","","","","",""
"205.70000000298023","126289","pSARL_v2","pSARL_v2dxa5mhew","5fc6df58f380620a09116434","freq","img/orange_2bandit_b2.png","70","70","test","1","48","48","3","",""
"null","126896","pSARL_v2","pSARL_v2dxa5mhew","5fc6df58f380620a09116434","freq_resp","img/orange_2bandit_b.png","70","70","test","","","","3","",""
"null","127060","pSARL_v2","pSARL_v2dxa5mhew","5fc6df58f380620a09116434","fixation","img/fixation.png","null","","test","","","","","",""
"287.79999999701977","127355","pSARL_v2","pSARL_v2dxa5mhew","5fc6df58f380620a09116434","freq","img/orange_2bandit_b2.png","70","70","test","1","49","49","3","",""
"null","127880","pSARL_v2","pSARL_v2dxa5mhew","5fc6df58f380620a09116434","freq_resp","img/orange_2bandit_b.png","70","70","test","","","","3","",""
"null","128039","pSARL_v2","pSARL_v2dxa5mhew","5fc6df58f380620a09116434","fixation","img/fixation.png","null","","test","","","","","",""
"281.29999999701977","128327","pSARL_v2","pSARL_v2dxa5mhew","5fc6df58f380620a09116434","freq","img/orange_2bandit_b2.png","70","70","test","1","50","50","3","",""
"null","128860","pSARL_v2","pSARL_v2dxa5mhew","5fc6df58f380620a09116434","freq_resp","img/orange_2bandit_b.png","70","70","test","","","","3","",""
"null","129024","pSARL_v2","pSARL_v2dxa5mhew","5fc6df58f380620a09116434","fixation","img/fixation.png","null","","test","","","","","",""
"268.79999999701977","129296","pSARL_v2","pSARL_v2dxa5mhew","5fc6df58f380620a09116434","freq","img/orange_2bandit_b2.png","70","70","test","1","51","51","3","",""
"null","129840","pSARL_v2","pSARL_v2dxa5mhew","5fc6df58f380620a09116434","freq_resp","img/orange_2bandit_b.png","70","70","test","","","","3","",""
"null","129999","pSARL_v2","pSARL_v2dxa5mhew","5fc6df58f380620a09116434","fixation","img/fixation.png","null","","test","","","","","",""
"321.5","130327","pSARL_v2","pSARL_v2dxa5mhew","5fc6df58f380620a09116434","freq","img/orange_2bandit_b2.png","70","70","test","1","52","52","3","",""
"null","130817","pSARL_v2","pSARL_v2dxa5mhew","5fc6df58f380620a09116434","freq_resp","img/orange_2bandit_b.png","70","70","test","","","","3","",""
"null","130980","pSARL_v2","pSARL_v2dxa5mhew","5fc6df58f380620a09116434","fixation","img/fixation.png","null","","test","","","","","",""
"315.1000000089407","131302","pSARL_v2","pSARL_v2dxa5mhew","5fc6df58f380620a09116434","freq","img/orange_2bandit_b2.png","70","70","test","1","53","53","3","",""
"null","131796","pSARL_v2","pSARL_v2dxa5mhew","5fc6df58f380620a09116434","freq_resp","img/orange_2bandit_b.png","70","70","test","","","","3","",""
"null","131959","pSARL_v2","pSARL_v2dxa5mhew","5fc6df58f380620a09116434","fixation","img/fixation.png","null","","test","","","","","",""
"244.29999999701977","132212","pSARL_v2","pSARL_v2dxa5mhew","5fc6df58f380620a09116434","freq","img/orange_2bandit_b2.png","70","70","test","1","54","54","3","",""
"null","132779","pSARL_v2","pSARL_v2dxa5mhew","5fc6df58f380620a09116434","freq_resp","img/orange_2bandit_b.png","70","70","test","","","","3","",""
"null","132944","pSARL_v2","pSARL_v2dxa5mhew","5fc6df58f380620a09116434","fixation","img/fixation.png","null","","test","","","","","",""
"290.5","133243","pSARL_v2","pSARL_v2dxa5mhew","5fc6df58f380620a09116434","freq","img/orange_2bandit_b2.png","70","70","test","1","55","55","3","",""
"null","133763","pSARL_v2","pSARL_v2dxa5mhew","5fc6df58f380620a09116434","freq_resp","img/orange_2bandit_b.png","70","70","test","","","","3","",""
"null","133925","pSARL_v2","pSARL_v2dxa5mhew","5fc6df58f380620a09116434","fixation","img/fixation.png","null","","test","","","","","",""
"498.3999999910593","134431","pSARL_v2","pSARL_v2dxa5mhew","5fc6df58f380620a09116434","infreq","img/green_2bandit_b2.png","68","68","test","1","56","56","3","",""
"null","134745","pSARL_v2","pSARL_v2dxa5mhew","5fc6df58f380620a09116434","infreq_resp","img/green_2bandit_b.png","68","68","test","","","","3","",""
"null","134907","pSARL_v2","pSARL_v2dxa5mhew","5fc6df58f380620a09116434","fixation","img/fixation.png","null","","test","","","","","",""
"433.79999999701977","135348","pSARL_v2","pSARL_v2dxa5mhew","5fc6df58f380620a09116434","freq","img/orange_2bandit_b2.png","70","70","test","1","57","57","3","",""
"null","135728","pSARL_v2","pSARL_v2dxa5mhew","5fc6df58f380620a09116434","freq_resp","img/orange_2bandit_b.png","70","70","test","","","","3","",""
"null","135893","pSARL_v2","pSARL_v2dxa5mhew","5fc6df58f380620a09116434","fixation","img/fixation.png","null","","test","","","","","",""
"379.6000000089407","136279","pSARL_v2","pSARL_v2dxa5mhew","5fc6df58f380620a09116434","freq","img/orange_2bandit_b2.png","70","70","test","1","58","58","3","",""
"null","136714","pSARL_v2","pSARL_v2dxa5mhew","5fc6df58f380620a09116434","freq_resp","img/orange_2bandit_b.png","70","70","test","","","","3","",""
"null","136877","pSARL_v2","pSARL_v2dxa5mhew","5fc6df58f380620a09116434","fixation","img/fixation.png","null","","test","","","","","",""
"356.29999999701977","137236","pSARL_v2","pSARL_v2dxa5mhew","5fc6df58f380620a09116434","freq","img/orange_2bandit_b2.png","70","70","test","1","59","59","3","",""
"null","137687","pSARL_v2","pSARL_v2dxa5mhew","5fc6df58f380620a09116434","freq_resp","img/orange_2bandit_b.png","70","70","test","","","","3","",""
"null","137847","pSARL_v2","pSARL_v2dxa5mhew","5fc6df58f380620a09116434","fixation","img/fixation.png","null","","test","","","","","",""
"482.79999999701977","138338","pSARL_v2","pSARL_v2dxa5mhew","5fc6df58f380620a09116434","infreq","img/green_2bandit_b2.png","68","68","test","1","60","60","3","",""
"null","138664","pSARL_v2","pSARL_v2dxa5mhew","5fc6df58f380620a09116434","infreq_resp","img/green_2bandit_b.png","68","68","test","","","","3","",""
"null","138828","pSARL_v2","pSARL_v2dxa5mhew","5fc6df58f380620a09116434","fixation","img/fixation.png","null","","test","","","","","",""
"437.1000000089407","139272","pSARL_v2","pSARL_v2dxa5mhew","5fc6df58f380620a09116434","freq","img/orange_2bandit_b2.png","70","70","test","1","61","61","3","",""
"null","139649","pSARL_v2","pSARL_v2dxa5mhew","5fc6df58f380620a09116434","freq_resp","img/orange_2bandit_b.png","70","70","test","","","","3","",""
"null","139812","pSARL_v2","pSARL_v2dxa5mhew","5fc6df58f380620a09116434","fixation","img/fixation.png","null","","test","","","","","",""
"377.3999999910593","140199","pSARL_v2","pSARL_v2dxa5mhew","5fc6df58f380620a09116434","freq","img/orange_2bandit_b2.png","70","70","test","1","62","62","3","",""
"null","140625","pSARL_v2","pSARL_v2dxa5mhew","5fc6df58f380620a09116434","freq_resp","img/orange_2bandit_b.png","70","70","test","","","","3","",""
"null","140790","pSARL_v2","pSARL_v2dxa5mhew","5fc6df58f380620a09116434","fixation","img/fixation.png","null","","test","","","","","",""
"477.5","141276","pSARL_v2","pSARL_v2dxa5mhew","5fc6df58f380620a09116434","reward","img/slot.png","74","","test","","","","","",""
"null","142040","pSARL_v2","pSARL_v2dxa5mhew","5fc6df58f380620a09116434","points","<div class=""verylowPoints""> -7 </div>","null","na","test","","","","3","-7","2"
"487.70000000298023","142533","pSARL_v2","pSARL_v2dxa5mhew","5fc6df58f380620a09116434","freq","img/orange_2bandit_b2.png","70","70","test","1","63","63","4","",""
"null","142859","pSARL_v2","pSARL_v2dxa5mhew","5fc6df58f380620a09116434","freq_resp","img/orange_2bandit_b.png","70","70","test","","","","4","",""
"null","143024","pSARL_v2","pSARL_v2dxa5mhew","5fc6df58f380620a09116434","fixation","img/fixation.png","null","","test","","","","","",""
"438.59999999403954","143465","pSARL_v2","pSARL_v2dxa5mhew","5fc6df58f380620a09116434","infreq","img/green_2bandit_b2.png","68","68","test","1","64","64","4","",""
"null","143835","pSARL_v2","pSARL_v2dxa5mhew","5fc6df58f380620a09116434","infreq_resp","img/green_2bandit_b.png","68","68","test","","","","4","",""
"null","143993","pSARL_v2","pSARL_v2dxa5mhew","5fc6df58f380620a09116434","fixation","img/fixation.png","null","","test","","","","","",""
"433.19999998807907","144433","pSARL_v2","pSARL_v2dxa5mhew","5fc6df58f380620a09116434","freq","img/orange_2bandit_b2.png","70","70","test","1","65","65","4","",""
"null","144815","pSARL_v2","pSARL_v2dxa5mhew","5fc6df58f380620a09116434","freq_resp","img/orange_2bandit_b.png","70","70","test","","","","4","",""
"null","144976","pSARL_v2","pSARL_v2dxa5mhew","5fc6df58f380620a09116434","fixation","img/fixation.png","null","","test","","","","","",""
"386.1000000089407","145372","pSARL_v2","pSARL_v2dxa5mhew","5fc6df58f380620a09116434","freq","img/orange_2bandit_b2.png","70","70","test","1","66","66","4","",""
"null","145801","pSARL_v2","pSARL_v2dxa5mhew","5fc6df58f380620a09116434","freq_resp","img/orange_2bandit_b.png","70","70","test","","","","4","",""
"null","145966","pSARL_v2","pSARL_v2dxa5mhew","5fc6df58f380620a09116434","fixation","img/fixation.png","null","","test","","","","","",""
"373.5","146346","pSARL_v2","pSARL_v2dxa5mhew","5fc6df58f380620a09116434","freq","img/orange_2bandit_b2.png","70","70","test","1","67","67","4","",""
"null","146781","pSARL_v2","pSARL_v2dxa5mhew","5fc6df58f380620a09116434","freq_resp","img/orange_2bandit_b.png","70","70","test","","","","4","",""
"null","146942","pSARL_v2","pSARL_v2dxa5mhew","5fc6df58f380620a09116434","fixation","img/fixation.png","null","","test","","","","","",""
"422.1000000089407","147373","pSARL_v2","pSARL_v2dxa5mhew","5fc6df58f380620a09116434","infreq","img/green_2bandit_b2.png","68","68","test","1","68","68","4","",""
"null","147763","pSARL_v2","pSARL_v2dxa5mhew","5fc6df58f380620a09116434","infreq_resp","img/green_2bandit_b.png","68","68","test","","","","4","",""
"null","147923","pSARL_v2","pSARL_v2dxa5mhew","5fc6df58f380620a09116434","fixation","img/fixation.png","null","","test","","","","","",""
"404.29999999701977","148334","pSARL_v2","pSARL_v2dxa5mhew","5fc6df58f380620a09116434","freq","img/orange_2bandit_b2.png","70","70","test","1","69","69","4","",""
"null","148745","pSARL_v2","pSARL_v2dxa5mhew","5fc6df58f380620a09116434","freq_resp","img/orange_2bandit_b.png","70","70","test","","","","4","",""
"null","148907","pSARL_v2","pSARL_v2dxa5mhew","5fc6df58f380620a09116434","fixation","img/fixation.png","null","","test","","","","","",""
"355.3999999910593","149272","pSARL_v2","pSARL_v2dxa5mhew","5fc6df58f380620a09116434","freq","img/orange_2bandit_b2.png","70","70","test","1","70","70","4","",""
"null","149730","pSARL_v2","pSARL_v2dxa5mhew","5fc6df58f380620a09116434","freq_resp","img/orange_2bandit_b.png","70","70","test","","","","4","",""
"null","149894","pSARL_v2","pSARL_v2dxa5mhew","5fc6df58f380620a09116434","fixation","img/fixation.png","null","","test","","","","","",""
"377.5","150282","pSARL_v2","pSARL_v2dxa5mhew","5fc6df58f380620a09116434","freq","img/orange_2bandit_b2.png","70","70","test","1","71","71","4","",""
"null","150714","pSARL_v2","pSARL_v2dxa5mhew","5fc6df58f380620a09116434","freq_resp","img/orange_2bandit_b.png","70","70","test","","","","4","",""
"null","150876","pSARL_v2","pSARL_v2dxa5mhew","5fc6df58f380620a09116434","fixation","img/fixation.png","null","","test","","","","","",""
"344.5","151225","pSARL_v2","pSARL_v2dxa5mhew","5fc6df58f380620a09116434","freq","img/orange_2bandit_b2.png","70","70","test","1","72","72","4","",""
"null","151693","pSARL_v2","pSARL_v2dxa5mhew","5fc6df58f380620a09116434","freq_resp","img/orange_2bandit_b.png","70","70","test","","","","4","",""
"null","151856","pSARL_v2","pSARL_v2dxa5mhew","5fc6df58f380620a09116434","fixation","img/fixation.png","null","","test","","","","","",""
"341.8999999910593","152205","pSARL_v2","pSARL_v2dxa5mhew","5fc6df58f380620a09116434","freq","img/orange_2bandit_b2.png","70","70","test","1","73","73","4","",""
"null","152672","pSARL_v2","pSARL_v2dxa5mhew","5fc6df58f380620a09116434","freq_resp","img/orange_2bandit_b.png","70","70","test","","","","4","",""
"null","152833","pSARL_v2","pSARL_v2dxa5mhew","5fc6df58f380620a09116434","fixation","img/fixation.png","null","","test","","","","","",""
"322.3999999910593","153164","pSARL_v2","pSARL_v2dxa5mhew","5fc6df58f380620a09116434","freq","img/orange_2bandit_b2.png","70","70","test","1","74","74","4","",""
"null","153654","pSARL_v2","pSARL_v2dxa5mhew","5fc6df58f380620a09116434","freq_resp","img/orange_2bandit_b.png","70","70","test","","","","4","",""
"null","153816","pSARL_v2","pSARL_v2dxa5mhew","5fc6df58f380620a09116434","fixation","img/fixation.png","null","","test","","","","","",""
"363.29999999701977","154186","pSARL_v2","pSARL_v2dxa5mhew","5fc6df58f380620a09116434","freq","img/orange_2bandit_b2.png","70","70","test","1","75","75","4","",""
"null","154633","pSARL_v2","pSARL_v2dxa5mhew","5fc6df58f380620a09116434","freq_resp","img/orange_2bandit_b.png","70","70","test","","","","4","",""
"null","154792","pSARL_v2","pSARL_v2dxa5mhew","5fc6df58f380620a09116434","fixation","img/fixation.png","null","","test","","","","","",""
"334.5","155129","pSARL_v2","pSARL_v2dxa5mhew","5fc6df58f380620a09116434","freq","img/orange_2bandit_b2.png","70","70","test","1","76","76","4","",""
"null","155603","pSARL_v2","pSARL_v2dxa5mhew","5fc6df58f380620a09116434","freq_resp","img/orange_2bandit_b.png","70","70","test","","","","4","",""
"null","155764","pSARL_v2","pSARL_v2dxa5mhew","5fc6df58f380620a09116434","fixation","img/fixation.png","null","","test","","","","","",""
"325.59999999403954","156096","pSARL_v2","pSARL_v2dxa5mhew","5fc6df58f380620a09116434","freq","img/orange_2bandit_b2.png","70","70","test","1","77","77","4","",""
"null","156585","pSARL_v2","pSARL_v2dxa5mhew","5fc6df58f380620a09116434","freq_resp","img/orange_2bandit_b.png","70","70","test","","","","4","",""
"null","156748","pSARL_v2","pSARL_v2dxa5mhew","5fc6df58f380620a09116434","fixation","img/fixation.png","null","","test","","","","","",""
"307.79999999701977","157064","pSARL_v2","pSARL_v2dxa5mhew","5fc6df58f380620a09116434","freq","img/orange_2bandit_b2.png","70","70","test","1","78","78","4","",""
"null","157565","pSARL_v2","pSARL_v2dxa5mhew","5fc6df58f380620a09116434","freq_resp","img/orange_2bandit_b.png","70","70","test","","","","4","",""
"null","157726","pSARL_v2","pSARL_v2dxa5mhew","5fc6df58f380620a09116434","fixation","img/fixation.png","null","","test","","","","","",""
"300.70000000298023","158035","pSARL_v2","pSARL_v2dxa5mhew","5fc6df58f380620a09116434","freq","img/orange_2bandit_b2.png","70","70","test","1","79","79","4","",""
"null","158543","pSARL_v2","pSARL_v2dxa5mhew","5fc6df58f380620a09116434","freq_resp","img/orange_2bandit_b.png","70","70","test","","","","4","",""
"null","158704","pSARL_v2","pSARL_v2dxa5mhew","5fc6df58f380620a09116434","fixation","img/fixation.png","null","","test","","","","","",""
"312.8999999910593","159024","pSARL_v2","pSARL_v2dxa5mhew","5fc6df58f380620a09116434","freq","img/orange_2bandit_b2.png","70","70","test","1","80","80","4","",""
"null","159522","pSARL_v2","pSARL_v2dxa5mhew","5fc6df58f380620a09116434","freq_resp","img/orange_2bandit_b.png","70","70","test","","","","4","",""
"null","159681","pSARL_v2","pSARL_v2dxa5mhew","5fc6df58f380620a09116434","fixation","img/fixation.png","null","","test","","","","","",""
"299.29999999701977","159986","pSARL_v2","pSARL_v2dxa5mhew","5fc6df58f380620a09116434","freq","img/orange_2bandit_b2.png","70","70","test","1","81","81","4","",""
"null","160495","pSARL_v2","pSARL_v2dxa5mhew","5fc6df58f380620a09116434","freq_resp","img/orange_2bandit_b.png","70","70","test","","","","4","",""
"null","160658","pSARL_v2","pSARL_v2dxa5mhew","5fc6df58f380620a09116434","fixation","img/fixation.png","null","","test","","","","","",""
"279","160946","pSARL_v2","pSARL_v2dxa5mhew","5fc6df58f380620a09116434","freq","img/orange_2bandit_b2.png","70","70","test","1","82","82","4","",""
"null","161483","pSARL_v2","pSARL_v2dxa5mhew","5fc6df58f380620a09116434","freq_resp","img/orange_2bandit_b.png","70","70","test","","","","4","",""
"null","161650","pSARL_v2","pSARL_v2dxa5mhew","5fc6df58f380620a09116434","fixation","img/fixation.png","null","","test","","","","","",""
"324.5","161983","pSARL_v2","pSARL_v2dxa5mhew","5fc6df58f380620a09116434","freq","img/orange_2bandit_b2.png","70","70","test","1","83","83","4","",""
"null","162472","pSARL_v2","pSARL_v2dxa5mhew","5fc6df58f380620a09116434","freq_resp","img/orange_2bandit_b.png","70","70","test","","","","4","",""
"null","162636","pSARL_v2","pSARL_v2dxa5mhew","5fc6df58f380620a09116434","fixation","img/fixation.png","null","","test","","","","","",""
"440.5","163084","pSARL_v2","pSARL_v2dxa5mhew","5fc6df58f380620a09116434","reward","img/slot.png","74","","test","","","","","",""
"null","163847","pSARL_v2","pSARL_v2dxa5mhew","5fc6df58f380620a09116434","points","<div class=""verylowPoints""> -3 </div>","null","na","test","","","","4","-3","3"
"426.40000000596046","164281","pSARL_v2","pSARL_v2dxa5mhew","5fc6df58f380620a09116434","freq","img/orange_2bandit_b2.png","70","70","test","1","84","84","5","",""
"null","164663","pSARL_v2","pSARL_v2dxa5mhew","5fc6df58f380620a09116434","freq_resp","img/orange_2bandit_b.png","70","70","test","","","","5","",""
"null","164830","pSARL_v2","pSARL_v2dxa5mhew","5fc6df58f380620a09116434","fixation","img/fixation.png","null","","test","","","","","",""
"343.09999999403954","165183","pSARL_v2","pSARL_v2dxa5mhew","5fc6df58f380620a09116434","freq","img/orange_2bandit_b2.png","70","70","test","1","85","85","5","",""
"null","165651","pSARL_v2","pSARL_v2dxa5mhew","5fc6df58f380620a09116434","freq_resp","img/orange_2bandit_b.png","70","70","test","","","","5","",""
"null","165816","pSARL_v2","pSARL_v2dxa5mhew","5fc6df58f380620a09116434","fixation","img/fixation.png","null","","test","","","","","",""
"343.20000000298023","166167","pSARL_v2","pSARL_v2dxa5mhew","5fc6df58f380620a09116434","freq","img/orange_2bandit_b2.png","70","70","test","1","86","86","5","",""
"null","166633","pSARL_v2","pSARL_v2dxa5mhew","5fc6df58f380620a09116434","freq_resp","img/orange_2bandit_b.png","70","70","test","","","","5","",""
"null","166797","pSARL_v2","pSARL_v2dxa5mhew","5fc6df58f380620a09116434","fixation","img/fixation.png","null","","test","","","","","",""
"353.3999999910593","167160","pSARL_v2","pSARL_v2dxa5mhew","5fc6df58f380620a09116434","freq","img/orange_2bandit_b2.png","70","70","test","1","87","87","5","",""
"null","167619","pSARL_v2","pSARL_v2dxa5mhew","5fc6df58f380620a09116434","freq_resp","img/orange_2bandit_b.png","70","70","test","","","","5","",""
"null","167784","pSARL_v2","pSARL_v2dxa5mhew","5fc6df58f380620a09116434","fixation","img/fixation.png","null","","test","","","","","",""
"354.70000000298023","168148","pSARL_v2","pSARL_v2dxa5mhew","5fc6df58f380620a09116434","freq","img/orange_2bandit_b2.png","70","70","test","1","88","88","5","",""
"null","168604","pSARL_v2","pSARL_v2dxa5mhew","5fc6df58f380620a09116434","freq_resp","img/orange_2bandit_b.png","70","70","test","","","","5","",""
"null","168765","pSARL_v2","pSARL_v2dxa5mhew","5fc6df58f380620a09116434","fixation","img/fixation.png","null","","test","","","","","",""
"307.5","169080","pSARL_v2","pSARL_v2dxa5mhew","5fc6df58f380620a09116434","freq","img/orange_2bandit_b2.png","70","70","test","1","89","89","5","",""
"null","169581","pSARL_v2","pSARL_v2dxa5mhew","5fc6df58f380620a09116434","freq_resp","img/orange_2bandit_b.png","70","70","test","","","","5","",""
"null","169745","pSARL_v2","pSARL_v2dxa5mhew","5fc6df58f380620a09116434","fixation","img/fixation.png","null","","test","","","","","",""
"298","170050","pSARL_v2","pSARL_v2dxa5mhew","5fc6df58f380620a09116434","freq","img/orange_2bandit_b2.png","70","70","test","1","90","90","5","",""
"null","170562","pSARL_v2","pSARL_v2dxa5mhew","5fc6df58f380620a09116434","freq_resp","img/orange_2bandit_b.png","70","70","test","","","","5","",""
"null","170724","pSARL_v2","pSARL_v2dxa5mhew","5fc6df58f380620a09116434","fixation","img/fixation.png","null","","test","","","","","",""
"311.5","171043","pSARL_v2","pSARL_v2dxa5mhew","5fc6df58f380620a09116434","freq","img/orange_2bandit_b2.png","70","70","test","1","91","91","5","",""
"null","171538","pSARL_v2","pSARL_v2dxa5mhew","5fc6df58f380620a09116434","freq_resp","img/orange_2bandit_b.png","70","70","test","","","","5","",""
"null","171702","pSARL_v2","pSARL_v2dxa5mhew","5fc6df58f380620a09116434","fixation","img/fixation.png","null","","test","","","","","",""
"331.90000000596046","172040","pSARL_v2","pSARL_v2dxa5mhew","5fc6df58f380620a09116434","freq","img/orange_2bandit_b2.png","70","70","test","1","92","92","5","",""
"null","172522","pSARL_v2","pSARL_v2dxa5mhew","5fc6df58f380620a09116434","freq_resp","img/orange_2bandit_b.png","70","70","test","","","","5","",""
"null","172683","pSARL_v2","pSARL_v2dxa5mhew","5fc6df58f380620a09116434","fixation","img/fixation.png","null","","test","","","","","",""
"334.29999999701977","173025","pSARL_v2","pSARL_v2dxa5mhew","5fc6df58f380620a09116434","freq","img/orange_2bandit_b2.png","70","70","test","1","93","93","5","",""
"null","173496","pSARL_v2","pSARL_v2dxa5mhew","5fc6df58f380620a09116434","freq_resp","img/orange_2bandit_b.png","70","70","test","","","","5","",""
"null","173660","pSARL_v2","pSARL_v2dxa5mhew","5fc6df58f380620a09116434","fixation","img/fixation.png","null","","test","","","","","",""
"370.3999999910593","174040","pSARL_v2","pSARL_v2dxa5mhew","5fc6df58f380620a09116434","freq","img/orange_2bandit_b2.png","70","70","test","1","94","94","5","",""
"null","174481","pSARL_v2","pSARL_v2dxa5mhew","5fc6df58f380620a09116434","freq_resp","img/orange_2bandit_b.png","70","70","test","","","","5","",""
"null","174642","pSARL_v2","pSARL_v2dxa5mhew","5fc6df58f380620a09116434","fixation","img/fixation.png","null","","test","","","","","",""
"336.79999999701977","174987","pSARL_v2","pSARL_v2dxa5mhew","5fc6df58f380620a09116434","freq","img/orange_2bandit_b2.png","70","70","test","1","95","95","5","",""
"null","175460","pSARL_v2","pSARL_v2dxa5mhew","5fc6df58f380620a09116434","freq_resp","img/orange_2bandit_b.png","70","70","test","","","","5","",""
"null","175622","pSARL_v2","pSARL_v2dxa5mhew","5fc6df58f380620a09116434","fixation","img/fixation.png","null","","test","","","","","",""
"489.1000000089407","176118","pSARL_v2","pSARL_v2dxa5mhew","5fc6df58f380620a09116434","freq","img/orange_2bandit_b2.png","70","70","test","1","96","96","5","",""
"null","176440","pSARL_v2","pSARL_v2dxa5mhew","5fc6df58f380620a09116434","freq_resp","img/orange_2bandit_b.png","70","70","test","","","","5","",""
"null","176605","pSARL_v2","pSARL_v2dxa5mhew","5fc6df58f380620a09116434","fixation","img/fixation.png","null","","test","","","","","",""
"335.90000000596046","176949","pSARL_v2","pSARL_v2dxa5mhew","5fc6df58f380620a09116434","freq","img/orange_2bandit_b2.png","70","70","test","1","97","97","5","",""
"null","177424","pSARL_v2","pSARL_v2dxa5mhew","5fc6df58f380620a09116434","freq_resp","img/orange_2bandit_b.png","70","70","test","","","","5","",""
"null","177586","pSARL_v2","pSARL_v2dxa5mhew","5fc6df58f380620a09116434","fixation","img/fixation.png","null","","test","","","","","",""
"292.8999999910593","177886","pSARL_v2","pSARL_v2dxa5mhew","5fc6df58f380620a09116434","freq","img/orange_2bandit_b2.png","70","70","test","1","98","98","5","",""
"null","178405","pSARL_v2","pSARL_v2dxa5mhew","5fc6df58f380620a09116434","freq_resp","img/orange_2bandit_b.png","70","70","test","","","","5","",""
"null","178568","pSARL_v2","pSARL_v2dxa5mhew","5fc6df58f380620a09116434","fixation","img/fixation.png","null","","test","","","","","",""
"317.79999999701977","178895","pSARL_v2","pSARL_v2dxa5mhew","5fc6df58f380620a09116434","freq","img/orange_2bandit_b2.png","70","70","test","1","99","99","5","",""
"null","179387","pSARL_v2","pSARL_v2dxa5mhew","5fc6df58f380620a09116434","freq_resp","img/orange_2bandit_b.png","70","70","test","","","","5","",""
"null","179544","pSARL_v2","pSARL_v2dxa5mhew","5fc6df58f380620a09116434","fixation","img/fixation.png","null","","test","","","","","",""
"274.30000001192093","179823","pSARL_v2","pSARL_v2dxa5mhew","5fc6df58f380620a09116434","infreq","img/green_2bandit_b2.png","70","68","test","0","100","100","5","",""
"null","180360","pSARL_v2","pSARL_v2dxa5mhew","5fc6df58f380620a09116434","infreq_resp","img/green_2bandit_b.png","70","68","test","","","","5","",""
"null","180521","pSARL_v2","pSARL_v2dxa5mhew","5fc6df58f380620a09116434","fixation","img/fixation.png","null","","test","","","","","",""
"441.69999998807907","180972","pSARL_v2","pSARL_v2dxa5mhew","5fc6df58f380620a09116434","infreq","img/green_2bandit_b2.png","68","68","test","1","101","101","5","",""
"null","181343","pSARL_v2","pSARL_v2dxa5mhew","5fc6df58f380620a09116434","infreq_resp","img/green_2bandit_b.png","68","68","test","","","","5","",""
"null","181508","pSARL_v2","pSARL_v2dxa5mhew","5fc6df58f380620a09116434","fixation","img/fixation.png","null","","test","","","","","",""
"443.79999999701977","181960","pSARL_v2","pSARL_v2dxa5mhew","5fc6df58f380620a09116434","freq","img/orange_2bandit_b2.png","70","70","test","1","102","102","5","",""
"null","182332","pSARL_v2","pSARL_v2dxa5mhew","5fc6df58f380620a09116434","freq_resp","img/orange_2bandit_b.png","70","70","test","","","","5","",""
"null","182491","pSARL_v2","pSARL_v2dxa5mhew","5fc6df58f380620a09116434","fixation","img/fixation.png","null","","test","","","","","",""
"450","182947","pSARL_v2","pSARL_v2dxa5mhew","5fc6df58f380620a09116434","infreq","img/green_2bandit_b2.png","68","68","test","1","103","103","5","",""
"null","183308","pSARL_v2","pSARL_v2dxa5mhew","5fc6df58f380620a09116434","infreq_resp","img/green_2bandit_b.png","68","68","test","","","","5","",""
"null","183464","pSARL_v2","pSARL_v2dxa5mhew","5fc6df58f380620a09116434","fixation","img/fixation.png","null","","test","","","","","",""
"457","183927","pSARL_v2","pSARL_v2dxa5mhew","5fc6df58f380620a09116434","freq","img/orange_2bandit_b2.png","70","70","test","1","104","104","5","",""
"null","184285","pSARL_v2","pSARL_v2dxa5mhew","5fc6df58f380620a09116434","freq_resp","img/orange_2bandit_b.png","70","70","test","","","","5","",""
"null","184445","pSARL_v2","pSARL_v2dxa5mhew","5fc6df58f380620a09116434","fixation","img/fixation.png","null","","test","","","","","",""
"332.69999998807907","184780","pSARL_v2","pSARL_v2dxa5mhew","5fc6df58f380620a09116434","freq","img/orange_2bandit_b2.png","70","70","test","1","105","105","5","",""
"null","185256","pSARL_v2","pSARL_v2dxa5mhew","5fc6df58f380620a09116434","freq_resp","img/orange_2bandit_b.png","70","70","test","","","","5","",""
"null","185419","pSARL_v2","pSARL_v2dxa5mhew","5fc6df58f380620a09116434","fixation","img/fixation.png","null","","test","","","","","",""
"341.59999999403954","185769","pSARL_v2","pSARL_v2dxa5mhew","5fc6df58f380620a09116434","freq","img/orange_2bandit_b2.png","70","70","test","1","106","106","5","",""
"null","186236","pSARL_v2","pSARL_v2dxa5mhew","5fc6df58f380620a09116434","freq_resp","img/orange_2bandit_b.png","70","70","test","","","","5","",""
"null","186398","pSARL_v2","pSARL_v2dxa5mhew","5fc6df58f380620a09116434","fixation","img/fixation.png","null","","test","","","","","",""
"528.2999999970198","186935","pSARL_v2","pSARL_v2dxa5mhew","5fc6df58f380620a09116434","reward","img/slot.png","74","","test","","","","","",""
"null","187700","pSARL_v2","pSARL_v2dxa5mhew","5fc6df58f380620a09116434","points","<div class=""veryhighPoints""> +1 </div>","null","na","test","","","","5","1","4"
"489","188196","pSARL_v2","pSARL_v2dxa5mhew","5fc6df58f380620a09116434","freq","img/orange_2bandit_b2.png","70","70","test","1","107","107","6","",""
"null","188518","pSARL_v2","pSARL_v2dxa5mhew","5fc6df58f380620a09116434","freq_resp","img/orange_2bandit_b.png","70","70","test","","","","6","",""
"null","188682","pSARL_v2","pSARL_v2dxa5mhew","5fc6df58f380620a09116434","fixation","img/fixation.png","null","","test","","","","","",""
"455.59999999403954","189146","pSARL_v2","pSARL_v2dxa5mhew","5fc6df58f380620a09116434","freq","img/orange_2bandit_b2.png","70","70","test","1","108","108","6","",""
"null","189497","pSARL_v2","pSARL_v2dxa5mhew","5fc6df58f380620a09116434","freq_resp","img/orange_2bandit_b.png","70","70","test","","","","6","",""
"null","189658","pSARL_v2","pSARL_v2dxa5mhew","5fc6df58f380620a09116434","fixation","img/fixation.png","null","","test","","","","","",""
"370.5","190037","pSARL_v2","pSARL_v2dxa5mhew","5fc6df58f380620a09116434","freq","img/orange_2bandit_b2.png","70","70","test","1","109","109","6","",""
"null","190478","pSARL_v2","pSARL_v2dxa5mhew","5fc6df58f380620a09116434","freq_resp","img/orange_2bandit_b.png","70","70","test","","","","6","",""
"null","190638","pSARL_v2","pSARL_v2dxa5mhew","5fc6df58f380620a09116434","fixation","img/fixation.png","null","","test","","","","","",""
"342.1000000089407","190988","pSARL_v2","pSARL_v2dxa5mhew","5fc6df58f380620a09116434","freq","img/orange_2bandit_b2.png","70","70","test","1","110","110","6","",""
"null","191453","pSARL_v2","pSARL_v2dxa5mhew","5fc6df58f380620a09116434","freq_resp","img/orange_2bandit_b.png","70","70","test","","","","6","",""
"null","191614","pSARL_v2","pSARL_v2dxa5mhew","5fc6df58f380620a09116434","fixation","img/fixation.png","null","","test","","","","","",""
"324.5","191944","pSARL_v2","pSARL_v2dxa5mhew","5fc6df58f380620a09116434","freq","img/orange_2bandit_b2.png","70","70","test","1","111","111","6","",""
"null","192433","pSARL_v2","pSARL_v2dxa5mhew","5fc6df58f380620a09116434","freq_resp","img/orange_2bandit_b.png","70","70","test","","","","6","",""
"null","192596","pSARL_v2","pSARL_v2dxa5mhew","5fc6df58f380620a09116434","fixation","img/fixation.png","null","","test","","","","","",""
"342.79999999701977","192948","pSARL_v2","pSARL_v2dxa5mhew","5fc6df58f380620a09116434","freq","img/orange_2bandit_b2.png","70","70","test","1","112","112","6","",""
"null","193421","pSARL_v2","pSARL_v2dxa5mhew","5fc6df58f380620a09116434","freq_resp","img/orange_2bandit_b.png","70","70","test","","","","6","",""
"null","193584","pSARL_v2","pSARL_v2dxa5mhew","5fc6df58f380620a09116434","fixation","img/fixation.png","null","","test","","","","","",""
"345","193937","pSARL_v2","pSARL_v2dxa5mhew","5fc6df58f380620a09116434","freq","img/orange_2bandit_b2.png","70","70","test","1","113","113","6","",""
"null","194404","pSARL_v2","pSARL_v2dxa5mhew","5fc6df58f380620a09116434","freq_resp","img/orange_2bandit_b.png","70","70","test","","","","6","",""
"null","194564","pSARL_v2","pSARL_v2dxa5mhew","5fc6df58f380620a09116434","fixation","img/fixation.png","null","","test","","","","","",""
"314.09999999403954","194885","pSARL_v2","pSARL_v2dxa5mhew","5fc6df58f380620a09116434","freq","img/orange_2bandit_b2.png","70","70","test","1","114","114","6","",""
"null","195381","pSARL_v2","pSARL_v2dxa5mhew","5fc6df58f380620a09116434","freq_resp","img/orange_2bandit_b.png","70","70","test","","","","6","",""
"null","195543","pSARL_v2","pSARL_v2dxa5mhew","5fc6df58f380620a09116434","fixation","img/fixation.png","null","","test","","","","","",""
"297.8999999910593","195851","pSARL_v2","pSARL_v2dxa5mhew","5fc6df58f380620a09116434","freq","img/orange_2bandit_b2.png","70","70","test","1","115","115","6","",""
"null","196363","pSARL_v2","pSARL_v2dxa5mhew","5fc6df58f380620a09116434","freq_resp","img/orange_2bandit_b.png","70","70","test","","","","6","",""
"null","196529","pSARL_v2","pSARL_v2dxa5mhew","5fc6df58f380620a09116434","fixation","img/fixation.png","null","","test","","","","","",""
"401.80000001192093","196941","pSARL_v2","pSARL_v2dxa5mhew","5fc6df58f380620a09116434","infreq","img/green_2bandit_b2.png","68","68","test","1","116","116","6","",""
"null","197350","pSARL_v2","pSARL_v2dxa5mhew","5fc6df58f380620a09116434","infreq_resp","img/green_2bandit_b.png","68","68","test","","","","6","",""
"null","197512","pSARL_v2","pSARL_v2dxa5mhew","5fc6df58f380620a09116434","fixation","img/fixation.png","null","","test","","","","","",""
"436.20000000298023","197960","pSARL_v2","pSARL_v2dxa5mhew","5fc6df58f380620a09116434","freq","img/orange_2bandit_b2.png","70","70","test","1","117","117","6","",""
"null","198339","pSARL_v2","pSARL_v2dxa5mhew","5fc6df58f380620a09116434","freq_resp","img/orange_2bandit_b.png","70","70","test","","","","6","",""
"null","198503","pSARL_v2","pSARL_v2dxa5mhew","5fc6df58f380620a09116434","fixation","img/fixation.png","null","","test","","","","","",""
"412.3999999910593","198926","pSARL_v2","pSARL_v2dxa5mhew","5fc6df58f380620a09116434","infreq","img/green_2bandit_b2.png","68","68","test","1","118","118","6","",""
"null","199323","pSARL_v2","pSARL_v2dxa5mhew","5fc6df58f380620a09116434","infreq_resp","img/green_2bandit_b.png","68","68","test","","","","6","",""
"null","199485","pSARL_v2","pSARL_v2dxa5mhew","5fc6df58f380620a09116434","fixation","img/fixation.png","null","","test","","","","","",""
"422.29999999701977","199915","pSARL_v2","pSARL_v2dxa5mhew","5fc6df58f380620a09116434","freq","img/orange_2bandit_b2.png","70","70","test","1","119","119","6","",""
"null","200302","pSARL_v2","pSARL_v2dxa5mhew","5fc6df58f380620a09116434","freq_resp","img/orange_2bandit_b.png","70","70","test","","","","6","",""
"null","200464","pSARL_v2","pSARL_v2dxa5mhew","5fc6df58f380620a09116434","fixation","img/fixation.png","null","","test","","","","","",""
"366","200833","pSARL_v2","pSARL_v2dxa5mhew","5fc6df58f380620a09116434","freq","img/orange_2bandit_b2.png","70","70","test","1","120","120","6","",""
"null","201276","pSARL_v2","pSARL_v2dxa5mhew","5fc6df58f380620a09116434","freq_resp","img/orange_2bandit_b.png","70","70","test","","","","6","",""
"null","201433","pSARL_v2","pSARL_v2dxa5mhew","5fc6df58f380620a09116434","fixation","img/fixation.png","null","","test","","","","","",""
"343.70000000298023","201784","pSARL_v2","pSARL_v2dxa5mhew","5fc6df58f380620a09116434","freq","img/orange_2bandit_b2.png","70","70","test","1","121","121","6","",""
"null","202249","pSARL_v2","pSARL_v2dxa5mhew","5fc6df58f380620a09116434","freq_resp","img/orange_2bandit_b.png","70","70","test","","","","6","",""
"null","202411","pSARL_v2","pSARL_v2dxa5mhew","5fc6df58f380620a09116434","fixation","img/fixation.png","null","","test","","","","","",""
"325.09999999403954","202745","pSARL_v2","pSARL_v2dxa5mhew","5fc6df58f380620a09116434","freq","img/orange_2bandit_b2.png","70","70","test","1","122","122","6","",""
"null","203232","pSARL_v2","pSARL_v2dxa5mhew","5fc6df58f380620a09116434","freq_resp","img/orange_2bandit_b.png","70","70","test","","","","6","",""
"null","203396","pSARL_v2","pSARL_v2dxa5mhew","5fc6df58f380620a09116434","fixation","img/fixation.png","null","","test","","","","","",""
"327.5","203732","pSARL_v2","pSARL_v2dxa5mhew","5fc6df58f380620a09116434","freq","img/orange_2bandit_b2.png","70","70","test","1","123","123","6","",""
"null","204216","pSARL_v2","pSARL_v2dxa5mhew","5fc6df58f380620a09116434","freq_resp","img/orange_2bandit_b.png","70","70","test","","","","6","",""
"null","204379","pSARL_v2","pSARL_v2dxa5mhew","5fc6df58f380620a09116434","fixation","img/fixation.png","null","","test","","","","","",""
"337.6000000089407","204724","pSARL_v2","pSARL_v2dxa5mhew","5fc6df58f380620a09116434","freq","img/orange_2bandit_b2.png","70","70","test","1","124","124","6","",""
"null","205196","pSARL_v2","pSARL_v2dxa5mhew","5fc6df58f380620a09116434","freq_resp","img/orange_2bandit_b.png","70","70","test","","","","6","",""
"null","205360","pSARL_v2","pSARL_v2dxa5mhew","5fc6df58f380620a09116434","fixation","img/fixation.png","null","","test","","","","","",""
"324.79999999701977","205693","pSARL_v2","pSARL_v2dxa5mhew","5fc6df58f380620a09116434","freq","img/orange_2bandit_b2.png","70","70","test","1","125","125","6","",""
"null","206181","pSARL_v2","pSARL_v2dxa5mhew","5fc6df58f380620a09116434","freq_resp","img/orange_2bandit_b.png","70","70","test","","","","6","",""
"null","206343","pSARL_v2","pSARL_v2dxa5mhew","5fc6df58f380620a09116434","fixation","img/fixation.png","null","","test","","","","","",""
"335.20000000298023","206686","pSARL_v2","pSARL_v2dxa5mhew","5fc6df58f380620a09116434","freq","img/orange_2bandit_b2.png","70","70","test","1","126","126","6","",""
"null","207164","pSARL_v2","pSARL_v2dxa5mhew","5fc6df58f380620a09116434","freq_resp","img/orange_2bandit_b.png","70","70","test","","","","6","",""
"null","207328","pSARL_v2","pSARL_v2dxa5mhew","5fc6df58f380620a09116434","fixation","img/fixation.png","null","","test","","","","","",""
"330.79999999701977","207668","pSARL_v2","pSARL_v2dxa5mhew","5fc6df58f380620a09116434","freq","img/orange_2bandit_b2.png","70","70","test","1","127","127","6","",""
"null","208150","pSARL_v2","pSARL_v2dxa5mhew","5fc6df58f380620a09116434","freq_resp","img/orange_2bandit_b.png","70","70","test","","","","6","",""
"null","208314","pSARL_v2","pSARL_v2dxa5mhew","5fc6df58f380620a09116434","fixation","img/fixation.png","null","","test","","","","","",""
"319","208642","pSARL_v2","pSARL_v2dxa5mhew","5fc6df58f380620a09116434","freq","img/orange_2bandit_b2.png","70","70","test","1","128","128","6","",""
"null","209137","pSARL_v2","pSARL_v2dxa5mhew","5fc6df58f380620a09116434","freq_resp","img/orange_2bandit_b.png","70","70","test","","","","6","",""
"null","209299","pSARL_v2","pSARL_v2dxa5mhew","5fc6df58f380620a09116434","fixation","img/fixation.png","null","","test","","","","","",""
"345.59999999403954","209653","pSARL_v2","pSARL_v2dxa5mhew","5fc6df58f380620a09116434","freq","img/orange_2bandit_b2.png","70","70","test","1","129","129","6","",""
"null","210116","pSARL_v2","pSARL_v2dxa5mhew","5fc6df58f380620a09116434","freq_resp","img/orange_2bandit_b.png","70","70","test","","","","6","",""
"null","210280","pSARL_v2","pSARL_v2dxa5mhew","5fc6df58f380620a09116434","fixation","img/fixation.png","null","","test","","","","","",""
"491.70000000298023","210780","pSARL_v2","pSARL_v2dxa5mhew","5fc6df58f380620a09116434","reward","img/slot.png","74","","test","","","","","",""
"null","211543","pSARL_v2","pSARL_v2dxa5mhew","5fc6df58f380620a09116434","points","<div class=""verylowPoints""> -7 </div>","null","na","test","","","","6","-7","5"
"357.09999999403954","211908","pSARL_v2","pSARL_v2dxa5mhew","5fc6df58f380620a09116434","freq","img/orange_2bandit_b2.png","70","70","test","1","130","130","7","",""
"null","212361","pSARL_v2","pSARL_v2dxa5mhew","5fc6df58f380620a09116434","freq_resp","img/orange_2bandit_b.png","70","70","test","","","","7","",""
"null","212525","pSARL_v2","pSARL_v2dxa5mhew","5fc6df58f380620a09116434","fixation","img/fixation.png","null","","test","","","","","",""
"461.09999999403954","212996","pSARL_v2","pSARL_v2dxa5mhew","5fc6df58f380620a09116434","freq","img/orange_2bandit_b2.png","70","70","test","1","131","131","7","",""
"null","213348","pSARL_v2","pSARL_v2dxa5mhew","5fc6df58f380620a09116434","freq_resp","img/orange_2bandit_b.png","70","70","test","","","","7","",""
"null","213508","pSARL_v2","pSARL_v2dxa5mhew","5fc6df58f380620a09116434","fixation","img/fixation.png","null","","test","","","","","",""
"426.09999999403954","213943","pSARL_v2","pSARL_v2dxa5mhew","5fc6df58f380620a09116434","freq","img/orange_2bandit_b2.png","70","70","test","1","132","132","7","",""
"null","214327","pSARL_v2","pSARL_v2dxa5mhew","5fc6df58f380620a09116434","freq_resp","img/orange_2bandit_b.png","70","70","test","","","","7","",""
"null","214489","pSARL_v2","pSARL_v2dxa5mhew","5fc6df58f380620a09116434","fixation","img/fixation.png","null","","test","","","","","",""
"308.40000000596046","214803","pSARL_v2","pSARL_v2dxa5mhew","5fc6df58f380620a09116434","freq","img/orange_2bandit_b2.png","70","70","test","1","133","133","7","",""
"null","215305","pSARL_v2","pSARL_v2dxa5mhew","5fc6df58f380620a09116434","freq_resp","img/orange_2bandit_b.png","70","70","test","","","","7","",""
"null","215462","pSARL_v2","pSARL_v2dxa5mhew","5fc6df58f380620a09116434","fixation","img/fixation.png","null","","test","","","","","",""
"301.20000000298023","215770","pSARL_v2","pSARL_v2dxa5mhew","5fc6df58f380620a09116434","freq","img/orange_2bandit_b2.png","70","70","test","1","134","134","7","",""
"null","216277","pSARL_v2","pSARL_v2dxa5mhew","5fc6df58f380620a09116434","freq_resp","img/orange_2bandit_b.png","70","70","test","","","","7","",""
"null","216439","pSARL_v2","pSARL_v2dxa5mhew","5fc6df58f380620a09116434","fixation","img/fixation.png","null","","test","","","","","",""
"252.40000000596046","216700","pSARL_v2","pSARL_v2dxa5mhew","5fc6df58f380620a09116434","freq","img/orange_2bandit_b2.png","70","70","test","1","135","135","7","",""
"null","217262","pSARL_v2","pSARL_v2dxa5mhew","5fc6df58f380620a09116434","freq_resp","img/orange_2bandit_b.png","70","70","test","","","","7","",""
"null","217425","pSARL_v2","pSARL_v2dxa5mhew","5fc6df58f380620a09116434","fixation","img/fixation.png","null","","test","","","","","",""
"318.6000000089407","217752","pSARL_v2","pSARL_v2dxa5mhew","5fc6df58f380620a09116434","freq","img/orange_2bandit_b2.png","70","70","test","1","136","136","7","",""
"null","218241","pSARL_v2","pSARL_v2dxa5mhew","5fc6df58f380620a09116434","freq_resp","img/orange_2bandit_b.png","70","70","test","","","","7","",""
"null","218402","pSARL_v2","pSARL_v2dxa5mhew","5fc6df58f380620a09116434","fixation","img/fixation.png","null","","test","","","","","",""
"256.70000000298023","218665","pSARL_v2","pSARL_v2dxa5mhew","5fc6df58f380620a09116434","freq","img/orange_2bandit_b2.png","70","70","test","1","137","137","7","",""
"null","219218","pSARL_v2","pSARL_v2dxa5mhew","5fc6df58f380620a09116434","freq_resp","img/orange_2bandit_b.png","70","70","test","","","","7","",""
"null","219380","pSARL_v2","pSARL_v2dxa5mhew","5fc6df58f380620a09116434","fixation","img/fixation.png","null","","test","","","","","",""
"406.5","219794","pSARL_v2","pSARL_v2dxa5mhew","5fc6df58f380620a09116434","infreq","img/green_2bandit_b2.png","68","68","test","1","138","138","7","",""
"null","220198","pSARL_v2","pSARL_v2dxa5mhew","5fc6df58f380620a09116434","infreq_resp","img/green_2bandit_b.png","68","68","test","","","","7","",""
"null","220360","pSARL_v2","pSARL_v2dxa5mhew","5fc6df58f380620a09116434","fixation","img/fixation.png","null","","test","","","","","",""
"360","220727","pSARL_v2","pSARL_v2dxa5mhew","5fc6df58f380620a09116434","freq","img/orange_2bandit_b2.png","70","70","test","1","139","139","7","",""
"null","221179","pSARL_v2","pSARL_v2dxa5mhew","5fc6df58f380620a09116434","freq_resp","img/orange_2bandit_b.png","70","70","test","","","","7","",""
"null","221344","pSARL_v2","pSARL_v2dxa5mhew","5fc6df58f380620a09116434","fixation","img/fixation.png","null","","test","","","","","",""
"402.8999999910593","221755","pSARL_v2","pSARL_v2dxa5mhew","5fc6df58f380620a09116434","freq","img/orange_2bandit_b2.png","70","70","test","1","140","140","7","",""
"null","222160","pSARL_v2","pSARL_v2dxa5mhew","5fc6df58f380620a09116434","freq_resp","img/orange_2bandit_b.png","70","70","test","","","","7","",""
"null","222324","pSARL_v2","pSARL_v2dxa5mhew","5fc6df58f380620a09116434","fixation","img/fixation.png","null","","test","","","","","",""
"305","222636","pSARL_v2","pSARL_v2dxa5mhew","5fc6df58f380620a09116434","freq","img/orange_2bandit_b2.png","70","70","test","1","141","141","7","",""
"null","223141","pSARL_v2","pSARL_v2dxa5mhew","5fc6df58f380620a09116434","freq_resp","img/orange_2bandit_b.png","70","70","test","","","","7","",""
"null","223306","pSARL_v2","pSARL_v2dxa5mhew","5fc6df58f380620a09116434","fixation","img/fixation.png","null","","test","","","","","",""
"316","223631","pSARL_v2","pSARL_v2dxa5mhew","5fc6df58f380620a09116434","freq","img/orange_2bandit_b2.png","70","70","test","1","142","142","7","",""
"null","224123","pSARL_v2","pSARL_v2dxa5mhew","5fc6df58f380620a09116434","freq_resp","img/orange_2bandit_b.png","70","70","test","","","","7","",""
"null","224286","pSARL_v2","pSARL_v2dxa5mhew","5fc6df58f380620a09116434","fixation","img/fixation.png","null","","test","","","","","",""
"181.79999999701977","224473","pSARL_v2","pSARL_v2dxa5mhew","5fc6df58f380620a09116434","freq","img/orange_2bandit_b2.png","70","70","test","1","143","143","7","",""
"null","225108","pSARL_v2","pSARL_v2dxa5mhew","5fc6df58f380620a09116434","freq_resp","img/orange_2bandit_b.png","70","70","test","","","","7","",""
"null","225272","pSARL_v2","pSARL_v2dxa5mhew","5fc6df58f380620a09116434","fixation","img/fixation.png","null","","test","","","","","",""
"315.5","225595","pSARL_v2","pSARL_v2dxa5mhew","5fc6df58f380620a09116434","freq","img/orange_2bandit_b2.png","70","70","test","1","144","144","7","",""
"null","226089","pSARL_v2","pSARL_v2dxa5mhew","5fc6df58f380620a09116434","freq_resp","img/orange_2bandit_b.png","70","70","test","","","","7","",""
"null","226251","pSARL_v2","pSARL_v2dxa5mhew","5fc6df58f380620a09116434","fixation","img/fixation.png","null","","test","","","","","",""
"292.40000000596046","226549","pSARL_v2","pSARL_v2dxa5mhew","5fc6df58f380620a09116434","freq","img/orange_2bandit_b2.png","70","70","test","1","145","145","7","",""
"null","227065","pSARL_v2","pSARL_v2dxa5mhew","5fc6df58f380620a09116434","freq_resp","img/orange_2bandit_b.png","70","70","test","","","","7","",""
"null","227226","pSARL_v2","pSARL_v2dxa5mhew","5fc6df58f380620a09116434","fixation","img/fixation.png","null","","test","","","","","",""
"264.70000000298023","227497","pSARL_v2","pSARL_v2dxa5mhew","5fc6df58f380620a09116434","freq","img/orange_2bandit_b2.png","70","70","test","1","146","146","7","",""
"null","228040","pSARL_v2","pSARL_v2dxa5mhew","5fc6df58f380620a09116434","freq_resp","img/orange_2bandit_b.png","70","70","test","","","","7","",""
"null","228199","pSARL_v2","pSARL_v2dxa5mhew","5fc6df58f380620a09116434","fixation","img/fixation.png","null","","test","","","","","",""
"334.59999999403954","228539","pSARL_v2","pSARL_v2dxa5mhew","5fc6df58f380620a09116434","freq","img/orange_2bandit_b2.png","70","70","test","1","147","147","7","",""
"null","229015","pSARL_v2","pSARL_v2dxa5mhew","5fc6df58f380620a09116434","freq_resp","img/orange_2bandit_b.png","70","70","test","","","","7","",""
"null","229178","pSARL_v2","pSARL_v2dxa5mhew","5fc6df58f380620a09116434","fixation","img/fixation.png","null","","test","","","","","",""
"269.69999998807907","229450","pSARL_v2","pSARL_v2dxa5mhew","5fc6df58f380620a09116434","freq","img/orange_2bandit_b2.png","70","70","test","1","148","148","7","",""
"null","229993","pSARL_v2","pSARL_v2dxa5mhew","5fc6df58f380620a09116434","freq_resp","img/orange_2bandit_b.png","70","70","test","","","","7","",""
"null","230157","pSARL_v2","pSARL_v2dxa5mhew","5fc6df58f380620a09116434","fixation","img/fixation.png","null","","test","","","","","",""
"284.59999999403954","230449","pSARL_v2","pSARL_v2dxa5mhew","5fc6df58f380620a09116434","freq","img/orange_2bandit_b2.png","70","70","test","1","149","149","7","",""
"null","230975","pSARL_v2","pSARL_v2dxa5mhew","5fc6df58f380620a09116434","freq_resp","img/orange_2bandit_b.png","70","70","test","","","","7","",""
"null","231134","pSARL_v2","pSARL_v2dxa5mhew","5fc6df58f380620a09116434","fixation","img/fixation.png","null","","test","","","","","",""
"312","231448","pSARL_v2","pSARL_v2dxa5mhew","5fc6df58f380620a09116434","freq","img/orange_2bandit_b2.png","70","70","test","1","150","150","7","",""
"null","231946","pSARL_v2","pSARL_v2dxa5mhew","5fc6df58f380620a09116434","freq_resp","img/orange_2bandit_b.png","70","70","test","","","","7","",""
"null","232106","pSARL_v2","pSARL_v2dxa5mhew","5fc6df58f380620a09116434","fixation","img/fixation.png","null","","test","","","","","",""
"276.20000000298023","232389","pSARL_v2","pSARL_v2dxa5mhew","5fc6df58f380620a09116434","freq","img/orange_2bandit_b2.png","70","70","test","1","151","151","7","",""
"null","232921","pSARL_v2","pSARL_v2dxa5mhew","5fc6df58f380620a09116434","freq_resp","img/orange_2bandit_b.png","70","70","test","","","","7","",""
"null","233085","pSARL_v2","pSARL_v2dxa5mhew","5fc6df58f380620a09116434","fixation","img/fixation.png","null","","test","","","","","",""
"220.8999999910593","233314","pSARL_v2","pSARL_v2dxa5mhew","5fc6df58f380620a09116434","infreq","img/green_2bandit_b2.png","70","68","test","0","152","152","7","",""
"null","233910","pSARL_v2","pSARL_v2dxa5mhew","5fc6df58f380620a09116434","infreq_resp","img/green_2bandit_b.png","70","68","test","","","","7","",""
"null","234075","pSARL_v2","pSARL_v2dxa5mhew","5fc6df58f380620a09116434","fixation","img/fixation.png","null","","test","","","","","",""
"303.5","234385","pSARL_v2","pSARL_v2dxa5mhew","5fc6df58f380620a09116434","freq","img/orange_2bandit_b2.png","70","70","test","1","153","153","7","",""
"null","234893","pSARL_v2","pSARL_v2dxa5mhew","5fc6df58f380620a09116434","freq_resp","img/orange_2bandit_b.png","70","70","test","","","","7","",""
"null","235058","pSARL_v2","pSARL_v2dxa5mhew","5fc6df58f380620a09116434","fixation","img/fixation.png","null","","test","","","","","",""
"298.5","235362","pSARL_v2","pSARL_v2dxa5mhew","5fc6df58f380620a09116434","freq","img/orange_2bandit_b2.png","70","70","test","1","154","154","7","",""
"null","235871","pSARL_v2","pSARL_v2dxa5mhew","5fc6df58f380620a09116434","freq_resp","img/orange_2bandit_b.png","70","70","test","","","","7","",""
"null","236036","pSARL_v2","pSARL_v2dxa5mhew","5fc6df58f380620a09116434","fixation","img/fixation.png","null","","test","","","","","",""
"289.59999999403954","236333","pSARL_v2","pSARL_v2dxa5mhew","5fc6df58f380620a09116434","freq","img/orange_2bandit_b2.png","70","70","test","1","155","155","7","",""
"null","236856","pSARL_v2","pSARL_v2dxa5mhew","5fc6df58f380620a09116434","freq_resp","img/orange_2bandit_b.png","70","70","test","","","","7","",""
"null","237020","pSARL_v2","pSARL_v2dxa5mhew","5fc6df58f380620a09116434","fixation","img/fixation.png","null","","test","","","","","",""
"492.40000000596046","237521","pSARL_v2","pSARL_v2dxa5mhew","5fc6df58f380620a09116434","reward","img/slot.png","74","","test","","","","","",""
"null","238282","pSARL_v2","pSARL_v2dxa5mhew","5fc6df58f380620a09116434","points","<div class=""verylowPoints""> -6 </div>","null","na","test","","","","7","-6","6"
"430.40000000596046","238720","pSARL_v2","pSARL_v2dxa5mhew","5fc6df58f380620a09116434","freq","img/orange_2bandit_b2.png","70","70","test","1","156","156","8","",""
"null","239104","pSARL_v2","pSARL_v2dxa5mhew","5fc6df58f380620a09116434","freq_resp","img/orange_2bandit_b.png","70","70","test","","","","8","",""
"null","239265","pSARL_v2","pSARL_v2dxa5mhew","5fc6df58f380620a09116434","fixation","img/fixation.png","null","","test","","","","","",""
"472.19999998807907","239745","pSARL_v2","pSARL_v2dxa5mhew","5fc6df58f380620a09116434","freq","img/orange_2bandit_b2.png","70","70","test","1","157","157","8","",""
"null","240080","pSARL_v2","pSARL_v2dxa5mhew","5fc6df58f380620a09116434","freq_resp","img/orange_2bandit_b.png","70","70","test","","","","8","",""
"null","240243","pSARL_v2","pSARL_v2dxa5mhew","5fc6df58f380620a09116434","fixation","img/fixation.png","null","","test","","","","","",""
"377.8999999910593","240628","pSARL_v2","pSARL_v2dxa5mhew","5fc6df58f380620a09116434","freq","img/orange_2bandit_b2.png","70","70","test","1","158","158","8","",""
"null","241064","pSARL_v2","pSARL_v2dxa5mhew","5fc6df58f380620a09116434","freq_resp","img/orange_2bandit_b.png","70","70","test","","","","8","",""
"null","241226","pSARL_v2","pSARL_v2dxa5mhew","5fc6df58f380620a09116434","fixation","img/fixation.png","null","","test","","","","","",""
"292.40000000596046","241528","pSARL_v2","pSARL_v2dxa5mhew","5fc6df58f380620a09116434","freq","img/orange_2bandit_b2.png","70","70","test","1","159","159","8","",""
"null","242047","pSARL_v2","pSARL_v2dxa5mhew","5fc6df58f380620a09116434","freq_resp","img/orange_2bandit_b.png","70","70","test","","","","8","",""
"null","242205","pSARL_v2","pSARL_v2dxa5mhew","5fc6df58f380620a09116434","fixation","img/fixation.png","null","","test","","","","","",""
"309.3999999910593","242517","pSARL_v2","pSARL_v2dxa5mhew","5fc6df58f380620a09116434","freq","img/orange_2bandit_b2.png","70","70","test","1","160","160","8","",""
"null","243016","pSARL_v2","pSARL_v2dxa5mhew","5fc6df58f380620a09116434","freq_resp","img/orange_2bandit_b.png","70","70","test","","","","8","",""
"null","243180","pSARL_v2","pSARL_v2dxa5mhew","5fc6df58f380620a09116434","fixation","img/fixation.png","null","","test","","","","","",""
"322.09999999403954","243512","pSARL_v2","pSARL_v2dxa5mhew","5fc6df58f380620a09116434","freq","img/orange_2bandit_b2.png","70","70","test","1","161","161","8","",""
"null","243999","pSARL_v2","pSARL_v2dxa5mhew","5fc6df58f380620a09116434","freq_resp","img/orange_2bandit_b.png","70","70","test","","","","8","",""
"null","244163","pSARL_v2","pSARL_v2dxa5mhew","5fc6df58f380620a09116434","fixation","img/fixation.png","null","","test","","","","","",""
"391.40000000596046","244561","pSARL_v2","pSARL_v2dxa5mhew","5fc6df58f380620a09116434","freq","img/orange_2bandit_b2.png","70","70","test","1","162","162","8","",""
"null","244978","pSARL_v2","pSARL_v2dxa5mhew","5fc6df58f380620a09116434","freq_resp","img/orange_2bandit_b.png","70","70","test","","","","8","",""
"null","245142","pSARL_v2","pSARL_v2dxa5mhew","5fc6df58f380620a09116434","fixation","img/fixation.png","null","","test","","","","","",""
"345.6000000089407","245496","pSARL_v2","pSARL_v2dxa5mhew","5fc6df58f380620a09116434","freq","img/orange_2bandit_b2.png","70","70","test","1","163","163","8","",""
"null","245963","pSARL_v2","pSARL_v2dxa5mhew","5fc6df58f380620a09116434","freq_resp","img/orange_2bandit_b.png","70","70","test","","","","8","",""
"null","246127","pSARL_v2","pSARL_v2dxa5mhew","5fc6df58f380620a09116434","fixation","img/fixation.png","null","","test","","","","","",""
"330.09999999403954","246465","pSARL_v2","pSARL_v2dxa5mhew","5fc6df58f380620a09116434","freq","img/orange_2bandit_b2.png","70","70","test","1","164","164","8","",""
"null","246947","pSARL_v2","pSARL_v2dxa5mhew","5fc6df58f380620a09116434","freq_resp","img/orange_2bandit_b.png","70","70","test","","","","8","",""
"null","247107","pSARL_v2","pSARL_v2dxa5mhew","5fc6df58f380620a09116434","fixation","img/fixation.png","null","","test","","","","","",""
"445.80000001192093","247560","pSARL_v2","pSARL_v2dxa5mhew","5fc6df58f380620a09116434","infreq","img/green_2bandit_b2.png","68","68","test","1","165","165","8","",""
"null","247929","pSARL_v2","pSARL_v2dxa5mhew","5fc6df58f380620a09116434","infreq_resp","img/green_2bandit_b.png","68","68","test","","","","8","",""
"null","248092","pSARL_v2","pSARL_v2dxa5mhew","5fc6df58f380620a09116434","fixation","img/fixation.png","null","","test","","","","","",""
"321.79999999701977","248422","pSARL_v2","pSARL_v2dxa5mhew","5fc6df58f380620a09116434","freq","img/orange_2bandit_b2.png","70","70","test","1","166","166","8","",""
"null","248910","pSARL_v2","pSARL_v2dxa5mhew","5fc6df58f380620a09116434","freq_resp","img/orange_2bandit_b.png","70","70","test","","","","8","",""
"null","249073","pSARL_v2","pSARL_v2dxa5mhew","5fc6df58f380620a09116434","fixation","img/fixation.png","null","","test","","","","","",""
"406.1000000089407","249485","pSARL_v2","pSARL_v2dxa5mhew","5fc6df58f380620a09116434","infreq","img/green_2bandit_b2.png","68","68","test","1","167","167","8","",""
"null","249891","pSARL_v2","pSARL_v2dxa5mhew","5fc6df58f380620a09116434","infreq_resp","img/green_2bandit_b.png","68","68","test","","","","8","",""
"null","250054","pSARL_v2","pSARL_v2dxa5mhew","5fc6df58f380620a09116434","fixation","img/fixation.png","null","","test","","","","","",""
"344.79999999701977","250406","pSARL_v2","pSARL_v2dxa5mhew","5fc6df58f380620a09116434","freq","img/orange_2bandit_b2.png","70","70","test","1","168","168","8","",""
"null","250876","pSARL_v2","pSARL_v2dxa5mhew","5fc6df58f380620a09116434","freq_resp","img/orange_2bandit_b.png","70","70","test","","","","8","",""
"null","251032","pSARL_v2","pSARL_v2dxa5mhew","5fc6df58f380620a09116434","fixation","img/fixation.png","null","","test","","","","","",""
"436.20000000298023","251473","pSARL_v2","pSARL_v2dxa5mhew","5fc6df58f380620a09116434","freq","img/orange_2bandit_b2.png","70","70","test","1","169","169","8","",""
"null","251849","pSARL_v2","pSARL_v2dxa5mhew","5fc6df58f380620a09116434","freq_resp","img/orange_2bandit_b.png","70","70","test","","","","8","",""
"null","252014","pSARL_v2","pSARL_v2dxa5mhew","5fc6df58f380620a09116434","fixation","img/fixation.png","null","","test","","","","","",""
"412.5","252435","pSARL_v2","pSARL_v2dxa5mhew","5fc6df58f380620a09116434","freq","img/orange_2bandit_b2.png","70","70","test","1","170","170","8","",""
"null","252833","pSARL_v2","pSARL_v2dxa5mhew","5fc6df58f380620a09116434","freq_resp","img/orange_2bandit_b.png","70","70","test","","","","8","",""
"null","252993","pSARL_v2","pSARL_v2dxa5mhew","5fc6df58f380620a09116434","fixation","img/fixation.png","null","","test","","","","","",""
"300.3999999910593","253301","pSARL_v2","pSARL_v2dxa5mhew","5fc6df58f380620a09116434","freq","img/orange_2bandit_b2.png","70","70","test","1","171","171","8","",""
"null","253811","pSARL_v2","pSARL_v2dxa5mhew","5fc6df58f380620a09116434","freq_resp","img/orange_2bandit_b.png","70","70","test","","","","8","",""
"null","253974","pSARL_v2","pSARL_v2dxa5mhew","5fc6df58f380620a09116434","fixation","img/fixation.png","null","","test","","","","","",""
"254.69999998807907","254238","pSARL_v2","pSARL_v2dxa5mhew","5fc6df58f380620a09116434","freq","img/orange_2bandit_b2.png","70","70","test","1","172","172","8","",""
"null","254794","pSARL_v2","pSARL_v2dxa5mhew","5fc6df58f380620a09116434","freq_resp","img/orange_2bandit_b.png","70","70","test","","","","8","",""
"null","254958","pSARL_v2","pSARL_v2dxa5mhew","5fc6df58f380620a09116434","fixation","img/fixation.png","null","","test","","","","","",""
"297.19999998807907","255263","pSARL_v2","pSARL_v2dxa5mhew","5fc6df58f380620a09116434","freq","img/orange_2bandit_b2.png","70","70","test","1","173","173","8","",""
"null","255773","pSARL_v2","pSARL_v2dxa5mhew","5fc6df58f380620a09116434","freq_resp","img/orange_2bandit_b.png","70","70","test","","","","8","",""
"null","255934","pSARL_v2","pSARL_v2dxa5mhew","5fc6df58f380620a09116434","fixation","img/fixation.png","null","","test","","","","","",""
"304","256245","pSARL_v2","pSARL_v2dxa5mhew","5fc6df58f380620a09116434","freq","img/orange_2bandit_b2.png","70","70","test","1","174","174","8","",""
"null","256749","pSARL_v2","pSARL_v2dxa5mhew","5fc6df58f380620a09116434","freq_resp","img/orange_2bandit_b.png","70","70","test","","","","8","",""
"null","256913","pSARL_v2","pSARL_v2dxa5mhew","5fc6df58f380620a09116434","fixation","img/fixation.png","null","","test","","","","","",""
"325.29999999701977","257250","pSARL_v2","pSARL_v2dxa5mhew","5fc6df58f380620a09116434","freq","img/orange_2bandit_b2.png","70","70","test","1","175","175","8","",""
"null","257737","pSARL_v2","pSARL_v2dxa5mhew","5fc6df58f380620a09116434","freq_resp","img/orange_2bandit_b.png","70","70","test","","","","8","",""
"null","257900","pSARL_v2","pSARL_v2dxa5mhew","5fc6df58f380620a09116434","fixation","img/fixation.png","null","","test","","","","","",""
"503","258410","pSARL_v2","pSARL_v2dxa5mhew","5fc6df58f380620a09116434","reward","img/slot.png","74","","test","","","","","",""
"null","259175","pSARL_v2","pSARL_v2dxa5mhew","5fc6df58f380620a09116434","points","<div class=""verylowPoints""> -4 </div>","null","na","test","","","","8","-4","7"
"339.20000000298023","259523","pSARL_v2","pSARL_v2dxa5mhew","5fc6df58f380620a09116434","freq","img/orange_2bandit_b2.png","70","70","test","1","176","176","9","",""
"null","259998","pSARL_v2","pSARL_v2dxa5mhew","5fc6df58f380620a09116434","freq_resp","img/orange_2bandit_b.png","70","70","test","","","","9","",""
"null","260157","pSARL_v2","pSARL_v2dxa5mhew","5fc6df58f380620a09116434","fixation","img/fixation.png","null","","test","","","","","",""
"276.5","260444","pSARL_v2","pSARL_v2dxa5mhew","5fc6df58f380620a09116434","freq","img/orange_2bandit_b2.png","70","70","test","1","177","177","9","",""
"null","260976","pSARL_v2","pSARL_v2dxa5mhew","5fc6df58f380620a09116434","freq_resp","img/orange_2bandit_b.png","70","70","test","","","","9","",""
"null","261134","pSARL_v2","pSARL_v2dxa5mhew","5fc6df58f380620a09116434","fixation","img/fixation.png","null","","test","","","","","",""
"233.59999999403954","261375","pSARL_v2","pSARL_v2dxa5mhew","5fc6df58f380620a09116434","freq","img/orange_2bandit_b2.png","70","70","test","1","178","178","9","",""
"null","261956","pSARL_v2","pSARL_v2dxa5mhew","5fc6df58f380620a09116434","freq_resp","img/orange_2bandit_b.png","70","70","test","","","","9","",""
"null","262118","pSARL_v2","pSARL_v2dxa5mhew","5fc6df58f380620a09116434","fixation","img/fixation.png","null","","test","","","","","",""
"429.30000001192093","262556","pSARL_v2","pSARL_v2dxa5mhew","5fc6df58f380620a09116434","infreq","img/green_2bandit_b2.png","68","68","test","1","179","179","9","",""
"null","262937","pSARL_v2","pSARL_v2dxa5mhew","5fc6df58f380620a09116434","infreq_resp","img/green_2bandit_b.png","68","68","test","","","","9","",""
"null","263095","pSARL_v2","pSARL_v2dxa5mhew","5fc6df58f380620a09116434","fixation","img/fixation.png","null","","test","","","","","",""
"428.40000000596046","263530","pSARL_v2","pSARL_v2dxa5mhew","5fc6df58f380620a09116434","freq","img/orange_2bandit_b2.png","70","70","test","1","180","180","9","",""
"null","263915","pSARL_v2","pSARL_v2dxa5mhew","5fc6df58f380620a09116434","freq_resp","img/orange_2bandit_b.png","70","70","test","","","","9","",""
"null","264080","pSARL_v2","pSARL_v2dxa5mhew","5fc6df58f380620a09116434","fixation","img/fixation.png","null","","test","","","","","",""
"410.20000000298023","264497","pSARL_v2","pSARL_v2dxa5mhew","5fc6df58f380620a09116434","freq","img/orange_2bandit_b2.png","70","70","test","1","181","181","9","",""
"null","264900","pSARL_v2","pSARL_v2dxa5mhew","5fc6df58f380620a09116434","freq_resp","img/orange_2bandit_b.png","70","70","test","","","","9","",""
"null","265062","pSARL_v2","pSARL_v2dxa5mhew","5fc6df58f380620a09116434","fixation","img/fixation.png","null","","test","","","","","",""
"369.40000000596046","265437","pSARL_v2","pSARL_v2dxa5mhew","5fc6df58f380620a09116434","freq","img/orange_2bandit_b2.png","70","70","test","1","182","182","9","",""
"null","265876","pSARL_v2","pSARL_v2dxa5mhew","5fc6df58f380620a09116434","freq_resp","img/orange_2bandit_b.png","70","70","test","","","","9","",""
"null","266041","pSARL_v2","pSARL_v2dxa5mhew","5fc6df58f380620a09116434","fixation","img/fixation.png","null","","test","","","","","",""
"334.3999999910593","266382","pSARL_v2","pSARL_v2dxa5mhew","5fc6df58f380620a09116434","freq","img/orange_2bandit_b2.png","70","70","test","1","183","183","9","",""
"null","266859","pSARL_v2","pSARL_v2dxa5mhew","5fc6df58f380620a09116434","freq_resp","img/orange_2bandit_b.png","70","70","test","","","","9","",""
"null","267024","pSARL_v2","pSARL_v2dxa5mhew","5fc6df58f380620a09116434","fixation","img/fixation.png","null","","test","","","","","",""
"295.20000000298023","267326","pSARL_v2","pSARL_v2dxa5mhew","5fc6df58f380620a09116434","freq","img/orange_2bandit_b2.png","70","70","test","1","184","184","9","",""
"null","267841","pSARL_v2","pSARL_v2dxa5mhew","5fc6df58f380620a09116434","freq_resp","img/orange_2bandit_b.png","70","70","test","","","","9","",""
"null","268003","pSARL_v2","pSARL_v2dxa5mhew","5fc6df58f380620a09116434","fixation","img/fixation.png","null","","test","","","","","",""
"316","268328","pSARL_v2","pSARL_v2dxa5mhew","5fc6df58f380620a09116434","freq","img/orange_2bandit_b2.png","70","70","test","1","185","185","9","",""
"null","268822","pSARL_v2","pSARL_v2dxa5mhew","5fc6df58f380620a09116434","freq_resp","img/orange_2bandit_b.png","70","70","test","","","","9","",""
"null","268984","pSARL_v2","pSARL_v2dxa5mhew","5fc6df58f380620a09116434","fixation","img/fixation.png","null","","test","","","","","",""
"331.79999999701977","269325","pSARL_v2","pSARL_v2dxa5mhew","5fc6df58f380620a09116434","freq","img/orange_2bandit_b2.png","70","70","test","1","186","186","9","",""
"null","269808","pSARL_v2","pSARL_v2dxa5mhew","5fc6df58f380620a09116434","freq_resp","img/orange_2bandit_b.png","70","70","test","","","","9","",""
"null","269974","pSARL_v2","pSARL_v2dxa5mhew","5fc6df58f380620a09116434","fixation","img/fixation.png","null","","test","","","","","",""
"360.6000000089407","270341","pSARL_v2","pSARL_v2dxa5mhew","5fc6df58f380620a09116434","freq","img/orange_2bandit_b2.png","70","70","test","1","187","187","9","",""
"null","270791","pSARL_v2","pSARL_v2dxa5mhew","5fc6df58f380620a09116434","freq_resp","img/orange_2bandit_b.png","70","70","test","","","","9","",""
"null","270954","pSARL_v2","pSARL_v2dxa5mhew","5fc6df58f380620a09116434","fixation","img/fixation.png","null","","test","","","","","",""
"306","271268","pSARL_v2","pSARL_v2dxa5mhew","5fc6df58f380620a09116434","freq","img/orange_2bandit_b2.png","70","70","test","1","188","188","9","",""
"null","271772","pSARL_v2","pSARL_v2dxa5mhew","5fc6df58f380620a09116434","freq_resp","img/orange_2bandit_b.png","70","70","test","","","","9","",""
"null","271936","pSARL_v2","pSARL_v2dxa5mhew","5fc6df58f380620a09116434","fixation","img/fixation.png","null","","test","","","","","",""
"286.20000000298023","272230","pSARL_v2","pSARL_v2dxa5mhew","5fc6df58f380620a09116434","freq","img/orange_2bandit_b2.png","70","70","test","1","189","189","9","",""
"null","272756","pSARL_v2","pSARL_v2dxa5mhew","5fc6df58f380620a09116434","freq_resp","img/orange_2bandit_b.png","70","70","test","","","","9","",""
"null","272916","pSARL_v2","pSARL_v2dxa5mhew","5fc6df58f380620a09116434","fixation","img/fixation.png","null","","test","","","","","",""
"451.59999999403954","273376","pSARL_v2","pSARL_v2dxa5mhew","5fc6df58f380620a09116434","infreq","img/green_2bandit_b2.png","68","68","test","1","190","190","9","",""
"null","273733","pSARL_v2","pSARL_v2dxa5mhew","5fc6df58f380620a09116434","infreq_resp","img/green_2bandit_b.png","68","68","test","","","","9","",""
"null","273895","pSARL_v2","pSARL_v2dxa5mhew","5fc6df58f380620a09116434","fixation","img/fixation.png","null","","test","","","","","",""
"483.8999999910593","274387","pSARL_v2","pSARL_v2dxa5mhew","5fc6df58f380620a09116434","freq","img/orange_2bandit_b2.png","70","70","test","1","191","191","9","",""
"null","274712","pSARL_v2","pSARL_v2dxa5mhew","5fc6df58f380620a09116434","freq_resp","img/orange_2bandit_b.png","70","70","test","","","","9","",""
"null","274877","pSARL_v2","pSARL_v2dxa5mhew","5fc6df58f380620a09116434","fixation","img/fixation.png","null","","test","","","","","",""
"477.79999999701977","275365","pSARL_v2","pSARL_v2dxa5mhew","5fc6df58f380620a09116434","freq","img/orange_2bandit_b2.png","70","70","test","1","192","192","9","",""
"null","275696","pSARL_v2","pSARL_v2dxa5mhew","5fc6df58f380620a09116434","freq_resp","img/orange_2bandit_b.png","70","70","test","","","","9","",""
"null","275860","pSARL_v2","pSARL_v2dxa5mhew","5fc6df58f380620a09116434","fixation","img/fixation.png","null","","test","","","","","",""
"451","276317","pSARL_v2","pSARL_v2dxa5mhew","5fc6df58f380620a09116434","infreq","img/green_2bandit_b2.png","68","68","test","1","193","193","9","",""
"null","276679","pSARL_v2","pSARL_v2dxa5mhew","5fc6df58f380620a09116434","infreq_resp","img/green_2bandit_b.png","68","68","test","","","","9","",""
"null","276843","pSARL_v2","pSARL_v2dxa5mhew","5fc6df58f380620a09116434","fixation","img/fixation.png","null","","test","","","","","",""
"397.20000000298023","277247","pSARL_v2","pSARL_v2dxa5mhew","5fc6df58f380620a09116434","freq","img/orange_2bandit_b2.png","70","70","test","1","194","194","9","",""
"null","277665","pSARL_v2","pSARL_v2dxa5mhew","5fc6df58f380620a09116434","freq_resp","img/orange_2bandit_b.png","70","70","test","","","","9","",""
"null","277830","pSARL_v2","pSARL_v2dxa5mhew","5fc6df58f380620a09116434","fixation","img/fixation.png","null","","test","","","","","",""
"479.5","278319","pSARL_v2","pSARL_v2dxa5mhew","5fc6df58f380620a09116434","freq","img/orange_2bandit_b2.png","70","70","test","1","195","195","9","",""
"null","278649","pSARL_v2","pSARL_v2dxa5mhew","5fc6df58f380620a09116434","freq_resp","img/orange_2bandit_b.png","70","70","test","","","","9","",""
"null","278814","pSARL_v2","pSARL_v2dxa5mhew","5fc6df58f380620a09116434","fixation","img/fixation.png","null","","test","","","","","",""
"348.5","279169","pSARL_v2","pSARL_v2dxa5mhew","5fc6df58f380620a09116434","freq","img/orange_2bandit_b2.png","70","70","test","1","196","196","9","",""
"null","279625","pSARL_v2","pSARL_v2dxa5mhew","5fc6df58f380620a09116434","freq_resp","img/orange_2bandit_b.png","70","70","test","","","","9","",""
"null","279788","pSARL_v2","pSARL_v2dxa5mhew","5fc6df58f380620a09116434","fixation","img/fixation.png","null","","test","","","","","",""
"302.79999999701977","280097","pSARL_v2","pSARL_v2dxa5mhew","5fc6df58f380620a09116434","freq","img/orange_2bandit_b2.png","70","70","test","1","197","197","9","",""
"null","280600","pSARL_v2","pSARL_v2dxa5mhew","5fc6df58f380620a09116434","freq_resp","img/orange_2bandit_b.png","70","70","test","","","","9","",""
"null","280762","pSARL_v2","pSARL_v2dxa5mhew","5fc6df58f380620a09116434","fixation","img/fixation.png","null","","test","","","","","",""
"593.1000000089407","281364","pSARL_v2","pSARL_v2dxa5mhew","5fc6df58f380620a09116434","reward","img/slot.png","74","","test","","","","","",""
"null","282127","pSARL_v2","pSARL_v2dxa5mhew","5fc6df58f380620a09116434","points","<div class=""verylowPoints""> -3 </div>","null","na","test","","","","9","-3","8"
"473.70000000298023","282609","pSARL_v2","pSARL_v2dxa5mhew","5fc6df58f380620a09116434","freq","img/orange_2bandit_b2.png","70","70","test","1","198","198","10","",""
"null","282945","pSARL_v2","pSARL_v2dxa5mhew","5fc6df58f380620a09116434","freq_resp","img/orange_2bandit_b.png","70","70","test","","","","10","",""
"null","283108","pSARL_v2","pSARL_v2dxa5mhew","5fc6df58f380620a09116434","fixation","img/fixation.png","null","","test","","","","","",""
"603.4000000059605","283716","pSARL_v2","pSARL_v2dxa5mhew","5fc6df58f380620a09116434","freq","img/orange_2bandit_b2.png","70","70","test","1","199","199","10","",""
"null","283926","pSARL_v2","pSARL_v2dxa5mhew","5fc6df58f380620a09116434","freq_resp","img/orange_2bandit_b.png","70","70","test","","","","10","",""
"null","284090","pSARL_v2","pSARL_v2dxa5mhew","5fc6df58f380620a09116434","fixation","img/fixation.png","null","","test","","","","","",""
"488.5","284585","pSARL_v2","pSARL_v2dxa5mhew","5fc6df58f380620a09116434","freq","img/orange_2bandit_b2.png","70","70","test","1","200","200","10","",""
"null","284904","pSARL_v2","pSARL_v2dxa5mhew","5fc6df58f380620a09116434","freq_resp","img/orange_2bandit_b.png","70","70","test","","","","10","",""
"null","285062","pSARL_v2","pSARL_v2dxa5mhew","5fc6df58f380620a09116434","fixation","img/fixation.png","null","","test","","","","","",""
"335.09999999403954","285405","pSARL_v2","pSARL_v2dxa5mhew","5fc6df58f380620a09116434","freq","img/orange_2bandit_b2.png","70","70","test","1","201","201","10","",""
"null","285884","pSARL_v2","pSARL_v2dxa5mhew","5fc6df58f380620a09116434","freq_resp","img/orange_2bandit_b.png","70","70","test","","","","10","",""
"null","286045","pSARL_v2","pSARL_v2dxa5mhew","5fc6df58f380620a09116434","fixation","img/fixation.png","null","","test","","","","","",""
"274.09999999403954","286325","pSARL_v2","pSARL_v2dxa5mhew","5fc6df58f380620a09116434","freq","img/orange_2bandit_b2.png","70","70","test","1","202","202","10","",""
"null","286864","pSARL_v2","pSARL_v2dxa5mhew","5fc6df58f380620a09116434","freq_resp","img/orange_2bandit_b.png","70","70","test","","","","10","",""
"null","287028","pSARL_v2","pSARL_v2dxa5mhew","5fc6df58f380620a09116434","fixation","img/fixation.png","null","","test","","","","","",""
"309.6000000089407","287346","pSARL_v2","pSARL_v2dxa5mhew","5fc6df58f380620a09116434","freq","img/orange_2bandit_b2.png","70","70","test","1","203","203","10","",""
"null","287845","pSARL_v2","pSARL_v2dxa5mhew","5fc6df58f380620a09116434","freq_resp","img/orange_2bandit_b.png","70","70","test","","","","10","",""
"null","288003","pSARL_v2","pSARL_v2dxa5mhew","5fc6df58f380620a09116434","fixation","img/fixation.png","null","","test","","","","","",""
"321","288331","pSARL_v2","pSARL_v2dxa5mhew","5fc6df58f380620a09116434","freq","img/orange_2bandit_b2.png","70","70","test","1","204","204","10","",""
"null","288819","pSARL_v2","pSARL_v2dxa5mhew","5fc6df58f380620a09116434","freq_resp","img/orange_2bandit_b.png","70","70","test","","","","10","",""
"null","288982","pSARL_v2","pSARL_v2dxa5mhew","5fc6df58f380620a09116434","fixation","img/fixation.png","null","","test","","","","","",""
"692.3999999910593","289681","pSARL_v2","pSARL_v2dxa5mhew","5fc6df58f380620a09116434","freq","img/orange_2bandit_b2.png","70","70","test","1","205","205","10","",""
"null","289796","pSARL_v2","pSARL_v2dxa5mhew","5fc6df58f380620a09116434","freq_resp","img/orange_2bandit_b.png","70","70","test","","","","10","",""
