"rt","time_elapsed","expId","subject","prolificID","trialType","stimulus","key_press","corrresp","phase","corr","trialNum","attentionRunNum","blockNum","points","rlNum"
"12959.60000000894","12964","pSARL_v2","pSARL_v2wjrd2rq8","63d7a8a2591096e22405d64a","","","","","","","","","","",""
"","17092","pSARL_v2","pSARL_v2wjrd2rq8","63d7a8a2591096e22405d64a","fullscreen","","","","","","","","","",""
"46140.59999999404","63235","pSARL_v2","pSARL_v2wjrd2rq8","63d7a8a2591096e22405d64a","","","","","","","","","","",""
"null","64051","pSARL_v2","pSARL_v2wjrd2rq8","63d7a8a2591096e22405d64a","freqPrac","img/orange_2bandit_a2.png","null","70","prac","0","","","","",""
"null","65058","pSARL_v2","pSARL_v2wjrd2rq8","63d7a8a2591096e22405d64a","feedback","img/tooSlow.png","null","na","prac","","","","","",""
"null","65212","pSARL_v2","pSARL_v2wjrd2rq8","63d7a8a2591096e22405d64a","fixation","img/fixation.png","null","","prac","","","","","",""
"751.4000000059605","65967","pSARL_v2","pSARL_v2wjrd2rq8","63d7a8a2591096e22405d64a","infreqPrac","img/green_2bandit_a2.png","68","68","prac","1","","","","",""
"751.4000000059605","66027","pSARL_v2","pSARL_v2wjrd2rq8","63d7a8a2591096e22405d64a","infreqPrac_resp","img/green_2bandit_a.png","68","68","prac","","","","","",""
"null","66181","pSARL_v2","pSARL_v2wjrd2rq8","63d7a8a2591096e22405d64a","fixation","img/fixation.png","null","","prac","","","","","",""
"580","66763","pSARL_v2","pSARL_v2wjrd2rq8","63d7a8a2591096e22405d64a","freqPrac","img/orange_2bandit_a2.png","70","70","prac","1","","","","",""
"580","66997","pSARL_v2","pSARL_v2wjrd2rq8","63d7a8a2591096e22405d64a","freqPrac_resp","img/orange_2bandit_a.png","70","70","prac","","","","","",""
"null","67156","pSARL_v2","pSARL_v2wjrd2rq8","63d7a8a2591096e22405d64a","fixation","img/fixation.png","null","","prac","","","","","",""
"548.2999999970198","67707","pSARL_v2","pSARL_v2wjrd2rq8","63d7a8a2591096e22405d64a","infreqPrac","img/green_2bandit_a2.png","68","68","prac","1","","","","",""
"548.2999999970198","67970","pSARL_v2","pSARL_v2wjrd2rq8","63d7a8a2591096e22405d64a","infreqPrac_resp","img/green_2bandit_a.png","68","68","prac","","","","","",""
"null","68126","pSARL_v2","pSARL_v2wjrd2rq8","63d7a8a2591096e22405d64a","fixation","img/fixation.png","null","","prac","","","","","",""
"433","68561","pSARL_v2","pSARL_v2wjrd2rq8","63d7a8a2591096e22405d64a","infreqPrac","img/green_2bandit_a2.png","68","68","prac","1","","","","",""
"433","68936","pSARL_v2","pSARL_v2wjrd2rq8","63d7a8a2591096e22405d64a","infreqPrac_resp","img/green_2bandit_a.png","68","68","prac","","","","","",""
"null","69090","pSARL_v2","pSARL_v2wjrd2rq8","63d7a8a2591096e22405d64a","fixation","img/fixation.png","null","","prac","","","","","",""
"558","69652","pSARL_v2","pSARL_v2wjrd2rq8","63d7a8a2591096e22405d64a","infreqPrac","img/green_2bandit_a2.png","68","68","prac","1","","","","",""
"558","69899","pSARL_v2","pSARL_v2wjrd2rq8","63d7a8a2591096e22405d64a","infreqPrac_resp","img/green_2bandit_a.png","68","68","prac","","","","","",""
"null","70053","pSARL_v2","pSARL_v2wjrd2rq8","63d7a8a2591096e22405d64a","fixation","img/fixation.png","null","","prac","","","","","",""
"379.3999999910593","70435","pSARL_v2","pSARL_v2wjrd2rq8","63d7a8a2591096e22405d64a","freqPrac","img/orange_2bandit_a2.png","70","70","prac","1","","","","",""
"379.3999999910593","70868","pSARL_v2","pSARL_v2wjrd2rq8","63d7a8a2591096e22405d64a","freqPrac_resp","img/orange_2bandit_a.png","70","70","prac","","","","","",""
"null","71024","pSARL_v2","pSARL_v2wjrd2rq8","63d7a8a2591096e22405d64a","fixation","img/fixation.png","null","","prac","","","","","",""
"446.3999999910593","71473","pSARL_v2","pSARL_v2wjrd2rq8","63d7a8a2591096e22405d64a","infreqPrac","img/green_2bandit_a2.png","68","68","prac","1","","","","",""
"446.3999999910593","71843","pSARL_v2","pSARL_v2wjrd2rq8","63d7a8a2591096e22405d64a","infreqPrac_resp","img/green_2bandit_a.png","68","68","prac","","","","","",""
"null","72003","pSARL_v2","pSARL_v2wjrd2rq8","63d7a8a2591096e22405d64a","fixation","img/fixation.png","null","","prac","","","","","",""
"551.7999999970198","72557","pSARL_v2","pSARL_v2wjrd2rq8","63d7a8a2591096e22405d64a","freqPrac","img/orange_2bandit_a2.png","70","70","prac","1","","","","",""
"551.7999999970198","72812","pSARL_v2","pSARL_v2wjrd2rq8","63d7a8a2591096e22405d64a","freqPrac_resp","img/orange_2bandit_a.png","70","70","prac","","","","","",""
"null","72968","pSARL_v2","pSARL_v2wjrd2rq8","63d7a8a2591096e22405d64a","fixation","img/fixation.png","null","","prac","","","","","",""
"608.7999999970198","73579","pSARL_v2","pSARL_v2wjrd2rq8","63d7a8a2591096e22405d64a","freqPrac","img/orange_2bandit_a2.png","70","70","prac","1","","","","",""
"608.7999999970198","73779","pSARL_v2","pSARL_v2wjrd2rq8","63d7a8a2591096e22405d64a","freqPrac_resp","img/orange_2bandit_a.png","70","70","prac","","","","","",""
"null","73935","pSARL_v2","pSARL_v2wjrd2rq8","63d7a8a2591096e22405d64a","fixation","img/fixation.png","null","","prac","","","","","",""
"22989.29999999702","96926","pSARL_v2","pSARL_v2wjrd2rq8","63d7a8a2591096e22405d64a","","","","","prac","","","","","",""
"793.2999999970198","97721","pSARL_v2","pSARL_v2wjrd2rq8","63d7a8a2591096e22405d64a","rewardPractice","img/slot.png","74","","prac","","","","","",""
"null","98475","pSARL_v2","pSARL_v2wjrd2rq8","63d7a8a2591096e22405d64a","feedback","<div class=""veryhighPoints""> +15 </div>","null","na","prac","","","","","",""
"null","98628","pSARL_v2","pSARL_v2wjrd2rq8","63d7a8a2591096e22405d64a","fixation","img/fixation.png","null","","prac","","","","","",""
"4287.100000008941","102918","pSARL_v2","pSARL_v2wjrd2rq8","63d7a8a2591096e22405d64a","","","","","prac","","","","","",""
"null","103732","pSARL_v2","pSARL_v2wjrd2rq8","63d7a8a2591096e22405d64a","freq","img/orange_2bandit_a2.png","null","70","test","0","1","1","1","",""
"null","103890","pSARL_v2","pSARL_v2wjrd2rq8","63d7a8a2591096e22405d64a","fixation","img/fixation.png","null","","test","","","","","",""
"304.79999999701977","104198","pSARL_v2","pSARL_v2wjrd2rq8","63d7a8a2591096e22405d64a","freq","img/orange_2bandit_a2.png","70","70","test","1","2","2","1","",""
"null","104708","pSARL_v2","pSARL_v2wjrd2rq8","63d7a8a2591096e22405d64a","freq_resp","img/orange_2bandit_a.png","70","70","test","","","","1","",""
"null","104868","pSARL_v2","pSARL_v2wjrd2rq8","63d7a8a2591096e22405d64a","fixation","img/fixation.png","null","","test","","","","","",""
"229.3999999910593","105099","pSARL_v2","pSARL_v2wjrd2rq8","63d7a8a2591096e22405d64a","freq","img/orange_2bandit_a2.png","70","70","test","1","3","3","1","",""
"null","105676","pSARL_v2","pSARL_v2wjrd2rq8","63d7a8a2591096e22405d64a","freq_resp","img/orange_2bandit_a.png","70","70","test","","","","1","",""
"null","105832","pSARL_v2","pSARL_v2wjrd2rq8","63d7a8a2591096e22405d64a","fixation","img/fixation.png","null","","test","","","","","",""
"84.70000000298023","105919","pSARL_v2","pSARL_v2wjrd2rq8","63d7a8a2591096e22405d64a","freq","img/orange_2bandit_a2.png","70","70","test","1","4","4","1","",""
"null","106643","pSARL_v2","pSARL_v2wjrd2rq8","63d7a8a2591096e22405d64a","freq_resp","img/orange_2bandit_a.png","70","70","test","","","","1","",""
"null","106800","pSARL_v2","pSARL_v2wjrd2rq8","63d7a8a2591096e22405d64a","fixation","img/fixation.png","null","","test","","","","","",""
"452.79999999701977","107255","pSARL_v2","pSARL_v2wjrd2rq8","63d7a8a2591096e22405d64a","freq","img/orange_2bandit_a2.png","70","70","test","1","5","5","1","",""
"null","107609","pSARL_v2","pSARL_v2wjrd2rq8","63d7a8a2591096e22405d64a","freq_resp","img/orange_2bandit_a.png","70","70","test","","","","1","",""
"null","107766","pSARL_v2","pSARL_v2wjrd2rq8","63d7a8a2591096e22405d64a","fixation","img/fixation.png","null","","test","","","","","",""
"349.79999999701977","108120","pSARL_v2","pSARL_v2wjrd2rq8","63d7a8a2591096e22405d64a","freq","img/orange_2bandit_a2.png","70","70","test","1","6","6","1","",""
"null","108579","pSARL_v2","pSARL_v2wjrd2rq8","63d7a8a2591096e22405d64a","freq_resp","img/orange_2bandit_a.png","70","70","test","","","","1","",""
"null","108738","pSARL_v2","pSARL_v2wjrd2rq8","63d7a8a2591096e22405d64a","fixation","img/fixation.png","null","","test","","","","","",""
"240.29999999701977","108981","pSARL_v2","pSARL_v2wjrd2rq8","63d7a8a2591096e22405d64a","freq","img/orange_2bandit_a2.png","70","70","test","1","7","7","1","",""
"null","109556","pSARL_v2","pSARL_v2wjrd2rq8","63d7a8a2591096e22405d64a","freq_resp","img/orange_2bandit_a.png","70","70","test","","","","1","",""
"null","109711","pSARL_v2","pSARL_v2wjrd2rq8","63d7a8a2591096e22405d64a","fixation","img/fixation.png","null","","test","","","","","",""
"244.3999999910593","109957","pSARL_v2","pSARL_v2wjrd2rq8","63d7a8a2591096e22405d64a","infreq","img/green_2bandit_a2.png","70","68","test","0","8","8","1","",""
"null","110521","pSARL_v2","pSARL_v2wjrd2rq8","63d7a8a2591096e22405d64a","infreq_resp","img/green_2bandit_a.png","70","68","test","","","","1","",""
"null","110680","pSARL_v2","pSARL_v2wjrd2rq8","63d7a8a2591096e22405d64a","fixation","img/fixation.png","null","","test","","","","","",""
"464.8999999910593","111147","pSARL_v2","pSARL_v2wjrd2rq8","63d7a8a2591096e22405d64a","freq","img/orange_2bandit_a2.png","70","70","test","1","9","9","1","",""
"null","111495","pSARL_v2","pSARL_v2wjrd2rq8","63d7a8a2591096e22405d64a","freq_resp","img/orange_2bandit_a.png","70","70","test","","","","1","",""
"null","111650","pSARL_v2","pSARL_v2wjrd2rq8","63d7a8a2591096e22405d64a","fixation","img/fixation.png","null","","test","","","","","",""
"561","112214","pSARL_v2","pSARL_v2wjrd2rq8","63d7a8a2591096e22405d64a","freq","img/orange_2bandit_a2.png","70","70","test","1","10","10","1","",""
"null","112472","pSARL_v2","pSARL_v2wjrd2rq8","63d7a8a2591096e22405d64a","freq_resp","img/orange_2bandit_a.png","70","70","test","","","","1","",""
"null","112627","pSARL_v2","pSARL_v2wjrd2rq8","63d7a8a2591096e22405d64a","fixation","img/fixation.png","null","","test","","","","","",""
"432.90000000596046","113063","pSARL_v2","pSARL_v2wjrd2rq8","63d7a8a2591096e22405d64a","freq","img/orange_2bandit_a2.png","70","70","test","1","11","11","1","",""
"null","113439","pSARL_v2","pSARL_v2wjrd2rq8","63d7a8a2591096e22405d64a","freq_resp","img/orange_2bandit_a.png","70","70","test","","","","1","",""
"null","113595","pSARL_v2","pSARL_v2wjrd2rq8","63d7a8a2591096e22405d64a","fixation","img/fixation.png","null","","test","","","","","",""
"431.5","114029","pSARL_v2","pSARL_v2wjrd2rq8","63d7a8a2591096e22405d64a","freq","img/orange_2bandit_a2.png","70","70","test","1","12","12","1","",""
"null","114402","pSARL_v2","pSARL_v2wjrd2rq8","63d7a8a2591096e22405d64a","freq_resp","img/orange_2bandit_a.png","70","70","test","","","","1","",""
"null","114556","pSARL_v2","pSARL_v2wjrd2rq8","63d7a8a2591096e22405d64a","fixation","img/fixation.png","null","","test","","","","","",""
"447.69999998807907","115006","pSARL_v2","pSARL_v2wjrd2rq8","63d7a8a2591096e22405d64a","freq","img/orange_2bandit_a2.png","70","70","test","1","13","13","1","",""
"null","115365","pSARL_v2","pSARL_v2wjrd2rq8","63d7a8a2591096e22405d64a","freq_resp","img/orange_2bandit_a.png","70","70","test","","","","1","",""
"null","115521","pSARL_v2","pSARL_v2wjrd2rq8","63d7a8a2591096e22405d64a","fixation","img/fixation.png","null","","test","","","","","",""
"503","116026","pSARL_v2","pSARL_v2wjrd2rq8","63d7a8a2591096e22405d64a","freq","img/orange_2bandit_a2.png","70","70","test","1","14","14","1","",""
"null","116339","pSARL_v2","pSARL_v2wjrd2rq8","63d7a8a2591096e22405d64a","freq_resp","img/orange_2bandit_a.png","70","70","test","","","","1","",""
"null","116496","pSARL_v2","pSARL_v2wjrd2rq8","63d7a8a2591096e22405d64a","fixation","img/fixation.png","null","","test","","","","","",""
"687.4000000059605","117185","pSARL_v2","pSARL_v2wjrd2rq8","63d7a8a2591096e22405d64a","freq","img/orange_2bandit_a2.png","70","70","test","1","15","15","1","",""
"null","117310","pSARL_v2","pSARL_v2wjrd2rq8","63d7a8a2591096e22405d64a","freq_resp","img/orange_2bandit_a.png","70","70","test","","","","1","",""
"null","117468","pSARL_v2","pSARL_v2wjrd2rq8","63d7a8a2591096e22405d64a","fixation","img/fixation.png","null","","test","","","","","",""
"null","118272","pSARL_v2","pSARL_v2wjrd2rq8","63d7a8a2591096e22405d64a","freq","img/orange_2bandit_a2.png","null","70","test","0","16","16","1","",""
"null","118443","pSARL_v2","pSARL_v2wjrd2rq8","63d7a8a2591096e22405d64a","fixation","img/fixation.png","null","","test","","","","","",""
"null","119251","pSARL_v2","pSARL_v2wjrd2rq8","63d7a8a2591096e22405d64a","freq","img/orange_2bandit_a2.png","null","70","test","0","17","17","1","",""
"null","119411","pSARL_v2","pSARL_v2wjrd2rq8","63d7a8a2591096e22405d64a","fixation","img/fixation.png","null","","test","","","","","",""
"91","119504","pSARL_v2","pSARL_v2wjrd2rq8","63d7a8a2591096e22405d64a","freq","img/orange_2bandit_a2.png","70","70","test","1","18","18","1","",""
"null","120226","pSARL_v2","pSARL_v2wjrd2rq8","63d7a8a2591096e22405d64a","freq_resp","img/orange_2bandit_a.png","70","70","test","","","","1","",""
"null","120383","pSARL_v2","pSARL_v2wjrd2rq8","63d7a8a2591096e22405d64a","fixation","img/fixation.png","null","","test","","","","","",""
"66.20000000298023","120452","pSARL_v2","pSARL_v2wjrd2rq8","63d7a8a2591096e22405d64a","freq","img/orange_2bandit_a2.png","70","70","test","1","19","19","1","",""
"null","121197","pSARL_v2","pSARL_v2wjrd2rq8","63d7a8a2591096e22405d64a","freq_resp","img/orange_2bandit_a.png","70","70","test","","","","1","",""
"null","121352","pSARL_v2","pSARL_v2wjrd2rq8","63d7a8a2591096e22405d64a","fixation","img/fixation.png","null","","test","","","","","",""
"10.900000005960464","121365","pSARL_v2","pSARL_v2wjrd2rq8","63d7a8a2591096e22405d64a","infreq","img/green_2bandit_a2.png","70","68","test","0","20","20","1","",""
"null","122163","pSARL_v2","pSARL_v2wjrd2rq8","63d7a8a2591096e22405d64a","infreq_resp","img/green_2bandit_a.png","70","68","test","","","","1","",""
"null","122319","pSARL_v2","pSARL_v2wjrd2rq8","63d7a8a2591096e22405d64a","fixation","img/fixation.png","null","","test","","","","","",""
"506.5","122828","pSARL_v2","pSARL_v2wjrd2rq8","63d7a8a2591096e22405d64a","freq","img/orange_2bandit_a2.png","70","70","test","1","21","21","1","",""
"null","123127","pSARL_v2","pSARL_v2wjrd2rq8","63d7a8a2591096e22405d64a","freq_resp","img/orange_2bandit_a.png","70","70","test","","","","1","",""
"null","123283","pSARL_v2","pSARL_v2wjrd2rq8","63d7a8a2591096e22405d64a","fixation","img/fixation.png","null","","test","","","","","",""
"620.5999999940395","123906","pSARL_v2","pSARL_v2wjrd2rq8","63d7a8a2591096e22405d64a","reward","img/slot.png","74","","test","","","","","",""
"null","124664","pSARL_v2","pSARL_v2wjrd2rq8","63d7a8a2591096e22405d64a","points","<div class=""verylowPoints""> -6 </div>","null","na","test","","","","1","-6","0"
"null","125483","pSARL_v2","pSARL_v2wjrd2rq8","63d7a8a2591096e22405d64a","freq","img/orange_2bandit_a2.png","null","70","test","0","22","22","2","",""
"null","125642","pSARL_v2","pSARL_v2wjrd2rq8","63d7a8a2591096e22405d64a","fixation","img/fixation.png","null","","test","","","","","",""
"null","126453","pSARL_v2","pSARL_v2wjrd2rq8","63d7a8a2591096e22405d64a","freq","img/orange_2bandit_a2.png","null","70","test","0","23","23","2","",""
"null","126610","pSARL_v2","pSARL_v2wjrd2rq8","63d7a8a2591096e22405d64a","fixation","img/fixation.png","null","","test","","","","","",""
"618.6000000089407","127231","pSARL_v2","pSARL_v2wjrd2rq8","63d7a8a2591096e22405d64a","infreq","img/green_2bandit_a2.png","68","68","test","1","24","24","2","",""
"null","127424","pSARL_v2","pSARL_v2wjrd2rq8","63d7a8a2591096e22405d64a","infreq_resp","img/green_2bandit_a.png","68","68","test","","","","2","",""
"null","127581","pSARL_v2","pSARL_v2wjrd2rq8","63d7a8a2591096e22405d64a","fixation","img/fixation.png","null","","test","","","","","",""
"460.5","128044","pSARL_v2","pSARL_v2wjrd2rq8","63d7a8a2591096e22405d64a","freq","img/orange_2bandit_a2.png","70","70","test","1","25","25","2","",""
"null","128390","pSARL_v2","pSARL_v2wjrd2rq8","63d7a8a2591096e22405d64a","freq_resp","img/orange_2bandit_a.png","70","70","test","","","","2","",""
"null","128544","pSARL_v2","pSARL_v2wjrd2rq8","63d7a8a2591096e22405d64a","fixation","img/fixation.png","null","","test","","","","","",""
"291.40000000596046","128837","pSARL_v2","pSARL_v2wjrd2rq8","63d7a8a2591096e22405d64a","infreq","img/green_2bandit_a2.png","68","68","test","1","26","26","2","",""
"null","129351","pSARL_v2","pSARL_v2wjrd2rq8","63d7a8a2591096e22405d64a","infreq_resp","img/green_2bandit_a.png","68","68","test","","","","2","",""
"null","129508","pSARL_v2","pSARL_v2wjrd2rq8","63d7a8a2591096e22405d64a","fixation","img/fixation.png","null","","test","","","","","",""
"296.6000000089407","129807","pSARL_v2","pSARL_v2wjrd2rq8","63d7a8a2591096e22405d64a","freq","img/orange_2bandit_a2.png","70","70","test","1","27","27","2","",""
"null","130323","pSARL_v2","pSARL_v2wjrd2rq8","63d7a8a2591096e22405d64a","freq_resp","img/orange_2bandit_a.png","70","70","test","","","","2","",""
"null","130477","pSARL_v2","pSARL_v2wjrd2rq8","63d7a8a2591096e22405d64a","fixation","img/fixation.png","null","","test","","","","","",""
"439.5","130919","pSARL_v2","pSARL_v2wjrd2rq8","63d7a8a2591096e22405d64a","freq","img/orange_2bandit_a2.png","70","70","test","1","28","28","2","",""
"null","131288","pSARL_v2","pSARL_v2wjrd2rq8","63d7a8a2591096e22405d64a","freq_resp","img/orange_2bandit_a.png","70","70","test","","","","2","",""
"null","131444","pSARL_v2","pSARL_v2wjrd2rq8","63d7a8a2591096e22405d64a","fixation","img/fixation.png","null","","test","","","","","",""
"390","131836","pSARL_v2","pSARL_v2wjrd2rq8","63d7a8a2591096e22405d64a","freq","img/orange_2bandit_a2.png","70","70","test","1","29","29","2","",""
"null","132251","pSARL_v2","pSARL_v2wjrd2rq8","63d7a8a2591096e22405d64a","freq_resp","img/orange_2bandit_a.png","70","70","test","","","","2","",""
"null","132407","pSARL_v2","pSARL_v2wjrd2rq8","63d7a8a2591096e22405d64a","fixation","img/fixation.png","null","","test","","","","","",""
"274.70000000298023","132684","pSARL_v2","pSARL_v2wjrd2rq8","63d7a8a2591096e22405d64a","freq","img/orange_2bandit_a2.png","70","70","test","1","30","30","2","",""
"null","133226","pSARL_v2","pSARL_v2wjrd2rq8","63d7a8a2591096e22405d64a","freq_resp","img/orange_2bandit_a.png","70","70","test","","","","2","",""
"null","133385","pSARL_v2","pSARL_v2wjrd2rq8","63d7a8a2591096e22405d64a","fixation","img/fixation.png","null","","test","","","","","",""
"209.79999999701977","133597","pSARL_v2","pSARL_v2wjrd2rq8","63d7a8a2591096e22405d64a","freq","img/orange_2bandit_a2.png","70","70","test","1","31","31","2","",""
"null","134193","pSARL_v2","pSARL_v2wjrd2rq8","63d7a8a2591096e22405d64a","freq_resp","img/orange_2bandit_a.png","70","70","test","","","","2","",""
"null","134352","pSARL_v2","pSARL_v2wjrd2rq8","63d7a8a2591096e22405d64a","fixation","img/fixation.png","null","","test","","","","","",""
"128.59999999403954","134483","pSARL_v2","pSARL_v2wjrd2rq8","63d7a8a2591096e22405d64a","freq","img/orange_2bandit_a2.png","70","70","test","1","32","32","2","",""
"null","135168","pSARL_v2","pSARL_v2wjrd2rq8","63d7a8a2591096e22405d64a","freq_resp","img/orange_2bandit_a.png","70","70","test","","","","2","",""
"null","135322","pSARL_v2","pSARL_v2wjrd2rq8","63d7a8a2591096e22405d64a","fixation","img/fixation.png","null","","test","","","","","",""
"118.79999999701977","135443","pSARL_v2","pSARL_v2wjrd2rq8","63d7a8a2591096e22405d64a","freq","img/orange_2bandit_a2.png","70","70","test","1","33","33","2","",""
"null","136133","pSARL_v2","pSARL_v2wjrd2rq8","63d7a8a2591096e22405d64a","freq_resp","img/orange_2bandit_a.png","70","70","test","","","","2","",""
"null","136291","pSARL_v2","pSARL_v2wjrd2rq8","63d7a8a2591096e22405d64a","fixation","img/fixation.png","null","","test","","","","","",""
"53.29999999701977","136347","pSARL_v2","pSARL_v2wjrd2rq8","63d7a8a2591096e22405d64a","freq","img/orange_2bandit_a2.png","70","70","test","1","34","34","2","",""
"null","137105","pSARL_v2","pSARL_v2wjrd2rq8","63d7a8a2591096e22405d64a","freq_resp","img/orange_2bandit_a.png","70","70","test","","","","2","",""
"null","137265","pSARL_v2","pSARL_v2wjrd2rq8","63d7a8a2591096e22405d64a","fixation","img/fixation.png","null","","test","","","","","",""
"null","138081","pSARL_v2","pSARL_v2wjrd2rq8","63d7a8a2591096e22405d64a","freq","img/orange_2bandit_a2.png","null","70","test","0","35","35","2","",""
"null","138236","pSARL_v2","pSARL_v2wjrd2rq8","63d7a8a2591096e22405d64a","fixation","img/fixation.png","null","","test","","","","","",""
"null","139041","pSARL_v2","pSARL_v2wjrd2rq8","63d7a8a2591096e22405d64a","freq","img/orange_2bandit_a2.png","null","70","test","0","36","36","2","",""
"null","139202","pSARL_v2","pSARL_v2wjrd2rq8","63d7a8a2591096e22405d64a","fixation","img/fixation.png","null","","test","","","","","",""
"null","140013","pSARL_v2","pSARL_v2wjrd2rq8","63d7a8a2591096e22405d64a","freq","img/orange_2bandit_a2.png","null","70","test","0","37","37","2","",""
"null","140167","pSARL_v2","pSARL_v2wjrd2rq8","63d7a8a2591096e22405d64a","fixation","img/fixation.png","null","","test","","","","","",""
"3.2999999970197678","140173","pSARL_v2","pSARL_v2wjrd2rq8","63d7a8a2591096e22405d64a","freq","img/orange_2bandit_a2.png","70","70","test","1","38","38","2","",""
"null","140975","pSARL_v2","pSARL_v2wjrd2rq8","63d7a8a2591096e22405d64a","freq_resp","img/orange_2bandit_a.png","70","70","test","","","","2","",""
"null","141133","pSARL_v2","pSARL_v2wjrd2rq8","63d7a8a2591096e22405d64a","fixation","img/fixation.png","null","","test","","","","","",""
"null","141945","pSARL_v2","pSARL_v2wjrd2rq8","63d7a8a2591096e22405d64a","freq","img/orange_2bandit_a2.png","null","70","test","0","39","39","2","",""
"null","142102","pSARL_v2","pSARL_v2wjrd2rq8","63d7a8a2591096e22405d64a","fixation","img/fixation.png","null","","test","","","","","",""
"779.7000000029802","142884","pSARL_v2","pSARL_v2wjrd2rq8","63d7a8a2591096e22405d64a","freq","img/orange_2bandit_a2.png","70","70","test","1","40","40","2","",""
"null","142907","pSARL_v2","pSARL_v2wjrd2rq8","63d7a8a2591096e22405d64a","freq_resp","img/orange_2bandit_a.png","70","70","test","","","","2","",""
"null","143069","pSARL_v2","pSARL_v2wjrd2rq8","63d7a8a2591096e22405d64a","fixation","img/fixation.png","null","","test","","","","","",""
"561.2000000029802","143632","pSARL_v2","pSARL_v2wjrd2rq8","63d7a8a2591096e22405d64a","reward","img/slot.png","74","","test","","","","","",""
"null","144394","pSARL_v2","pSARL_v2wjrd2rq8","63d7a8a2591096e22405d64a","points","<div class=""verylowPoints""> -11 </div>","null","na","test","","","","2","-11","1"
"null","145202","pSARL_v2","pSARL_v2wjrd2rq8","63d7a8a2591096e22405d64a","freq","img/orange_2bandit_a2.png","null","70","test","0","41","41","3","",""
"null","145360","pSARL_v2","pSARL_v2wjrd2rq8","63d7a8a2591096e22405d64a","fixation","img/fixation.png","null","","test","","","","","",""
"644.5","146008","pSARL_v2","pSARL_v2wjrd2rq8","63d7a8a2591096e22405d64a","freq","img/orange_2bandit_a2.png","70","70","test","1","42","42","3","",""
"null","146171","pSARL_v2","pSARL_v2wjrd2rq8","63d7a8a2591096e22405d64a","freq_resp","img/orange_2bandit_a.png","70","70","test","","","","3","",""
"null","146329","pSARL_v2","pSARL_v2wjrd2rq8","63d7a8a2591096e22405d64a","fixation","img/fixation.png","null","","test","","","","","",""
"663.1000000089407","146994","pSARL_v2","pSARL_v2wjrd2rq8","63d7a8a2591096e22405d64a","freq","img/orange_2bandit_a2.png","70","70","test","1","43","43","3","",""
"null","147136","pSARL_v2","pSARL_v2wjrd2rq8","63d7a8a2591096e22405d64a","freq_resp","img/orange_2bandit_a.png","70","70","test","","","","3","",""
"null","147294","pSARL_v2","pSARL_v2wjrd2rq8","63d7a8a2591096e22405d64a","fixation","img/fixation.png","null","","test","","","","","",""
"576.5","147874","pSARL_v2","pSARL_v2wjrd2rq8","63d7a8a2591096e22405d64a","freq","img/orange_2bandit_a2.png","70","70","test","1","44","44","3","",""
"null","148103","pSARL_v2","pSARL_v2wjrd2rq8","63d7a8a2591096e22405d64a","freq_resp","img/orange_2bandit_a.png","70","70","test","","","","3","",""
"null","148258","pSARL_v2","pSARL_v2wjrd2rq8","63d7a8a2591096e22405d64a","fixation","img/fixation.png","null","","test","","","","","",""
"521.8999999910593","148783","pSARL_v2","pSARL_v2wjrd2rq8","63d7a8a2591096e22405d64a","freq","img/orange_2bandit_a2.png","70","70","test","1","45","45","3","",""
"null","149073","pSARL_v2","pSARL_v2wjrd2rq8","63d7a8a2591096e22405d64a","freq_resp","img/orange_2bandit_a.png","70","70","test","","","","3","",""
"null","149227","pSARL_v2","pSARL_v2wjrd2rq8","63d7a8a2591096e22405d64a","fixation","img/fixation.png","null","","test","","","","","",""
"519.2000000029802","149749","pSARL_v2","pSARL_v2wjrd2rq8","63d7a8a2591096e22405d64a","freq","img/orange_2bandit_a2.png","70","70","test","1","46","46","3","",""
"null","150049","pSARL_v2","pSARL_v2wjrd2rq8","63d7a8a2591096e22405d64a","freq_resp","img/orange_2bandit_a.png","70","70","test","","","","3","",""
"null","150205","pSARL_v2","pSARL_v2wjrd2rq8","63d7a8a2591096e22405d64a","fixation","img/fixation.png","null","","test","","","","","",""
"506.5","150713","pSARL_v2","pSARL_v2wjrd2rq8","63d7a8a2591096e22405d64a","freq","img/orange_2bandit_a2.png","70","70","test","1","47","47","3","",""
"null","151019","pSARL_v2","pSARL_v2wjrd2rq8","63d7a8a2591096e22405d64a","freq_resp","img/orange_2bandit_a.png","70","70","test","","","","3","",""
"null","151176","pSARL_v2","pSARL_v2wjrd2rq8","63d7a8a2591096e22405d64a","fixation","img/fixation.png","null","","test","","","","","",""
"496.19999998807907","151677","pSARL_v2","pSARL_v2wjrd2rq8","63d7a8a2591096e22405d64a","freq","img/orange_2bandit_a2.png","70","70","test","1","48","48","3","",""
"null","151991","pSARL_v2","pSARL_v2wjrd2rq8","63d7a8a2591096e22405d64a","freq_resp","img/orange_2bandit_a.png","70","70","test","","","","3","",""
"null","152146","pSARL_v2","pSARL_v2wjrd2rq8","63d7a8a2591096e22405d64a","fixation","img/fixation.png","null","","test","","","","","",""
"405.5","152554","pSARL_v2","pSARL_v2wjrd2rq8","63d7a8a2591096e22405d64a","freq","img/orange_2bandit_a2.png","70","70","test","1","49","49","3","",""
"null","152953","pSARL_v2","pSARL_v2wjrd2rq8","63d7a8a2591096e22405d64a","freq_resp","img/orange_2bandit_a.png","70","70","test","","","","3","",""
"null","153113","pSARL_v2","pSARL_v2wjrd2rq8","63d7a8a2591096e22405d64a","fixation","img/fixation.png","null","","test","","","","","",""
"417.09999999403954","153532","pSARL_v2","pSARL_v2wjrd2rq8","63d7a8a2591096e22405d64a","freq","img/orange_2bandit_a2.png","70","70","test","1","50","50","3","",""
"null","153929","pSARL_v2","pSARL_v2wjrd2rq8","63d7a8a2591096e22405d64a","freq_resp","img/orange_2bandit_a.png","70","70","test","","","","3","",""
"null","154086","pSARL_v2","pSARL_v2wjrd2rq8","63d7a8a2591096e22405d64a","fixation","img/fixation.png","null","","test","","","","","",""
"300.29999999701977","154388","pSARL_v2","pSARL_v2wjrd2rq8","63d7a8a2591096e22405d64a","freq","img/orange_2bandit_a2.png","70","70","test","1","51","51","3","",""
"null","154898","pSARL_v2","pSARL_v2wjrd2rq8","63d7a8a2591096e22405d64a","freq_resp","img/orange_2bandit_a.png","70","70","test","","","","3","",""
"null","155058","pSARL_v2","pSARL_v2wjrd2rq8","63d7a8a2591096e22405d64a","fixation","img/fixation.png","null","","test","","","","","",""
"249.09999999403954","155309","pSARL_v2","pSARL_v2wjrd2rq8","63d7a8a2591096e22405d64a","freq","img/orange_2bandit_a2.png","70","70","test","1","52","52","3","",""
"null","155877","pSARL_v2","pSARL_v2wjrd2rq8","63d7a8a2591096e22405d64a","freq_resp","img/orange_2bandit_a.png","70","70","test","","","","3","",""
"null","156033","pSARL_v2","pSARL_v2wjrd2rq8","63d7a8a2591096e22405d64a","fixation","img/fixation.png","null","","test","","","","","",""
"160.59999999403954","156196","pSARL_v2","pSARL_v2wjrd2rq8","63d7a8a2591096e22405d64a","freq","img/orange_2bandit_a2.png","70","70","test","1","53","53","3","",""
"null","156843","pSARL_v2","pSARL_v2wjrd2rq8","63d7a8a2591096e22405d64a","freq_resp","img/orange_2bandit_a.png","70","70","test","","","","3","",""
"null","156999","pSARL_v2","pSARL_v2wjrd2rq8","63d7a8a2591096e22405d64a","fixation","img/fixation.png","null","","test","","","","","",""
"47.5","157049","pSARL_v2","pSARL_v2wjrd2rq8","63d7a8a2591096e22405d64a","freq","img/orange_2bandit_a2.png","70","70","test","1","54","54","3","",""
"null","157810","pSARL_v2","pSARL_v2wjrd2rq8","63d7a8a2591096e22405d64a","freq_resp","img/orange_2bandit_a.png","70","70","test","","","","3","",""
"null","157966","pSARL_v2","pSARL_v2wjrd2rq8","63d7a8a2591096e22405d64a","fixation","img/fixation.png","null","","test","","","","","",""
"661.7999999970198","158630","pSARL_v2","pSARL_v2wjrd2rq8","63d7a8a2591096e22405d64a","freq","img/orange_2bandit_a2.png","70","70","test","1","55","55","3","",""
"null","158780","pSARL_v2","pSARL_v2wjrd2rq8","63d7a8a2591096e22405d64a","freq_resp","img/orange_2bandit_a.png","70","70","test","","","","3","",""
"null","158937","pSARL_v2","pSARL_v2wjrd2rq8","63d7a8a2591096e22405d64a","fixation","img/fixation.png","null","","test","","","","","",""
"565.7999999970198","159505","pSARL_v2","pSARL_v2wjrd2rq8","63d7a8a2591096e22405d64a","infreq","img/green_2bandit_a2.png","68","68","test","1","56","56","3","",""
"null","159748","pSARL_v2","pSARL_v2wjrd2rq8","63d7a8a2591096e22405d64a","infreq_resp","img/green_2bandit_a.png","68","68","test","","","","3","",""
"null","159907","pSARL_v2","pSARL_v2wjrd2rq8","63d7a8a2591096e22405d64a","fixation","img/fixation.png","null","","test","","","","","",""
"383.90000000596046","160294","pSARL_v2","pSARL_v2wjrd2rq8","63d7a8a2591096e22405d64a","freq","img/orange_2bandit_a2.png","70","70","test","1","57","57","3","",""
"null","160731","pSARL_v2","pSARL_v2wjrd2rq8","63d7a8a2591096e22405d64a","freq_resp","img/orange_2bandit_a.png","70","70","test","","","","3","",""
"null","160888","pSARL_v2","pSARL_v2wjrd2rq8","63d7a8a2591096e22405d64a","fixation","img/fixation.png","null","","test","","","","","",""
"460","161350","pSARL_v2","pSARL_v2wjrd2rq8","63d7a8a2591096e22405d64a","freq","img/orange_2bandit_a2.png","70","70","test","1","58","58","3","",""
"null","161701","pSARL_v2","pSARL_v2wjrd2rq8","63d7a8a2591096e22405d64a","freq_resp","img/orange_2bandit_a.png","70","70","test","","","","3","",""
"null","161857","pSARL_v2","pSARL_v2wjrd2rq8","63d7a8a2591096e22405d64a","fixation","img/fixation.png","null","","test","","","","","",""
"355.29999999701977","162215","pSARL_v2","pSARL_v2wjrd2rq8","63d7a8a2591096e22405d64a","freq","img/orange_2bandit_a2.png","70","70","test","1","59","59","3","",""
"null","162662","pSARL_v2","pSARL_v2wjrd2rq8","63d7a8a2591096e22405d64a","freq_resp","img/orange_2bandit_a.png","70","70","test","","","","3","",""
"null","162821","pSARL_v2","pSARL_v2wjrd2rq8","63d7a8a2591096e22405d64a","fixation","img/fixation.png","null","","test","","","","","",""
"206.3999999910593","163029","pSARL_v2","pSARL_v2wjrd2rq8","63d7a8a2591096e22405d64a","infreq","img/green_2bandit_a2.png","70","68","test","0","60","60","3","",""
"null","163628","pSARL_v2","pSARL_v2wjrd2rq8","63d7a8a2591096e22405d64a","infreq_resp","img/green_2bandit_a.png","70","68","test","","","","3","",""
"null","163787","pSARL_v2","pSARL_v2wjrd2rq8","63d7a8a2591096e22405d64a","fixation","img/fixation.png","null","","test","","","","","",""
"477.19999998807907","164266","pSARL_v2","pSARL_v2wjrd2rq8","63d7a8a2591096e22405d64a","freq","img/orange_2bandit_a2.png","70","70","test","1","61","61","3","",""
"null","164593","pSARL_v2","pSARL_v2wjrd2rq8","63d7a8a2591096e22405d64a","freq_resp","img/orange_2bandit_a.png","70","70","test","","","","3","",""
"null","164749","pSARL_v2","pSARL_v2wjrd2rq8","63d7a8a2591096e22405d64a","fixation","img/fixation.png","null","","test","","","","","",""
"576","165327","pSARL_v2","pSARL_v2wjrd2rq8","63d7a8a2591096e22405d64a","freq","img/orange_2bandit_a2.png","70","70","test","1","62","62","3","",""
"null","165562","pSARL_v2","pSARL_v2wjrd2rq8","63d7a8a2591096e22405d64a","freq_resp","img/orange_2bandit_a.png","70","70","test","","","","3","",""
"null","165721","pSARL_v2","pSARL_v2wjrd2rq8","63d7a8a2591096e22405d64a","fixation","img/fixation.png","null","","test","","","","","",""
"506.59999999403954","166230","pSARL_v2","pSARL_v2wjrd2rq8","63d7a8a2591096e22405d64a","reward","img/slot.png","74","","test","","","","","",""
"null","166985","pSARL_v2","pSARL_v2wjrd2rq8","63d7a8a2591096e22405d64a","points","<div class=""verylowPoints""> -7 </div>","null","na","test","","","","3","-7","2"
"null","167790","pSARL_v2","pSARL_v2wjrd2rq8","63d7a8a2591096e22405d64a","freq","img/orange_2bandit_a2.png","null","70","test","0","63","63","4","",""
"null","167955","pSARL_v2","pSARL_v2wjrd2rq8","63d7a8a2591096e22405d64a","fixation","img/fixation.png","null","","test","","","","","",""
"null","168768","pSARL_v2","pSARL_v2wjrd2rq8","63d7a8a2591096e22405d64a","infreq","img/green_2bandit_a2.png","null","68","test","0","64","64","4","",""
"null","168937","pSARL_v2","pSARL_v2wjrd2rq8","63d7a8a2591096e22405d64a","fixation","img/fixation.png","null","","test","","","","","",""
"51.29999999701977","168990","pSARL_v2","pSARL_v2wjrd2rq8","63d7a8a2591096e22405d64a","freq","img/orange_2bandit_a2.png","68","70","test","0","65","65","4","",""
"null","169751","pSARL_v2","pSARL_v2wjrd2rq8","63d7a8a2591096e22405d64a","freq_resp","img/orange_2bandit_a.png","68","70","test","","","","4","",""
"null","169905","pSARL_v2","pSARL_v2wjrd2rq8","63d7a8a2591096e22405d64a","fixation","img/fixation.png","null","","test","","","","","",""
"155.8999999910593","170063","pSARL_v2","pSARL_v2wjrd2rq8","63d7a8a2591096e22405d64a","freq","img/orange_2bandit_a2.png","70","70","test","1","66","66","4","",""
"null","170717","pSARL_v2","pSARL_v2wjrd2rq8","63d7a8a2591096e22405d64a","freq_resp","img/orange_2bandit_a.png","70","70","test","","","","4","",""
"null","170873","pSARL_v2","pSARL_v2wjrd2rq8","63d7a8a2591096e22405d64a","fixation","img/fixation.png","null","","test","","","","","",""
"30.799999997019768","170905","pSARL_v2","pSARL_v2wjrd2rq8","63d7a8a2591096e22405d64a","freq","img/orange_2bandit_a2.png","70","70","test","1","67","67","4","",""
"null","171689","pSARL_v2","pSARL_v2wjrd2rq8","63d7a8a2591096e22405d64a","freq_resp","img/orange_2bandit_a.png","70","70","test","","","","4","",""
"null","171844","pSARL_v2","pSARL_v2wjrd2rq8","63d7a8a2591096e22405d64a","fixation","img/fixation.png","null","","test","","","","","",""
"4.899999991059303","171851","pSARL_v2","pSARL_v2wjrd2rq8","63d7a8a2591096e22405d64a","infreq","img/green_2bandit_a2.png","70","68","test","0","68","68","4","",""
"null","172659","pSARL_v2","pSARL_v2wjrd2rq8","63d7a8a2591096e22405d64a","infreq_resp","img/green_2bandit_a.png","70","68","test","","","","4","",""
"null","172813","pSARL_v2","pSARL_v2wjrd2rq8","63d7a8a2591096e22405d64a","fixation","img/fixation.png","null","","test","","","","","",""
"414.30000001192093","173231","pSARL_v2","pSARL_v2wjrd2rq8","63d7a8a2591096e22405d64a","freq","img/orange_2bandit_a2.png","70","70","test","1","69","69","4","",""
"null","173631","pSARL_v2","pSARL_v2wjrd2rq8","63d7a8a2591096e22405d64a","freq_resp","img/orange_2bandit_a.png","70","70","test","","","","4","",""
"null","173789","pSARL_v2","pSARL_v2wjrd2rq8","63d7a8a2591096e22405d64a","fixation","img/fixation.png","null","","test","","","","","",""
"325.80000001192093","174117","pSARL_v2","pSARL_v2wjrd2rq8","63d7a8a2591096e22405d64a","freq","img/orange_2bandit_a2.png","70","70","test","1","70","70","4","",""
"null","174605","pSARL_v2","pSARL_v2wjrd2rq8","63d7a8a2591096e22405d64a","freq_resp","img/orange_2bandit_a.png","70","70","test","","","","4","",""
"null","174764","pSARL_v2","pSARL_v2wjrd2rq8","63d7a8a2591096e22405d64a","fixation","img/fixation.png","null","","test","","","","","",""
"68","174835","pSARL_v2","pSARL_v2wjrd2rq8","63d7a8a2591096e22405d64a","freq","img/orange_2bandit_a2.png","70","70","test","1","71","71","4","",""
"null","175585","pSARL_v2","pSARL_v2wjrd2rq8","63d7a8a2591096e22405d64a","freq_resp","img/orange_2bandit_a.png","70","70","test","","","","4","",""
"null","175740","pSARL_v2","pSARL_v2wjrd2rq8","63d7a8a2591096e22405d64a","fixation","img/fixation.png","null","","test","","","","","",""
"52.70000000298023","175796","pSARL_v2","pSARL_v2wjrd2rq8","63d7a8a2591096e22405d64a","freq","img/orange_2bandit_a2.png","70","70","test","1","72","72","4","",""
"null","176555","pSARL_v2","pSARL_v2wjrd2rq8","63d7a8a2591096e22405d64a","freq_resp","img/orange_2bandit_a.png","70","70","test","","","","4","",""
"null","176712","pSARL_v2","pSARL_v2wjrd2rq8","63d7a8a2591096e22405d64a","fixation","img/fixation.png","null","","test","","","","","",""
"null","177521","pSARL_v2","pSARL_v2wjrd2rq8","63d7a8a2591096e22405d64a","freq","img/orange_2bandit_a2.png","null","70","test","0","73","73","4","",""
"null","177688","pSARL_v2","pSARL_v2wjrd2rq8","63d7a8a2591096e22405d64a","fixation","img/fixation.png","null","","test","","","","","",""
"null","178500","pSARL_v2","pSARL_v2wjrd2rq8","63d7a8a2591096e22405d64a","freq","img/orange_2bandit_a2.png","null","70","test","0","74","74","4","",""
"null","178656","pSARL_v2","pSARL_v2wjrd2rq8","63d7a8a2591096e22405d64a","fixation","img/fixation.png","null","","test","","","","","",""
"null","179469","pSARL_v2","pSARL_v2wjrd2rq8","63d7a8a2591096e22405d64a","freq","img/orange_2bandit_a2.png","null","70","test","0","75","75","4","",""
"null","179625","pSARL_v2","pSARL_v2wjrd2rq8","63d7a8a2591096e22405d64a","fixation","img/fixation.png","null","","test","","","","","",""
"751.1999999880791","180378","pSARL_v2","pSARL_v2wjrd2rq8","63d7a8a2591096e22405d64a","freq","img/orange_2bandit_a2.png","70","70","test","1","76","76","4","",""
"null","180438","pSARL_v2","pSARL_v2wjrd2rq8","63d7a8a2591096e22405d64a","freq_resp","img/orange_2bandit_a.png","70","70","test","","","","4","",""
"null","180593","pSARL_v2","pSARL_v2wjrd2rq8","63d7a8a2591096e22405d64a","fixation","img/fixation.png","null","","test","","","","","",""
"642.2999999970198","181238","pSARL_v2","pSARL_v2wjrd2rq8","63d7a8a2591096e22405d64a","freq","img/orange_2bandit_a2.png","70","70","test","1","77","77","4","",""
"null","181406","pSARL_v2","pSARL_v2wjrd2rq8","63d7a8a2591096e22405d64a","freq_resp","img/orange_2bandit_a.png","70","70","test","","","","4","",""
"null","181563","pSARL_v2","pSARL_v2wjrd2rq8","63d7a8a2591096e22405d64a","fixation","img/fixation.png","null","","test","","","","","",""
"525.0999999940395","182091","pSARL_v2","pSARL_v2wjrd2rq8","63d7a8a2591096e22405d64a","freq","img/orange_2bandit_a2.png","70","70","test","1","78","78","4","",""
"null","182378","pSARL_v2","pSARL_v2wjrd2rq8","63d7a8a2591096e22405d64a","freq_resp","img/orange_2bandit_a.png","70","70","test","","","","4","",""
"null","182533","pSARL_v2","pSARL_v2wjrd2rq8","63d7a8a2591096e22405d64a","fixation","img/fixation.png","null","","test","","","","","",""
"399.59999999403954","182935","pSARL_v2","pSARL_v2wjrd2rq8","63d7a8a2591096e22405d64a","freq","img/orange_2bandit_a2.png","70","70","test","1","79","79","4","",""
"null","183351","pSARL_v2","pSARL_v2wjrd2rq8","63d7a8a2591096e22405d64a","freq_resp","img/orange_2bandit_a.png","70","70","test","","","","4","",""
"null","183512","pSARL_v2","pSARL_v2wjrd2rq8","63d7a8a2591096e22405d64a","fixation","img/fixation.png","null","","test","","","","","",""
"266.59999999403954","183780","pSARL_v2","pSARL_v2wjrd2rq8","63d7a8a2591096e22405d64a","freq","img/orange_2bandit_a2.png","70","70","test","1","80","80","4","",""
"null","184331","pSARL_v2","pSARL_v2wjrd2rq8","63d7a8a2591096e22405d64a","freq_resp","img/orange_2bandit_a.png","70","70","test","","","","4","",""
"null","184487","pSARL_v2","pSARL_v2wjrd2rq8","63d7a8a2591096e22405d64a","fixation","img/fixation.png","null","","test","","","","","",""
"116.90000000596046","184606","pSARL_v2","pSARL_v2wjrd2rq8","63d7a8a2591096e22405d64a","freq","img/orange_2bandit_a2.png","70","70","test","1","81","81","4","",""
"null","185293","pSARL_v2","pSARL_v2wjrd2rq8","63d7a8a2591096e22405d64a","freq_resp","img/orange_2bandit_a.png","70","70","test","","","","4","",""
"null","185451","pSARL_v2","pSARL_v2wjrd2rq8","63d7a8a2591096e22405d64a","fixation","img/fixation.png","null","","test","","","","","",""
"35.1000000089407","185489","pSARL_v2","pSARL_v2wjrd2rq8","63d7a8a2591096e22405d64a","freq","img/orange_2bandit_a2.png","70","70","test","1","82","82","4","",""
"null","186264","pSARL_v2","pSARL_v2wjrd2rq8","63d7a8a2591096e22405d64a","freq_resp","img/orange_2bandit_a.png","70","70","test","","","","4","",""
"null","186420","pSARL_v2","pSARL_v2wjrd2rq8","63d7a8a2591096e22405d64a","fixation","img/fixation.png","null","","test","","","","","",""
"null","187232","pSARL_v2","pSARL_v2wjrd2rq8","63d7a8a2591096e22405d64a","freq","img/orange_2bandit_a2.png","null","70","test","0","83","83","4","",""
"null","187389","pSARL_v2","pSARL_v2wjrd2rq8","63d7a8a2591096e22405d64a","fixation","img/fixation.png","null","","test","","","","","",""
"469.8999999910593","187862","pSARL_v2","pSARL_v2wjrd2rq8","63d7a8a2591096e22405d64a","reward","img/slot.png","74","","test","","","","","",""
"null","188626","pSARL_v2","pSARL_v2wjrd2rq8","63d7a8a2591096e22405d64a","points","<div class=""verylowPoints""> -3 </div>","null","na","test","","","","4","-3","3"
"547.3999999910593","189176","pSARL_v2","pSARL_v2wjrd2rq8","63d7a8a2591096e22405d64a","freq","img/orange_2bandit_a2.png","70","70","test","1","84","84","5","",""
"null","189434","pSARL_v2","pSARL_v2wjrd2rq8","63d7a8a2591096e22405d64a","freq_resp","img/orange_2bandit_a.png","70","70","test","","","","5","",""
"null","189589","pSARL_v2","pSARL_v2wjrd2rq8","63d7a8a2591096e22405d64a","fixation","img/fixation.png","null","","test","","","","","",""
"372.79999999701977","189966","pSARL_v2","pSARL_v2wjrd2rq8","63d7a8a2591096e22405d64a","freq","img/orange_2bandit_a2.png","70","70","test","1","85","85","5","",""
"null","190401","pSARL_v2","pSARL_v2wjrd2rq8","63d7a8a2591096e22405d64a","freq_resp","img/orange_2bandit_a.png","70","70","test","","","","5","",""
"null","190556","pSARL_v2","pSARL_v2wjrd2rq8","63d7a8a2591096e22405d64a","fixation","img/fixation.png","null","","test","","","","","",""
"385.29999999701977","190945","pSARL_v2","pSARL_v2wjrd2rq8","63d7a8a2591096e22405d64a","freq","img/orange_2bandit_a2.png","70","70","test","1","86","86","5","",""
"null","191376","pSARL_v2","pSARL_v2wjrd2rq8","63d7a8a2591096e22405d64a","freq_resp","img/orange_2bandit_a.png","70","70","test","","","","5","",""
"null","191536","pSARL_v2","pSARL_v2wjrd2rq8","63d7a8a2591096e22405d64a","fixation","img/fixation.png","null","","test","","","","","",""
"289.70000000298023","191829","pSARL_v2","pSARL_v2wjrd2rq8","63d7a8a2591096e22405d64a","freq","img/orange_2bandit_a2.png","70","70","test","1","87","87","5","",""
"null","192367","pSARL_v2","pSARL_v2wjrd2rq8","63d7a8a2591096e22405d64a","freq_resp","img/orange_2bandit_a.png","70","70","test","","","","5","",""
"null","192521","pSARL_v2","pSARL_v2wjrd2rq8","63d7a8a2591096e22405d64a","fixation","img/fixation.png","null","","test","","","","","",""
"178.70000000298023","192703","pSARL_v2","pSARL_v2wjrd2rq8","63d7a8a2591096e22405d64a","freq","img/orange_2bandit_a2.png","70","70","test","1","88","88","5","",""
"null","193331","pSARL_v2","pSARL_v2wjrd2rq8","63d7a8a2591096e22405d64a","freq_resp","img/orange_2bandit_a.png","70","70","test","","","","5","",""
"null","193487","pSARL_v2","pSARL_v2wjrd2rq8","63d7a8a2591096e22405d64a","fixation","img/fixation.png","null","","test","","","","","",""
"55.79999999701977","193545","pSARL_v2","pSARL_v2wjrd2rq8","63d7a8a2591096e22405d64a","freq","img/orange_2bandit_a2.png","70","70","test","1","89","89","5","",""
"null","194297","pSARL_v2","pSARL_v2wjrd2rq8","63d7a8a2591096e22405d64a","freq_resp","img/orange_2bandit_a.png","70","70","test","","","","5","",""
"null","194455","pSARL_v2","pSARL_v2wjrd2rq8","63d7a8a2591096e22405d64a","fixation","img/fixation.png","null","","test","","","","","",""
"105.59999999403954","194564","pSARL_v2","pSARL_v2wjrd2rq8","63d7a8a2591096e22405d64a","freq","img/orange_2bandit_a2.png","70","70","test","1","90","90","5","",""
"null","195263","pSARL_v2","pSARL_v2wjrd2rq8","63d7a8a2591096e22405d64a","freq_resp","img/orange_2bandit_a.png","70","70","test","","","","5","",""
"null","195419","pSARL_v2","pSARL_v2wjrd2rq8","63d7a8a2591096e22405d64a","fixation","img/fixation.png","null","","test","","","","","",""
"65.70000000298023","195489","pSARL_v2","pSARL_v2wjrd2rq8","63d7a8a2591096e22405d64a","freq","img/orange_2bandit_a2.png","70","70","test","1","91","91","5","",""
"null","196231","pSARL_v2","pSARL_v2wjrd2rq8","63d7a8a2591096e22405d64a","freq_resp","img/orange_2bandit_a.png","70","70","test","","","","5","",""
"null","196391","pSARL_v2","pSARL_v2wjrd2rq8","63d7a8a2591096e22405d64a","fixation","img/fixation.png","null","","test","","","","","",""
"94.70000000298023","196490","pSARL_v2","pSARL_v2wjrd2rq8","63d7a8a2591096e22405d64a","freq","img/orange_2bandit_a2.png","70","70","test","1","92","92","5","",""
"null","197212","pSARL_v2","pSARL_v2wjrd2rq8","63d7a8a2591096e22405d64a","freq_resp","img/orange_2bandit_a.png","70","70","test","","","","5","",""
"null","197371","pSARL_v2","pSARL_v2wjrd2rq8","63d7a8a2591096e22405d64a","fixation","img/fixation.png","null","","test","","","","","",""
"151.59999999403954","197526","pSARL_v2","pSARL_v2wjrd2rq8","63d7a8a2591096e22405d64a","freq","img/orange_2bandit_a2.png","70","70","test","1","93","93","5","",""
"null","198190","pSARL_v2","pSARL_v2wjrd2rq8","63d7a8a2591096e22405d64a","freq_resp","img/orange_2bandit_a.png","70","70","test","","","","5","",""
"null","198348","pSARL_v2","pSARL_v2wjrd2rq8","63d7a8a2591096e22405d64a","fixation","img/fixation.png","null","","test","","","","","",""
"104.29999999701977","198456","pSARL_v2","pSARL_v2wjrd2rq8","63d7a8a2591096e22405d64a","freq","img/orange_2bandit_a2.png","70","70","test","1","94","94","5","",""
"null","199155","pSARL_v2","pSARL_v2wjrd2rq8","63d7a8a2591096e22405d64a","freq_resp","img/orange_2bandit_a.png","70","70","test","","","","5","",""
"null","199310","pSARL_v2","pSARL_v2wjrd2rq8","63d7a8a2591096e22405d64a","fixation","img/fixation.png","null","","test","","","","","",""
"254.30000001192093","199566","pSARL_v2","pSARL_v2wjrd2rq8","63d7a8a2591096e22405d64a","freq","img/orange_2bandit_a2.png","70","70","test","1","95","95","5","",""
"null","200125","pSARL_v2","pSARL_v2wjrd2rq8","63d7a8a2591096e22405d64a","freq_resp","img/orange_2bandit_a.png","70","70","test","","","","5","",""
"null","200293","pSARL_v2","pSARL_v2wjrd2rq8","63d7a8a2591096e22405d64a","fixation","img/fixation.png","null","","test","","","","","",""
"104.3999999910593","200399","pSARL_v2","pSARL_v2wjrd2rq8","63d7a8a2591096e22405d64a","freq","img/orange_2bandit_a2.png","70","70","test","1","96","96","5","",""
"null","201112","pSARL_v2","pSARL_v2wjrd2rq8","63d7a8a2591096e22405d64a","freq_resp","img/orange_2bandit_a.png","70","70","test","","","","5","",""
"null","201266","pSARL_v2","pSARL_v2wjrd2rq8","63d7a8a2591096e22405d64a","fixation","img/fixation.png","null","","test","","","","","",""
"100.70000000298023","201368","pSARL_v2","pSARL_v2wjrd2rq8","63d7a8a2591096e22405d64a","freq","img/orange_2bandit_a2.png","70","70","test","1","97","97","5","",""
"null","202089","pSARL_v2","pSARL_v2wjrd2rq8","63d7a8a2591096e22405d64a","freq_resp","img/orange_2bandit_a.png","70","70","test","","","","5","",""
"null","202243","pSARL_v2","pSARL_v2wjrd2rq8","63d7a8a2591096e22405d64a","fixation","img/fixation.png","null","","test","","","","","",""
"192.59999999403954","202438","pSARL_v2","pSARL_v2wjrd2rq8","63d7a8a2591096e22405d64a","freq","img/orange_2bandit_a2.png","70","70","test","1","98","98","5","",""
"null","203054","pSARL_v2","pSARL_v2wjrd2rq8","63d7a8a2591096e22405d64a","freq_resp","img/orange_2bandit_a.png","70","70","test","","","","5","",""
"null","203210","pSARL_v2","pSARL_v2wjrd2rq8","63d7a8a2591096e22405d64a","fixation","img/fixation.png","null","","test","","","","","",""
"195.29999999701977","203407","pSARL_v2","pSARL_v2wjrd2rq8","63d7a8a2591096e22405d64a","freq","img/orange_2bandit_a2.png","70","70","test","1","99","99","5","",""
"null","204020","pSARL_v2","pSARL_v2wjrd2rq8","63d7a8a2591096e22405d64a","freq_resp","img/orange_2bandit_a.png","70","70","test","","","","5","",""
"null","204177","pSARL_v2","pSARL_v2wjrd2rq8","63d7a8a2591096e22405d64a","fixation","img/fixation.png","null","","test","","","","","",""
"503","204683","pSARL_v2","pSARL_v2wjrd2rq8","63d7a8a2591096e22405d64a","infreq","img/green_2bandit_a2.png","68","68","test","1","100","100","5","",""
"null","204987","pSARL_v2","pSARL_v2wjrd2rq8","63d7a8a2591096e22405d64a","infreq_resp","img/green_2bandit_a.png","68","68","test","","","","5","",""
"null","205157","pSARL_v2","pSARL_v2wjrd2rq8","63d7a8a2591096e22405d64a","fixation","img/fixation.png","null","","test","","","","","",""
"272.90000000596046","205432","pSARL_v2","pSARL_v2wjrd2rq8","63d7a8a2591096e22405d64a","infreq","img/green_2bandit_a2.png","70","68","test","0","101","101","5","",""
"null","205968","pSARL_v2","pSARL_v2wjrd2rq8","63d7a8a2591096e22405d64a","infreq_resp","img/green_2bandit_a.png","70","68","test","","","","5","",""
"null","206122","pSARL_v2","pSARL_v2wjrd2rq8","63d7a8a2591096e22405d64a","fixation","img/fixation.png","null","","test","","","","","",""
"505.70000000298023","206630","pSARL_v2","pSARL_v2wjrd2rq8","63d7a8a2591096e22405d64a","freq","img/orange_2bandit_a2.png","70","70","test","1","102","102","5","",""
"null","206932","pSARL_v2","pSARL_v2wjrd2rq8","63d7a8a2591096e22405d64a","freq_resp","img/orange_2bandit_a.png","70","70","test","","","","5","",""
"null","207087","pSARL_v2","pSARL_v2wjrd2rq8","63d7a8a2591096e22405d64a","fixation","img/fixation.png","null","","test","","","","","",""
"546.8999999910593","207637","pSARL_v2","pSARL_v2wjrd2rq8","63d7a8a2591096e22405d64a","infreq","img/green_2bandit_a2.png","68","68","test","1","103","103","5","",""
"null","207904","pSARL_v2","pSARL_v2wjrd2rq8","63d7a8a2591096e22405d64a","infreq_resp","img/green_2bandit_a.png","68","68","test","","","","5","",""
"null","208062","pSARL_v2","pSARL_v2wjrd2rq8","63d7a8a2591096e22405d64a","fixation","img/fixation.png","null","","test","","","","","",""
"394","208459","pSARL_v2","pSARL_v2wjrd2rq8","63d7a8a2591096e22405d64a","freq","img/orange_2bandit_a2.png","70","70","test","1","104","104","5","",""
"null","208882","pSARL_v2","pSARL_v2wjrd2rq8","63d7a8a2591096e22405d64a","freq_resp","img/orange_2bandit_a.png","70","70","test","","","","5","",""
"null","209039","pSARL_v2","pSARL_v2wjrd2rq8","63d7a8a2591096e22405d64a","fixation","img/fixation.png","null","","test","","","","","",""
"461.59999999403954","209503","pSARL_v2","pSARL_v2wjrd2rq8","63d7a8a2591096e22405d64a","freq","img/orange_2bandit_a2.png","70","70","test","1","105","105","5","",""
"null","209846","pSARL_v2","pSARL_v2wjrd2rq8","63d7a8a2591096e22405d64a","freq_resp","img/orange_2bandit_a.png","70","70","test","","","","5","",""
"null","210002","pSARL_v2","pSARL_v2wjrd2rq8","63d7a8a2591096e22405d64a","fixation","img/fixation.png","null","","test","","","","","",""
"402.3999999910593","210408","pSARL_v2","pSARL_v2wjrd2rq8","63d7a8a2591096e22405d64a","freq","img/orange_2bandit_a2.png","70","70","test","1","106","106","5","",""
"null","210812","pSARL_v2","pSARL_v2wjrd2rq8","63d7a8a2591096e22405d64a","freq_resp","img/orange_2bandit_a.png","70","70","test","","","","5","",""
"null","210969","pSARL_v2","pSARL_v2wjrd2rq8","63d7a8a2591096e22405d64a","fixation","img/fixation.png","null","","test","","","","","",""
"524.4000000059605","211496","pSARL_v2","pSARL_v2wjrd2rq8","63d7a8a2591096e22405d64a","reward","img/slot.png","74","","test","","","","","",""
"null","212254","pSARL_v2","pSARL_v2wjrd2rq8","63d7a8a2591096e22405d64a","points","<div class=""veryhighPoints""> +1 </div>","null","na","test","","","","5","1","4"
"null","213064","pSARL_v2","pSARL_v2wjrd2rq8","63d7a8a2591096e22405d64a","freq","img/orange_2bandit_a2.png","null","70","test","0","107","107","6","",""
"null","213220","pSARL_v2","pSARL_v2wjrd2rq8","63d7a8a2591096e22405d64a","fixation","img/fixation.png","null","","test","","","","","",""
"700.1999999880791","213924","pSARL_v2","pSARL_v2wjrd2rq8","63d7a8a2591096e22405d64a","freq","img/orange_2bandit_a2.png","70","70","test","1","108","108","6","",""
"null","214029","pSARL_v2","pSARL_v2wjrd2rq8","63d7a8a2591096e22405d64a","freq_resp","img/orange_2bandit_a.png","70","70","test","","","","6","",""
"null","214183","pSARL_v2","pSARL_v2wjrd2rq8","63d7a8a2591096e22405d64a","fixation","img/fixation.png","null","","test","","","","","",""
"375.59999999403954","214561","pSARL_v2","pSARL_v2wjrd2rq8","63d7a8a2591096e22405d64a","freq","img/orange_2bandit_a2.png","70","70","test","1","109","109","6","",""
"null","215000","pSARL_v2","pSARL_v2wjrd2rq8","63d7a8a2591096e22405d64a","freq_resp","img/orange_2bandit_a.png","70","70","test","","","","6","",""
"null","215157","pSARL_v2","pSARL_v2wjrd2rq8","63d7a8a2591096e22405d64a","fixation","img/fixation.png","null","","test","","","","","",""
"244.20000000298023","215403","pSARL_v2","pSARL_v2wjrd2rq8","63d7a8a2591096e22405d64a","freq","img/orange_2bandit_a2.png","70","70","test","1","110","110","6","",""
"null","215965","pSARL_v2","pSARL_v2wjrd2rq8","63d7a8a2591096e22405d64a","freq_resp","img/orange_2bandit_a.png","70","70","test","","","","6","",""
"null","216122","pSARL_v2","pSARL_v2wjrd2rq8","63d7a8a2591096e22405d64a","fixation","img/fixation.png","null","","test","","","","","",""
"90.5","216214","pSARL_v2","pSARL_v2wjrd2rq8","63d7a8a2591096e22405d64a","freq","img/orange_2bandit_a2.png","70","70","test","1","111","111","6","",""
"null","216927","pSARL_v2","pSARL_v2wjrd2rq8","63d7a8a2591096e22405d64a","freq_resp","img/orange_2bandit_a.png","70","70","test","","","","6","",""
"null","217084","pSARL_v2","pSARL_v2wjrd2rq8","63d7a8a2591096e22405d64a","fixation","img/fixation.png","null","","test","","","","","",""
"30.700000002980232","217117","pSARL_v2","pSARL_v2wjrd2rq8","63d7a8a2591096e22405d64a","freq","img/orange_2bandit_a2.png","70","70","test","1","112","112","6","",""
"null","217895","pSARL_v2","pSARL_v2wjrd2rq8","63d7a8a2591096e22405d64a","freq_resp","img/orange_2bandit_a.png","70","70","test","","","","6","",""
"null","218055","pSARL_v2","pSARL_v2wjrd2rq8","63d7a8a2591096e22405d64a","fixation","img/fixation.png","null","","test","","","","","",""
"644","218702","pSARL_v2","pSARL_v2wjrd2rq8","63d7a8a2591096e22405d64a","freq","img/orange_2bandit_a2.png","70","70","test","1","113","113","6","",""
"null","218862","pSARL_v2","pSARL_v2wjrd2rq8","63d7a8a2591096e22405d64a","freq_resp","img/orange_2bandit_a.png","70","70","test","","","","6","",""
"null","219020","pSARL_v2","pSARL_v2wjrd2rq8","63d7a8a2591096e22405d64a","fixation","img/fixation.png","null","","test","","","","","",""
"629.6000000089407","219654","pSARL_v2","pSARL_v2wjrd2rq8","63d7a8a2591096e22405d64a","freq","img/orange_2bandit_a2.png","70","70","test","1","114","114","6","",""
"null","219828","pSARL_v2","pSARL_v2wjrd2rq8","63d7a8a2591096e22405d64a","freq_resp","img/orange_2bandit_a.png","70","70","test","","","","6","",""
"null","219998","pSARL_v2","pSARL_v2wjrd2rq8","63d7a8a2591096e22405d64a","fixation","img/fixation.png","null","","test","","","","","",""
"481.5","220482","pSARL_v2","pSARL_v2wjrd2rq8","63d7a8a2591096e22405d64a","freq","img/orange_2bandit_a2.png","70","70","test","1","115","115","6","",""
"null","220804","pSARL_v2","pSARL_v2wjrd2rq8","63d7a8a2591096e22405d64a","freq_resp","img/orange_2bandit_a.png","70","70","test","","","","6","",""
"null","220961","pSARL_v2","pSARL_v2wjrd2rq8","63d7a8a2591096e22405d64a","fixation","img/fixation.png","null","","test","","","","","",""
"673.4000000059605","221637","pSARL_v2","pSARL_v2wjrd2rq8","63d7a8a2591096e22405d64a","infreq","img/green_2bandit_a2.png","68","68","test","1","116","116","6","",""
"null","221774","pSARL_v2","pSARL_v2wjrd2rq8","63d7a8a2591096e22405d64a","infreq_resp","img/green_2bandit_a.png","68","68","test","","","","6","",""
"null","221929","pSARL_v2","pSARL_v2wjrd2rq8","63d7a8a2591096e22405d64a","fixation","img/fixation.png","null","","test","","","","","",""
"327.5","222258","pSARL_v2","pSARL_v2wjrd2rq8","63d7a8a2591096e22405d64a","freq","img/orange_2bandit_a2.png","70","70","test","1","117","117","6","",""
"null","222734","pSARL_v2","pSARL_v2wjrd2rq8","63d7a8a2591096e22405d64a","freq_resp","img/orange_2bandit_a.png","70","70","test","","","","6","",""
"null","222892","pSARL_v2","pSARL_v2wjrd2rq8","63d7a8a2591096e22405d64a","fixation","img/fixation.png","null","","test","","","","","",""
"528","223422","pSARL_v2","pSARL_v2wjrd2rq8","63d7a8a2591096e22405d64a","infreq","img/green_2bandit_a2.png","68","68","test","1","118","118","6","",""
"null","223710","pSARL_v2","pSARL_v2wjrd2rq8","63d7a8a2591096e22405d64a","infreq_resp","img/green_2bandit_a.png","68","68","test","","","","6","",""
"null","223864","pSARL_v2","pSARL_v2wjrd2rq8","63d7a8a2591096e22405d64a","fixation","img/fixation.png","null","","test","","","","","",""
"348","224214","pSARL_v2","pSARL_v2wjrd2rq8","63d7a8a2591096e22405d64a","freq","img/orange_2bandit_a2.png","70","70","test","1","119","119","6","",""
"null","224672","pSARL_v2","pSARL_v2wjrd2rq8","63d7a8a2591096e22405d64a","freq_resp","img/orange_2bandit_a.png","70","70","test","","","","6","",""
"null","224826","pSARL_v2","pSARL_v2wjrd2rq8","63d7a8a2591096e22405d64a","fixation","img/fixation.png","null","","test","","","","","",""
"344.5","225174","pSARL_v2","pSARL_v2wjrd2rq8","63d7a8a2591096e22405d64a","freq","img/orange_2bandit_a2.png","70","70","test","1","120","120","6","",""
"null","225633","pSARL_v2","pSARL_v2wjrd2rq8","63d7a8a2591096e22405d64a","freq_resp","img/orange_2bandit_a.png","70","70","test","","","","6","",""
"null","225789","pSARL_v2","pSARL_v2wjrd2rq8","63d7a8a2591096e22405d64a","fixation","img/fixation.png","null","","test","","","","","",""
"122.40000000596046","225914","pSARL_v2","pSARL_v2wjrd2rq8","63d7a8a2591096e22405d64a","freq","img/orange_2bandit_a2.png","70","70","test","1","121","121","6","",""
"null","226602","pSARL_v2","pSARL_v2wjrd2rq8","63d7a8a2591096e22405d64a","freq_resp","img/orange_2bandit_a.png","70","70","test","","","","6","",""
"null","226758","pSARL_v2","pSARL_v2wjrd2rq8","63d7a8a2591096e22405d64a","fixation","img/fixation.png","null","","test","","","","","",""
"31.599999994039536","226791","pSARL_v2","pSARL_v2wjrd2rq8","63d7a8a2591096e22405d64a","freq","img/orange_2bandit_a2.png","70","70","test","1","122","122","6","",""
"null","227567","pSARL_v2","pSARL_v2wjrd2rq8","63d7a8a2591096e22405d64a","freq_resp","img/orange_2bandit_a.png","70","70","test","","","","6","",""
"null","227724","pSARL_v2","pSARL_v2wjrd2rq8","63d7a8a2591096e22405d64a","fixation","img/fixation.png","null","","test","","","","","",""
"769.8999999910593","228497","pSARL_v2","pSARL_v2wjrd2rq8","63d7a8a2591096e22405d64a","freq","img/orange_2bandit_a2.png","70","70","test","1","123","123","6","",""
"null","228531","pSARL_v2","pSARL_v2wjrd2rq8","63d7a8a2591096e22405d64a","freq_resp","img/orange_2bandit_a.png","70","70","test","","","","6","",""
"null","228688","pSARL_v2","pSARL_v2wjrd2rq8","63d7a8a2591096e22405d64a","fixation","img/fixation.png","null","","test","","","","","",""
"767.7999999970198","229459","pSARL_v2","pSARL_v2wjrd2rq8","63d7a8a2591096e22405d64a","freq","img/orange_2bandit_a2.png","70","70","test","1","124","124","6","",""
"null","229496","pSARL_v2","pSARL_v2wjrd2rq8","63d7a8a2591096e22405d64a","freq_resp","img/orange_2bandit_a.png","70","70","test","","","","6","",""
"null","229657","pSARL_v2","pSARL_v2wjrd2rq8","63d7a8a2591096e22405d64a","fixation","img/fixation.png","null","","test","","","","","",""
"682.9000000059605","230342","pSARL_v2","pSARL_v2wjrd2rq8","63d7a8a2591096e22405d64a","freq","img/orange_2bandit_a2.png","70","70","test","1","125","125","6","",""
"null","230477","pSARL_v2","pSARL_v2wjrd2rq8","63d7a8a2591096e22405d64a","freq_resp","img/orange_2bandit_a.png","70","70","test","","","","6","",""
"null","230631","pSARL_v2","pSARL_v2wjrd2rq8","63d7a8a2591096e22405d64a","fixation","img/fixation.png","null","","test","","","","","",""
"585.4000000059605","231219","pSARL_v2","pSARL_v2wjrd2rq8","63d7a8a2591096e22405d64a","freq","img/orange_2bandit_a2.png","70","70","test","1","126","126","6","",""
"null","231447","pSARL_v2","pSARL_v2wjrd2rq8","63d7a8a2591096e22405d64a","freq_resp","img/orange_2bandit_a.png","70","70","test","","","","6","",""
"null","231602","pSARL_v2","pSARL_v2wjrd2rq8","63d7a8a2591096e22405d64a","fixation","img/fixation.png","null","","test","","","","","",""
"668.5999999940395","232272","pSARL_v2","pSARL_v2wjrd2rq8","63d7a8a2591096e22405d64a","freq","img/orange_2bandit_a2.png","70","70","test","1","127","127","6","",""
"null","232408","pSARL_v2","pSARL_v2wjrd2rq8","63d7a8a2591096e22405d64a","freq_resp","img/orange_2bandit_a.png","70","70","test","","","","6","",""
"null","232568","pSARL_v2","pSARL_v2wjrd2rq8","63d7a8a2591096e22405d64a","fixation","img/fixation.png","null","","test","","","","","",""
"775.0999999940395","233345","pSARL_v2","pSARL_v2wjrd2rq8","63d7a8a2591096e22405d64a","freq","img/orange_2bandit_a2.png","70","70","test","1","128","128","6","",""
"null","233373","pSARL_v2","pSARL_v2wjrd2rq8","63d7a8a2591096e22405d64a","freq_resp","img/orange_2bandit_a.png","70","70","test","","","","6","",""
"null","233530","pSARL_v2","pSARL_v2wjrd2rq8","63d7a8a2591096e22405d64a","fixation","img/fixation.png","null","","test","","","","","",""
"761.0999999940395","234293","pSARL_v2","pSARL_v2wjrd2rq8","63d7a8a2591096e22405d64a","freq","img/orange_2bandit_a2.png","70","70","test","1","129","129","6","",""
"null","234339","pSARL_v2","pSARL_v2wjrd2rq8","63d7a8a2591096e22405d64a","freq_resp","img/orange_2bandit_a.png","70","70","test","","","","6","",""
"null","234497","pSARL_v2","pSARL_v2wjrd2rq8","63d7a8a2591096e22405d64a","fixation","img/fixation.png","null","","test","","","","","",""
"523.0999999940395","235022","pSARL_v2","pSARL_v2wjrd2rq8","63d7a8a2591096e22405d64a","reward","img/slot.png","74","","test","","","","","",""
"null","235785","pSARL_v2","pSARL_v2wjrd2rq8","63d7a8a2591096e22405d64a","points","<div class=""verylowPoints""> -7 </div>","null","na","test","","","","6","-7","5"
"625.4000000059605","236413","pSARL_v2","pSARL_v2wjrd2rq8","63d7a8a2591096e22405d64a","freq","img/orange_2bandit_a2.png","70","70","test","1","130","130","7","",""
"null","236599","pSARL_v2","pSARL_v2wjrd2rq8","63d7a8a2591096e22405d64a","freq_resp","img/orange_2bandit_a.png","70","70","test","","","","7","",""
"null","236756","pSARL_v2","pSARL_v2wjrd2rq8","63d7a8a2591096e22405d64a","fixation","img/fixation.png","null","","test","","","","","",""
"586.4000000059605","237345","pSARL_v2","pSARL_v2wjrd2rq8","63d7a8a2591096e22405d64a","freq","img/orange_2bandit_a2.png","70","70","test","1","131","131","7","",""
"null","237566","pSARL_v2","pSARL_v2wjrd2rq8","63d7a8a2591096e22405d64a","freq_resp","img/orange_2bandit_a.png","70","70","test","","","","7","",""
"null","237721","pSARL_v2","pSARL_v2wjrd2rq8","63d7a8a2591096e22405d64a","fixation","img/fixation.png","null","","test","","","","","",""
"712.9000000059605","238437","pSARL_v2","pSARL_v2wjrd2rq8","63d7a8a2591096e22405d64a","freq","img/orange_2bandit_a2.png","70","70","test","1","132","132","7","",""
"null","238533","pSARL_v2","pSARL_v2wjrd2rq8","63d7a8a2591096e22405d64a","freq_resp","img/orange_2bandit_a.png","70","70","test","","","","7","",""
"null","238698","pSARL_v2","pSARL_v2wjrd2rq8","63d7a8a2591096e22405d64a","fixation","img/fixation.png","null","","test","","","","","",""
"676.2999999970198","239376","pSARL_v2","pSARL_v2wjrd2rq8","63d7a8a2591096e22405d64a","freq","img/orange_2bandit_a2.png","70","70","test","1","133","133","7","",""
"null","239502","pSARL_v2","pSARL_v2wjrd2rq8","63d7a8a2591096e22405d64a","freq_resp","img/orange_2bandit_a.png","70","70","test","","","","7","",""
"null","239661","pSARL_v2","pSARL_v2wjrd2rq8","63d7a8a2591096e22405d64a","fixation","img/fixation.png","null","","test","","","","","",""
"457.5","240121","pSARL_v2","pSARL_v2wjrd2rq8","63d7a8a2591096e22405d64a","freq","img/orange_2bandit_a2.png","70","70","test","1","134","134","7","",""
"null","240479","pSARL_v2","pSARL_v2wjrd2rq8","63d7a8a2591096e22405d64a","freq_resp","img/orange_2bandit_a.png","70","70","test","","","","7","",""
"null","240636","pSARL_v2","pSARL_v2wjrd2rq8","63d7a8a2591096e22405d64a","fixation","img/fixation.png","null","","test","","","","","",""
"359.20000000298023","240997","pSARL_v2","pSARL_v2wjrd2rq8","63d7a8a2591096e22405d64a","freq","img/orange_2bandit_a2.png","70","70","test","1","135","135","7","",""
"null","241444","pSARL_v2","pSARL_v2wjrd2rq8","63d7a8a2591096e22405d64a","freq_resp","img/orange_2bandit_a.png","70","70","test","","","","7","",""
"null","241603","pSARL_v2","pSARL_v2wjrd2rq8","63d7a8a2591096e22405d64a","fixation","img/fixation.png","null","","test","","","","","",""
"259.69999998807907","241865","pSARL_v2","pSARL_v2wjrd2rq8","63d7a8a2591096e22405d64a","freq","img/orange_2bandit_a2.png","70","70","test","1","136","136","7","",""
"null","242421","pSARL_v2","pSARL_v2wjrd2rq8","63d7a8a2591096e22405d64a","freq_resp","img/orange_2bandit_a.png","70","70","test","","","","7","",""
"null","242578","pSARL_v2","pSARL_v2wjrd2rq8","63d7a8a2591096e22405d64a","fixation","img/fixation.png","null","","test","","","","","",""
"97.3999999910593","242677","pSARL_v2","pSARL_v2wjrd2rq8","63d7a8a2591096e22405d64a","freq","img/orange_2bandit_a2.png","70","70","test","1","137","137","7","",""
"null","243389","pSARL_v2","pSARL_v2wjrd2rq8","63d7a8a2591096e22405d64a","freq_resp","img/orange_2bandit_a.png","70","70","test","","","","7","",""
"null","243549","pSARL_v2","pSARL_v2wjrd2rq8","63d7a8a2591096e22405d64a","fixation","img/fixation.png","null","","test","","","","","",""
"35.599999994039536","243587","pSARL_v2","pSARL_v2wjrd2rq8","63d7a8a2591096e22405d64a","infreq","img/green_2bandit_a2.png","70","68","test","0","138","138","7","",""
"null","244362","pSARL_v2","pSARL_v2wjrd2rq8","63d7a8a2591096e22405d64a","infreq_resp","img/green_2bandit_a.png","70","68","test","","","","7","",""
"null","244520","pSARL_v2","pSARL_v2wjrd2rq8","63d7a8a2591096e22405d64a","fixation","img/fixation.png","null","","test","","","","","",""
"224.70000000298023","244747","pSARL_v2","pSARL_v2wjrd2rq8","63d7a8a2591096e22405d64a","freq","img/orange_2bandit_a2.png","70","70","test","1","139","139","7","",""
"null","245324","pSARL_v2","pSARL_v2wjrd2rq8","63d7a8a2591096e22405d64a","freq_resp","img/orange_2bandit_a.png","70","70","test","","","","7","",""
"null","245481","pSARL_v2","pSARL_v2wjrd2rq8","63d7a8a2591096e22405d64a","fixation","img/fixation.png","null","","test","","","","","",""
"330.40000000596046","245813","pSARL_v2","pSARL_v2wjrd2rq8","63d7a8a2591096e22405d64a","freq","img/orange_2bandit_a2.png","70","70","test","1","140","140","7","",""
"null","246298","pSARL_v2","pSARL_v2wjrd2rq8","63d7a8a2591096e22405d64a","freq_resp","img/orange_2bandit_a.png","70","70","test","","","","7","",""
"null","246454","pSARL_v2","pSARL_v2wjrd2rq8","63d7a8a2591096e22405d64a","fixation","img/fixation.png","null","","test","","","","","",""
"156.09999999403954","246613","pSARL_v2","pSARL_v2wjrd2rq8","63d7a8a2591096e22405d64a","freq","img/orange_2bandit_a2.png","70","70","test","1","141","141","7","",""
"null","247271","pSARL_v2","pSARL_v2wjrd2rq8","63d7a8a2591096e22405d64a","freq_resp","img/orange_2bandit_a.png","70","70","test","","","","7","",""
"null","247428","pSARL_v2","pSARL_v2wjrd2rq8","63d7a8a2591096e22405d64a","fixation","img/fixation.png","null","","test","","","","","",""
"121.80000001192093","247552","pSARL_v2","pSARL_v2wjrd2rq8","63d7a8a2591096e22405d64a","freq","img/orange_2bandit_a2.png","70","70","test","1","142","142","7","",""
"null","248246","pSARL_v2","pSARL_v2wjrd2rq8","63d7a8a2591096e22405d64a","freq_resp","img/orange_2bandit_a.png","70","70","test","","","","7","",""
"null","248402","pSARL_v2","pSARL_v2wjrd2rq8","63d7a8a2591096e22405d64a","fixation","img/fixation.png","null","","test","","","","","",""
"null","249205","pSARL_v2","pSARL_v2wjrd2rq8","63d7a8a2591096e22405d64a","freq","img/orange_2bandit_a2.png","null","70","test","0","143","143","7","",""
"null","249363","pSARL_v2","pSARL_v2wjrd2rq8","63d7a8a2591096e22405d64a","fixation","img/fixation.png","null","","test","","","","","",""
"null","250170","pSARL_v2","pSARL_v2wjrd2rq8","63d7a8a2591096e22405d64a","freq","img/orange_2bandit_a2.png","null","70","test","0","144","144","7","",""
"null","250327","pSARL_v2","pSARL_v2wjrd2rq8","63d7a8a2591096e22405d64a","fixation","img/fixation.png","null","","test","","","","","",""
"777.6999999880791","251107","pSARL_v2","pSARL_v2wjrd2rq8","63d7a8a2591096e22405d64a","freq","img/orange_2bandit_a2.png","70","70","test","1","145","145","7","",""
"null","251132","pSARL_v2","pSARL_v2wjrd2rq8","63d7a8a2591096e22405d64a","freq_resp","img/orange_2bandit_a.png","70","70","test","","","","7","",""
"null","251294","pSARL_v2","pSARL_v2wjrd2rq8","63d7a8a2591096e22405d64a","fixation","img/fixation.png","null","","test","","","","","",""
"730","252026","pSARL_v2","pSARL_v2wjrd2rq8","63d7a8a2591096e22405d64a","freq","img/orange_2bandit_a2.png","70","70","test","1","146","146","7","",""
"null","252108","pSARL_v2","pSARL_v2wjrd2rq8","63d7a8a2591096e22405d64a","freq_resp","img/orange_2bandit_a.png","70","70","test","","","","7","",""
"null","252264","pSARL_v2","pSARL_v2wjrd2rq8","63d7a8a2591096e22405d64a","fixation","img/fixation.png","null","","test","","","","","",""
"714.5999999940395","252981","pSARL_v2","pSARL_v2wjrd2rq8","63d7a8a2591096e22405d64a","freq","img/orange_2bandit_a2.png","70","70","test","1","147","147","7","",""
"null","253072","pSARL_v2","pSARL_v2wjrd2rq8","63d7a8a2591096e22405d64a","freq_resp","img/orange_2bandit_a.png","70","70","test","","","","7","",""
"null","253231","pSARL_v2","pSARL_v2wjrd2rq8","63d7a8a2591096e22405d64a","fixation","img/fixation.png","null","","test","","","","","",""
"616.7999999970198","253851","pSARL_v2","pSARL_v2wjrd2rq8","63d7a8a2591096e22405d64a","freq","img/orange_2bandit_a2.png","70","70","test","1","148","148","7","",""
"null","254038","pSARL_v2","pSARL_v2wjrd2rq8","63d7a8a2591096e22405d64a","freq_resp","img/orange_2bandit_a.png","70","70","test","","","","7","",""
"null","254194","pSARL_v2","pSARL_v2wjrd2rq8","63d7a8a2591096e22405d64a","fixation","img/fixation.png","null","","test","","","","","",""
"527.0999999940395","254723","pSARL_v2","pSARL_v2wjrd2rq8","63d7a8a2591096e22405d64a","freq","img/orange_2bandit_a2.png","70","70","test","1","149","149","7","",""
"null","254999","pSARL_v2","pSARL_v2wjrd2rq8","63d7a8a2591096e22405d64a","freq_resp","img/orange_2bandit_a.png","70","70","test","","","","7","",""
"null","255157","pSARL_v2","pSARL_v2wjrd2rq8","63d7a8a2591096e22405d64a","fixation","img/fixation.png","null","","test","","","","","",""
"533.5","255692","pSARL_v2","pSARL_v2wjrd2rq8","63d7a8a2591096e22405d64a","freq","img/orange_2bandit_a2.png","70","70","test","1","150","150","7","",""
"null","255964","pSARL_v2","pSARL_v2wjrd2rq8","63d7a8a2591096e22405d64a","freq_resp","img/orange_2bandit_a.png","70","70","test","","","","7","",""
"null","256120","pSARL_v2","pSARL_v2wjrd2rq8","63d7a8a2591096e22405d64a","fixation","img/fixation.png","null","","test","","","","","",""
"438.30000001192093","256561","pSARL_v2","pSARL_v2wjrd2rq8","63d7a8a2591096e22405d64a","freq","img/orange_2bandit_a2.png","70","70","test","1","151","151","7","",""
"null","256929","pSARL_v2","pSARL_v2wjrd2rq8","63d7a8a2591096e22405d64a","freq_resp","img/orange_2bandit_a.png","70","70","test","","","","7","",""
"null","257088","pSARL_v2","pSARL_v2wjrd2rq8","63d7a8a2591096e22405d64a","fixation","img/fixation.png","null","","test","","","","","",""
"522.5","257613","pSARL_v2","pSARL_v2wjrd2rq8","63d7a8a2591096e22405d64a","infreq","img/green_2bandit_a2.png","68","68","test","1","152","152","7","",""
"null","257899","pSARL_v2","pSARL_v2wjrd2rq8","63d7a8a2591096e22405d64a","infreq_resp","img/green_2bandit_a.png","68","68","test","","","","7","",""
"null","258058","pSARL_v2","pSARL_v2wjrd2rq8","63d7a8a2591096e22405d64a","fixation","img/fixation.png","null","","test","","","","","",""
"139.59999999403954","258199","pSARL_v2","pSARL_v2wjrd2rq8","63d7a8a2591096e22405d64a","freq","img/orange_2bandit_a2.png","70","70","test","1","153","153","7","",""
"null","258871","pSARL_v2","pSARL_v2wjrd2rq8","63d7a8a2591096e22405d64a","freq_resp","img/orange_2bandit_a.png","70","70","test","","","","7","",""
"null","259024","pSARL_v2","pSARL_v2wjrd2rq8","63d7a8a2591096e22405d64a","fixation","img/fixation.png","null","","test","","","","","",""
"410.29999999701977","259437","pSARL_v2","pSARL_v2wjrd2rq8","63d7a8a2591096e22405d64a","freq","img/orange_2bandit_a2.png","70","70","test","1","154","154","7","",""
"null","259832","pSARL_v2","pSARL_v2wjrd2rq8","63d7a8a2591096e22405d64a","freq_resp","img/orange_2bandit_a.png","70","70","test","","","","7","",""
"null","259991","pSARL_v2","pSARL_v2wjrd2rq8","63d7a8a2591096e22405d64a","fixation","img/fixation.png","null","","test","","","","","",""
"327.8999999910593","260322","pSARL_v2","pSARL_v2wjrd2rq8","63d7a8a2591096e22405d64a","freq","img/orange_2bandit_a2.png","70","70","test","1","155","155","7","",""
"null","260800","pSARL_v2","pSARL_v2wjrd2rq8","63d7a8a2591096e22405d64a","freq_resp","img/orange_2bandit_a.png","70","70","test","","","","7","",""
"null","260957","pSARL_v2","pSARL_v2wjrd2rq8","63d7a8a2591096e22405d64a","fixation","img/fixation.png","null","","test","","","","","",""
"527.5999999940395","261488","pSARL_v2","pSARL_v2wjrd2rq8","63d7a8a2591096e22405d64a","reward","img/slot.png","74","","test","","","","","",""
"null","262246","pSARL_v2","pSARL_v2wjrd2rq8","63d7a8a2591096e22405d64a","points","<div class=""verylowPoints""> -6 </div>","null","na","test","","","","7","-6","6"
"721.7999999970198","262971","pSARL_v2","pSARL_v2wjrd2rq8","63d7a8a2591096e22405d64a","freq","img/orange_2bandit_a2.png","70","70","test","1","156","156","8","",""
"null","263056","pSARL_v2","pSARL_v2wjrd2rq8","63d7a8a2591096e22405d64a","freq_resp","img/orange_2bandit_a.png","70","70","test","","","","8","",""
"null","263210","pSARL_v2","pSARL_v2wjrd2rq8","63d7a8a2591096e22405d64a","fixation","img/fixation.png","null","","test","","","","","",""
"656.5","263869","pSARL_v2","pSARL_v2wjrd2rq8","63d7a8a2591096e22405d64a","freq","img/orange_2bandit_a2.png","70","70","test","1","157","157","8","",""
"null","264026","pSARL_v2","pSARL_v2wjrd2rq8","63d7a8a2591096e22405d64a","freq_resp","img/orange_2bandit_a.png","70","70","test","","","","8","",""
"null","264181","pSARL_v2","pSARL_v2wjrd2rq8","63d7a8a2591096e22405d64a","fixation","img/fixation.png","null","","test","","","","","",""
"707.7000000029802","264890","pSARL_v2","pSARL_v2wjrd2rq8","63d7a8a2591096e22405d64a","freq","img/orange_2bandit_a2.png","70","70","test","1","158","158","8","",""
"null","264998","pSARL_v2","pSARL_v2wjrd2rq8","63d7a8a2591096e22405d64a","freq_resp","img/orange_2bandit_a.png","70","70","test","","","","8","",""
"null","265156","pSARL_v2","pSARL_v2wjrd2rq8","63d7a8a2591096e22405d64a","fixation","img/fixation.png","null","","test","","","","","",""
"623.0999999940395","265781","pSARL_v2","pSARL_v2wjrd2rq8","63d7a8a2591096e22405d64a","freq","img/orange_2bandit_a2.png","70","70","test","1","159","159","8","",""
"null","265962","pSARL_v2","pSARL_v2wjrd2rq8","63d7a8a2591096e22405d64a","freq_resp","img/orange_2bandit_a.png","70","70","test","","","","8","",""
"null","266118","pSARL_v2","pSARL_v2wjrd2rq8","63d7a8a2591096e22405d64a","fixation","img/fixation.png","null","","test","","","","","",""
"561.4000000059605","266683","pSARL_v2","pSARL_v2wjrd2rq8","63d7a8a2591096e22405d64a","freq","img/orange_2bandit_a2.png","70","70","test","1","160","160","8","",""
"null","266930","pSARL_v2","pSARL_v2wjrd2rq8","63d7a8a2591096e22405d64a","freq_resp","img/orange_2bandit_a.png","70","70","test","","","","8","",""
"null","267086","pSARL_v2","pSARL_v2wjrd2rq8","63d7a8a2591096e22405d64a","fixation","img/fixation.png","null","","test","","","","","",""
"544.6000000089407","267634","pSARL_v2","pSARL_v2wjrd2rq8","63d7a8a2591096e22405d64a","freq","img/orange_2bandit_a2.png","70","70","test","1","161","161","8","",""
"null","267893","pSARL_v2","pSARL_v2wjrd2rq8","63d7a8a2591096e22405d64a","freq_resp","img/orange_2bandit_a.png","70","70","test","","","","8","",""
"null","268061","pSARL_v2","pSARL_v2wjrd2rq8","63d7a8a2591096e22405d64a","fixation","img/fixation.png","null","","test","","","","","",""
"491.79999999701977","268556","pSARL_v2","pSARL_v2wjrd2rq8","63d7a8a2591096e22405d64a","freq","img/orange_2bandit_a2.png","70","70","test","1","162","162","8","",""
"null","268868","pSARL_v2","pSARL_v2wjrd2rq8","63d7a8a2591096e22405d64a","freq_resp","img/orange_2bandit_a.png","70","70","test","","","","8","",""
"null","269024","pSARL_v2","pSARL_v2wjrd2rq8","63d7a8a2591096e22405d64a","fixation","img/fixation.png","null","","test","","","","","",""
"477","269503","pSARL_v2","pSARL_v2wjrd2rq8","63d7a8a2591096e22405d64a","freq","img/orange_2bandit_a2.png","70","70","test","1","163","163","8","",""
"null","269846","pSARL_v2","pSARL_v2wjrd2rq8","63d7a8a2591096e22405d64a","freq_resp","img/orange_2bandit_a.png","70","70","test","","","","8","",""
"null","270004","pSARL_v2","pSARL_v2wjrd2rq8","63d7a8a2591096e22405d64a","fixation","img/fixation.png","null","","test","","","","","",""
"465.20000000298023","270472","pSARL_v2","pSARL_v2wjrd2rq8","63d7a8a2591096e22405d64a","freq","img/orange_2bandit_a2.png","70","70","test","1","164","164","8","",""
"null","270812","pSARL_v2","pSARL_v2wjrd2rq8","63d7a8a2591096e22405d64a","freq_resp","img/orange_2bandit_a.png","70","70","test","","","","8","",""
"null","270969","pSARL_v2","pSARL_v2wjrd2rq8","63d7a8a2591096e22405d64a","fixation","img/fixation.png","null","","test","","","","","",""
"506.40000000596046","271478","pSARL_v2","pSARL_v2wjrd2rq8","63d7a8a2591096e22405d64a","infreq","img/green_2bandit_a2.png","68","68","test","1","165","165","8","",""
"null","271774","pSARL_v2","pSARL_v2wjrd2rq8","63d7a8a2591096e22405d64a","infreq_resp","img/green_2bandit_a.png","68","68","test","","","","8","",""
"null","271932","pSARL_v2","pSARL_v2wjrd2rq8","63d7a8a2591096e22405d64a","fixation","img/fixation.png","null","","test","","","","","",""
"310.29999999701977","272245","pSARL_v2","pSARL_v2wjrd2rq8","63d7a8a2591096e22405d64a","freq","img/orange_2bandit_a2.png","70","70","test","1","166","166","8","",""
"null","272741","pSARL_v2","pSARL_v2wjrd2rq8","63d7a8a2591096e22405d64a","freq_resp","img/orange_2bandit_a.png","70","70","test","","","","8","",""
"null","272897","pSARL_v2","pSARL_v2wjrd2rq8","63d7a8a2591096e22405d64a","fixation","img/fixation.png","null","","test","","","","","",""
"515.4000000059605","273416","pSARL_v2","pSARL_v2wjrd2rq8","63d7a8a2591096e22405d64a","infreq","img/green_2bandit_a2.png","68","68","test","1","167","167","8","",""
"null","273709","pSARL_v2","pSARL_v2wjrd2rq8","63d7a8a2591096e22405d64a","infreq_resp","img/green_2bandit_a.png","68","68","test","","","","8","",""
"null","273866","pSARL_v2","pSARL_v2wjrd2rq8","63d7a8a2591096e22405d64a","fixation","img/fixation.png","null","","test","","","","","",""
"307.09999999403954","274175","pSARL_v2","pSARL_v2wjrd2rq8","63d7a8a2591096e22405d64a","freq","img/orange_2bandit_a2.png","70","70","test","1","168","168","8","",""
"null","274672","pSARL_v2","pSARL_v2wjrd2rq8","63d7a8a2591096e22405d64a","freq_resp","img/orange_2bandit_a.png","70","70","test","","","","8","",""
"null","274827","pSARL_v2","pSARL_v2wjrd2rq8","63d7a8a2591096e22405d64a","fixation","img/fixation.png","null","","test","","","","","",""
"274.70000000298023","275106","pSARL_v2","pSARL_v2wjrd2rq8","63d7a8a2591096e22405d64a","freq","img/orange_2bandit_a2.png","70","70","test","1","169","169","8","",""
"null","275635","pSARL_v2","pSARL_v2wjrd2rq8","63d7a8a2591096e22405d64a","freq_resp","img/orange_2bandit_a.png","70","70","test","","","","8","",""
"null","275792","pSARL_v2","pSARL_v2wjrd2rq8","63d7a8a2591096e22405d64a","fixation","img/fixation.png","null","","test","","","","","",""
"134.29999999701977","275929","pSARL_v2","pSARL_v2wjrd2rq8","63d7a8a2591096e22405d64a","freq","img/orange_2bandit_a2.png","70","70","test","1","170","170","8","",""
"null","276604","pSARL_v2","pSARL_v2wjrd2rq8","63d7a8a2591096e22405d64a","freq_resp","img/orange_2bandit_a.png","70","70","test","","","","8","",""
"null","276761","pSARL_v2","pSARL_v2wjrd2rq8","63d7a8a2591096e22405d64a","fixation","img/fixation.png","null","","test","","","","","",""
"60.20000000298023","276825","pSARL_v2","pSARL_v2wjrd2rq8","63d7a8a2591096e22405d64a","freq","img/orange_2bandit_a2.png","70","70","test","1","171","171","8","",""
"null","277580","pSARL_v2","pSARL_v2wjrd2rq8","63d7a8a2591096e22405d64a","freq_resp","img/orange_2bandit_a.png","70","70","test","","","","8","",""
"null","277732","pSARL_v2","pSARL_v2wjrd2rq8","63d7a8a2591096e22405d64a","fixation","img/fixation.png","null","","test","","","","","",""
"null","278541","pSARL_v2","pSARL_v2wjrd2rq8","63d7a8a2591096e22405d64a","freq","img/orange_2bandit_a2.png","null","70","test","0","172","172","8","",""
"null","278697","pSARL_v2","pSARL_v2wjrd2rq8","63d7a8a2591096e22405d64a","fixation","img/fixation.png","null","","test","","","","","",""
"null","279511","pSARL_v2","pSARL_v2wjrd2rq8","63d7a8a2591096e22405d64a","freq","img/orange_2bandit_a2.png","null","70","test","0","173","173","8","",""
"null","279671","pSARL_v2","pSARL_v2wjrd2rq8","63d7a8a2591096e22405d64a","fixation","img/fixation.png","null","","test","","","","","",""
"793.5999999940395","280467","pSARL_v2","pSARL_v2wjrd2rq8","63d7a8a2591096e22405d64a","freq","img/orange_2bandit_a2.png","70","70","test","1","174","174","8","",""
"null","280477","pSARL_v2","pSARL_v2wjrd2rq8","63d7a8a2591096e22405d64a","freq_resp","img/orange_2bandit_a.png","70","70","test","","","","8","",""
"null","280640","pSARL_v2","pSARL_v2wjrd2rq8","63d7a8a2591096e22405d64a","fixation","img/fixation.png","null","","test","","","","","",""
"741.6000000089407","281385","pSARL_v2","pSARL_v2wjrd2rq8","63d7a8a2591096e22405d64a","freq","img/orange_2bandit_a2.png","70","70","test","1","175","175","8","",""
"null","281455","pSARL_v2","pSARL_v2wjrd2rq8","63d7a8a2591096e22405d64a","freq_resp","img/orange_2bandit_a.png","70","70","test","","","","8","",""
"null","281612","pSARL_v2","pSARL_v2wjrd2rq8","63d7a8a2591096e22405d64a","fixation","img/fixation.png","null","","test","","","","","",""
"602.9000000059605","282219","pSARL_v2","pSARL_v2wjrd2rq8","63d7a8a2591096e22405d64a","reward","img/slot.png","74","","test","","","","","",""
"null","282975","pSARL_v2","pSARL_v2wjrd2rq8","63d7a8a2591096e22405d64a","points","<div class=""verylowPoints""> -4 </div>","null","na","test","","","","8","-4","7"
"438.20000000298023","283417","pSARL_v2","pSARL_v2wjrd2rq8","63d7a8a2591096e22405d64a","freq","img/orange_2bandit_a2.png","70","70","test","1","176","176","9","",""
"null","283787","pSARL_v2","pSARL_v2wjrd2rq8","63d7a8a2591096e22405d64a","freq_resp","img/orange_2bandit_a.png","70","70","test","","","","9","",""
"null","283942","pSARL_v2","pSARL_v2wjrd2rq8","63d7a8a2591096e22405d64a","fixation","img/fixation.png","null","","test","","","","","",""
"339.29999999701977","284285","pSARL_v2","pSARL_v2wjrd2rq8","63d7a8a2591096e22405d64a","freq","img/orange_2bandit_a2.png","70","70","test","1","177","177","9","",""
"null","284759","pSARL_v2","pSARL_v2wjrd2rq8","63d7a8a2591096e22405d64a","freq_resp","img/orange_2bandit_a.png","70","70","test","","","","9","",""
"null","284915","pSARL_v2","pSARL_v2wjrd2rq8","63d7a8a2591096e22405d64a","fixation","img/fixation.png","null","","test","","","","","",""
"311.29999999701977","285228","pSARL_v2","pSARL_v2wjrd2rq8","63d7a8a2591096e22405d64a","freq","img/orange_2bandit_a2.png","70","70","test","1","178","178","9","",""
"null","285728","pSARL_v2","pSARL_v2wjrd2rq8","63d7a8a2591096e22405d64a","freq_resp","img/orange_2bandit_a.png","70","70","test","","","","9","",""
"null","285885","pSARL_v2","pSARL_v2wjrd2rq8","63d7a8a2591096e22405d64a","fixation","img/fixation.png","null","","test","","","","","",""
"546.7999999970198","286434","pSARL_v2","pSARL_v2wjrd2rq8","63d7a8a2591096e22405d64a","infreq","img/green_2bandit_a2.png","68","68","test","1","179","179","9","",""
"null","286701","pSARL_v2","pSARL_v2wjrd2rq8","63d7a8a2591096e22405d64a","infreq_resp","img/green_2bandit_a.png","68","68","test","","","","9","",""
"null","286857","pSARL_v2","pSARL_v2wjrd2rq8","63d7a8a2591096e22405d64a","fixation","img/fixation.png","null","","test","","","","","",""
"245.5","287105","pSARL_v2","pSARL_v2wjrd2rq8","63d7a8a2591096e22405d64a","freq","img/orange_2bandit_a2.png","70","70","test","1","180","180","9","",""
"null","287664","pSARL_v2","pSARL_v2wjrd2rq8","63d7a8a2591096e22405d64a","freq_resp","img/orange_2bandit_a.png","70","70","test","","","","9","",""
"null","287820","pSARL_v2","pSARL_v2wjrd2rq8","63d7a8a2591096e22405d64a","fixation","img/fixation.png","null","","test","","","","","",""
"394.80000001192093","288218","pSARL_v2","pSARL_v2wjrd2rq8","63d7a8a2591096e22405d64a","freq","img/orange_2bandit_a2.png","70","70","test","1","181","181","9","",""
"null","288631","pSARL_v2","pSARL_v2wjrd2rq8","63d7a8a2591096e22405d64a","freq_resp","img/orange_2bandit_a.png","70","70","test","","","","9","",""
"null","288790","pSARL_v2","pSARL_v2wjrd2rq8","63d7a8a2591096e22405d64a","fixation","img/fixation.png","null","","test","","","","","",""
"336.8999999910593","289129","pSARL_v2","pSARL_v2wjrd2rq8","63d7a8a2591096e22405d64a","freq","img/orange_2bandit_a2.png","70","70","test","1","182","182","9","",""
"null","289598","pSARL_v2","pSARL_v2wjrd2rq8","63d7a8a2591096e22405d64a","freq_resp","img/orange_2bandit_a.png","70","70","test","","","","9","",""
"null","289756","pSARL_v2","pSARL_v2wjrd2rq8","63d7a8a2591096e22405d64a","fixation","img/fixation.png","null","","test","","","","","",""
"243.20000000298023","290002","pSARL_v2","pSARL_v2wjrd2rq8","63d7a8a2591096e22405d64a","freq","img/orange_2bandit_a2.png","70","70","test","1","183","183","9","",""
"null","290565","pSARL_v2","pSARL_v2wjrd2rq8","63d7a8a2591096e22405d64a","freq_resp","img/orange_2bandit_a.png","70","70","test","","","","9","",""
"null","290721","pSARL_v2","pSARL_v2wjrd2rq8","63d7a8a2591096e22405d64a","fixation","img/fixation.png","null","","test","","","","","",""
"220.79999999701977","290944","pSARL_v2","pSARL_v2wjrd2rq8","63d7a8a2591096e22405d64a","freq","img/orange_2bandit_a2.png","70","70","test","1","184","184","9","",""
"null","291540","pSARL_v2","pSARL_v2wjrd2rq8","63d7a8a2591096e22405d64a","freq_resp","img/orange_2bandit_a.png","70","70","test","","","","9","",""
"null","291697","pSARL_v2","pSARL_v2wjrd2rq8","63d7a8a2591096e22405d64a","fixation","img/fixation.png","null","","test","","","","","",""
"82.5","291782","pSARL_v2","pSARL_v2wjrd2rq8","63d7a8a2591096e22405d64a","freq","img/orange_2bandit_a2.png","70","70","test","1","185","185","9","",""
"null","292503","pSARL_v2","pSARL_v2wjrd2rq8","63d7a8a2591096e22405d64a","freq_resp","img/orange_2bandit_a.png","70","70","test","","","","9","",""
"null","292662","pSARL_v2","pSARL_v2wjrd2rq8","63d7a8a2591096e22405d64a","fixation","img/fixation.png","null","","test","","","","","",""
"68.09999999403954","292732","pSARL_v2","pSARL_v2wjrd2rq8","63d7a8a2591096e22405d64a","freq","img/orange_2bandit_a2.png","70","70","test","1","186","186","9","",""
"null","293481","pSARL_v2","pSARL_v2wjrd2rq8","63d7a8a2591096e22405d64a","freq_resp","img/orange_2bandit_a.png","70","70","test","","","","9","",""
"null","293637","pSARL_v2","pSARL_v2wjrd2rq8","63d7a8a2591096e22405d64a","fixation","img/fixation.png","null","","test","","","","","",""
"null","294442","pSARL_v2","pSARL_v2wjrd2rq8","63d7a8a2591096e22405d64a","freq","img/orange_2bandit_a2.png","null","70","test","0","187","187","9","",""
"null","294600","pSARL_v2","pSARL_v2wjrd2rq8","63d7a8a2591096e22405d64a","fixation","img/fixation.png","null","","test","","","","","",""
"null","295405","pSARL_v2","pSARL_v2wjrd2rq8","63d7a8a2591096e22405d64a","freq","img/orange_2bandit_a2.png","null","70","test","0","188","188","9","",""
"null","295559","pSARL_v2","pSARL_v2wjrd2rq8","63d7a8a2591096e22405d64a","fixation","img/fixation.png","null","","test","","","","","",""
"null","296371","pSARL_v2","pSARL_v2wjrd2rq8","63d7a8a2591096e22405d64a","freq","img/orange_2bandit_a2.png","null","70","test","0","189","189","9","",""
"null","296527","pSARL_v2","pSARL_v2wjrd2rq8","63d7a8a2591096e22405d64a","fixation","img/fixation.png","null","","test","","","","","",""
"524.5","297054","pSARL_v2","pSARL_v2wjrd2rq8","63d7a8a2591096e22405d64a","infreq","img/green_2bandit_a2.png","68","68","test","1","190","190","9","",""
"null","297347","pSARL_v2","pSARL_v2wjrd2rq8","63d7a8a2591096e22405d64a","infreq_resp","img/green_2bandit_a.png","68","68","test","","","","9","",""
"null","297503","pSARL_v2","pSARL_v2wjrd2rq8","63d7a8a2591096e22405d64a","fixation","img/fixation.png","null","","test","","","","","",""
"197.29999999701977","297703","pSARL_v2","pSARL_v2wjrd2rq8","63d7a8a2591096e22405d64a","freq","img/orange_2bandit_a2.png","70","70","test","1","191","191","9","",""
"null","298314","pSARL_v2","pSARL_v2wjrd2rq8","63d7a8a2591096e22405d64a","freq_resp","img/orange_2bandit_a.png","70","70","test","","","","9","",""
"null","298474","pSARL_v2","pSARL_v2wjrd2rq8","63d7a8a2591096e22405d64a","fixation","img/fixation.png","null","","test","","","","","",""
"348","298824","pSARL_v2","pSARL_v2wjrd2rq8","63d7a8a2591096e22405d64a","freq","img/orange_2bandit_a2.png","70","70","test","1","192","192","9","",""
"null","299281","pSARL_v2","pSARL_v2wjrd2rq8","63d7a8a2591096e22405d64a","freq_resp","img/orange_2bandit_a.png","70","70","test","","","","9","",""
"null","299449","pSARL_v2","pSARL_v2wjrd2rq8","63d7a8a2591096e22405d64a","fixation","img/fixation.png","null","","test","","","","","",""
"489.70000000298023","299940","pSARL_v2","pSARL_v2wjrd2rq8","63d7a8a2591096e22405d64a","infreq","img/green_2bandit_a2.png","68","68","test","1","193","193","9","",""
"null","300259","pSARL_v2","pSARL_v2wjrd2rq8","63d7a8a2591096e22405d64a","infreq_resp","img/green_2bandit_a.png","68","68","test","","","","9","",""
"null","300432","pSARL_v2","pSARL_v2wjrd2rq8","63d7a8a2591096e22405d64a","fixation","img/fixation.png","null","","test","","","","","",""
"301.6000000089407","300737","pSARL_v2","pSARL_v2wjrd2rq8","63d7a8a2591096e22405d64a","freq","img/orange_2bandit_a2.png","70","70","test","1","194","194","9","",""
"null","301248","pSARL_v2","pSARL_v2wjrd2rq8","63d7a8a2591096e22405d64a","freq_resp","img/orange_2bandit_a.png","70","70","test","","","","9","",""
"null","301401","pSARL_v2","pSARL_v2wjrd2rq8","63d7a8a2591096e22405d64a","fixation","img/fixation.png","null","","test","","","","","",""
"347.29999999701977","301751","pSARL_v2","pSARL_v2wjrd2rq8","63d7a8a2591096e22405d64a","freq","img/orange_2bandit_a2.png","70","70","test","1","195","195","9","",""
"null","302218","pSARL_v2","pSARL_v2wjrd2rq8","63d7a8a2591096e22405d64a","freq_resp","img/orange_2bandit_a.png","70","70","test","","","","9","",""
"null","302373","pSARL_v2","pSARL_v2wjrd2rq8","63d7a8a2591096e22405d64a","fixation","img/fixation.png","null","","test","","","","","",""
"172.70000000298023","302549","pSARL_v2","pSARL_v2wjrd2rq8","63d7a8a2591096e22405d64a","freq","img/orange_2bandit_a2.png","70","70","test","1","196","196","9","",""
"null","303186","pSARL_v2","pSARL_v2wjrd2rq8","63d7a8a2591096e22405d64a","freq_resp","img/orange_2bandit_a.png","70","70","test","","","","9","",""
"null","303342","pSARL_v2","pSARL_v2wjrd2rq8","63d7a8a2591096e22405d64a","fixation","img/fixation.png","null","","test","","","","","",""
"108","303452","pSARL_v2","pSARL_v2wjrd2rq8","63d7a8a2591096e22405d64a","freq","img/orange_2bandit_a2.png","70","70","test","1","197","197","9","",""
"null","304157","pSARL_v2","pSARL_v2wjrd2rq8","63d7a8a2591096e22405d64a","freq_resp","img/orange_2bandit_a.png","70","70","test","","","","9","",""
"null","304313","pSARL_v2","pSARL_v2wjrd2rq8","63d7a8a2591096e22405d64a","fixation","img/fixation.png","null","","test","","","","","",""
"482.40000000596046","304799","pSARL_v2","pSARL_v2wjrd2rq8","63d7a8a2591096e22405d64a","reward","img/slot.png","74","","test","","","","","",""
"null","305556","pSARL_v2","pSARL_v2wjrd2rq8","63d7a8a2591096e22405d64a","points","<div class=""verylowPoints""> -3 </div>","null","na","test","","","","9","-3","8"
"511.79999999701977","306070","pSARL_v2","pSARL_v2wjrd2rq8","63d7a8a2591096e22405d64a","freq","img/orange_2bandit_a2.png","70","70","test","1","198","198","10","",""
"null","306373","pSARL_v2","pSARL_v2wjrd2rq8","63d7a8a2591096e22405d64a","freq_resp","img/orange_2bandit_a.png","70","70","test","","","","10","",""
"null","306532","pSARL_v2","pSARL_v2wjrd2rq8","63d7a8a2591096e22405d64a","fixation","img/fixation.png","null","","test","","","","","",""
"416.80000001192093","306951","pSARL_v2","pSARL_v2wjrd2rq8","63d7a8a2591096e22405d64a","freq","img/orange_2bandit_a2.png","70","70","test","1","199","199","10","",""
"null","307338","pSARL_v2","pSARL_v2wjrd2rq8","63d7a8a2591096e22405d64a","freq_resp","img/orange_2bandit_a.png","70","70","test","","","","10","",""
"null","307497","pSARL_v2","pSARL_v2wjrd2rq8","63d7a8a2591096e22405d64a","fixation","img/fixation.png","null","","test","","","","","",""
"307.5","307807","pSARL_v2","pSARL_v2wjrd2rq8","63d7a8a2591096e22405d64a","freq","img/orange_2bandit_a2.png","70","70","test","1","200","200","10","",""
"null","308313","pSARL_v2","pSARL_v2wjrd2rq8","63d7a8a2591096e22405d64a","freq_resp","img/orange_2bandit_a.png","70","70","test","","","","10","",""
"null","308469","pSARL_v2","pSARL_v2wjrd2rq8","63d7a8a2591096e22405d64a","fixation","img/fixation.png","null","","test","","","","","",""
"110.69999998807907","308582","pSARL_v2","pSARL_v2wjrd2rq8","63d7a8a2591096e22405d64a","freq","img/orange_2bandit_a2.png","70","70","test","1","201","201","10","",""
"null","309275","pSARL_v2","pSARL_v2wjrd2rq8","63d7a8a2591096e22405d64a","freq_resp","img/orange_2bandit_a.png","70","70","test","","","","10","",""
"null","309432","pSARL_v2","pSARL_v2wjrd2rq8","63d7a8a2591096e22405d64a","fixation","img/fixation.png","null","","test","","","","","",""
"64.3999999910593","309498","pSARL_v2","pSARL_v2wjrd2rq8","63d7a8a2591096e22405d64a","freq","img/orange_2bandit_a2.png","70","70","test","1","202","202","10","",""
"null","310243","pSARL_v2","pSARL_v2wjrd2rq8","63d7a8a2591096e22405d64a","freq_resp","img/orange_2bandit_a.png","70","70","test","","","","10","",""
"null","310399","pSARL_v2","pSARL_v2wjrd2rq8","63d7a8a2591096e22405d64a","fixation","img/fixation.png","null","","test","","","","","",""
"null","311208","pSARL_v2","pSARL_v2wjrd2rq8","63d7a8a2591096e22405d64a","freq","img/orange_2bandit_a2.png","null","70","test","0","203","203","10","",""
"null","311363","pSARL_v2","pSARL_v2wjrd2rq8","63d7a8a2591096e22405d64a","fixation","img/fixation.png","null","","test","","","","","",""
"null","312178","pSARL_v2","pSARL_v2wjrd2rq8","63d7a8a2591096e22405d64a","freq","img/orange_2bandit_a2.png","null","70","test","0","204","204","10","",""
"null","312334","pSARL_v2","pSARL_v2wjrd2rq8","63d7a8a2591096e22405d64a","fixation","img/fixation.png","null","","test","","","","","",""
"null","313139","pSARL_v2","pSARL_v2wjrd2rq8","63d7a8a2591096e22405d64a","freq","img/orange_2bandit_a2.png","null","70","test","0","205","205","10","",""
"null","313295","pSARL_v2","pSARL_v2wjrd2rq8","63d7a8a2591096e22405d64a","fixation","img/fixation.png","null","","test","","","","","",""
"null","314108","pSARL_v2","pSARL_v2wjrd2rq8","63d7a8a2591096e22405d64a","freq","img/orange_2bandit_a2.png","null","70","test","0","206","206","10","",""
"null","314274","pSARL_v2","pSARL_v2wjrd2rq8","63d7a8a2591096e22405d64a","fixation","img/fixation.png","null","","test","","","","","",""
"644.7000000029802","314922","pSARL_v2","pSARL_v2wjrd2rq8","63d7a8a2591096e22405d64a","infreq","img/green_2bandit_a2.png","68","68","test","1","207","207","10","",""
"null","315089","pSARL_v2","pSARL_v2wjrd2rq8","63d7a8a2591096e22405d64a","infreq_resp","img/green_2bandit_a.png","68","68","test","","","","10","",""
"null","315259","pSARL_v2","pSARL_v2wjrd2rq8","63d7a8a2591096e22405d64a","fixation","img/fixation.png","null","","test","","","","","",""
"356.29999999701977","315618","pSARL_v2","pSARL_v2wjrd2rq8","63d7a8a2591096e22405d64a","freq","img/orange_2bandit_a2.png","70","70","test","1","208","208","10","",""
"null","316071","pSARL_v2","pSARL_v2wjrd2rq8","63d7a8a2591096e22405d64a","freq_resp","img/orange_2bandit_a.png","70","70","test","","","","10","",""
"null","316226","pSARL_v2","pSARL_v2wjrd2rq8","63d7a8a2591096e22405d64a","fixation","img/fixation.png","null","","test","","","","","",""
"544.7000000029802","316773","pSARL_v2","pSARL_v2wjrd2rq8","63d7a8a2591096e22405d64a","freq","img/orange_2bandit_a2.png","70","70","test","1","209","209","10","",""
"null","317043","pSARL_v2","pSARL_v2wjrd2rq8","63d7a8a2591096e22405d64a","freq_resp","img/orange_2bandit_a.png","70","70","test","","","","10","",""
"null","317199","pSARL_v2","pSARL_v2wjrd2rq8","63d7a8a2591096e22405d64a","fixation","img/fixation.png","null","","test","","","","","",""
"404.09999999403954","317605","pSARL_v2","pSARL_v2wjrd2rq8","63d7a8a2591096e22405d64a","freq","img/orange_2bandit_a2.png","70","70","test","1","210","210","10","",""
"null","318009","pSARL_v2","pSARL_v2wjrd2rq8","63d7a8a2591096e22405d64a","freq_resp","img/orange_2bandit_a.png","70","70","test","","","","10","",""
"null","318166","pSARL_v2","pSARL_v2wjrd2rq8","63d7a8a2591096e22405d64a","fixation","img/fixation.png","null","","test","","","","","",""
"533.9000000059605","318702","pSARL_v2","pSARL_v2wjrd2rq8","63d7a8a2591096e22405d64a","infreq","img/green_2bandit_a2.png","68","68","test","1","211","211","10","",""
"null","318972","pSARL_v2","pSARL_v2wjrd2rq8","63d7a8a2591096e22405d64a","infreq_resp","img/green_2bandit_a.png","68","68","test","","","","10","",""
"null","319129","pSARL_v2","pSARL_v2wjrd2rq8","63d7a8a2591096e22405d64a","fixation","img/fixation.png","null","","test","","","","","",""
"261.19999998807907","319392","pSARL_v2","pSARL_v2wjrd2rq8","63d7a8a2591096e22405d64a","freq","img/orange_2bandit_a2.png","70","70","test","1","212","212","10","",""
"null","319939","pSARL_v2","pSARL_v2wjrd2rq8","63d7a8a2591096e22405d64a","freq_resp","img/orange_2bandit_a.png","70","70","test","","","","10","",""
"null","320098","pSARL_v2","pSARL_v2wjrd2rq8","63d7a8a2591096e22405d64a","fixation","img/fixation.png","null","","test","","","","","",""
"365","320467","pSARL_v2","pSARL_v2wjrd2rq8","63d7a8a2591096e22405d64a","freq","img/orange_2bandit_a2.png","70","70","test","1","213","213","10","",""
"null","320906","pSARL_v2","pSARL_v2wjrd2rq8","63d7a8a2591096e22405d64a","freq_resp","img/orange_2bandit_a.png","70","70","test","","","","10","",""
"null","321067","pSARL_v2","pSARL_v2wjrd2rq8","63d7a8a2591096e22405d64a","fixation","img/fixation.png","null","","test","","","","","",""
"324.20000000298023","321393","pSARL_v2","pSARL_v2wjrd2rq8","63d7a8a2591096e22405d64a","freq","img/orange_2bandit_a2.png","70","70","test","1","214","214","10","",""
"null","321883","pSARL_v2","pSARL_v2wjrd2rq8","63d7a8a2591096e22405d64a","freq_resp","img/orange_2bandit_a.png","70","70","test","","","","10","",""
"null","322042","pSARL_v2","pSARL_v2wjrd2rq8","63d7a8a2591096e22405d64a","fixation","img/fixation.png","null","","test","","","","","",""
"368.5","322413","pSARL_v2","pSARL_v2wjrd2rq8","63d7a8a2591096e22405d64a","freq","img/orange_2bandit_a2.png","70","70","test","1","215","215","10","",""
