"rt","time_elapsed","expId","subject","prolificID","trialType","stimulus","key_press","corrresp","phase","corr","trialNum","attentionRunNum","blockNum","points","rlNum"
"57615","57631","pSARL_v2","pSARL_v2esllw4jq","6501f64fbe9a0a65bd5f7891","","","","","","","","","","",""
"","61478","pSARL_v2","pSARL_v2esllw4jq","6501f64fbe9a0a65bd5f7891","fullscreen","","","","","","","","","",""
"41913","103397","pSARL_v2","pSARL_v2esllw4jq","6501f64fbe9a0a65bd5f7891","","","","","","","","","","",""
"null","104208","pSARL_v2","pSARL_v2esllw4jq","6501f64fbe9a0a65bd5f7891","freqPrac","img/green_2bandit_a2.png","null","70","prac","0","","","","",""
"null","105215","pSARL_v2","pSARL_v2esllw4jq","6501f64fbe9a0a65bd5f7891","feedback","img/tooSlow.png","null","na","prac","","","","","",""
"null","105376","pSARL_v2","pSARL_v2esllw4jq","6501f64fbe9a0a65bd5f7891","fixation","img/fixation.png","null","","prac","","","","","",""
"null","106210","pSARL_v2","pSARL_v2esllw4jq","6501f64fbe9a0a65bd5f7891","infreqPrac","img/orange_2bandit_a2.png","null","68","prac","0","","","","",""
"null","107220","pSARL_v2","pSARL_v2esllw4jq","6501f64fbe9a0a65bd5f7891","feedback","img/tooSlow.png","null","na","prac","","","","","",""
"null","107375","pSARL_v2","pSARL_v2esllw4jq","6501f64fbe9a0a65bd5f7891","fixation","img/fixation.png","null","","prac","","","","","",""
"null","108180","pSARL_v2","pSARL_v2esllw4jq","6501f64fbe9a0a65bd5f7891","freqPrac","img/green_2bandit_a2.png","null","70","prac","0","","","","",""
"null","109237","pSARL_v2","pSARL_v2esllw4jq","6501f64fbe9a0a65bd5f7891","feedback","img/tooSlow.png","null","na","prac","","","","","",""
"null","109398","pSARL_v2","pSARL_v2esllw4jq","6501f64fbe9a0a65bd5f7891","fixation","img/fixation.png","null","","prac","","","","","",""
"null","110204","pSARL_v2","pSARL_v2esllw4jq","6501f64fbe9a0a65bd5f7891","infreqPrac","img/orange_2bandit_a2.png","null","68","prac","0","","","","",""
"null","111253","pSARL_v2","pSARL_v2esllw4jq","6501f64fbe9a0a65bd5f7891","feedback","img/tooSlow.png","null","na","prac","","","","","",""
"null","111415","pSARL_v2","pSARL_v2esllw4jq","6501f64fbe9a0a65bd5f7891","fixation","img/fixation.png","null","","prac","","","","","",""
"null","112259","pSARL_v2","pSARL_v2esllw4jq","6501f64fbe9a0a65bd5f7891","infreqPrac","img/orange_2bandit_a2.png","null","68","prac","0","","","","",""
"null","113270","pSARL_v2","pSARL_v2esllw4jq","6501f64fbe9a0a65bd5f7891","feedback","img/tooSlow.png","null","na","prac","","","","","",""
"null","113427","pSARL_v2","pSARL_v2esllw4jq","6501f64fbe9a0a65bd5f7891","fixation","img/fixation.png","null","","prac","","","","","",""
"null","114233","pSARL_v2","pSARL_v2esllw4jq","6501f64fbe9a0a65bd5f7891","infreqPrac","img/orange_2bandit_a2.png","null","68","prac","0","","","","",""
"null","115239","pSARL_v2","pSARL_v2esllw4jq","6501f64fbe9a0a65bd5f7891","feedback","img/tooSlow.png","null","na","prac","","","","","",""
"null","115400","pSARL_v2","pSARL_v2esllw4jq","6501f64fbe9a0a65bd5f7891","fixation","img/fixation.png","null","","prac","","","","","",""
"null","116205","pSARL_v2","pSARL_v2esllw4jq","6501f64fbe9a0a65bd5f7891","freqPrac","img/green_2bandit_a2.png","null","70","prac","0","","","","",""
"null","117210","pSARL_v2","pSARL_v2esllw4jq","6501f64fbe9a0a65bd5f7891","feedback","img/tooSlow.png","null","na","prac","","","","","",""
"null","117365","pSARL_v2","pSARL_v2esllw4jq","6501f64fbe9a0a65bd5f7891","fixation","img/fixation.png","null","","prac","","","","","",""
"null","118170","pSARL_v2","pSARL_v2esllw4jq","6501f64fbe9a0a65bd5f7891","infreqPrac","img/orange_2bandit_a2.png","null","68","prac","0","","","","",""
"null","119175","pSARL_v2","pSARL_v2esllw4jq","6501f64fbe9a0a65bd5f7891","feedback","img/tooSlow.png","null","na","prac","","","","","",""
"null","119331","pSARL_v2","pSARL_v2esllw4jq","6501f64fbe9a0a65bd5f7891","fixation","img/fixation.png","null","","prac","","","","","",""
"null","120135","pSARL_v2","pSARL_v2esllw4jq","6501f64fbe9a0a65bd5f7891","freqPrac","img/green_2bandit_a2.png","null","70","prac","0","","","","",""
"null","121140","pSARL_v2","pSARL_v2esllw4jq","6501f64fbe9a0a65bd5f7891","feedback","img/tooSlow.png","null","na","prac","","","","","",""
"null","121295","pSARL_v2","pSARL_v2esllw4jq","6501f64fbe9a0a65bd5f7891","fixation","img/fixation.png","null","","prac","","","","","",""
"null","122147","pSARL_v2","pSARL_v2esllw4jq","6501f64fbe9a0a65bd5f7891","freqPrac","img/green_2bandit_a2.png","null","70","prac","0","","","","",""
"null","123162","pSARL_v2","pSARL_v2esllw4jq","6501f64fbe9a0a65bd5f7891","feedback","img/tooSlow.png","null","na","prac","","","","","",""
"null","123326","pSARL_v2","pSARL_v2esllw4jq","6501f64fbe9a0a65bd5f7891","fixation","img/fixation.png","null","","prac","","","","","",""
"33331","156661","pSARL_v2","pSARL_v2esllw4jq","6501f64fbe9a0a65bd5f7891","","","","","prac","","","","","",""
"12092","168766","pSARL_v2","pSARL_v2esllw4jq","6501f64fbe9a0a65bd5f7891","rewardPractice","img/slot.png","74","","prac","","","","","",""
"null","169521","pSARL_v2","pSARL_v2esllw4jq","6501f64fbe9a0a65bd5f7891","feedback","<div class=""veryhighPoints""> +15 </div>","null","na","prac","","","","","",""
"null","169676","pSARL_v2","pSARL_v2esllw4jq","6501f64fbe9a0a65bd5f7891","fixation","img/fixation.png","null","","prac","","","","","",""
"24848","194540","pSARL_v2","pSARL_v2esllw4jq","6501f64fbe9a0a65bd5f7891","","","","","prac","","","","","",""
"529","195078","pSARL_v2","pSARL_v2esllw4jq","6501f64fbe9a0a65bd5f7891","freq","img/green_2bandit_a2.png","70","70","test","1","1","1","1","",""
"null","195355","pSARL_v2","pSARL_v2esllw4jq","6501f64fbe9a0a65bd5f7891","freq_resp","img/green_2bandit_a.png","70","70","test","","","","1","",""
"null","195513","pSARL_v2","pSARL_v2esllw4jq","6501f64fbe9a0a65bd5f7891","fixation","img/fixation.png","null","","test","","","","","",""
"369","195894","pSARL_v2","pSARL_v2esllw4jq","6501f64fbe9a0a65bd5f7891","freq","img/green_2bandit_a2.png","70","70","test","1","2","2","1","",""
"null","196330","pSARL_v2","pSARL_v2esllw4jq","6501f64fbe9a0a65bd5f7891","freq_resp","img/green_2bandit_a.png","70","70","test","","","","1","",""
"null","196492","pSARL_v2","pSARL_v2esllw4jq","6501f64fbe9a0a65bd5f7891","fixation","img/fixation.png","null","","test","","","","","",""
"397","196895","pSARL_v2","pSARL_v2esllw4jq","6501f64fbe9a0a65bd5f7891","freq","img/green_2bandit_a2.png","70","70","test","1","3","3","1","",""
"null","197309","pSARL_v2","pSARL_v2esllw4jq","6501f64fbe9a0a65bd5f7891","freq_resp","img/green_2bandit_a.png","70","70","test","","","","1","",""
"null","197463","pSARL_v2","pSARL_v2esllw4jq","6501f64fbe9a0a65bd5f7891","fixation","img/fixation.png","null","","test","","","","","",""
"362","197830","pSARL_v2","pSARL_v2esllw4jq","6501f64fbe9a0a65bd5f7891","freq","img/green_2bandit_a2.png","70","70","test","1","4","4","1","",""
"null","198273","pSARL_v2","pSARL_v2esllw4jq","6501f64fbe9a0a65bd5f7891","freq_resp","img/green_2bandit_a.png","70","70","test","","","","1","",""
"null","198428","pSARL_v2","pSARL_v2esllw4jq","6501f64fbe9a0a65bd5f7891","fixation","img/fixation.png","null","","test","","","","","",""
"382","198821","pSARL_v2","pSARL_v2esllw4jq","6501f64fbe9a0a65bd5f7891","freq","img/green_2bandit_a2.png","70","70","test","1","5","5","1","",""
"null","199252","pSARL_v2","pSARL_v2esllw4jq","6501f64fbe9a0a65bd5f7891","freq_resp","img/green_2bandit_a.png","70","70","test","","","","1","",""
"null","199413","pSARL_v2","pSARL_v2esllw4jq","6501f64fbe9a0a65bd5f7891","fixation","img/fixation.png","null","","test","","","","","",""
"501","199926","pSARL_v2","pSARL_v2esllw4jq","6501f64fbe9a0a65bd5f7891","infreq","img/orange_2bandit_a2.png","68","68","test","1","6","6","1","",""
"null","200231","pSARL_v2","pSARL_v2esllw4jq","6501f64fbe9a0a65bd5f7891","infreq_resp","img/orange_2bandit_a.png","68","68","test","","","","1","",""
"null","200392","pSARL_v2","pSARL_v2esllw4jq","6501f64fbe9a0a65bd5f7891","fixation","img/fixation.png","null","","test","","","","","",""
"434","200832","pSARL_v2","pSARL_v2esllw4jq","6501f64fbe9a0a65bd5f7891","infreq","img/orange_2bandit_a2.png","68","68","test","1","7","7","1","",""
"null","201209","pSARL_v2","pSARL_v2esllw4jq","6501f64fbe9a0a65bd5f7891","infreq_resp","img/orange_2bandit_a.png","68","68","test","","","","1","",""
"null","201365","pSARL_v2","pSARL_v2esllw4jq","6501f64fbe9a0a65bd5f7891","fixation","img/fixation.png","null","","test","","","","","",""
"462","201837","pSARL_v2","pSARL_v2esllw4jq","6501f64fbe9a0a65bd5f7891","freq","img/green_2bandit_a2.png","70","70","test","1","8","8","1","",""
"null","202180","pSARL_v2","pSARL_v2esllw4jq","6501f64fbe9a0a65bd5f7891","freq_resp","img/green_2bandit_a.png","70","70","test","","","","1","",""
"null","202342","pSARL_v2","pSARL_v2esllw4jq","6501f64fbe9a0a65bd5f7891","fixation","img/fixation.png","null","","test","","","","","",""
"397","202750","pSARL_v2","pSARL_v2esllw4jq","6501f64fbe9a0a65bd5f7891","freq","img/green_2bandit_a2.png","70","70","test","1","9","9","1","",""
"null","203164","pSARL_v2","pSARL_v2esllw4jq","6501f64fbe9a0a65bd5f7891","freq_resp","img/green_2bandit_a.png","70","70","test","","","","1","",""
"null","203326","pSARL_v2","pSARL_v2esllw4jq","6501f64fbe9a0a65bd5f7891","fixation","img/fixation.png","null","","test","","","","","",""
"419","203751","pSARL_v2","pSARL_v2esllw4jq","6501f64fbe9a0a65bd5f7891","freq","img/green_2bandit_a2.png","70","70","test","1","10","10","1","",""
"null","204137","pSARL_v2","pSARL_v2esllw4jq","6501f64fbe9a0a65bd5f7891","freq_resp","img/green_2bandit_a.png","70","70","test","","","","1","",""
"null","204291","pSARL_v2","pSARL_v2esllw4jq","6501f64fbe9a0a65bd5f7891","fixation","img/fixation.png","null","","test","","","","","",""
"358","204655","pSARL_v2","pSARL_v2esllw4jq","6501f64fbe9a0a65bd5f7891","freq","img/green_2bandit_a2.png","70","70","test","1","11","11","1","",""
"null","205102","pSARL_v2","pSARL_v2esllw4jq","6501f64fbe9a0a65bd5f7891","freq_resp","img/green_2bandit_a.png","70","70","test","","","","1","",""
"null","205256","pSARL_v2","pSARL_v2esllw4jq","6501f64fbe9a0a65bd5f7891","fixation","img/fixation.png","null","","test","","","","","",""
"362","205623","pSARL_v2","pSARL_v2esllw4jq","6501f64fbe9a0a65bd5f7891","freq","img/green_2bandit_a2.png","70","70","test","1","12","12","1","",""
"null","206065","pSARL_v2","pSARL_v2esllw4jq","6501f64fbe9a0a65bd5f7891","freq_resp","img/green_2bandit_a.png","70","70","test","","","","1","",""
"null","206227","pSARL_v2","pSARL_v2esllw4jq","6501f64fbe9a0a65bd5f7891","fixation","img/fixation.png","null","","test","","","","","",""
"465","206702","pSARL_v2","pSARL_v2esllw4jq","6501f64fbe9a0a65bd5f7891","freq","img/green_2bandit_a2.png","70","70","test","1","13","13","1","",""
"null","207046","pSARL_v2","pSARL_v2esllw4jq","6501f64fbe9a0a65bd5f7891","freq_resp","img/green_2bandit_a.png","70","70","test","","","","1","",""
"null","207206","pSARL_v2","pSARL_v2esllw4jq","6501f64fbe9a0a65bd5f7891","fixation","img/fixation.png","null","","test","","","","","",""
"571","207782","pSARL_v2","pSARL_v2esllw4jq","6501f64fbe9a0a65bd5f7891","freq","img/green_2bandit_a2.png","70","70","test","1","14","14","1","",""
"null","208041","pSARL_v2","pSARL_v2esllw4jq","6501f64fbe9a0a65bd5f7891","freq_resp","img/green_2bandit_a.png","70","70","test","","","","1","",""
"null","208195","pSARL_v2","pSARL_v2esllw4jq","6501f64fbe9a0a65bd5f7891","fixation","img/fixation.png","null","","test","","","","","",""
"671","208876","pSARL_v2","pSARL_v2esllw4jq","6501f64fbe9a0a65bd5f7891","freq","img/green_2bandit_a2.png","70","70","test","1","15","15","1","",""
"null","209011","pSARL_v2","pSARL_v2esllw4jq","6501f64fbe9a0a65bd5f7891","freq_resp","img/green_2bandit_a.png","70","70","test","","","","1","",""
"null","209172","pSARL_v2","pSARL_v2esllw4jq","6501f64fbe9a0a65bd5f7891","fixation","img/fixation.png","null","","test","","","","","",""
"501","209679","pSARL_v2","pSARL_v2esllw4jq","6501f64fbe9a0a65bd5f7891","freq","img/green_2bandit_a2.png","70","70","test","1","16","16","1","",""
"null","209982","pSARL_v2","pSARL_v2esllw4jq","6501f64fbe9a0a65bd5f7891","freq_resp","img/green_2bandit_a.png","70","70","test","","","","1","",""
"null","210137","pSARL_v2","pSARL_v2esllw4jq","6501f64fbe9a0a65bd5f7891","fixation","img/fixation.png","null","","test","","","","","",""
"null","210949","pSARL_v2","pSARL_v2esllw4jq","6501f64fbe9a0a65bd5f7891","freq","img/green_2bandit_a2.png","null","70","test","0","17","17","1","",""
"null","211104","pSARL_v2","pSARL_v2esllw4jq","6501f64fbe9a0a65bd5f7891","fixation","img/fixation.png","null","","test","","","","","",""
"491","211602","pSARL_v2","pSARL_v2esllw4jq","6501f64fbe9a0a65bd5f7891","freq","img/green_2bandit_a2.png","70","70","test","1","18","18","1","",""
"null","211922","pSARL_v2","pSARL_v2esllw4jq","6501f64fbe9a0a65bd5f7891","freq_resp","img/green_2bandit_a.png","70","70","test","","","","1","",""
"null","212077","pSARL_v2","pSARL_v2esllw4jq","6501f64fbe9a0a65bd5f7891","fixation","img/fixation.png","null","","test","","","","","",""
"477","212559","pSARL_v2","pSARL_v2esllw4jq","6501f64fbe9a0a65bd5f7891","freq","img/green_2bandit_a2.png","70","70","test","1","19","19","1","",""
"null","212894","pSARL_v2","pSARL_v2esllw4jq","6501f64fbe9a0a65bd5f7891","freq_resp","img/green_2bandit_a.png","70","70","test","","","","1","",""
"null","213048","pSARL_v2","pSARL_v2esllw4jq","6501f64fbe9a0a65bd5f7891","fixation","img/fixation.png","null","","test","","","","","",""
"651","213709","pSARL_v2","pSARL_v2esllw4jq","6501f64fbe9a0a65bd5f7891","freq","img/green_2bandit_a2.png","70","70","test","1","20","20","1","",""
"null","213870","pSARL_v2","pSARL_v2esllw4jq","6501f64fbe9a0a65bd5f7891","freq_resp","img/green_2bandit_a.png","70","70","test","","","","1","",""
"null","214026","pSARL_v2","pSARL_v2esllw4jq","6501f64fbe9a0a65bd5f7891","fixation","img/fixation.png","null","","test","","","","","",""
"554","214590","pSARL_v2","pSARL_v2esllw4jq","6501f64fbe9a0a65bd5f7891","freq","img/green_2bandit_a2.png","70","70","test","1","21","21","1","",""
"null","214846","pSARL_v2","pSARL_v2esllw4jq","6501f64fbe9a0a65bd5f7891","freq_resp","img/green_2bandit_a.png","70","70","test","","","","1","",""
"null","215001","pSARL_v2","pSARL_v2esllw4jq","6501f64fbe9a0a65bd5f7891","fixation","img/fixation.png","null","","test","","","","","",""
"761","215766","pSARL_v2","pSARL_v2esllw4jq","6501f64fbe9a0a65bd5f7891","reward","img/slot.png","74","","test","","","","","",""
"null","216522","pSARL_v2","pSARL_v2esllw4jq","6501f64fbe9a0a65bd5f7891","points","<div class=""verylowPoints""> -6 </div>","null","na","test","","","","1","-6","0"
"801","217334","pSARL_v2","pSARL_v2esllw4jq","6501f64fbe9a0a65bd5f7891","freq","img/green_2bandit_a2.png","70","70","test","1","22","22","2","",""
"null","217490","pSARL_v2","pSARL_v2esllw4jq","6501f64fbe9a0a65bd5f7891","fixation","img/fixation.png","null","","test","","","","","",""
"706","218202","pSARL_v2","pSARL_v2esllw4jq","6501f64fbe9a0a65bd5f7891","infreq","img/orange_2bandit_a2.png","68","68","test","1","23","23","2","",""
"null","218300","pSARL_v2","pSARL_v2esllw4jq","6501f64fbe9a0a65bd5f7891","infreq_resp","img/orange_2bandit_a.png","68","68","test","","","","2","",""
"null","218460","pSARL_v2","pSARL_v2esllw4jq","6501f64fbe9a0a65bd5f7891","fixation","img/fixation.png","null","","test","","","","","",""
"766","219238","pSARL_v2","pSARL_v2esllw4jq","6501f64fbe9a0a65bd5f7891","freq","img/green_2bandit_a2.png","70","70","test","1","24","24","2","",""
"null","219282","pSARL_v2","pSARL_v2esllw4jq","6501f64fbe9a0a65bd5f7891","freq_resp","img/green_2bandit_a.png","70","70","test","","","","2","",""
"null","219438","pSARL_v2","pSARL_v2esllw4jq","6501f64fbe9a0a65bd5f7891","fixation","img/fixation.png","null","","test","","","","","",""
"589","220030","pSARL_v2","pSARL_v2esllw4jq","6501f64fbe9a0a65bd5f7891","freq","img/green_2bandit_a2.png","70","70","test","1","25","25","2","",""
"null","220252","pSARL_v2","pSARL_v2esllw4jq","6501f64fbe9a0a65bd5f7891","freq_resp","img/green_2bandit_a.png","70","70","test","","","","2","",""
"null","220414","pSARL_v2","pSARL_v2esllw4jq","6501f64fbe9a0a65bd5f7891","fixation","img/fixation.png","null","","test","","","","","",""
"595","221015","pSARL_v2","pSARL_v2esllw4jq","6501f64fbe9a0a65bd5f7891","freq","img/green_2bandit_a2.png","70","70","test","1","26","26","2","",""
"null","221226","pSARL_v2","pSARL_v2esllw4jq","6501f64fbe9a0a65bd5f7891","freq_resp","img/green_2bandit_a.png","70","70","test","","","","2","",""
"null","221380","pSARL_v2","pSARL_v2esllw4jq","6501f64fbe9a0a65bd5f7891","fixation","img/fixation.png","null","","test","","","","","",""
"495","221886","pSARL_v2","pSARL_v2esllw4jq","6501f64fbe9a0a65bd5f7891","freq","img/green_2bandit_a2.png","70","70","test","1","27","27","2","",""
"null","222196","pSARL_v2","pSARL_v2esllw4jq","6501f64fbe9a0a65bd5f7891","freq_resp","img/green_2bandit_a.png","70","70","test","","","","2","",""
"null","222358","pSARL_v2","pSARL_v2esllw4jq","6501f64fbe9a0a65bd5f7891","fixation","img/fixation.png","null","","test","","","","","",""
"428","222790","pSARL_v2","pSARL_v2esllw4jq","6501f64fbe9a0a65bd5f7891","freq","img/green_2bandit_a2.png","70","70","test","1","28","28","2","",""
"null","223167","pSARL_v2","pSARL_v2esllw4jq","6501f64fbe9a0a65bd5f7891","freq_resp","img/green_2bandit_a.png","70","70","test","","","","2","",""
"null","223323","pSARL_v2","pSARL_v2esllw4jq","6501f64fbe9a0a65bd5f7891","fixation","img/fixation.png","null","","test","","","","","",""
"486","223814","pSARL_v2","pSARL_v2esllw4jq","6501f64fbe9a0a65bd5f7891","freq","img/green_2bandit_a2.png","70","70","test","1","29","29","2","",""
"null","224134","pSARL_v2","pSARL_v2esllw4jq","6501f64fbe9a0a65bd5f7891","freq_resp","img/green_2bandit_a.png","70","70","test","","","","2","",""
"null","224291","pSARL_v2","pSARL_v2esllw4jq","6501f64fbe9a0a65bd5f7891","fixation","img/fixation.png","null","","test","","","","","",""
"529","224830","pSARL_v2","pSARL_v2esllw4jq","6501f64fbe9a0a65bd5f7891","freq","img/green_2bandit_a2.png","70","70","test","1","30","30","2","",""
"null","225106","pSARL_v2","pSARL_v2esllw4jq","6501f64fbe9a0a65bd5f7891","freq_resp","img/green_2bandit_a.png","70","70","test","","","","2","",""
"null","225267","pSARL_v2","pSARL_v2esllw4jq","6501f64fbe9a0a65bd5f7891","fixation","img/fixation.png","null","","test","","","","","",""
"487","225759","pSARL_v2","pSARL_v2esllw4jq","6501f64fbe9a0a65bd5f7891","freq","img/green_2bandit_a2.png","70","70","test","1","31","31","2","",""
"null","226139","pSARL_v2","pSARL_v2esllw4jq","6501f64fbe9a0a65bd5f7891","freq_resp","img/green_2bandit_a.png","70","70","test","","","","2","",""
"null","226300","pSARL_v2","pSARL_v2esllw4jq","6501f64fbe9a0a65bd5f7891","fixation","img/fixation.png","null","","test","","","","","",""
"461","226767","pSARL_v2","pSARL_v2esllw4jq","6501f64fbe9a0a65bd5f7891","freq","img/green_2bandit_a2.png","70","70","test","1","32","32","2","",""
"null","227110","pSARL_v2","pSARL_v2esllw4jq","6501f64fbe9a0a65bd5f7891","freq_resp","img/green_2bandit_a.png","70","70","test","","","","2","",""
"null","227265","pSARL_v2","pSARL_v2esllw4jq","6501f64fbe9a0a65bd5f7891","fixation","img/fixation.png","null","","test","","","","","",""
"386","227654","pSARL_v2","pSARL_v2esllw4jq","6501f64fbe9a0a65bd5f7891","freq","img/green_2bandit_a2.png","70","70","test","1","33","33","2","",""
"null","228073","pSARL_v2","pSARL_v2esllw4jq","6501f64fbe9a0a65bd5f7891","freq_resp","img/green_2bandit_a.png","70","70","test","","","","2","",""
"null","228235","pSARL_v2","pSARL_v2esllw4jq","6501f64fbe9a0a65bd5f7891","fixation","img/fixation.png","null","","test","","","","","",""
"351","228599","pSARL_v2","pSARL_v2esllw4jq","6501f64fbe9a0a65bd5f7891","freq","img/green_2bandit_a2.png","70","70","test","1","34","34","2","",""
"null","229053","pSARL_v2","pSARL_v2esllw4jq","6501f64fbe9a0a65bd5f7891","freq_resp","img/green_2bandit_a.png","70","70","test","","","","2","",""
"null","229214","pSARL_v2","pSARL_v2esllw4jq","6501f64fbe9a0a65bd5f7891","fixation","img/fixation.png","null","","test","","","","","",""
"324","229544","pSARL_v2","pSARL_v2esllw4jq","6501f64fbe9a0a65bd5f7891","freq","img/green_2bandit_a2.png","70","70","test","1","35","35","2","",""
"null","230024","pSARL_v2","pSARL_v2esllw4jq","6501f64fbe9a0a65bd5f7891","freq_resp","img/green_2bandit_a.png","70","70","test","","","","2","",""
"null","230182","pSARL_v2","pSARL_v2esllw4jq","6501f64fbe9a0a65bd5f7891","fixation","img/fixation.png","null","","test","","","","","",""
"516","230711","pSARL_v2","pSARL_v2esllw4jq","6501f64fbe9a0a65bd5f7891","infreq","img/orange_2bandit_a2.png","68","68","test","1","36","36","2","",""
"null","231002","pSARL_v2","pSARL_v2esllw4jq","6501f64fbe9a0a65bd5f7891","infreq_resp","img/orange_2bandit_a.png","68","68","test","","","","2","",""
"null","231157","pSARL_v2","pSARL_v2esllw4jq","6501f64fbe9a0a65bd5f7891","fixation","img/fixation.png","null","","test","","","","","",""
"574","231734","pSARL_v2","pSARL_v2esllw4jq","6501f64fbe9a0a65bd5f7891","freq","img/green_2bandit_a2.png","70","70","test","1","37","37","2","",""
"null","231971","pSARL_v2","pSARL_v2esllw4jq","6501f64fbe9a0a65bd5f7891","freq_resp","img/green_2bandit_a.png","70","70","test","","","","2","",""
"null","232144","pSARL_v2","pSARL_v2esllw4jq","6501f64fbe9a0a65bd5f7891","fixation","img/fixation.png","null","","test","","","","","",""
"531","232680","pSARL_v2","pSARL_v2esllw4jq","6501f64fbe9a0a65bd5f7891","freq","img/green_2bandit_a2.png","70","70","test","1","38","38","2","",""
"null","232954","pSARL_v2","pSARL_v2esllw4jq","6501f64fbe9a0a65bd5f7891","freq_resp","img/green_2bandit_a.png","70","70","test","","","","2","",""
"null","233114","pSARL_v2","pSARL_v2esllw4jq","6501f64fbe9a0a65bd5f7891","fixation","img/fixation.png","null","","test","","","","","",""
"408","233527","pSARL_v2","pSARL_v2esllw4jq","6501f64fbe9a0a65bd5f7891","freq","img/green_2bandit_a2.png","70","70","test","1","39","39","2","",""
"null","233929","pSARL_v2","pSARL_v2esllw4jq","6501f64fbe9a0a65bd5f7891","freq_resp","img/green_2bandit_a.png","70","70","test","","","","2","",""
"null","234084","pSARL_v2","pSARL_v2esllw4jq","6501f64fbe9a0a65bd5f7891","fixation","img/fixation.png","null","","test","","","","","",""
"415","234505","pSARL_v2","pSARL_v2esllw4jq","6501f64fbe9a0a65bd5f7891","freq","img/green_2bandit_a2.png","70","70","test","1","40","40","2","",""
"null","234902","pSARL_v2","pSARL_v2esllw4jq","6501f64fbe9a0a65bd5f7891","freq_resp","img/green_2bandit_a.png","70","70","test","","","","2","",""
"null","235057","pSARL_v2","pSARL_v2esllw4jq","6501f64fbe9a0a65bd5f7891","fixation","img/fixation.png","null","","test","","","","","",""
"361","235423","pSARL_v2","pSARL_v2esllw4jq","6501f64fbe9a0a65bd5f7891","freq","img/green_2bandit_a2.png","70","70","test","1","41","41","2","",""
"null","235868","pSARL_v2","pSARL_v2esllw4jq","6501f64fbe9a0a65bd5f7891","freq_resp","img/green_2bandit_a.png","70","70","test","","","","2","",""
"null","236023","pSARL_v2","pSARL_v2esllw4jq","6501f64fbe9a0a65bd5f7891","fixation","img/fixation.png","null","","test","","","","","",""
"451","236478","pSARL_v2","pSARL_v2esllw4jq","6501f64fbe9a0a65bd5f7891","freq","img/green_2bandit_a2.png","70","70","test","1","42","42","2","",""
"null","236832","pSARL_v2","pSARL_v2esllw4jq","6501f64fbe9a0a65bd5f7891","freq_resp","img/green_2bandit_a.png","70","70","test","","","","2","",""
"null","236993","pSARL_v2","pSARL_v2esllw4jq","6501f64fbe9a0a65bd5f7891","fixation","img/fixation.png","null","","test","","","","","",""
"347","237349","pSARL_v2","pSARL_v2esllw4jq","6501f64fbe9a0a65bd5f7891","freq","img/green_2bandit_a2.png","70","70","test","1","43","43","2","",""
"null","237807","pSARL_v2","pSARL_v2esllw4jq","6501f64fbe9a0a65bd5f7891","freq_resp","img/green_2bandit_a.png","70","70","test","","","","2","",""
"null","237969","pSARL_v2","pSARL_v2esllw4jq","6501f64fbe9a0a65bd5f7891","fixation","img/fixation.png","null","","test","","","","","",""
"626","238605","pSARL_v2","pSARL_v2esllw4jq","6501f64fbe9a0a65bd5f7891","reward","img/slot.png","74","","test","","","","","",""
"null","239359","pSARL_v2","pSARL_v2esllw4jq","6501f64fbe9a0a65bd5f7891","points","<div class=""verylowPoints""> -11 </div>","null","na","test","","","","2","-11","1"
"572","239935","pSARL_v2","pSARL_v2esllw4jq","6501f64fbe9a0a65bd5f7891","freq","img/green_2bandit_a2.png","70","70","test","1","44","44","3","",""
"null","240171","pSARL_v2","pSARL_v2esllw4jq","6501f64fbe9a0a65bd5f7891","freq_resp","img/green_2bandit_a.png","70","70","test","","","","3","",""
"null","240333","pSARL_v2","pSARL_v2esllw4jq","6501f64fbe9a0a65bd5f7891","fixation","img/fixation.png","null","","test","","","","","",""
"293","240637","pSARL_v2","pSARL_v2esllw4jq","6501f64fbe9a0a65bd5f7891","freq","img/green_2bandit_a2.png","70","70","test","1","45","45","3","",""
"null","241150","pSARL_v2","pSARL_v2esllw4jq","6501f64fbe9a0a65bd5f7891","freq_resp","img/green_2bandit_a.png","70","70","test","","","","3","",""
"null","241311","pSARL_v2","pSARL_v2esllw4jq","6501f64fbe9a0a65bd5f7891","fixation","img/fixation.png","null","","test","","","","","",""
"332","241654","pSARL_v2","pSARL_v2esllw4jq","6501f64fbe9a0a65bd5f7891","freq","img/green_2bandit_a2.png","70","70","test","1","46","46","3","",""
"null","242127","pSARL_v2","pSARL_v2esllw4jq","6501f64fbe9a0a65bd5f7891","freq_resp","img/green_2bandit_a.png","70","70","test","","","","3","",""
"null","242288","pSARL_v2","pSARL_v2esllw4jq","6501f64fbe9a0a65bd5f7891","fixation","img/fixation.png","null","","test","","","","","",""
"346","242643","pSARL_v2","pSARL_v2esllw4jq","6501f64fbe9a0a65bd5f7891","freq","img/green_2bandit_a2.png","70","70","test","1","47","47","3","",""
"null","243161","pSARL_v2","pSARL_v2esllw4jq","6501f64fbe9a0a65bd5f7891","freq_resp","img/green_2bandit_a.png","70","70","test","","","","3","",""
"null","243317","pSARL_v2","pSARL_v2esllw4jq","6501f64fbe9a0a65bd5f7891","fixation","img/fixation.png","null","","test","","","","","",""
"350","243675","pSARL_v2","pSARL_v2esllw4jq","6501f64fbe9a0a65bd5f7891","freq","img/green_2bandit_a2.png","70","70","test","1","48","48","3","",""
"null","244132","pSARL_v2","pSARL_v2esllw4jq","6501f64fbe9a0a65bd5f7891","freq_resp","img/green_2bandit_a.png","70","70","test","","","","3","",""
"null","244286","pSARL_v2","pSARL_v2esllw4jq","6501f64fbe9a0a65bd5f7891","fixation","img/fixation.png","null","","test","","","","","",""
"340","244631","pSARL_v2","pSARL_v2esllw4jq","6501f64fbe9a0a65bd5f7891","freq","img/green_2bandit_a2.png","70","70","test","1","49","49","3","",""
"null","245095","pSARL_v2","pSARL_v2esllw4jq","6501f64fbe9a0a65bd5f7891","freq_resp","img/green_2bandit_a.png","70","70","test","","","","3","",""
"null","245257","pSARL_v2","pSARL_v2esllw4jq","6501f64fbe9a0a65bd5f7891","fixation","img/fixation.png","null","","test","","","","","",""
"369","245637","pSARL_v2","pSARL_v2esllw4jq","6501f64fbe9a0a65bd5f7891","freq","img/green_2bandit_a2.png","70","70","test","1","50","50","3","",""
"null","246072","pSARL_v2","pSARL_v2esllw4jq","6501f64fbe9a0a65bd5f7891","freq_resp","img/green_2bandit_a.png","70","70","test","","","","3","",""
"null","246233","pSARL_v2","pSARL_v2esllw4jq","6501f64fbe9a0a65bd5f7891","fixation","img/fixation.png","null","","test","","","","","",""
"314","246558","pSARL_v2","pSARL_v2esllw4jq","6501f64fbe9a0a65bd5f7891","freq","img/green_2bandit_a2.png","70","70","test","1","51","51","3","",""
"null","247049","pSARL_v2","pSARL_v2esllw4jq","6501f64fbe9a0a65bd5f7891","freq_resp","img/green_2bandit_a.png","70","70","test","","","","3","",""
"null","247207","pSARL_v2","pSARL_v2esllw4jq","6501f64fbe9a0a65bd5f7891","fixation","img/fixation.png","null","","test","","","","","",""
"238","247454","pSARL_v2","pSARL_v2esllw4jq","6501f64fbe9a0a65bd5f7891","freq","img/green_2bandit_a2.png","70","70","test","1","52","52","3","",""
"null","248024","pSARL_v2","pSARL_v2esllw4jq","6501f64fbe9a0a65bd5f7891","freq_resp","img/green_2bandit_a.png","70","70","test","","","","3","",""
"null","248179","pSARL_v2","pSARL_v2esllw4jq","6501f64fbe9a0a65bd5f7891","fixation","img/fixation.png","null","","test","","","","","",""
"318","248503","pSARL_v2","pSARL_v2esllw4jq","6501f64fbe9a0a65bd5f7891","freq","img/green_2bandit_a2.png","70","70","test","1","53","53","3","",""
"null","248990","pSARL_v2","pSARL_v2esllw4jq","6501f64fbe9a0a65bd5f7891","freq_resp","img/green_2bandit_a.png","70","70","test","","","","3","",""
"null","249144","pSARL_v2","pSARL_v2esllw4jq","6501f64fbe9a0a65bd5f7891","fixation","img/fixation.png","null","","test","","","","","",""
"347","249502","pSARL_v2","pSARL_v2esllw4jq","6501f64fbe9a0a65bd5f7891","freq","img/green_2bandit_a2.png","70","70","test","1","54","54","3","",""
"null","249961","pSARL_v2","pSARL_v2esllw4jq","6501f64fbe9a0a65bd5f7891","freq_resp","img/green_2bandit_a.png","70","70","test","","","","3","",""
"null","250116","pSARL_v2","pSARL_v2esllw4jq","6501f64fbe9a0a65bd5f7891","fixation","img/fixation.png","null","","test","","","","","",""
"327","250454","pSARL_v2","pSARL_v2esllw4jq","6501f64fbe9a0a65bd5f7891","freq","img/green_2bandit_a2.png","70","70","test","1","55","55","3","",""
"null","250933","pSARL_v2","pSARL_v2esllw4jq","6501f64fbe9a0a65bd5f7891","freq_resp","img/green_2bandit_a.png","70","70","test","","","","3","",""
"null","251087","pSARL_v2","pSARL_v2esllw4jq","6501f64fbe9a0a65bd5f7891","fixation","img/fixation.png","null","","test","","","","","",""
"339","251431","pSARL_v2","pSARL_v2esllw4jq","6501f64fbe9a0a65bd5f7891","freq","img/green_2bandit_a2.png","70","70","test","1","56","56","3","",""
"null","251901","pSARL_v2","pSARL_v2esllw4jq","6501f64fbe9a0a65bd5f7891","freq_resp","img/green_2bandit_a.png","70","70","test","","","","3","",""
"null","252056","pSARL_v2","pSARL_v2esllw4jq","6501f64fbe9a0a65bd5f7891","fixation","img/fixation.png","null","","test","","","","","",""
"315","252383","pSARL_v2","pSARL_v2esllw4jq","6501f64fbe9a0a65bd5f7891","freq","img/green_2bandit_a2.png","70","70","test","1","57","57","3","",""
"null","252880","pSARL_v2","pSARL_v2esllw4jq","6501f64fbe9a0a65bd5f7891","freq_resp","img/green_2bandit_a.png","70","70","test","","","","3","",""
"null","253036","pSARL_v2","pSARL_v2esllw4jq","6501f64fbe9a0a65bd5f7891","fixation","img/fixation.png","null","","test","","","","","",""
"438","253479","pSARL_v2","pSARL_v2esllw4jq","6501f64fbe9a0a65bd5f7891","infreq","img/orange_2bandit_a2.png","68","68","test","1","58","58","3","",""
"null","253846","pSARL_v2","pSARL_v2esllw4jq","6501f64fbe9a0a65bd5f7891","infreq_resp","img/orange_2bandit_a.png","68","68","test","","","","3","",""
"null","254002","pSARL_v2","pSARL_v2esllw4jq","6501f64fbe9a0a65bd5f7891","fixation","img/fixation.png","null","","test","","","","","",""
"370","254377","pSARL_v2","pSARL_v2esllw4jq","6501f64fbe9a0a65bd5f7891","freq","img/green_2bandit_a2.png","70","70","test","1","59","59","3","",""
"null","254819","pSARL_v2","pSARL_v2esllw4jq","6501f64fbe9a0a65bd5f7891","freq_resp","img/green_2bandit_a.png","70","70","test","","","","3","",""
"null","254980","pSARL_v2","pSARL_v2esllw4jq","6501f64fbe9a0a65bd5f7891","fixation","img/fixation.png","null","","test","","","","","",""
"504","255495","pSARL_v2","pSARL_v2esllw4jq","6501f64fbe9a0a65bd5f7891","freq","img/green_2bandit_a2.png","70","70","test","1","60","60","3","",""
"null","255797","pSARL_v2","pSARL_v2esllw4jq","6501f64fbe9a0a65bd5f7891","freq_resp","img/green_2bandit_a.png","70","70","test","","","","3","",""
"null","255951","pSARL_v2","pSARL_v2esllw4jq","6501f64fbe9a0a65bd5f7891","fixation","img/fixation.png","null","","test","","","","","",""
"371","256326","pSARL_v2","pSARL_v2esllw4jq","6501f64fbe9a0a65bd5f7891","freq","img/green_2bandit_a2.png","70","70","test","1","61","61","3","",""
"null","256767","pSARL_v2","pSARL_v2esllw4jq","6501f64fbe9a0a65bd5f7891","freq_resp","img/green_2bandit_a.png","70","70","test","","","","3","",""
"null","256929","pSARL_v2","pSARL_v2esllw4jq","6501f64fbe9a0a65bd5f7891","fixation","img/fixation.png","null","","test","","","","","",""
"370","257310","pSARL_v2","pSARL_v2esllw4jq","6501f64fbe9a0a65bd5f7891","freq","img/green_2bandit_a2.png","70","70","test","1","62","62","3","",""
"null","257746","pSARL_v2","pSARL_v2esllw4jq","6501f64fbe9a0a65bd5f7891","freq_resp","img/green_2bandit_a.png","70","70","test","","","","3","",""
"null","257906","pSARL_v2","pSARL_v2esllw4jq","6501f64fbe9a0a65bd5f7891","fixation","img/fixation.png","null","","test","","","","","",""
"360","258271","pSARL_v2","pSARL_v2esllw4jq","6501f64fbe9a0a65bd5f7891","freq","img/green_2bandit_a2.png","70","70","test","1","63","63","3","",""
"null","258721","pSARL_v2","pSARL_v2esllw4jq","6501f64fbe9a0a65bd5f7891","freq_resp","img/green_2bandit_a.png","70","70","test","","","","3","",""
"null","258880","pSARL_v2","pSARL_v2esllw4jq","6501f64fbe9a0a65bd5f7891","fixation","img/fixation.png","null","","test","","","","","",""
"379","259268","pSARL_v2","pSARL_v2esllw4jq","6501f64fbe9a0a65bd5f7891","freq","img/green_2bandit_a2.png","70","70","test","1","64","64","3","",""
"null","259699","pSARL_v2","pSARL_v2esllw4jq","6501f64fbe9a0a65bd5f7891","freq_resp","img/green_2bandit_a.png","70","70","test","","","","3","",""
"null","259854","pSARL_v2","pSARL_v2esllw4jq","6501f64fbe9a0a65bd5f7891","fixation","img/fixation.png","null","","test","","","","","",""
"252","260111","pSARL_v2","pSARL_v2esllw4jq","6501f64fbe9a0a65bd5f7891","infreq","img/orange_2bandit_a2.png","70","68","test","0","65","65","3","",""
"null","260670","pSARL_v2","pSARL_v2esllw4jq","6501f64fbe9a0a65bd5f7891","infreq_resp","img/orange_2bandit_a.png","70","68","test","","","","3","",""
"null","260827","pSARL_v2","pSARL_v2esllw4jq","6501f64fbe9a0a65bd5f7891","fixation","img/fixation.png","null","","test","","","","","",""
"625","261463","pSARL_v2","pSARL_v2esllw4jq","6501f64fbe9a0a65bd5f7891","freq","img/green_2bandit_a2.png","70","70","test","1","66","66","3","",""
"null","261645","pSARL_v2","pSARL_v2esllw4jq","6501f64fbe9a0a65bd5f7891","freq_resp","img/green_2bandit_a.png","70","70","test","","","","3","",""
"null","261800","pSARL_v2","pSARL_v2esllw4jq","6501f64fbe9a0a65bd5f7891","fixation","img/fixation.png","null","","test","","","","","",""
"649","262455","pSARL_v2","pSARL_v2esllw4jq","6501f64fbe9a0a65bd5f7891","reward","img/slot.png","74","","test","","","","","",""
"null","263216","pSARL_v2","pSARL_v2esllw4jq","6501f64fbe9a0a65bd5f7891","points","<div class=""verylowPoints""> -7 </div>","null","na","test","","","","3","-7","2"
"682","263904","pSARL_v2","pSARL_v2esllw4jq","6501f64fbe9a0a65bd5f7891","freq","img/green_2bandit_a2.png","70","70","test","1","67","67","4","",""
"null","264026","pSARL_v2","pSARL_v2esllw4jq","6501f64fbe9a0a65bd5f7891","freq_resp","img/green_2bandit_a.png","70","70","test","","","","4","",""
"null","264187","pSARL_v2","pSARL_v2esllw4jq","6501f64fbe9a0a65bd5f7891","fixation","img/fixation.png","null","","test","","","","","",""
"376","264573","pSARL_v2","pSARL_v2esllw4jq","6501f64fbe9a0a65bd5f7891","freq","img/green_2bandit_a2.png","70","70","test","1","68","68","4","",""
"null","265002","pSARL_v2","pSARL_v2esllw4jq","6501f64fbe9a0a65bd5f7891","freq_resp","img/green_2bandit_a.png","70","70","test","","","","4","",""
"null","265173","pSARL_v2","pSARL_v2esllw4jq","6501f64fbe9a0a65bd5f7891","fixation","img/fixation.png","null","","test","","","","","",""
"382","265564","pSARL_v2","pSARL_v2esllw4jq","6501f64fbe9a0a65bd5f7891","freq","img/green_2bandit_a2.png","70","70","test","1","69","69","4","",""
"null","265993","pSARL_v2","pSARL_v2esllw4jq","6501f64fbe9a0a65bd5f7891","freq_resp","img/green_2bandit_a.png","70","70","test","","","","4","",""
"null","266147","pSARL_v2","pSARL_v2esllw4jq","6501f64fbe9a0a65bd5f7891","fixation","img/fixation.png","null","","test","","","","","",""
"304","266459","pSARL_v2","pSARL_v2esllw4jq","6501f64fbe9a0a65bd5f7891","freq","img/green_2bandit_a2.png","70","70","test","1","70","70","4","",""
"null","266959","pSARL_v2","pSARL_v2esllw4jq","6501f64fbe9a0a65bd5f7891","freq_resp","img/green_2bandit_a.png","70","70","test","","","","4","",""
"null","267114","pSARL_v2","pSARL_v2esllw4jq","6501f64fbe9a0a65bd5f7891","fixation","img/fixation.png","null","","test","","","","","",""
"217","267343","pSARL_v2","pSARL_v2esllw4jq","6501f64fbe9a0a65bd5f7891","freq","img/green_2bandit_a2.png","70","70","test","1","71","71","4","",""
"null","267931","pSARL_v2","pSARL_v2esllw4jq","6501f64fbe9a0a65bd5f7891","freq_resp","img/green_2bandit_a.png","70","70","test","","","","4","",""
"null","268086","pSARL_v2","pSARL_v2esllw4jq","6501f64fbe9a0a65bd5f7891","fixation","img/fixation.png","null","","test","","","","","",""
"244","268335","pSARL_v2","pSARL_v2esllw4jq","6501f64fbe9a0a65bd5f7891","freq","img/green_2bandit_a2.png","70","70","test","1","72","72","4","",""
"null","268903","pSARL_v2","pSARL_v2esllw4jq","6501f64fbe9a0a65bd5f7891","freq_resp","img/green_2bandit_a.png","70","70","test","","","","4","",""
"null","269058","pSARL_v2","pSARL_v2esllw4jq","6501f64fbe9a0a65bd5f7891","fixation","img/fixation.png","null","","test","","","","","",""
"314","269375","pSARL_v2","pSARL_v2esllw4jq","6501f64fbe9a0a65bd5f7891","freq","img/green_2bandit_a2.png","70","70","test","1","73","73","4","",""
"null","269873","pSARL_v2","pSARL_v2esllw4jq","6501f64fbe9a0a65bd5f7891","freq_resp","img/green_2bandit_a.png","70","70","test","","","","4","",""
"null","270036","pSARL_v2","pSARL_v2esllw4jq","6501f64fbe9a0a65bd5f7891","fixation","img/fixation.png","null","","test","","","","","",""
"367","270407","pSARL_v2","pSARL_v2esllw4jq","6501f64fbe9a0a65bd5f7891","infreq","img/orange_2bandit_a2.png","70","68","test","0","74","74","4","",""
"null","270845","pSARL_v2","pSARL_v2esllw4jq","6501f64fbe9a0a65bd5f7891","infreq_resp","img/orange_2bandit_a.png","70","68","test","","","","4","",""
"null","271001","pSARL_v2","pSARL_v2esllw4jq","6501f64fbe9a0a65bd5f7891","fixation","img/fixation.png","null","","test","","","","","",""
"642","271653","pSARL_v2","pSARL_v2esllw4jq","6501f64fbe9a0a65bd5f7891","freq","img/green_2bandit_a2.png","70","70","test","1","75","75","4","",""
"null","271817","pSARL_v2","pSARL_v2esllw4jq","6501f64fbe9a0a65bd5f7891","freq_resp","img/green_2bandit_a.png","70","70","test","","","","4","",""
"null","271976","pSARL_v2","pSARL_v2esllw4jq","6501f64fbe9a0a65bd5f7891","fixation","img/fixation.png","null","","test","","","","","",""
"714","272703","pSARL_v2","pSARL_v2esllw4jq","6501f64fbe9a0a65bd5f7891","freq","img/green_2bandit_a2.png","70","70","test","1","76","76","4","",""
"null","272801","pSARL_v2","pSARL_v2esllw4jq","6501f64fbe9a0a65bd5f7891","freq_resp","img/green_2bandit_a.png","70","70","test","","","","4","",""
"null","272963","pSARL_v2","pSARL_v2esllw4jq","6501f64fbe9a0a65bd5f7891","fixation","img/fixation.png","null","","test","","","","","",""
"567","273535","pSARL_v2","pSARL_v2esllw4jq","6501f64fbe9a0a65bd5f7891","freq","img/green_2bandit_a2.png","70","70","test","1","77","77","4","",""
"null","273773","pSARL_v2","pSARL_v2esllw4jq","6501f64fbe9a0a65bd5f7891","freq_resp","img/green_2bandit_a.png","70","70","test","","","","4","",""
"null","273933","pSARL_v2","pSARL_v2esllw4jq","6501f64fbe9a0a65bd5f7891","fixation","img/fixation.png","null","","test","","","","","",""
"455","274391","pSARL_v2","pSARL_v2esllw4jq","6501f64fbe9a0a65bd5f7891","freq","img/green_2bandit_a2.png","70","70","test","1","78","78","4","",""
"null","274746","pSARL_v2","pSARL_v2esllw4jq","6501f64fbe9a0a65bd5f7891","freq_resp","img/green_2bandit_a.png","70","70","test","","","","4","",""
"null","274908","pSARL_v2","pSARL_v2esllw4jq","6501f64fbe9a0a65bd5f7891","fixation","img/fixation.png","null","","test","","","","","",""
"456","275369","pSARL_v2","pSARL_v2esllw4jq","6501f64fbe9a0a65bd5f7891","freq","img/green_2bandit_a2.png","70","70","test","1","79","79","4","",""
"null","275735","pSARL_v2","pSARL_v2esllw4jq","6501f64fbe9a0a65bd5f7891","freq_resp","img/green_2bandit_a.png","70","70","test","","","","4","",""
"null","275891","pSARL_v2","pSARL_v2esllw4jq","6501f64fbe9a0a65bd5f7891","fixation","img/fixation.png","null","","test","","","","","",""
"361","276263","pSARL_v2","pSARL_v2esllw4jq","6501f64fbe9a0a65bd5f7891","freq","img/green_2bandit_a2.png","70","70","test","1","80","80","4","",""
"null","276755","pSARL_v2","pSARL_v2esllw4jq","6501f64fbe9a0a65bd5f7891","freq_resp","img/green_2bandit_a.png","70","70","test","","","","4","",""
"null","276910","pSARL_v2","pSARL_v2esllw4jq","6501f64fbe9a0a65bd5f7891","fixation","img/fixation.png","null","","test","","","","","",""
"381","277302","pSARL_v2","pSARL_v2esllw4jq","6501f64fbe9a0a65bd5f7891","freq","img/green_2bandit_a2.png","70","70","test","1","81","81","4","",""
"null","277738","pSARL_v2","pSARL_v2esllw4jq","6501f64fbe9a0a65bd5f7891","freq_resp","img/green_2bandit_a.png","70","70","test","","","","4","",""
"null","277898","pSARL_v2","pSARL_v2esllw4jq","6501f64fbe9a0a65bd5f7891","fixation","img/fixation.png","null","","test","","","","","",""
"345","278247","pSARL_v2","pSARL_v2esllw4jq","6501f64fbe9a0a65bd5f7891","freq","img/green_2bandit_a2.png","70","70","test","1","82","82","4","",""
"null","278713","pSARL_v2","pSARL_v2esllw4jq","6501f64fbe9a0a65bd5f7891","freq_resp","img/green_2bandit_a.png","70","70","test","","","","4","",""
"null","278872","pSARL_v2","pSARL_v2esllw4jq","6501f64fbe9a0a65bd5f7891","fixation","img/fixation.png","null","","test","","","","","",""
"355","279235","pSARL_v2","pSARL_v2esllw4jq","6501f64fbe9a0a65bd5f7891","freq","img/green_2bandit_a2.png","70","70","test","1","83","83","4","",""
"null","279691","pSARL_v2","pSARL_v2esllw4jq","6501f64fbe9a0a65bd5f7891","freq_resp","img/green_2bandit_a.png","70","70","test","","","","4","",""
"null","279847","pSARL_v2","pSARL_v2esllw4jq","6501f64fbe9a0a65bd5f7891","fixation","img/fixation.png","null","","test","","","","","",""
"485","280343","pSARL_v2","pSARL_v2esllw4jq","6501f64fbe9a0a65bd5f7891","infreq","img/orange_2bandit_a2.png","68","68","test","1","84","84","4","",""
"null","280669","pSARL_v2","pSARL_v2esllw4jq","6501f64fbe9a0a65bd5f7891","infreq_resp","img/orange_2bandit_a.png","68","68","test","","","","4","",""
"null","280831","pSARL_v2","pSARL_v2esllw4jq","6501f64fbe9a0a65bd5f7891","fixation","img/fixation.png","null","","test","","","","","",""
"437","281280","pSARL_v2","pSARL_v2esllw4jq","6501f64fbe9a0a65bd5f7891","freq","img/green_2bandit_a2.png","70","70","test","1","85","85","4","",""
"null","281648","pSARL_v2","pSARL_v2esllw4jq","6501f64fbe9a0a65bd5f7891","freq_resp","img/green_2bandit_a.png","70","70","test","","","","4","",""
"null","281809","pSARL_v2","pSARL_v2esllw4jq","6501f64fbe9a0a65bd5f7891","fixation","img/fixation.png","null","","test","","","","","",""
"370","282184","pSARL_v2","pSARL_v2esllw4jq","6501f64fbe9a0a65bd5f7891","freq","img/green_2bandit_a2.png","70","70","test","1","86","86","4","",""
"null","282618","pSARL_v2","pSARL_v2esllw4jq","6501f64fbe9a0a65bd5f7891","freq_resp","img/green_2bandit_a.png","70","70","test","","","","4","",""
"null","282778","pSARL_v2","pSARL_v2esllw4jq","6501f64fbe9a0a65bd5f7891","fixation","img/fixation.png","null","","test","","","","","",""
"353","283136","pSARL_v2","pSARL_v2esllw4jq","6501f64fbe9a0a65bd5f7891","freq","img/green_2bandit_a2.png","70","70","test","1","87","87","4","",""
"null","283594","pSARL_v2","pSARL_v2esllw4jq","6501f64fbe9a0a65bd5f7891","freq_resp","img/green_2bandit_a.png","70","70","test","","","","4","",""
"null","283749","pSARL_v2","pSARL_v2esllw4jq","6501f64fbe9a0a65bd5f7891","fixation","img/fixation.png","null","","test","","","","","",""
"390","284143","pSARL_v2","pSARL_v2esllw4jq","6501f64fbe9a0a65bd5f7891","freq","img/green_2bandit_a2.png","70","70","test","1","88","88","4","",""
"null","284558","pSARL_v2","pSARL_v2esllw4jq","6501f64fbe9a0a65bd5f7891","freq_resp","img/green_2bandit_a.png","70","70","test","","","","4","",""
"null","284713","pSARL_v2","pSARL_v2esllw4jq","6501f64fbe9a0a65bd5f7891","fixation","img/fixation.png","null","","test","","","","","",""
"684","285402","pSARL_v2","pSARL_v2esllw4jq","6501f64fbe9a0a65bd5f7891","freq","img/green_2bandit_a2.png","70","70","test","1","89","89","4","",""
"null","285530","pSARL_v2","pSARL_v2esllw4jq","6501f64fbe9a0a65bd5f7891","freq_resp","img/green_2bandit_a.png","70","70","test","","","","4","",""
"null","285691","pSARL_v2","pSARL_v2esllw4jq","6501f64fbe9a0a65bd5f7891","fixation","img/fixation.png","null","","test","","","","","",""
"513","286214","pSARL_v2","pSARL_v2esllw4jq","6501f64fbe9a0a65bd5f7891","freq","img/green_2bandit_a2.png","70","70","test","1","90","90","4","",""
"null","286514","pSARL_v2","pSARL_v2esllw4jq","6501f64fbe9a0a65bd5f7891","freq_resp","img/green_2bandit_a.png","70","70","test","","","","4","",""
"null","286672","pSARL_v2","pSARL_v2esllw4jq","6501f64fbe9a0a65bd5f7891","fixation","img/fixation.png","null","","test","","","","","",""
"451","287133","pSARL_v2","pSARL_v2esllw4jq","6501f64fbe9a0a65bd5f7891","freq","img/green_2bandit_a2.png","70","70","test","1","91","91","4","",""
"null","287487","pSARL_v2","pSARL_v2esllw4jq","6501f64fbe9a0a65bd5f7891","freq_resp","img/green_2bandit_a.png","70","70","test","","","","4","",""
"null","287642","pSARL_v2","pSARL_v2esllw4jq","6501f64fbe9a0a65bd5f7891","fixation","img/fixation.png","null","","test","","","","","",""
"602","288255","pSARL_v2","pSARL_v2esllw4jq","6501f64fbe9a0a65bd5f7891","reward","img/slot.png","74","","test","","","","","",""
"null","289010","pSARL_v2","pSARL_v2esllw4jq","6501f64fbe9a0a65bd5f7891","points","<div class=""verylowPoints""> -3 </div>","null","na","test","","","","4","-3","3"
"537","289553","pSARL_v2","pSARL_v2esllw4jq","6501f64fbe9a0a65bd5f7891","freq","img/green_2bandit_a2.png","70","70","test","1","92","92","5","",""
"null","289820","pSARL_v2","pSARL_v2esllw4jq","6501f64fbe9a0a65bd5f7891","freq_resp","img/green_2bandit_a.png","70","70","test","","","","5","",""
"null","289980","pSARL_v2","pSARL_v2esllw4jq","6501f64fbe9a0a65bd5f7891","fixation","img/fixation.png","null","","test","","","","","",""
"424","290416","pSARL_v2","pSARL_v2esllw4jq","6501f64fbe9a0a65bd5f7891","freq","img/green_2bandit_a2.png","70","70","test","1","93","93","5","",""
"null","290805","pSARL_v2","pSARL_v2esllw4jq","6501f64fbe9a0a65bd5f7891","freq_resp","img/green_2bandit_a.png","70","70","test","","","","5","",""
"null","290967","pSARL_v2","pSARL_v2esllw4jq","6501f64fbe9a0a65bd5f7891","fixation","img/fixation.png","null","","test","","","","","",""
"364","291336","pSARL_v2","pSARL_v2esllw4jq","6501f64fbe9a0a65bd5f7891","freq","img/green_2bandit_a2.png","70","70","test","1","94","94","5","",""
"null","291777","pSARL_v2","pSARL_v2esllw4jq","6501f64fbe9a0a65bd5f7891","freq_resp","img/green_2bandit_a.png","70","70","test","","","","5","",""
"null","291937","pSARL_v2","pSARL_v2esllw4jq","6501f64fbe9a0a65bd5f7891","fixation","img/fixation.png","null","","test","","","","","",""
"474","292417","pSARL_v2","pSARL_v2esllw4jq","6501f64fbe9a0a65bd5f7891","infreq","img/orange_2bandit_a2.png","68","68","test","1","95","95","5","",""
"null","292747","pSARL_v2","pSARL_v2esllw4jq","6501f64fbe9a0a65bd5f7891","infreq_resp","img/orange_2bandit_a.png","68","68","test","","","","5","",""
"null","292902","pSARL_v2","pSARL_v2esllw4jq","6501f64fbe9a0a65bd5f7891","fixation","img/fixation.png","null","","test","","","","","",""
"405","293312","pSARL_v2","pSARL_v2esllw4jq","6501f64fbe9a0a65bd5f7891","freq","img/green_2bandit_a2.png","70","70","test","1","96","96","5","",""
"null","293712","pSARL_v2","pSARL_v2esllw4jq","6501f64fbe9a0a65bd5f7891","freq_resp","img/green_2bandit_a.png","70","70","test","","","","5","",""
"null","293866","pSARL_v2","pSARL_v2esllw4jq","6501f64fbe9a0a65bd5f7891","fixation","img/fixation.png","null","","test","","","","","",""
"360","294233","pSARL_v2","pSARL_v2esllw4jq","6501f64fbe9a0a65bd5f7891","infreq","img/orange_2bandit_a2.png","70","68","test","0","97","97","5","",""
"null","294682","pSARL_v2","pSARL_v2esllw4jq","6501f64fbe9a0a65bd5f7891","infreq_resp","img/orange_2bandit_a.png","70","68","test","","","","5","",""
"null","294838","pSARL_v2","pSARL_v2esllw4jq","6501f64fbe9a0a65bd5f7891","fixation","img/fixation.png","null","","test","","","","","",""
"574","295417","pSARL_v2","pSARL_v2esllw4jq","6501f64fbe9a0a65bd5f7891","freq","img/green_2bandit_a2.png","70","70","test","1","98","98","5","",""
"null","295650","pSARL_v2","pSARL_v2esllw4jq","6501f64fbe9a0a65bd5f7891","freq_resp","img/green_2bandit_a.png","70","70","test","","","","5","",""
"null","295805","pSARL_v2","pSARL_v2esllw4jq","6501f64fbe9a0a65bd5f7891","fixation","img/fixation.png","null","","test","","","","","",""
"501","296312","pSARL_v2","pSARL_v2esllw4jq","6501f64fbe9a0a65bd5f7891","freq","img/green_2bandit_a2.png","70","70","test","1","99","99","5","",""
"null","296615","pSARL_v2","pSARL_v2esllw4jq","6501f64fbe9a0a65bd5f7891","freq_resp","img/green_2bandit_a.png","70","70","test","","","","5","",""
"null","296774","pSARL_v2","pSARL_v2esllw4jq","6501f64fbe9a0a65bd5f7891","fixation","img/fixation.png","null","","test","","","","","",""
"396","297176","pSARL_v2","pSARL_v2esllw4jq","6501f64fbe9a0a65bd5f7891","freq","img/green_2bandit_a2.png","70","70","test","1","100","100","5","",""
"null","297589","pSARL_v2","pSARL_v2esllw4jq","6501f64fbe9a0a65bd5f7891","freq_resp","img/green_2bandit_a.png","70","70","test","","","","5","",""
"null","297744","pSARL_v2","pSARL_v2esllw4jq","6501f64fbe9a0a65bd5f7891","fixation","img/fixation.png","null","","test","","","","","",""
"339","298088","pSARL_v2","pSARL_v2esllw4jq","6501f64fbe9a0a65bd5f7891","freq","img/green_2bandit_a2.png","70","70","test","1","101","101","5","",""
"null","298560","pSARL_v2","pSARL_v2esllw4jq","6501f64fbe9a0a65bd5f7891","freq_resp","img/green_2bandit_a.png","70","70","test","","","","5","",""
"null","298717","pSARL_v2","pSARL_v2esllw4jq","6501f64fbe9a0a65bd5f7891","fixation","img/fixation.png","null","","test","","","","","",""
"440","299166","pSARL_v2","pSARL_v2esllw4jq","6501f64fbe9a0a65bd5f7891","freq","img/green_2bandit_a2.png","70","70","test","1","102","102","5","",""
"null","299535","pSARL_v2","pSARL_v2esllw4jq","6501f64fbe9a0a65bd5f7891","freq_resp","img/green_2bandit_a.png","70","70","test","","","","5","",""
"null","299689","pSARL_v2","pSARL_v2esllw4jq","6501f64fbe9a0a65bd5f7891","fixation","img/fixation.png","null","","test","","","","","",""
"386","300080","pSARL_v2","pSARL_v2esllw4jq","6501f64fbe9a0a65bd5f7891","freq","img/green_2bandit_a2.png","70","70","test","1","103","103","5","",""
"null","300506","pSARL_v2","pSARL_v2esllw4jq","6501f64fbe9a0a65bd5f7891","freq_resp","img/green_2bandit_a.png","70","70","test","","","","5","",""
"null","300661","pSARL_v2","pSARL_v2esllw4jq","6501f64fbe9a0a65bd5f7891","fixation","img/fixation.png","null","","test","","","","","",""
"366","301040","pSARL_v2","pSARL_v2esllw4jq","6501f64fbe9a0a65bd5f7891","freq","img/green_2bandit_a2.png","70","70","test","1","104","104","5","",""
"null","301480","pSARL_v2","pSARL_v2esllw4jq","6501f64fbe9a0a65bd5f7891","freq_resp","img/green_2bandit_a.png","70","70","test","","","","5","",""
"null","301642","pSARL_v2","pSARL_v2esllw4jq","6501f64fbe9a0a65bd5f7891","fixation","img/fixation.png","null","","test","","","","","",""
"353","302001","pSARL_v2","pSARL_v2esllw4jq","6501f64fbe9a0a65bd5f7891","freq","img/green_2bandit_a2.png","70","70","test","1","105","105","5","",""
"null","302460","pSARL_v2","pSARL_v2esllw4jq","6501f64fbe9a0a65bd5f7891","freq_resp","img/green_2bandit_a.png","70","70","test","","","","5","",""
"null","302615","pSARL_v2","pSARL_v2esllw4jq","6501f64fbe9a0a65bd5f7891","fixation","img/fixation.png","null","","test","","","","","",""
"317","302943","pSARL_v2","pSARL_v2esllw4jq","6501f64fbe9a0a65bd5f7891","freq","img/green_2bandit_a2.png","70","70","test","1","106","106","5","",""
"null","303434","pSARL_v2","pSARL_v2esllw4jq","6501f64fbe9a0a65bd5f7891","freq_resp","img/green_2bandit_a.png","70","70","test","","","","5","",""
"null","303595","pSARL_v2","pSARL_v2esllw4jq","6501f64fbe9a0a65bd5f7891","fixation","img/fixation.png","null","","test","","","","","",""
"352","303952","pSARL_v2","pSARL_v2esllw4jq","6501f64fbe9a0a65bd5f7891","freq","img/green_2bandit_a2.png","70","70","test","1","107","107","5","",""
"null","304412","pSARL_v2","pSARL_v2esllw4jq","6501f64fbe9a0a65bd5f7891","freq_resp","img/green_2bandit_a.png","70","70","test","","","","5","",""
"null","304567","pSARL_v2","pSARL_v2esllw4jq","6501f64fbe9a0a65bd5f7891","fixation","img/fixation.png","null","","test","","","","","",""
"382","304959","pSARL_v2","pSARL_v2esllw4jq","6501f64fbe9a0a65bd5f7891","freq","img/green_2bandit_a2.png","70","70","test","1","108","108","5","",""
"null","305382","pSARL_v2","pSARL_v2esllw4jq","6501f64fbe9a0a65bd5f7891","freq_resp","img/green_2bandit_a.png","70","70","test","","","","5","",""
"null","305536","pSARL_v2","pSARL_v2esllw4jq","6501f64fbe9a0a65bd5f7891","fixation","img/fixation.png","null","","test","","","","","",""
"366","305911","pSARL_v2","pSARL_v2esllw4jq","6501f64fbe9a0a65bd5f7891","freq","img/green_2bandit_a2.png","70","70","test","1","109","109","5","",""
"null","306355","pSARL_v2","pSARL_v2esllw4jq","6501f64fbe9a0a65bd5f7891","freq_resp","img/green_2bandit_a.png","70","70","test","","","","5","",""
"null","306514","pSARL_v2","pSARL_v2esllw4jq","6501f64fbe9a0a65bd5f7891","fixation","img/fixation.png","null","","test","","","","","",""
"362","306887","pSARL_v2","pSARL_v2esllw4jq","6501f64fbe9a0a65bd5f7891","freq","img/green_2bandit_a2.png","70","70","test","1","110","110","5","",""
"null","307337","pSARL_v2","pSARL_v2esllw4jq","6501f64fbe9a0a65bd5f7891","freq_resp","img/green_2bandit_a.png","70","70","test","","","","5","",""
"null","307498","pSARL_v2","pSARL_v2esllw4jq","6501f64fbe9a0a65bd5f7891","fixation","img/fixation.png","null","","test","","","","","",""
"370","307878","pSARL_v2","pSARL_v2esllw4jq","6501f64fbe9a0a65bd5f7891","freq","img/green_2bandit_a2.png","70","70","test","1","111","111","5","",""
"null","308320","pSARL_v2","pSARL_v2esllw4jq","6501f64fbe9a0a65bd5f7891","freq_resp","img/green_2bandit_a.png","70","70","test","","","","5","",""
"null","308480","pSARL_v2","pSARL_v2esllw4jq","6501f64fbe9a0a65bd5f7891","fixation","img/fixation.png","null","","test","","","","","",""
"461","308949","pSARL_v2","pSARL_v2esllw4jq","6501f64fbe9a0a65bd5f7891","infreq","img/orange_2bandit_a2.png","68","68","test","1","112","112","5","",""
"null","309299","pSARL_v2","pSARL_v2esllw4jq","6501f64fbe9a0a65bd5f7891","infreq_resp","img/orange_2bandit_a.png","68","68","test","","","","5","",""
"null","309462","pSARL_v2","pSARL_v2esllw4jq","6501f64fbe9a0a65bd5f7891","fixation","img/fixation.png","null","","test","","","","","",""
"597","310064","pSARL_v2","pSARL_v2esllw4jq","6501f64fbe9a0a65bd5f7891","freq","img/green_2bandit_a2.png","70","70","test","1","113","113","5","",""
"null","310278","pSARL_v2","pSARL_v2esllw4jq","6501f64fbe9a0a65bd5f7891","freq_resp","img/green_2bandit_a.png","70","70","test","","","","5","",""
"null","310440","pSARL_v2","pSARL_v2esllw4jq","6501f64fbe9a0a65bd5f7891","fixation","img/fixation.png","null","","test","","","","","",""
"388","310839","pSARL_v2","pSARL_v2esllw4jq","6501f64fbe9a0a65bd5f7891","freq","img/green_2bandit_a2.png","70","70","test","1","114","114","5","",""
"null","311257","pSARL_v2","pSARL_v2esllw4jq","6501f64fbe9a0a65bd5f7891","freq_resp","img/green_2bandit_a.png","70","70","test","","","","5","",""
"null","311412","pSARL_v2","pSARL_v2esllw4jq","6501f64fbe9a0a65bd5f7891","fixation","img/fixation.png","null","","test","","","","","",""
"736","312152","pSARL_v2","pSARL_v2esllw4jq","6501f64fbe9a0a65bd5f7891","reward","img/slot.png","74","","test","","","","","",""
"null","312910","pSARL_v2","pSARL_v2esllw4jq","6501f64fbe9a0a65bd5f7891","points","<div class=""veryhighPoints""> +1 </div>","null","na","test","","","","5","1","4"
"487","313406","pSARL_v2","pSARL_v2esllw4jq","6501f64fbe9a0a65bd5f7891","freq","img/green_2bandit_a2.png","70","70","test","1","115","115","6","",""
"null","313739","pSARL_v2","pSARL_v2esllw4jq","6501f64fbe9a0a65bd5f7891","freq_resp","img/green_2bandit_a.png","70","70","test","","","","6","",""
"null","313899","pSARL_v2","pSARL_v2esllw4jq","6501f64fbe9a0a65bd5f7891","fixation","img/fixation.png","null","","test","","","","","",""
"387","314290","pSARL_v2","pSARL_v2esllw4jq","6501f64fbe9a0a65bd5f7891","freq","img/green_2bandit_a2.png","70","70","test","1","116","116","6","",""
"null","314715","pSARL_v2","pSARL_v2esllw4jq","6501f64fbe9a0a65bd5f7891","freq_resp","img/green_2bandit_a.png","70","70","test","","","","6","",""
"null","314877","pSARL_v2","pSARL_v2esllw4jq","6501f64fbe9a0a65bd5f7891","fixation","img/fixation.png","null","","test","","","","","",""
"366","315248","pSARL_v2","pSARL_v2esllw4jq","6501f64fbe9a0a65bd5f7891","freq","img/green_2bandit_a2.png","70","70","test","1","117","117","6","",""
"null","315688","pSARL_v2","pSARL_v2esllw4jq","6501f64fbe9a0a65bd5f7891","freq_resp","img/green_2bandit_a.png","70","70","test","","","","6","",""
"null","315843","pSARL_v2","pSARL_v2esllw4jq","6501f64fbe9a0a65bd5f7891","fixation","img/fixation.png","null","","test","","","","","",""
"377","316225","pSARL_v2","pSARL_v2esllw4jq","6501f64fbe9a0a65bd5f7891","freq","img/green_2bandit_a2.png","70","70","test","1","118","118","6","",""
"null","316652","pSARL_v2","pSARL_v2esllw4jq","6501f64fbe9a0a65bd5f7891","freq_resp","img/green_2bandit_a.png","70","70","test","","","","6","",""
"null","316813","pSARL_v2","pSARL_v2esllw4jq","6501f64fbe9a0a65bd5f7891","fixation","img/fixation.png","null","","test","","","","","",""
"327","317148","pSARL_v2","pSARL_v2esllw4jq","6501f64fbe9a0a65bd5f7891","infreq","img/orange_2bandit_a2.png","70","68","test","0","119","119","6","",""
"null","317625","pSARL_v2","pSARL_v2esllw4jq","6501f64fbe9a0a65bd5f7891","infreq_resp","img/orange_2bandit_a.png","70","68","test","","","","6","",""
"null","317780","pSARL_v2","pSARL_v2esllw4jq","6501f64fbe9a0a65bd5f7891","fixation","img/fixation.png","null","","test","","","","","",""
"759","318545","pSARL_v2","pSARL_v2esllw4jq","6501f64fbe9a0a65bd5f7891","freq","img/green_2bandit_a2.png","70","70","test","1","120","120","6","",""
"null","318591","pSARL_v2","pSARL_v2esllw4jq","6501f64fbe9a0a65bd5f7891","freq_resp","img/green_2bandit_a.png","70","70","test","","","","6","",""
"null","318751","pSARL_v2","pSARL_v2esllw4jq","6501f64fbe9a0a65bd5f7891","fixation","img/fixation.png","null","","test","","","","","",""
"604","319367","pSARL_v2","pSARL_v2esllw4jq","6501f64fbe9a0a65bd5f7891","freq","img/green_2bandit_a2.png","70","70","test","1","121","121","6","",""
"null","319575","pSARL_v2","pSARL_v2esllw4jq","6501f64fbe9a0a65bd5f7891","freq_resp","img/green_2bandit_a.png","70","70","test","","","","6","",""
"null","319738","pSARL_v2","pSARL_v2esllw4jq","6501f64fbe9a0a65bd5f7891","fixation","img/fixation.png","null","","test","","","","","",""
"610","320360","pSARL_v2","pSARL_v2esllw4jq","6501f64fbe9a0a65bd5f7891","freq","img/green_2bandit_a2.png","70","70","test","1","122","122","6","",""
"null","320562","pSARL_v2","pSARL_v2esllw4jq","6501f64fbe9a0a65bd5f7891","freq_resp","img/green_2bandit_a.png","70","70","test","","","","6","",""
"null","320724","pSARL_v2","pSARL_v2esllw4jq","6501f64fbe9a0a65bd5f7891","fixation","img/fixation.png","null","","test","","","","","",""
"607","321342","pSARL_v2","pSARL_v2esllw4jq","6501f64fbe9a0a65bd5f7891","freq","img/green_2bandit_a2.png","70","70","test","1","123","123","6","",""
"null","321547","pSARL_v2","pSARL_v2esllw4jq","6501f64fbe9a0a65bd5f7891","freq_resp","img/green_2bandit_a.png","70","70","test","","","","6","",""
"null","321709","pSARL_v2","pSARL_v2esllw4jq","6501f64fbe9a0a65bd5f7891","fixation","img/fixation.png","null","","test","","","","","",""
"487","322200","pSARL_v2","pSARL_v2esllw4jq","6501f64fbe9a0a65bd5f7891","freq","img/green_2bandit_a2.png","70","70","test","1","124","124","6","",""
"null","322522","pSARL_v2","pSARL_v2esllw4jq","6501f64fbe9a0a65bd5f7891","freq_resp","img/green_2bandit_a.png","70","70","test","","","","6","",""
"null","322678","pSARL_v2","pSARL_v2esllw4jq","6501f64fbe9a0a65bd5f7891","fixation","img/fixation.png","null","","test","","","","","",""
"437","323127","pSARL_v2","pSARL_v2esllw4jq","6501f64fbe9a0a65bd5f7891","freq","img/green_2bandit_a2.png","70","70","test","1","125","125","6","",""
"null","323500","pSARL_v2","pSARL_v2esllw4jq","6501f64fbe9a0a65bd5f7891","freq_resp","img/green_2bandit_a.png","70","70","test","","","","6","",""
"null","323662","pSARL_v2","pSARL_v2esllw4jq","6501f64fbe9a0a65bd5f7891","fixation","img/fixation.png","null","","test","","","","","",""
"420","324088","pSARL_v2","pSARL_v2esllw4jq","6501f64fbe9a0a65bd5f7891","freq","img/green_2bandit_a2.png","70","70","test","1","126","126","6","",""
"null","324474","pSARL_v2","pSARL_v2esllw4jq","6501f64fbe9a0a65bd5f7891","freq_resp","img/green_2bandit_a.png","70","70","test","","","","6","",""
"null","324635","pSARL_v2","pSARL_v2esllw4jq","6501f64fbe9a0a65bd5f7891","fixation","img/fixation.png","null","","test","","","","","",""
"385","325025","pSARL_v2","pSARL_v2esllw4jq","6501f64fbe9a0a65bd5f7891","freq","img/green_2bandit_a2.png","70","70","test","1","127","127","6","",""
"null","325444","pSARL_v2","pSARL_v2esllw4jq","6501f64fbe9a0a65bd5f7891","freq_resp","img/green_2bandit_a.png","70","70","test","","","","6","",""
"null","325604","pSARL_v2","pSARL_v2esllw4jq","6501f64fbe9a0a65bd5f7891","fixation","img/fixation.png","null","","test","","","","","",""
"386","325996","pSARL_v2","pSARL_v2esllw4jq","6501f64fbe9a0a65bd5f7891","freq","img/green_2bandit_a2.png","70","70","test","1","128","128","6","",""
"null","326421","pSARL_v2","pSARL_v2esllw4jq","6501f64fbe9a0a65bd5f7891","freq_resp","img/green_2bandit_a.png","70","70","test","","","","6","",""
"null","326577","pSARL_v2","pSARL_v2esllw4jq","6501f64fbe9a0a65bd5f7891","fixation","img/fixation.png","null","","test","","","","","",""
"357","326944","pSARL_v2","pSARL_v2esllw4jq","6501f64fbe9a0a65bd5f7891","freq","img/green_2bandit_a2.png","70","70","test","1","129","129","6","",""
"null","327392","pSARL_v2","pSARL_v2esllw4jq","6501f64fbe9a0a65bd5f7891","freq_resp","img/green_2bandit_a.png","70","70","test","","","","6","",""
"null","327553","pSARL_v2","pSARL_v2esllw4jq","6501f64fbe9a0a65bd5f7891","fixation","img/fixation.png","null","","test","","","","","",""
"419","327980","pSARL_v2","pSARL_v2esllw4jq","6501f64fbe9a0a65bd5f7891","freq","img/green_2bandit_a2.png","70","70","test","1","130","130","6","",""
"null","328370","pSARL_v2","pSARL_v2esllw4jq","6501f64fbe9a0a65bd5f7891","freq_resp","img/green_2bandit_a.png","70","70","test","","","","6","",""
"null","328530","pSARL_v2","pSARL_v2esllw4jq","6501f64fbe9a0a65bd5f7891","fixation","img/fixation.png","null","","test","","","","","",""
"522","329057","pSARL_v2","pSARL_v2esllw4jq","6501f64fbe9a0a65bd5f7891","infreq","img/orange_2bandit_a2.png","68","68","test","1","131","131","6","",""
"null","329339","pSARL_v2","pSARL_v2esllw4jq","6501f64fbe9a0a65bd5f7891","infreq_resp","img/orange_2bandit_a.png","68","68","test","","","","6","",""
"null","329500","pSARL_v2","pSARL_v2esllw4jq","6501f64fbe9a0a65bd5f7891","fixation","img/fixation.png","null","","test","","","","","",""
"384","329890","pSARL_v2","pSARL_v2esllw4jq","6501f64fbe9a0a65bd5f7891","freq","img/green_2bandit_a2.png","70","70","test","1","132","132","6","",""
"null","330317","pSARL_v2","pSARL_v2esllw4jq","6501f64fbe9a0a65bd5f7891","freq_resp","img/green_2bandit_a.png","70","70","test","","","","6","",""
"null","330476","pSARL_v2","pSARL_v2esllw4jq","6501f64fbe9a0a65bd5f7891","fixation","img/fixation.png","null","","test","","","","","",""
"383","330869","pSARL_v2","pSARL_v2esllw4jq","6501f64fbe9a0a65bd5f7891","freq","img/green_2bandit_a2.png","70","70","test","1","133","133","6","",""
"null","331290","pSARL_v2","pSARL_v2esllw4jq","6501f64fbe9a0a65bd5f7891","freq_resp","img/green_2bandit_a.png","70","70","test","","","","6","",""
"null","331444","pSARL_v2","pSARL_v2esllw4jq","6501f64fbe9a0a65bd5f7891","fixation","img/fixation.png","null","","test","","","","","",""
"312","331760","pSARL_v2","pSARL_v2esllw4jq","6501f64fbe9a0a65bd5f7891","freq","img/green_2bandit_a2.png","70","70","test","1","134","134","6","",""
"null","332259","pSARL_v2","pSARL_v2esllw4jq","6501f64fbe9a0a65bd5f7891","freq_resp","img/green_2bandit_a.png","70","70","test","","","","6","",""
"null","332414","pSARL_v2","pSARL_v2esllw4jq","6501f64fbe9a0a65bd5f7891","fixation","img/fixation.png","null","","test","","","","","",""
"365","332792","pSARL_v2","pSARL_v2esllw4jq","6501f64fbe9a0a65bd5f7891","freq","img/green_2bandit_a2.png","70","70","test","1","135","135","6","",""
"null","333301","pSARL_v2","pSARL_v2esllw4jq","6501f64fbe9a0a65bd5f7891","freq_resp","img/green_2bandit_a.png","70","70","test","","","","6","",""
"null","333459","pSARL_v2","pSARL_v2esllw4jq","6501f64fbe9a0a65bd5f7891","fixation","img/fixation.png","null","","test","","","","","",""
"371","333837","pSARL_v2","pSARL_v2esllw4jq","6501f64fbe9a0a65bd5f7891","freq","img/green_2bandit_a2.png","70","70","test","1","136","136","6","",""
"null","334271","pSARL_v2","pSARL_v2esllw4jq","6501f64fbe9a0a65bd5f7891","freq_resp","img/green_2bandit_a.png","70","70","test","","","","6","",""
"null","334432","pSARL_v2","pSARL_v2esllw4jq","6501f64fbe9a0a65bd5f7891","fixation","img/fixation.png","null","","test","","","","","",""
"725","335167","pSARL_v2","pSARL_v2esllw4jq","6501f64fbe9a0a65bd5f7891","reward","img/slot.png","74","","test","","","","","",""
"null","335922","pSARL_v2","pSARL_v2esllw4jq","6501f64fbe9a0a65bd5f7891","points","<div class=""verylowPoints""> -7 </div>","null","na","test","","","","6","-7","5"
"474","336400","pSARL_v2","pSARL_v2esllw4jq","6501f64fbe9a0a65bd5f7891","freq","img/green_2bandit_a2.png","70","70","test","1","137","137","7","",""
"null","336737","pSARL_v2","pSARL_v2esllw4jq","6501f64fbe9a0a65bd5f7891","freq_resp","img/green_2bandit_a.png","70","70","test","","","","7","",""
"null","336895","pSARL_v2","pSARL_v2esllw4jq","6501f64fbe9a0a65bd5f7891","fixation","img/fixation.png","null","","test","","","","","",""
"292","337193","pSARL_v2","pSARL_v2esllw4jq","6501f64fbe9a0a65bd5f7891","freq","img/green_2bandit_a2.png","70","70","test","1","138","138","7","",""
"null","337712","pSARL_v2","pSARL_v2esllw4jq","6501f64fbe9a0a65bd5f7891","freq_resp","img/green_2bandit_a.png","70","70","test","","","","7","",""
"null","337874","pSARL_v2","pSARL_v2esllw4jq","6501f64fbe9a0a65bd5f7891","fixation","img/fixation.png","null","","test","","","","","",""
"323","338208","pSARL_v2","pSARL_v2esllw4jq","6501f64fbe9a0a65bd5f7891","freq","img/green_2bandit_a2.png","70","70","test","1","139","139","7","",""
"null","338697","pSARL_v2","pSARL_v2esllw4jq","6501f64fbe9a0a65bd5f7891","freq_resp","img/green_2bandit_a.png","70","70","test","","","","7","",""
"null","338856","pSARL_v2","pSARL_v2esllw4jq","6501f64fbe9a0a65bd5f7891","fixation","img/fixation.png","null","","test","","","","","",""
"381","339246","pSARL_v2","pSARL_v2esllw4jq","6501f64fbe9a0a65bd5f7891","freq","img/green_2bandit_a2.png","70","70","test","1","140","140","7","",""
"null","339675","pSARL_v2","pSARL_v2esllw4jq","6501f64fbe9a0a65bd5f7891","freq_resp","img/green_2bandit_a.png","70","70","test","","","","7","",""
"null","339836","pSARL_v2","pSARL_v2esllw4jq","6501f64fbe9a0a65bd5f7891","fixation","img/fixation.png","null","","test","","","","","",""
"369","340215","pSARL_v2","pSARL_v2esllw4jq","6501f64fbe9a0a65bd5f7891","freq","img/green_2bandit_a2.png","70","70","test","1","141","141","7","",""
"null","340658","pSARL_v2","pSARL_v2esllw4jq","6501f64fbe9a0a65bd5f7891","freq_resp","img/green_2bandit_a.png","70","70","test","","","","7","",""
"null","340814","pSARL_v2","pSARL_v2esllw4jq","6501f64fbe9a0a65bd5f7891","fixation","img/fixation.png","null","","test","","","","","",""
"336","341153","pSARL_v2","pSARL_v2esllw4jq","6501f64fbe9a0a65bd5f7891","freq","img/green_2bandit_a2.png","70","70","test","1","142","142","7","",""
"null","341622","pSARL_v2","pSARL_v2esllw4jq","6501f64fbe9a0a65bd5f7891","freq_resp","img/green_2bandit_a.png","70","70","test","","","","7","",""
"null","341776","pSARL_v2","pSARL_v2esllw4jq","6501f64fbe9a0a65bd5f7891","fixation","img/fixation.png","null","","test","","","","","",""
"356","342137","pSARL_v2","pSARL_v2esllw4jq","6501f64fbe9a0a65bd5f7891","freq","img/green_2bandit_a2.png","70","70","test","1","143","143","7","",""
"null","342585","pSARL_v2","pSARL_v2esllw4jq","6501f64fbe9a0a65bd5f7891","freq_resp","img/green_2bandit_a.png","70","70","test","","","","7","",""
"null","342745","pSARL_v2","pSARL_v2esllw4jq","6501f64fbe9a0a65bd5f7891","fixation","img/fixation.png","null","","test","","","","","",""
"284","343041","pSARL_v2","pSARL_v2esllw4jq","6501f64fbe9a0a65bd5f7891","infreq","img/orange_2bandit_a2.png","70","68","test","0","144","144","7","",""
"null","343565","pSARL_v2","pSARL_v2esllw4jq","6501f64fbe9a0a65bd5f7891","infreq_resp","img/orange_2bandit_a.png","70","68","test","","","","7","",""
"null","343726","pSARL_v2","pSARL_v2esllw4jq","6501f64fbe9a0a65bd5f7891","fixation","img/fixation.png","null","","test","","","","","",""
"null","344542","pSARL_v2","pSARL_v2esllw4jq","6501f64fbe9a0a65bd5f7891","infreq","img/orange_2bandit_a2.png","null","68","test","0","145","145","7","",""
"null","344698","pSARL_v2","pSARL_v2esllw4jq","6501f64fbe9a0a65bd5f7891","fixation","img/fixation.png","null","","test","","","","","",""
"651","345360","pSARL_v2","pSARL_v2esllw4jq","6501f64fbe9a0a65bd5f7891","freq","img/green_2bandit_a2.png","70","70","test","1","146","146","7","",""
"null","345514","pSARL_v2","pSARL_v2esllw4jq","6501f64fbe9a0a65bd5f7891","freq_resp","img/green_2bandit_a.png","70","70","test","","","","7","",""
"null","345676","pSARL_v2","pSARL_v2esllw4jq","6501f64fbe9a0a65bd5f7891","fixation","img/fixation.png","null","","test","","","","","",""
"496","346177","pSARL_v2","pSARL_v2esllw4jq","6501f64fbe9a0a65bd5f7891","freq","img/green_2bandit_a2.png","70","70","test","1","147","147","7","",""
"null","346486","pSARL_v2","pSARL_v2esllw4jq","6501f64fbe9a0a65bd5f7891","freq_resp","img/green_2bandit_a.png","70","70","test","","","","7","",""
"null","346645","pSARL_v2","pSARL_v2esllw4jq","6501f64fbe9a0a65bd5f7891","fixation","img/fixation.png","null","","test","","","","","",""
"407","347056","pSARL_v2","pSARL_v2esllw4jq","6501f64fbe9a0a65bd5f7891","freq","img/green_2bandit_a2.png","70","70","test","1","148","148","7","",""
"null","347455","pSARL_v2","pSARL_v2esllw4jq","6501f64fbe9a0a65bd5f7891","freq_resp","img/green_2bandit_a.png","70","70","test","","","","7","",""
"null","347615","pSARL_v2","pSARL_v2esllw4jq","6501f64fbe9a0a65bd5f7891","fixation","img/fixation.png","null","","test","","","","","",""
"349","347971","pSARL_v2","pSARL_v2esllw4jq","6501f64fbe9a0a65bd5f7891","freq","img/green_2bandit_a2.png","70","70","test","1","149","149","7","",""
"null","348432","pSARL_v2","pSARL_v2esllw4jq","6501f64fbe9a0a65bd5f7891","freq_resp","img/green_2bandit_a.png","70","70","test","","","","7","",""
"null","348592","pSARL_v2","pSARL_v2esllw4jq","6501f64fbe9a0a65bd5f7891","fixation","img/fixation.png","null","","test","","","","","",""
"411","349010","pSARL_v2","pSARL_v2esllw4jq","6501f64fbe9a0a65bd5f7891","freq","img/green_2bandit_a2.png","70","70","test","1","150","150","7","",""
"null","349403","pSARL_v2","pSARL_v2esllw4jq","6501f64fbe9a0a65bd5f7891","freq_resp","img/green_2bandit_a.png","70","70","test","","","","7","",""
"null","349559","pSARL_v2","pSARL_v2esllw4jq","6501f64fbe9a0a65bd5f7891","fixation","img/fixation.png","null","","test","","","","","",""
"343","349913","pSARL_v2","pSARL_v2esllw4jq","6501f64fbe9a0a65bd5f7891","freq","img/green_2bandit_a2.png","70","70","test","1","151","151","7","",""
"null","350381","pSARL_v2","pSARL_v2esllw4jq","6501f64fbe9a0a65bd5f7891","freq_resp","img/green_2bandit_a.png","70","70","test","","","","7","",""
"null","350536","pSARL_v2","pSARL_v2esllw4jq","6501f64fbe9a0a65bd5f7891","fixation","img/fixation.png","null","","test","","","","","",""
"349","350896","pSARL_v2","pSARL_v2esllw4jq","6501f64fbe9a0a65bd5f7891","freq","img/green_2bandit_a2.png","70","70","test","1","152","152","7","",""
"null","351352","pSARL_v2","pSARL_v2esllw4jq","6501f64fbe9a0a65bd5f7891","freq_resp","img/green_2bandit_a.png","70","70","test","","","","7","",""
"null","351512","pSARL_v2","pSARL_v2esllw4jq","6501f64fbe9a0a65bd5f7891","fixation","img/fixation.png","null","","test","","","","","",""
"165","351688","pSARL_v2","pSARL_v2esllw4jq","6501f64fbe9a0a65bd5f7891","freq","img/green_2bandit_a2.png","70","70","test","1","153","153","7","",""
"null","352335","pSARL_v2","pSARL_v2esllw4jq","6501f64fbe9a0a65bd5f7891","freq_resp","img/green_2bandit_a.png","70","70","test","","","","7","",""
"null","352496","pSARL_v2","pSARL_v2esllw4jq","6501f64fbe9a0a65bd5f7891","fixation","img/fixation.png","null","","test","","","","","",""
"324","352826","pSARL_v2","pSARL_v2esllw4jq","6501f64fbe9a0a65bd5f7891","freq","img/green_2bandit_a2.png","70","70","test","1","154","154","7","",""
"null","353306","pSARL_v2","pSARL_v2esllw4jq","6501f64fbe9a0a65bd5f7891","freq_resp","img/green_2bandit_a.png","70","70","test","","","","7","",""
"null","353466","pSARL_v2","pSARL_v2esllw4jq","6501f64fbe9a0a65bd5f7891","fixation","img/fixation.png","null","","test","","","","","",""
"130","353603","pSARL_v2","pSARL_v2esllw4jq","6501f64fbe9a0a65bd5f7891","freq","img/green_2bandit_a2.png","70","70","test","1","155","155","7","",""
"null","354283","pSARL_v2","pSARL_v2esllw4jq","6501f64fbe9a0a65bd5f7891","freq_resp","img/green_2bandit_a.png","70","70","test","","","","7","",""
"null","354441","pSARL_v2","pSARL_v2esllw4jq","6501f64fbe9a0a65bd5f7891","fixation","img/fixation.png","null","","test","","","","","",""
"164","354616","pSARL_v2","pSARL_v2esllw4jq","6501f64fbe9a0a65bd5f7891","freq","img/green_2bandit_a2.png","70","70","test","1","156","156","7","",""
"null","355263","pSARL_v2","pSARL_v2esllw4jq","6501f64fbe9a0a65bd5f7891","freq_resp","img/green_2bandit_a.png","70","70","test","","","","7","",""
"null","355419","pSARL_v2","pSARL_v2esllw4jq","6501f64fbe9a0a65bd5f7891","fixation","img/fixation.png","null","","test","","","","","",""
"194","355623","pSARL_v2","pSARL_v2esllw4jq","6501f64fbe9a0a65bd5f7891","freq","img/green_2bandit_a2.png","70","70","test","1","157","157","7","",""
"null","356239","pSARL_v2","pSARL_v2esllw4jq","6501f64fbe9a0a65bd5f7891","freq_resp","img/green_2bandit_a.png","70","70","test","","","","7","",""
"null","356400","pSARL_v2","pSARL_v2esllw4jq","6501f64fbe9a0a65bd5f7891","fixation","img/fixation.png","null","","test","","","","","",""
"365","356775","pSARL_v2","pSARL_v2esllw4jq","6501f64fbe9a0a65bd5f7891","freq","img/green_2bandit_a2.png","70","70","test","1","158","158","7","",""
"null","357268","pSARL_v2","pSARL_v2esllw4jq","6501f64fbe9a0a65bd5f7891","freq_resp","img/green_2bandit_a.png","70","70","test","","","","7","",""
"null","357433","pSARL_v2","pSARL_v2esllw4jq","6501f64fbe9a0a65bd5f7891","fixation","img/fixation.png","null","","test","","","","","",""
"388","357833","pSARL_v2","pSARL_v2esllw4jq","6501f64fbe9a0a65bd5f7891","freq","img/green_2bandit_a2.png","70","70","test","1","159","159","7","",""
"null","358251","pSARL_v2","pSARL_v2esllw4jq","6501f64fbe9a0a65bd5f7891","freq_resp","img/green_2bandit_a.png","70","70","test","","","","7","",""
"null","358412","pSARL_v2","pSARL_v2esllw4jq","6501f64fbe9a0a65bd5f7891","fixation","img/fixation.png","null","","test","","","","","",""
"337","358759","pSARL_v2","pSARL_v2esllw4jq","6501f64fbe9a0a65bd5f7891","freq","img/green_2bandit_a2.png","70","70","test","1","160","160","7","",""
"null","359285","pSARL_v2","pSARL_v2esllw4jq","6501f64fbe9a0a65bd5f7891","freq_resp","img/green_2bandit_a.png","70","70","test","","","","7","",""
"null","359448","pSARL_v2","pSARL_v2esllw4jq","6501f64fbe9a0a65bd5f7891","fixation","img/fixation.png","null","","test","","","","","",""
"565","360025","pSARL_v2","pSARL_v2esllw4jq","6501f64fbe9a0a65bd5f7891","reward","img/slot.png","74","","test","","","","","",""
"null","360786","pSARL_v2","pSARL_v2esllw4jq","6501f64fbe9a0a65bd5f7891","points","<div class=""verylowPoints""> -6 </div>","null","na","test","","","","7","-6","6"
"563","361361","pSARL_v2","pSARL_v2esllw4jq","6501f64fbe9a0a65bd5f7891","freq","img/green_2bandit_a2.png","70","70","test","1","161","161","8","",""
"null","361602","pSARL_v2","pSARL_v2esllw4jq","6501f64fbe9a0a65bd5f7891","freq_resp","img/green_2bandit_a.png","70","70","test","","","","8","",""
"null","361757","pSARL_v2","pSARL_v2esllw4jq","6501f64fbe9a0a65bd5f7891","fixation","img/fixation.png","null","","test","","","","","",""
"335","362096","pSARL_v2","pSARL_v2esllw4jq","6501f64fbe9a0a65bd5f7891","freq","img/green_2bandit_a2.png","70","70","test","1","162","162","8","",""
"null","362572","pSARL_v2","pSARL_v2esllw4jq","6501f64fbe9a0a65bd5f7891","freq_resp","img/green_2bandit_a.png","70","70","test","","","","8","",""
"null","362734","pSARL_v2","pSARL_v2esllw4jq","6501f64fbe9a0a65bd5f7891","fixation","img/fixation.png","null","","test","","","","","",""
"543","363288","pSARL_v2","pSARL_v2esllw4jq","6501f64fbe9a0a65bd5f7891","freq","img/green_2bandit_a2.png","70","70","test","1","163","163","8","",""
"null","363550","pSARL_v2","pSARL_v2esllw4jq","6501f64fbe9a0a65bd5f7891","freq_resp","img/green_2bandit_a.png","70","70","test","","","","8","",""
"null","363705","pSARL_v2","pSARL_v2esllw4jq","6501f64fbe9a0a65bd5f7891","fixation","img/fixation.png","null","","test","","","","","",""
"371","364081","pSARL_v2","pSARL_v2esllw4jq","6501f64fbe9a0a65bd5f7891","freq","img/green_2bandit_a2.png","70","70","test","1","164","164","8","",""
"null","364520","pSARL_v2","pSARL_v2esllw4jq","6501f64fbe9a0a65bd5f7891","freq_resp","img/green_2bandit_a.png","70","70","test","","","","8","",""
"null","364681","pSARL_v2","pSARL_v2esllw4jq","6501f64fbe9a0a65bd5f7891","fixation","img/fixation.png","null","","test","","","","","",""
"363","365049","pSARL_v2","pSARL_v2esllw4jq","6501f64fbe9a0a65bd5f7891","freq","img/green_2bandit_a2.png","70","70","test","1","165","165","8","",""
"null","365494","pSARL_v2","pSARL_v2esllw4jq","6501f64fbe9a0a65bd5f7891","freq_resp","img/green_2bandit_a.png","70","70","test","","","","8","",""
"null","365656","pSARL_v2","pSARL_v2esllw4jq","6501f64fbe9a0a65bd5f7891","fixation","img/fixation.png","null","","test","","","","","",""
"308","365976","pSARL_v2","pSARL_v2esllw4jq","6501f64fbe9a0a65bd5f7891","infreq","img/orange_2bandit_a2.png","70","68","test","0","166","166","8","",""
"null","366474","pSARL_v2","pSARL_v2esllw4jq","6501f64fbe9a0a65bd5f7891","infreq_resp","img/orange_2bandit_a.png","70","68","test","","","","8","",""
"null","366628","pSARL_v2","pSARL_v2esllw4jq","6501f64fbe9a0a65bd5f7891","fixation","img/fixation.png","null","","test","","","","","",""
"625","367264","pSARL_v2","pSARL_v2esllw4jq","6501f64fbe9a0a65bd5f7891","freq","img/green_2bandit_a2.png","70","70","test","1","167","167","8","",""
"null","367451","pSARL_v2","pSARL_v2esllw4jq","6501f64fbe9a0a65bd5f7891","freq_resp","img/green_2bandit_a.png","70","70","test","","","","8","",""
"null","367613","pSARL_v2","pSARL_v2esllw4jq","6501f64fbe9a0a65bd5f7891","fixation","img/fixation.png","null","","test","","","","","",""
"617","368239","pSARL_v2","pSARL_v2esllw4jq","6501f64fbe9a0a65bd5f7891","freq","img/green_2bandit_a2.png","70","70","test","1","168","168","8","",""
"null","368448","pSARL_v2","pSARL_v2esllw4jq","6501f64fbe9a0a65bd5f7891","freq_resp","img/green_2bandit_a.png","70","70","test","","","","8","",""
"null","368603","pSARL_v2","pSARL_v2esllw4jq","6501f64fbe9a0a65bd5f7891","fixation","img/fixation.png","null","","test","","","","","",""
"659","369266","pSARL_v2","pSARL_v2esllw4jq","6501f64fbe9a0a65bd5f7891","freq","img/green_2bandit_a2.png","70","70","test","1","169","169","8","",""
"null","369418","pSARL_v2","pSARL_v2esllw4jq","6501f64fbe9a0a65bd5f7891","freq_resp","img/green_2bandit_a.png","70","70","test","","","","8","",""
"null","369574","pSARL_v2","pSARL_v2esllw4jq","6501f64fbe9a0a65bd5f7891","fixation","img/fixation.png","null","","test","","","","","",""
"344","369929","pSARL_v2","pSARL_v2esllw4jq","6501f64fbe9a0a65bd5f7891","freq","img/green_2bandit_a2.png","70","70","test","1","170","170","8","",""
"null","370390","pSARL_v2","pSARL_v2esllw4jq","6501f64fbe9a0a65bd5f7891","freq_resp","img/green_2bandit_a.png","70","70","test","","","","8","",""
"null","370546","pSARL_v2","pSARL_v2esllw4jq","6501f64fbe9a0a65bd5f7891","fixation","img/fixation.png","null","","test","","","","","",""
"404","370961","pSARL_v2","pSARL_v2esllw4jq","6501f64fbe9a0a65bd5f7891","freq","img/green_2bandit_a2.png","70","70","test","1","171","171","8","",""
"null","371368","pSARL_v2","pSARL_v2esllw4jq","6501f64fbe9a0a65bd5f7891","freq_resp","img/green_2bandit_a.png","70","70","test","","","","8","",""
"null","371523","pSARL_v2","pSARL_v2esllw4jq","6501f64fbe9a0a65bd5f7891","fixation","img/fixation.png","null","","test","","","","","",""
"529","372057","pSARL_v2","pSARL_v2esllw4jq","6501f64fbe9a0a65bd5f7891","infreq","img/orange_2bandit_a2.png","68","68","test","1","172","172","8","",""
"null","372333","pSARL_v2","pSARL_v2esllw4jq","6501f64fbe9a0a65bd5f7891","infreq_resp","img/orange_2bandit_a.png","68","68","test","","","","8","",""
"null","372493","pSARL_v2","pSARL_v2esllw4jq","6501f64fbe9a0a65bd5f7891","fixation","img/fixation.png","null","","test","","","","","",""
"401","372904","pSARL_v2","pSARL_v2esllw4jq","6501f64fbe9a0a65bd5f7891","freq","img/green_2bandit_a2.png","70","70","test","1","173","173","8","",""
"null","373308","pSARL_v2","pSARL_v2esllw4jq","6501f64fbe9a0a65bd5f7891","freq_resp","img/green_2bandit_a.png","70","70","test","","","","8","",""
"null","373467","pSARL_v2","pSARL_v2esllw4jq","6501f64fbe9a0a65bd5f7891","fixation","img/fixation.png","null","","test","","","","","",""
"313","373786","pSARL_v2","pSARL_v2esllw4jq","6501f64fbe9a0a65bd5f7891","freq","img/green_2bandit_a2.png","70","70","test","1","174","174","8","",""
"null","374283","pSARL_v2","pSARL_v2esllw4jq","6501f64fbe9a0a65bd5f7891","freq_resp","img/green_2bandit_a.png","70","70","test","","","","8","",""
"null","374445","pSARL_v2","pSARL_v2esllw4jq","6501f64fbe9a0a65bd5f7891","fixation","img/fixation.png","null","","test","","","","","",""
"310","374761","pSARL_v2","pSARL_v2esllw4jq","6501f64fbe9a0a65bd5f7891","freq","img/green_2bandit_a2.png","70","70","test","1","175","175","8","",""
"null","375263","pSARL_v2","pSARL_v2esllw4jq","6501f64fbe9a0a65bd5f7891","freq_resp","img/green_2bandit_a.png","70","70","test","","","","8","",""
"null","375418","pSARL_v2","pSARL_v2esllw4jq","6501f64fbe9a0a65bd5f7891","fixation","img/fixation.png","null","","test","","","","","",""
"338","375761","pSARL_v2","pSARL_v2esllw4jq","6501f64fbe9a0a65bd5f7891","freq","img/green_2bandit_a2.png","70","70","test","1","176","176","8","",""
"null","376228","pSARL_v2","pSARL_v2esllw4jq","6501f64fbe9a0a65bd5f7891","freq_resp","img/green_2bandit_a.png","70","70","test","","","","8","",""
"null","376388","pSARL_v2","pSARL_v2esllw4jq","6501f64fbe9a0a65bd5f7891","fixation","img/fixation.png","null","","test","","","","","",""
"351","376745","pSARL_v2","pSARL_v2esllw4jq","6501f64fbe9a0a65bd5f7891","freq","img/green_2bandit_a2.png","70","70","test","1","177","177","8","",""
"null","377206","pSARL_v2","pSARL_v2esllw4jq","6501f64fbe9a0a65bd5f7891","freq_resp","img/green_2bandit_a.png","70","70","test","","","","8","",""
"null","377361","pSARL_v2","pSARL_v2esllw4jq","6501f64fbe9a0a65bd5f7891","fixation","img/fixation.png","null","","test","","","","","",""
"332","377699","pSARL_v2","pSARL_v2esllw4jq","6501f64fbe9a0a65bd5f7891","freq","img/green_2bandit_a2.png","70","70","test","1","178","178","8","",""
"null","378172","pSARL_v2","pSARL_v2esllw4jq","6501f64fbe9a0a65bd5f7891","freq_resp","img/green_2bandit_a.png","70","70","test","","","","8","",""
"null","378332","pSARL_v2","pSARL_v2esllw4jq","6501f64fbe9a0a65bd5f7891","fixation","img/fixation.png","null","","test","","","","","",""
"304","378641","pSARL_v2","pSARL_v2esllw4jq","6501f64fbe9a0a65bd5f7891","freq","img/green_2bandit_a2.png","70","70","test","1","179","179","8","",""
"null","379144","pSARL_v2","pSARL_v2esllw4jq","6501f64fbe9a0a65bd5f7891","freq_resp","img/green_2bandit_a.png","70","70","test","","","","8","",""
"null","379303","pSARL_v2","pSARL_v2esllw4jq","6501f64fbe9a0a65bd5f7891","fixation","img/fixation.png","null","","test","","","","","",""
"309","379618","pSARL_v2","pSARL_v2esllw4jq","6501f64fbe9a0a65bd5f7891","freq","img/green_2bandit_a2.png","70","70","test","1","180","180","8","",""
"null","380119","pSARL_v2","pSARL_v2esllw4jq","6501f64fbe9a0a65bd5f7891","freq_resp","img/green_2bandit_a.png","70","70","test","","","","8","",""
"null","380281","pSARL_v2","pSARL_v2esllw4jq","6501f64fbe9a0a65bd5f7891","fixation","img/fixation.png","null","","test","","","","","",""
"354","380642","pSARL_v2","pSARL_v2esllw4jq","6501f64fbe9a0a65bd5f7891","freq","img/green_2bandit_a2.png","70","70","test","1","181","181","8","",""
"null","381093","pSARL_v2","pSARL_v2esllw4jq","6501f64fbe9a0a65bd5f7891","freq_resp","img/green_2bandit_a.png","70","70","test","","","","8","",""
"null","381250","pSARL_v2","pSARL_v2esllw4jq","6501f64fbe9a0a65bd5f7891","fixation","img/fixation.png","null","","test","","","","","",""
"331","381592","pSARL_v2","pSARL_v2esllw4jq","6501f64fbe9a0a65bd5f7891","freq","img/green_2bandit_a2.png","70","70","test","1","182","182","8","",""
"null","382066","pSARL_v2","pSARL_v2esllw4jq","6501f64fbe9a0a65bd5f7891","freq_resp","img/green_2bandit_a.png","70","70","test","","","","8","",""
"null","382221","pSARL_v2","pSARL_v2esllw4jq","6501f64fbe9a0a65bd5f7891","fixation","img/fixation.png","null","","test","","","","","",""
"337","382569","pSARL_v2","pSARL_v2esllw4jq","6501f64fbe9a0a65bd5f7891","freq","img/green_2bandit_a2.png","70","70","test","1","183","183","8","",""
"null","383037","pSARL_v2","pSARL_v2esllw4jq","6501f64fbe9a0a65bd5f7891","freq_resp","img/green_2bandit_a.png","70","70","test","","","","8","",""
"null","383192","pSARL_v2","pSARL_v2esllw4jq","6501f64fbe9a0a65bd5f7891","fixation","img/fixation.png","null","","test","","","","","",""
"734","383929","pSARL_v2","pSARL_v2esllw4jq","6501f64fbe9a0a65bd5f7891","reward","img/slot.png","74","","test","","","","","",""
"null","384690","pSARL_v2","pSARL_v2esllw4jq","6501f64fbe9a0a65bd5f7891","points","<div class=""verylowPoints""> -4 </div>","null","na","test","","","","8","-4","7"
"369","385066","pSARL_v2","pSARL_v2esllw4jq","6501f64fbe9a0a65bd5f7891","freq","img/green_2bandit_a2.png","70","70","test","1","184","184","9","",""
"null","385501","pSARL_v2","pSARL_v2esllw4jq","6501f64fbe9a0a65bd5f7891","freq_resp","img/green_2bandit_a.png","70","70","test","","","","9","",""
"null","385656","pSARL_v2","pSARL_v2esllw4jq","6501f64fbe9a0a65bd5f7891","fixation","img/fixation.png","null","","test","","","","","",""
"302","385966","pSARL_v2","pSARL_v2esllw4jq","6501f64fbe9a0a65bd5f7891","freq","img/green_2bandit_a2.png","70","70","test","1","185","185","9","",""
"null","386472","pSARL_v2","pSARL_v2esllw4jq","6501f64fbe9a0a65bd5f7891","freq_resp","img/green_2bandit_a.png","70","70","test","","","","9","",""
"null","386635","pSARL_v2","pSARL_v2esllw4jq","6501f64fbe9a0a65bd5f7891","fixation","img/fixation.png","null","","test","","","","","",""
"171","386817","pSARL_v2","pSARL_v2esllw4jq","6501f64fbe9a0a65bd5f7891","freq","img/green_2bandit_a2.png","70","70","test","1","186","186","9","",""
"null","387451","pSARL_v2","pSARL_v2esllw4jq","6501f64fbe9a0a65bd5f7891","freq_resp","img/green_2bandit_a.png","70","70","test","","","","9","",""
"null","387607","pSARL_v2","pSARL_v2esllw4jq","6501f64fbe9a0a65bd5f7891","fixation","img/fixation.png","null","","test","","","","","",""
"270","387885","pSARL_v2","pSARL_v2esllw4jq","6501f64fbe9a0a65bd5f7891","freq","img/green_2bandit_a2.png","70","70","test","1","187","187","9","",""
"null","388461","pSARL_v2","pSARL_v2esllw4jq","6501f64fbe9a0a65bd5f7891","freq_resp","img/green_2bandit_a.png","70","70","test","","","","9","",""
"null","388621","pSARL_v2","pSARL_v2esllw4jq","6501f64fbe9a0a65bd5f7891","fixation","img/fixation.png","null","","test","","","","","",""
"200","388828","pSARL_v2","pSARL_v2esllw4jq","6501f64fbe9a0a65bd5f7891","freq","img/green_2bandit_a2.png","70","70","test","1","188","188","9","",""
"null","389456","pSARL_v2","pSARL_v2esllw4jq","6501f64fbe9a0a65bd5f7891","freq_resp","img/green_2bandit_a.png","70","70","test","","","","9","",""
"null","389616","pSARL_v2","pSARL_v2esllw4jq","6501f64fbe9a0a65bd5f7891","fixation","img/fixation.png","null","","test","","","","","",""
"188","389809","pSARL_v2","pSARL_v2esllw4jq","6501f64fbe9a0a65bd5f7891","freq","img/green_2bandit_a2.png","70","70","test","1","189","189","9","",""
"null","390433","pSARL_v2","pSARL_v2esllw4jq","6501f64fbe9a0a65bd5f7891","freq_resp","img/green_2bandit_a.png","70","70","test","","","","9","",""
"null","390594","pSARL_v2","pSARL_v2esllw4jq","6501f64fbe9a0a65bd5f7891","fixation","img/fixation.png","null","","test","","","","","",""
"171","390774","pSARL_v2","pSARL_v2esllw4jq","6501f64fbe9a0a65bd5f7891","freq","img/green_2bandit_a2.png","70","70","test","1","190","190","9","",""
"null","391478","pSARL_v2","pSARL_v2esllw4jq","6501f64fbe9a0a65bd5f7891","freq_resp","img/green_2bandit_a.png","70","70","test","","","","9","",""
"null","391641","pSARL_v2","pSARL_v2esllw4jq","6501f64fbe9a0a65bd5f7891","fixation","img/fixation.png","null","","test","","","","","",""
"555","392205","pSARL_v2","pSARL_v2esllw4jq","6501f64fbe9a0a65bd5f7891","infreq","img/orange_2bandit_a2.png","68","68","test","1","191","191","9","",""
"null","392461","pSARL_v2","pSARL_v2esllw4jq","6501f64fbe9a0a65bd5f7891","infreq_resp","img/orange_2bandit_a.png","68","68","test","","","","9","",""
"null","392617","pSARL_v2","pSARL_v2esllw4jq","6501f64fbe9a0a65bd5f7891","fixation","img/fixation.png","null","","test","","","","","",""
"475","393097","pSARL_v2","pSARL_v2esllw4jq","6501f64fbe9a0a65bd5f7891","freq","img/green_2bandit_a2.png","70","70","test","1","192","192","9","",""
"null","393472","pSARL_v2","pSARL_v2esllw4jq","6501f64fbe9a0a65bd5f7891","freq_resp","img/green_2bandit_a.png","70","70","test","","","","9","",""
"null","393630","pSARL_v2","pSARL_v2esllw4jq","6501f64fbe9a0a65bd5f7891","fixation","img/fixation.png","null","","test","","","","","",""
"329","393972","pSARL_v2","pSARL_v2esllw4jq","6501f64fbe9a0a65bd5f7891","freq","img/green_2bandit_a2.png","70","70","test","1","193","193","9","",""
"null","394455","pSARL_v2","pSARL_v2esllw4jq","6501f64fbe9a0a65bd5f7891","freq_resp","img/green_2bandit_a.png","70","70","test","","","","9","",""
"null","394616","pSARL_v2","pSARL_v2esllw4jq","6501f64fbe9a0a65bd5f7891","fixation","img/fixation.png","null","","test","","","","","",""
"205","394833","pSARL_v2","pSARL_v2esllw4jq","6501f64fbe9a0a65bd5f7891","infreq","img/orange_2bandit_a2.png","70","68","test","0","194","194","9","",""
"null","395486","pSARL_v2","pSARL_v2esllw4jq","6501f64fbe9a0a65bd5f7891","infreq_resp","img/orange_2bandit_a.png","70","68","test","","","","9","",""
"null","395647","pSARL_v2","pSARL_v2esllw4jq","6501f64fbe9a0a65bd5f7891","fixation","img/fixation.png","null","","test","","","","","",""
"566","396218","pSARL_v2","pSARL_v2esllw4jq","6501f64fbe9a0a65bd5f7891","infreq","img/orange_2bandit_a2.png","68","68","test","1","195","195","9","",""
"null","396464","pSARL_v2","pSARL_v2esllw4jq","6501f64fbe9a0a65bd5f7891","infreq_resp","img/orange_2bandit_a.png","68","68","test","","","","9","",""
"null","396620","pSARL_v2","pSARL_v2esllw4jq","6501f64fbe9a0a65bd5f7891","fixation","img/fixation.png","null","","test","","","","","",""
"473","397098","pSARL_v2","pSARL_v2esllw4jq","6501f64fbe9a0a65bd5f7891","freq","img/green_2bandit_a2.png","70","70","test","1","196","196","9","",""
"null","397430","pSARL_v2","pSARL_v2esllw4jq","6501f64fbe9a0a65bd5f7891","freq_resp","img/green_2bandit_a.png","70","70","test","","","","9","",""
"null","397592","pSARL_v2","pSARL_v2esllw4jq","6501f64fbe9a0a65bd5f7891","fixation","img/fixation.png","null","","test","","","","","",""
"348","397950","pSARL_v2","pSARL_v2esllw4jq","6501f64fbe9a0a65bd5f7891","freq","img/green_2bandit_a2.png","70","70","test","1","197","197","9","",""
"null","398412","pSARL_v2","pSARL_v2esllw4jq","6501f64fbe9a0a65bd5f7891","freq_resp","img/green_2bandit_a.png","70","70","test","","","","9","",""
"null","398567","pSARL_v2","pSARL_v2esllw4jq","6501f64fbe9a0a65bd5f7891","fixation","img/fixation.png","null","","test","","","","","",""
"326","398905","pSARL_v2","pSARL_v2esllw4jq","6501f64fbe9a0a65bd5f7891","freq","img/green_2bandit_a2.png","70","70","test","1","198","198","9","",""
"null","399438","pSARL_v2","pSARL_v2esllw4jq","6501f64fbe9a0a65bd5f7891","freq_resp","img/green_2bandit_a.png","70","70","test","","","","9","",""
"null","399593","pSARL_v2","pSARL_v2esllw4jq","6501f64fbe9a0a65bd5f7891","fixation","img/fixation.png","null","","test","","","","","",""
"357","399961","pSARL_v2","pSARL_v2esllw4jq","6501f64fbe9a0a65bd5f7891","freq","img/green_2bandit_a2.png","70","70","test","1","199","199","9","",""
"null","400409","pSARL_v2","pSARL_v2esllw4jq","6501f64fbe9a0a65bd5f7891","freq_resp","img/green_2bandit_a.png","70","70","test","","","","9","",""
"null","400571","pSARL_v2","pSARL_v2esllw4jq","6501f64fbe9a0a65bd5f7891","fixation","img/fixation.png","null","","test","","","","","",""
"314","400893","pSARL_v2","pSARL_v2esllw4jq","6501f64fbe9a0a65bd5f7891","freq","img/green_2bandit_a2.png","70","70","test","1","200","200","9","",""
"null","401383","pSARL_v2","pSARL_v2esllw4jq","6501f64fbe9a0a65bd5f7891","freq_resp","img/green_2bandit_a.png","70","70","test","","","","9","",""
"null","401538","pSARL_v2","pSARL_v2esllw4jq","6501f64fbe9a0a65bd5f7891","fixation","img/fixation.png","null","","test","","","","","",""
"203","401746","pSARL_v2","pSARL_v2esllw4jq","6501f64fbe9a0a65bd5f7891","freq","img/green_2bandit_a2.png","70","70","test","1","201","201","9","",""
"null","402355","pSARL_v2","pSARL_v2esllw4jq","6501f64fbe9a0a65bd5f7891","freq_resp","img/green_2bandit_a.png","70","70","test","","","","9","",""
"null","402515","pSARL_v2","pSARL_v2esllw4jq","6501f64fbe9a0a65bd5f7891","fixation","img/fixation.png","null","","test","","","","","",""
"353","402881","pSARL_v2","pSARL_v2esllw4jq","6501f64fbe9a0a65bd5f7891","freq","img/green_2bandit_a2.png","70","70","test","1","202","202","9","",""
"null","403341","pSARL_v2","pSARL_v2esllw4jq","6501f64fbe9a0a65bd5f7891","freq_resp","img/green_2bandit_a.png","70","70","test","","","","9","",""
"null","403496","pSARL_v2","pSARL_v2esllw4jq","6501f64fbe9a0a65bd5f7891","fixation","img/fixation.png","null","","test","","","","","",""
"159","403667","pSARL_v2","pSARL_v2esllw4jq","6501f64fbe9a0a65bd5f7891","freq","img/green_2bandit_a2.png","70","70","test","1","203","203","9","",""
"null","404359","pSARL_v2","pSARL_v2esllw4jq","6501f64fbe9a0a65bd5f7891","freq_resp","img/green_2bandit_a.png","70","70","test","","","","9","",""
"null","404521","pSARL_v2","pSARL_v2esllw4jq","6501f64fbe9a0a65bd5f7891","fixation","img/fixation.png","null","","test","","","","","",""
"358","404889","pSARL_v2","pSARL_v2esllw4jq","6501f64fbe9a0a65bd5f7891","freq","img/green_2bandit_a2.png","70","70","test","1","204","204","9","",""
"null","405337","pSARL_v2","pSARL_v2esllw4jq","6501f64fbe9a0a65bd5f7891","freq_resp","img/green_2bandit_a.png","70","70","test","","","","9","",""
"null","405500","pSARL_v2","pSARL_v2esllw4jq","6501f64fbe9a0a65bd5f7891","fixation","img/fixation.png","null","","test","","","","","",""
"219","405724","pSARL_v2","pSARL_v2esllw4jq","6501f64fbe9a0a65bd5f7891","freq","img/green_2bandit_a2.png","70","70","test","1","205","205","9","",""
"null","406382","pSARL_v2","pSARL_v2esllw4jq","6501f64fbe9a0a65bd5f7891","freq_resp","img/green_2bandit_a.png","70","70","test","","","","9","",""
"null","406537","pSARL_v2","pSARL_v2esllw4jq","6501f64fbe9a0a65bd5f7891","fixation","img/fixation.png","null","","test","","","","","",""
"189","406737","pSARL_v2","pSARL_v2esllw4jq","6501f64fbe9a0a65bd5f7891","freq","img/green_2bandit_a2.png","70","70","test","1","206","206","9","",""
"null","407360","pSARL_v2","pSARL_v2esllw4jq","6501f64fbe9a0a65bd5f7891","freq_resp","img/green_2bandit_a.png","70","70","test","","","","9","",""
"null","407519","pSARL_v2","pSARL_v2esllw4jq","6501f64fbe9a0a65bd5f7891","fixation","img/fixation.png","null","","test","","","","","",""
"174","407698","pSARL_v2","pSARL_v2esllw4jq","6501f64fbe9a0a65bd5f7891","freq","img/green_2bandit_a2.png","70","70","test","1","207","207","9","",""
"null","408395","pSARL_v2","pSARL_v2esllw4jq","6501f64fbe9a0a65bd5f7891","freq_resp","img/green_2bandit_a.png","70","70","test","","","","9","",""
"null","408549","pSARL_v2","pSARL_v2esllw4jq","6501f64fbe9a0a65bd5f7891","fixation","img/fixation.png","null","","test","","","","","",""
"217","408777","pSARL_v2","pSARL_v2esllw4jq","6501f64fbe9a0a65bd5f7891","freq","img/green_2bandit_a2.png","70","70","test","1","208","208","9","",""
"null","409371","pSARL_v2","pSARL_v2esllw4jq","6501f64fbe9a0a65bd5f7891","freq_resp","img/green_2bandit_a.png","70","70","test","","","","9","",""
"null","409527","pSARL_v2","pSARL_v2esllw4jq","6501f64fbe9a0a65bd5f7891","fixation","img/fixation.png","null","","test","","","","","",""
"160","409698","pSARL_v2","pSARL_v2esllw4jq","6501f64fbe9a0a65bd5f7891","freq","img/green_2bandit_a2.png","70","70","test","1","209","209","9","",""
"null","410417","pSARL_v2","pSARL_v2esllw4jq","6501f64fbe9a0a65bd5f7891","freq_resp","img/green_2bandit_a.png","70","70","test","","","","9","",""
"null","410573","pSARL_v2","pSARL_v2esllw4jq","6501f64fbe9a0a65bd5f7891","fixation","img/fixation.png","null","","test","","","","","",""
"185","410769","pSARL_v2","pSARL_v2esllw4jq","6501f64fbe9a0a65bd5f7891","freq","img/green_2bandit_a2.png","70","70","test","1","210","210","9","",""
"null","411396","pSARL_v2","pSARL_v2esllw4jq","6501f64fbe9a0a65bd5f7891","freq_resp","img/green_2bandit_a.png","70","70","test","","","","9","",""
"null","411552","pSARL_v2","pSARL_v2esllw4jq","6501f64fbe9a0a65bd5f7891","fixation","img/fixation.png","null","","test","","","","","",""
"597","412154","pSARL_v2","pSARL_v2esllw4jq","6501f64fbe9a0a65bd5f7891","reward","img/slot.png","74","","test","","","","","",""
"null","412909","pSARL_v2","pSARL_v2esllw4jq","6501f64fbe9a0a65bd5f7891","points","<div class=""verylowPoints""> -3 </div>","null","na","test","","","","9","-3","8"
"312","413226","pSARL_v2","pSARL_v2esllw4jq","6501f64fbe9a0a65bd5f7891","freq","img/green_2bandit_a2.png","70","70","test","1","211","211","10","",""
"null","413719","pSARL_v2","pSARL_v2esllw4jq","6501f64fbe9a0a65bd5f7891","freq_resp","img/green_2bandit_a.png","70","70","test","","","","10","",""
"null","413874","pSARL_v2","pSARL_v2esllw4jq","6501f64fbe9a0a65bd5f7891","fixation","img/fixation.png","null","","test","","","","","",""
"244","414122","pSARL_v2","pSARL_v2esllw4jq","6501f64fbe9a0a65bd5f7891","freq","img/green_2bandit_a2.png","70","70","test","1","212","212","10","",""
"null","414690","pSARL_v2","pSARL_v2esllw4jq","6501f64fbe9a0a65bd5f7891","freq_resp","img/green_2bandit_a.png","70","70","test","","","","10","",""
"null","414845","pSARL_v2","pSARL_v2esllw4jq","6501f64fbe9a0a65bd5f7891","fixation","img/fixation.png","null","","test","","","","","",""
"201","415050","pSARL_v2","pSARL_v2esllw4jq","6501f64fbe9a0a65bd5f7891","freq","img/green_2bandit_a2.png","70","70","test","1","213","213","10","",""
"null","415654","pSARL_v2","pSARL_v2esllw4jq","6501f64fbe9a0a65bd5f7891","freq_resp","img/green_2bandit_a.png","70","70","test","","","","10","",""
"null","415809","pSARL_v2","pSARL_v2esllw4jq","6501f64fbe9a0a65bd5f7891","fixation","img/fixation.png","null","","test","","","","","",""
