"rt","time_elapsed","expId","subject","prolificID","trialType","stimulus","key_press","corrresp","phase","corr","trialNum","attentionRunNum","blockNum","points","rlNum"
"16763.300000190735","16766","pSARL_v2","pSARL_v2q5d5ctn0","5b92b49921e7200001f530a0","","","","","","","","","","",""
"","19849","pSARL_v2","pSARL_v2q5d5ctn0","5b92b49921e7200001f530a0","fullscreen","","","","","","","","","",""
"68135.20000004768","87988","pSARL_v2","pSARL_v2q5d5ctn0","5b92b49921e7200001f530a0","","","","","","","","","","",""
"null","88791","pSARL_v2","pSARL_v2q5d5ctn0","5b92b49921e7200001f530a0","freqPrac","img/green_2bandit_b2.png","null","70","prac","0","","","","",""
"null","89794","pSARL_v2","pSARL_v2q5d5ctn0","5b92b49921e7200001f530a0","feedback","img/tooSlow.png","null","na","prac","","","","","",""
"null","89954","pSARL_v2","pSARL_v2q5d5ctn0","5b92b49921e7200001f530a0","fixation","img/fixation.png","null","","prac","","","","","",""
"511.40000009536743","90468","pSARL_v2","pSARL_v2q5d5ctn0","5b92b49921e7200001f530a0","infreqPrac","img/orange_2bandit_b2.png","68","68","prac","1","","","","",""
"511.40000009536743","90768","pSARL_v2","pSARL_v2q5d5ctn0","5b92b49921e7200001f530a0","infreqPrac_resp","img/orange_2bandit_b.png","68","68","prac","","","","","",""
"null","90921","pSARL_v2","pSARL_v2q5d5ctn0","5b92b49921e7200001f530a0","fixation","img/fixation.png","null","","prac","","","","","",""
"473","91396","pSARL_v2","pSARL_v2q5d5ctn0","5b92b49921e7200001f530a0","freqPrac","img/green_2bandit_b2.png","70","70","prac","1","","","","",""
"473","91727","pSARL_v2","pSARL_v2q5d5ctn0","5b92b49921e7200001f530a0","freqPrac_resp","img/green_2bandit_b.png","70","70","prac","","","","","",""
"null","91887","pSARL_v2","pSARL_v2q5d5ctn0","5b92b49921e7200001f530a0","fixation","img/fixation.png","null","","prac","","","","","",""
"514.4000000953674","92404","pSARL_v2","pSARL_v2q5d5ctn0","5b92b49921e7200001f530a0","infreqPrac","img/orange_2bandit_b2.png","68","68","prac","1","","","","",""
"514.4000000953674","92704","pSARL_v2","pSARL_v2q5d5ctn0","5b92b49921e7200001f530a0","infreqPrac_resp","img/orange_2bandit_b.png","68","68","prac","","","","","",""
"null","92863","pSARL_v2","pSARL_v2q5d5ctn0","5b92b49921e7200001f530a0","fixation","img/fixation.png","null","","prac","","","","","",""
"522.7999999523163","93388","pSARL_v2","pSARL_v2q5d5ctn0","5b92b49921e7200001f530a0","infreqPrac","img/orange_2bandit_b2.png","68","68","prac","1","","","","",""
"522.7999999523163","93680","pSARL_v2","pSARL_v2q5d5ctn0","5b92b49921e7200001f530a0","infreqPrac_resp","img/orange_2bandit_b.png","68","68","prac","","","","","",""
"null","93840","pSARL_v2","pSARL_v2q5d5ctn0","5b92b49921e7200001f530a0","fixation","img/fixation.png","null","","prac","","","","","",""
"442.09999990463257","94284","pSARL_v2","pSARL_v2q5d5ctn0","5b92b49921e7200001f530a0","infreqPrac","img/orange_2bandit_b2.png","68","68","prac","1","","","","",""
"442.09999990463257","94655","pSARL_v2","pSARL_v2q5d5ctn0","5b92b49921e7200001f530a0","infreqPrac_resp","img/orange_2bandit_b.png","68","68","prac","","","","","",""
"null","94815","pSARL_v2","pSARL_v2q5d5ctn0","5b92b49921e7200001f530a0","fixation","img/fixation.png","null","","prac","","","","","",""
"499.5","95317","pSARL_v2","pSARL_v2q5d5ctn0","5b92b49921e7200001f530a0","freqPrac","img/green_2bandit_b2.png","70","70","prac","1","","","","",""
"499.5","95628","pSARL_v2","pSARL_v2q5d5ctn0","5b92b49921e7200001f530a0","freqPrac_resp","img/green_2bandit_b.png","70","70","prac","","","","","",""
"null","95788","pSARL_v2","pSARL_v2q5d5ctn0","5b92b49921e7200001f530a0","fixation","img/fixation.png","null","","prac","","","","","",""
"390.40000009536743","96181","pSARL_v2","pSARL_v2q5d5ctn0","5b92b49921e7200001f530a0","infreqPrac","img/orange_2bandit_b2.png","68","68","prac","1","","","","",""
"390.40000009536743","96604","pSARL_v2","pSARL_v2q5d5ctn0","5b92b49921e7200001f530a0","infreqPrac_resp","img/orange_2bandit_b.png","68","68","prac","","","","","",""
"null","96764","pSARL_v2","pSARL_v2q5d5ctn0","5b92b49921e7200001f530a0","fixation","img/fixation.png","null","","prac","","","","","",""
"495.19999980926514","97261","pSARL_v2","pSARL_v2q5d5ctn0","5b92b49921e7200001f530a0","freqPrac","img/green_2bandit_b2.png","70","70","prac","1","","","","",""
"495.19999980926514","97580","pSARL_v2","pSARL_v2q5d5ctn0","5b92b49921e7200001f530a0","freqPrac_resp","img/green_2bandit_b.png","70","70","prac","","","","","",""
"null","97739","pSARL_v2","pSARL_v2q5d5ctn0","5b92b49921e7200001f530a0","fixation","img/fixation.png","null","","prac","","","","","",""
"440.2999999523163","98181","pSARL_v2","pSARL_v2q5d5ctn0","5b92b49921e7200001f530a0","freqPrac","img/green_2bandit_b2.png","70","70","prac","1","","","","",""
"440.2999999523163","98553","pSARL_v2","pSARL_v2q5d5ctn0","5b92b49921e7200001f530a0","freqPrac_resp","img/green_2bandit_b.png","70","70","prac","","","","","",""
"null","98711","pSARL_v2","pSARL_v2q5d5ctn0","5b92b49921e7200001f530a0","fixation","img/fixation.png","null","","prac","","","","","",""
"16164.400000095367","114877","pSARL_v2","pSARL_v2q5d5ctn0","5b92b49921e7200001f530a0","","","","","prac","","","","","",""
"1224.1999998092651","116104","pSARL_v2","pSARL_v2q5d5ctn0","5b92b49921e7200001f530a0","rewardPractice","img/slot.png","74","","prac","","","","","",""
"null","116859","pSARL_v2","pSARL_v2q5d5ctn0","5b92b49921e7200001f530a0","feedback","<div class=""veryhighPoints""> +15 </div>","null","na","prac","","","","","",""
"null","117019","pSARL_v2","pSARL_v2q5d5ctn0","5b92b49921e7200001f530a0","fixation","img/fixation.png","null","","prac","","","","","",""
"16733.799999952316","133754","pSARL_v2","pSARL_v2q5d5ctn0","5b92b49921e7200001f530a0","","","","","prac","","","","","",""
"581.5","134338","pSARL_v2","pSARL_v2q5d5ctn0","5b92b49921e7200001f530a0","freq","img/green_2bandit_b2.png","70","70","test","1","1","1","1","",""
"null","134570","pSARL_v2","pSARL_v2q5d5ctn0","5b92b49921e7200001f530a0","freq_resp","img/green_2bandit_b.png","70","70","test","","","","1","",""
"null","134730","pSARL_v2","pSARL_v2q5d5ctn0","5b92b49921e7200001f530a0","fixation","img/fixation.png","null","","test","","","","","",""
"389.7999999523163","135122","pSARL_v2","pSARL_v2q5d5ctn0","5b92b49921e7200001f530a0","freq","img/green_2bandit_b2.png","70","70","test","1","2","2","1","",""
"null","135545","pSARL_v2","pSARL_v2q5d5ctn0","5b92b49921e7200001f530a0","freq_resp","img/green_2bandit_b.png","70","70","test","","","","1","",""
"null","135705","pSARL_v2","pSARL_v2q5d5ctn0","5b92b49921e7200001f530a0","fixation","img/fixation.png","null","","test","","","","","",""
"366.7000000476837","136074","pSARL_v2","pSARL_v2q5d5ctn0","5b92b49921e7200001f530a0","freq","img/green_2bandit_b2.png","70","70","test","1","3","3","1","",""
"null","136520","pSARL_v2","pSARL_v2q5d5ctn0","5b92b49921e7200001f530a0","freq_resp","img/green_2bandit_b.png","70","70","test","","","","1","",""
"null","136680","pSARL_v2","pSARL_v2q5d5ctn0","5b92b49921e7200001f530a0","fixation","img/fixation.png","null","","test","","","","","",""
"351.7999999523163","137034","pSARL_v2","pSARL_v2q5d5ctn0","5b92b49921e7200001f530a0","freq","img/green_2bandit_b2.png","70","70","test","1","4","4","1","",""
"null","137495","pSARL_v2","pSARL_v2q5d5ctn0","5b92b49921e7200001f530a0","freq_resp","img/green_2bandit_b.png","70","70","test","","","","1","",""
"null","137654","pSARL_v2","pSARL_v2q5d5ctn0","5b92b49921e7200001f530a0","fixation","img/fixation.png","null","","test","","","","","",""
"345.60000014305115","138002","pSARL_v2","pSARL_v2q5d5ctn0","5b92b49921e7200001f530a0","freq","img/green_2bandit_b2.png","70","70","test","1","5","5","1","",""
"null","138468","pSARL_v2","pSARL_v2q5d5ctn0","5b92b49921e7200001f530a0","freq_resp","img/green_2bandit_b.png","70","70","test","","","","1","",""
"null","138628","pSARL_v2","pSARL_v2q5d5ctn0","5b92b49921e7200001f530a0","fixation","img/fixation.png","null","","test","","","","","",""
"348.40000009536743","138978","pSARL_v2","pSARL_v2q5d5ctn0","5b92b49921e7200001f530a0","freq","img/green_2bandit_b2.png","70","70","test","1","6","6","1","",""
"null","139442","pSARL_v2","pSARL_v2q5d5ctn0","5b92b49921e7200001f530a0","freq_resp","img/green_2bandit_b.png","70","70","test","","","","1","",""
"null","139602","pSARL_v2","pSARL_v2q5d5ctn0","5b92b49921e7200001f530a0","fixation","img/fixation.png","null","","test","","","","","",""
"358.59999990463257","139962","pSARL_v2","pSARL_v2q5d5ctn0","5b92b49921e7200001f530a0","freq","img/green_2bandit_b2.png","70","70","test","1","7","7","1","",""
"null","140411","pSARL_v2","pSARL_v2q5d5ctn0","5b92b49921e7200001f530a0","freq_resp","img/green_2bandit_b.png","70","70","test","","","","1","",""
"null","140571","pSARL_v2","pSARL_v2q5d5ctn0","5b92b49921e7200001f530a0","fixation","img/fixation.png","null","","test","","","","","",""
"318.10000014305115","140891","pSARL_v2","pSARL_v2q5d5ctn0","5b92b49921e7200001f530a0","freq","img/green_2bandit_b2.png","70","70","test","1","8","8","1","",""
"null","141387","pSARL_v2","pSARL_v2q5d5ctn0","5b92b49921e7200001f530a0","freq_resp","img/green_2bandit_b.png","70","70","test","","","","1","",""
"null","141546","pSARL_v2","pSARL_v2q5d5ctn0","5b92b49921e7200001f530a0","fixation","img/fixation.png","null","","test","","","","","",""
"310.40000009536743","141859","pSARL_v2","pSARL_v2q5d5ctn0","5b92b49921e7200001f530a0","freq","img/green_2bandit_b2.png","70","70","test","1","9","9","1","",""
"null","142361","pSARL_v2","pSARL_v2q5d5ctn0","5b92b49921e7200001f530a0","freq_resp","img/green_2bandit_b.png","70","70","test","","","","1","",""
"null","142520","pSARL_v2","pSARL_v2q5d5ctn0","5b92b49921e7200001f530a0","fixation","img/fixation.png","null","","test","","","","","",""
"329.09999990463257","142851","pSARL_v2","pSARL_v2q5d5ctn0","5b92b49921e7200001f530a0","freq","img/green_2bandit_b2.png","70","70","test","1","10","10","1","",""
"null","143335","pSARL_v2","pSARL_v2q5d5ctn0","5b92b49921e7200001f530a0","freq_resp","img/green_2bandit_b.png","70","70","test","","","","1","",""
"null","143495","pSARL_v2","pSARL_v2q5d5ctn0","5b92b49921e7200001f530a0","fixation","img/fixation.png","null","","test","","","","","",""
"306.40000009536743","143804","pSARL_v2","pSARL_v2q5d5ctn0","5b92b49921e7200001f530a0","freq","img/green_2bandit_b2.png","70","70","test","1","11","11","1","",""
"null","144310","pSARL_v2","pSARL_v2q5d5ctn0","5b92b49921e7200001f530a0","freq_resp","img/green_2bandit_b.png","70","70","test","","","","1","",""
"null","144470","pSARL_v2","pSARL_v2q5d5ctn0","5b92b49921e7200001f530a0","fixation","img/fixation.png","null","","test","","","","","",""
"315","144787","pSARL_v2","pSARL_v2q5d5ctn0","5b92b49921e7200001f530a0","freq","img/green_2bandit_b2.png","70","70","test","1","12","12","1","",""
"null","145285","pSARL_v2","pSARL_v2q5d5ctn0","5b92b49921e7200001f530a0","freq_resp","img/green_2bandit_b.png","70","70","test","","","","1","",""
"null","145445","pSARL_v2","pSARL_v2q5d5ctn0","5b92b49921e7200001f530a0","fixation","img/fixation.png","null","","test","","","","","",""
"316.2999999523163","145764","pSARL_v2","pSARL_v2q5d5ctn0","5b92b49921e7200001f530a0","freq","img/green_2bandit_b2.png","70","70","test","1","13","13","1","",""
"null","146258","pSARL_v2","pSARL_v2q5d5ctn0","5b92b49921e7200001f530a0","freq_resp","img/green_2bandit_b.png","70","70","test","","","","1","",""
"null","146419","pSARL_v2","pSARL_v2q5d5ctn0","5b92b49921e7200001f530a0","fixation","img/fixation.png","null","","test","","","","","",""
"318.7999999523163","146740","pSARL_v2","pSARL_v2q5d5ctn0","5b92b49921e7200001f530a0","freq","img/green_2bandit_b2.png","70","70","test","1","14","14","1","",""
"null","147234","pSARL_v2","pSARL_v2q5d5ctn0","5b92b49921e7200001f530a0","freq_resp","img/green_2bandit_b.png","70","70","test","","","","1","",""
"null","147394","pSARL_v2","pSARL_v2q5d5ctn0","5b92b49921e7200001f530a0","fixation","img/fixation.png","null","","test","","","","","",""
"271.5","147668","pSARL_v2","pSARL_v2q5d5ctn0","5b92b49921e7200001f530a0","freq","img/green_2bandit_b2.png","70","70","test","1","15","15","1","",""
"null","148209","pSARL_v2","pSARL_v2q5d5ctn0","5b92b49921e7200001f530a0","freq_resp","img/green_2bandit_b.png","70","70","test","","","","1","",""
"null","148369","pSARL_v2","pSARL_v2q5d5ctn0","5b92b49921e7200001f530a0","fixation","img/fixation.png","null","","test","","","","","",""
"288.7000000476837","148660","pSARL_v2","pSARL_v2q5d5ctn0","5b92b49921e7200001f530a0","freq","img/green_2bandit_b2.png","70","70","test","1","16","16","1","",""
"null","149183","pSARL_v2","pSARL_v2q5d5ctn0","5b92b49921e7200001f530a0","freq_resp","img/green_2bandit_b.png","70","70","test","","","","1","",""
"null","149343","pSARL_v2","pSARL_v2q5d5ctn0","5b92b49921e7200001f530a0","fixation","img/fixation.png","null","","test","","","","","",""
"475.2000000476837","149820","pSARL_v2","pSARL_v2q5d5ctn0","5b92b49921e7200001f530a0","infreq","img/orange_2bandit_b2.png","68","68","test","1","17","17","1","",""
"null","150157","pSARL_v2","pSARL_v2q5d5ctn0","5b92b49921e7200001f530a0","infreq_resp","img/orange_2bandit_b.png","68","68","test","","","","1","",""
"null","150317","pSARL_v2","pSARL_v2q5d5ctn0","5b92b49921e7200001f530a0","fixation","img/fixation.png","null","","test","","","","","",""
"341.39999985694885","150660","pSARL_v2","pSARL_v2q5d5ctn0","5b92b49921e7200001f530a0","infreq","img/orange_2bandit_b2.png","68","68","test","1","18","18","1","",""
"null","151132","pSARL_v2","pSARL_v2q5d5ctn0","5b92b49921e7200001f530a0","infreq_resp","img/orange_2bandit_b.png","68","68","test","","","","1","",""
"null","151292","pSARL_v2","pSARL_v2q5d5ctn0","5b92b49921e7200001f530a0","fixation","img/fixation.png","null","","test","","","","","",""
"350.09999990463257","151644","pSARL_v2","pSARL_v2q5d5ctn0","5b92b49921e7200001f530a0","freq","img/green_2bandit_b2.png","68","70","test","0","19","19","1","",""
"null","152106","pSARL_v2","pSARL_v2q5d5ctn0","5b92b49921e7200001f530a0","freq_resp","img/green_2bandit_b.png","68","70","test","","","","1","",""
"null","152267","pSARL_v2","pSARL_v2q5d5ctn0","5b92b49921e7200001f530a0","fixation","img/fixation.png","null","","test","","","","","",""
"664","152933","pSARL_v2","pSARL_v2q5d5ctn0","5b92b49921e7200001f530a0","reward","img/slot.png","74","","test","","","","","",""
"null","153687","pSARL_v2","pSARL_v2q5d5ctn0","5b92b49921e7200001f530a0","points","<div class=""verylowPoints""> -6 </div>","null","na","test","","","","1","-6","0"
"null","154504","pSARL_v2","pSARL_v2q5d5ctn0","5b92b49921e7200001f530a0","freq","img/green_2bandit_b2.png","null","70","test","0","20","20","2","",""
"null","154663","pSARL_v2","pSARL_v2q5d5ctn0","5b92b49921e7200001f530a0","fixation","img/fixation.png","null","","test","","","","","",""
"587.7999999523163","155253","pSARL_v2","pSARL_v2q5d5ctn0","5b92b49921e7200001f530a0","freq","img/green_2bandit_b2.png","70","70","test","1","21","21","2","",""
"null","155476","pSARL_v2","pSARL_v2q5d5ctn0","5b92b49921e7200001f530a0","freq_resp","img/green_2bandit_b.png","70","70","test","","","","2","",""
"null","155636","pSARL_v2","pSARL_v2q5d5ctn0","5b92b49921e7200001f530a0","fixation","img/fixation.png","null","","test","","","","","",""
"302.90000009536743","155941","pSARL_v2","pSARL_v2q5d5ctn0","5b92b49921e7200001f530a0","freq","img/green_2bandit_b2.png","70","70","test","1","22","22","2","",""
"null","156448","pSARL_v2","pSARL_v2q5d5ctn0","5b92b49921e7200001f530a0","freq_resp","img/green_2bandit_b.png","70","70","test","","","","2","",""
"null","156608","pSARL_v2","pSARL_v2q5d5ctn0","5b92b49921e7200001f530a0","fixation","img/fixation.png","null","","test","","","","","",""
"250.60000014305115","156861","pSARL_v2","pSARL_v2q5d5ctn0","5b92b49921e7200001f530a0","freq","img/green_2bandit_b2.png","70","70","test","1","23","23","2","",""
"null","157423","pSARL_v2","pSARL_v2q5d5ctn0","5b92b49921e7200001f530a0","freq_resp","img/green_2bandit_b.png","70","70","test","","","","2","",""
"null","157583","pSARL_v2","pSARL_v2q5d5ctn0","5b92b49921e7200001f530a0","fixation","img/fixation.png","null","","test","","","","","",""
"284.39999985694885","157869","pSARL_v2","pSARL_v2q5d5ctn0","5b92b49921e7200001f530a0","freq","img/green_2bandit_b2.png","70","70","test","1","24","24","2","",""
"null","158398","pSARL_v2","pSARL_v2q5d5ctn0","5b92b49921e7200001f530a0","freq_resp","img/green_2bandit_b.png","70","70","test","","","","2","",""
"null","158558","pSARL_v2","pSARL_v2q5d5ctn0","5b92b49921e7200001f530a0","fixation","img/fixation.png","null","","test","","","","","",""
"205.60000014305115","158765","pSARL_v2","pSARL_v2q5d5ctn0","5b92b49921e7200001f530a0","freq","img/green_2bandit_b2.png","70","70","test","1","25","25","2","",""
"null","159372","pSARL_v2","pSARL_v2q5d5ctn0","5b92b49921e7200001f530a0","freq_resp","img/green_2bandit_b.png","70","70","test","","","","2","",""
"null","159532","pSARL_v2","pSARL_v2q5d5ctn0","5b92b49921e7200001f530a0","fixation","img/fixation.png","null","","test","","","","","",""
"311","159846","pSARL_v2","pSARL_v2q5d5ctn0","5b92b49921e7200001f530a0","freq","img/green_2bandit_b2.png","70","70","test","1","26","26","2","",""
"null","160346","pSARL_v2","pSARL_v2q5d5ctn0","5b92b49921e7200001f530a0","freq_resp","img/green_2bandit_b.png","70","70","test","","","","2","",""
"null","160505","pSARL_v2","pSARL_v2q5d5ctn0","5b92b49921e7200001f530a0","fixation","img/fixation.png","null","","test","","","","","",""
"338.89999985694885","160847","pSARL_v2","pSARL_v2q5d5ctn0","5b92b49921e7200001f530a0","freq","img/green_2bandit_b2.png","70","70","test","1","27","27","2","",""
"null","161319","pSARL_v2","pSARL_v2q5d5ctn0","5b92b49921e7200001f530a0","freq_resp","img/green_2bandit_b.png","70","70","test","","","","2","",""
"null","161479","pSARL_v2","pSARL_v2q5d5ctn0","5b92b49921e7200001f530a0","fixation","img/fixation.png","null","","test","","","","","",""
"323.7000000476837","161806","pSARL_v2","pSARL_v2q5d5ctn0","5b92b49921e7200001f530a0","freq","img/green_2bandit_b2.png","70","70","test","1","28","28","2","",""
"null","162294","pSARL_v2","pSARL_v2q5d5ctn0","5b92b49921e7200001f530a0","freq_resp","img/green_2bandit_b.png","70","70","test","","","","2","",""
"null","162455","pSARL_v2","pSARL_v2q5d5ctn0","5b92b49921e7200001f530a0","fixation","img/fixation.png","null","","test","","","","","",""
"525.1000001430511","162982","pSARL_v2","pSARL_v2q5d5ctn0","5b92b49921e7200001f530a0","infreq","img/orange_2bandit_b2.png","68","68","test","1","29","29","2","",""
"null","163271","pSARL_v2","pSARL_v2q5d5ctn0","5b92b49921e7200001f530a0","infreq_resp","img/orange_2bandit_b.png","68","68","test","","","","2","",""
"null","163431","pSARL_v2","pSARL_v2q5d5ctn0","5b92b49921e7200001f530a0","fixation","img/fixation.png","null","","test","","","","","",""
"381.39999985694885","163815","pSARL_v2","pSARL_v2q5d5ctn0","5b92b49921e7200001f530a0","infreq","img/orange_2bandit_b2.png","68","68","test","1","30","30","2","",""
"null","164247","pSARL_v2","pSARL_v2q5d5ctn0","5b92b49921e7200001f530a0","infreq_resp","img/orange_2bandit_b.png","68","68","test","","","","2","",""
"null","164407","pSARL_v2","pSARL_v2q5d5ctn0","5b92b49921e7200001f530a0","fixation","img/fixation.png","null","","test","","","","","",""
"541.2999999523163","164951","pSARL_v2","pSARL_v2q5d5ctn0","5b92b49921e7200001f530a0","freq","img/green_2bandit_b2.png","70","70","test","1","31","31","2","",""
"null","165221","pSARL_v2","pSARL_v2q5d5ctn0","5b92b49921e7200001f530a0","freq_resp","img/green_2bandit_b.png","70","70","test","","","","2","",""
"null","165382","pSARL_v2","pSARL_v2q5d5ctn0","5b92b49921e7200001f530a0","fixation","img/fixation.png","null","","test","","","","","",""
"366.7000000476837","165750","pSARL_v2","pSARL_v2q5d5ctn0","5b92b49921e7200001f530a0","freq","img/green_2bandit_b2.png","70","70","test","1","32","32","2","",""
"null","166195","pSARL_v2","pSARL_v2q5d5ctn0","5b92b49921e7200001f530a0","freq_resp","img/green_2bandit_b.png","70","70","test","","","","2","",""
"null","166355","pSARL_v2","pSARL_v2q5d5ctn0","5b92b49921e7200001f530a0","fixation","img/fixation.png","null","","test","","","","","",""
"345.7000000476837","166702","pSARL_v2","pSARL_v2q5d5ctn0","5b92b49921e7200001f530a0","freq","img/green_2bandit_b2.png","70","70","test","1","33","33","2","",""
"null","167171","pSARL_v2","pSARL_v2q5d5ctn0","5b92b49921e7200001f530a0","freq_resp","img/green_2bandit_b.png","70","70","test","","","","2","",""
"null","167331","pSARL_v2","pSARL_v2q5d5ctn0","5b92b49921e7200001f530a0","fixation","img/fixation.png","null","","test","","","","","",""
"545.7000000476837","167879","pSARL_v2","pSARL_v2q5d5ctn0","5b92b49921e7200001f530a0","infreq","img/orange_2bandit_b2.png","68","68","test","1","34","34","2","",""
"null","168147","pSARL_v2","pSARL_v2q5d5ctn0","5b92b49921e7200001f530a0","infreq_resp","img/orange_2bandit_b.png","68","68","test","","","","2","",""
"null","168306","pSARL_v2","pSARL_v2q5d5ctn0","5b92b49921e7200001f530a0","fixation","img/fixation.png","null","","test","","","","","",""
"442.7999999523163","168751","pSARL_v2","pSARL_v2q5d5ctn0","5b92b49921e7200001f530a0","freq","img/green_2bandit_b2.png","70","70","test","1","35","35","2","",""
"null","169121","pSARL_v2","pSARL_v2q5d5ctn0","5b92b49921e7200001f530a0","freq_resp","img/green_2bandit_b.png","70","70","test","","","","2","",""
"null","169281","pSARL_v2","pSARL_v2q5d5ctn0","5b92b49921e7200001f530a0","fixation","img/fixation.png","null","","test","","","","","",""
"324.10000014305115","169607","pSARL_v2","pSARL_v2q5d5ctn0","5b92b49921e7200001f530a0","freq","img/green_2bandit_b2.png","70","70","test","1","36","36","2","",""
"null","170092","pSARL_v2","pSARL_v2q5d5ctn0","5b92b49921e7200001f530a0","freq_resp","img/green_2bandit_b.png","70","70","test","","","","2","",""
"null","170251","pSARL_v2","pSARL_v2q5d5ctn0","5b92b49921e7200001f530a0","fixation","img/fixation.png","null","","test","","","","","",""
"353.7000000476837","170607","pSARL_v2","pSARL_v2q5d5ctn0","5b92b49921e7200001f530a0","freq","img/green_2bandit_b2.png","70","70","test","1","37","37","2","",""
"null","171066","pSARL_v2","pSARL_v2q5d5ctn0","5b92b49921e7200001f530a0","freq_resp","img/green_2bandit_b.png","70","70","test","","","","2","",""
"null","171225","pSARL_v2","pSARL_v2q5d5ctn0","5b92b49921e7200001f530a0","fixation","img/fixation.png","null","","test","","","","","",""
"355.7000000476837","171583","pSARL_v2","pSARL_v2q5d5ctn0","5b92b49921e7200001f530a0","freq","img/green_2bandit_b2.png","70","70","test","1","38","38","2","",""
"null","172041","pSARL_v2","pSARL_v2q5d5ctn0","5b92b49921e7200001f530a0","freq_resp","img/green_2bandit_b.png","70","70","test","","","","2","",""
"null","172201","pSARL_v2","pSARL_v2q5d5ctn0","5b92b49921e7200001f530a0","fixation","img/fixation.png","null","","test","","","","","",""
"316.39999985694885","172519","pSARL_v2","pSARL_v2q5d5ctn0","5b92b49921e7200001f530a0","freq","img/green_2bandit_b2.png","70","70","test","1","39","39","2","",""
"null","173017","pSARL_v2","pSARL_v2q5d5ctn0","5b92b49921e7200001f530a0","freq_resp","img/green_2bandit_b.png","70","70","test","","","","2","",""
"null","173176","pSARL_v2","pSARL_v2q5d5ctn0","5b92b49921e7200001f530a0","fixation","img/fixation.png","null","","test","","","","","",""
"325.30000019073486","173504","pSARL_v2","pSARL_v2q5d5ctn0","5b92b49921e7200001f530a0","freq","img/green_2bandit_b2.png","70","70","test","1","40","40","2","",""
"null","173988","pSARL_v2","pSARL_v2q5d5ctn0","5b92b49921e7200001f530a0","freq_resp","img/green_2bandit_b.png","70","70","test","","","","2","",""
"null","174149","pSARL_v2","pSARL_v2q5d5ctn0","5b92b49921e7200001f530a0","fixation","img/fixation.png","null","","test","","","","","",""
"313.19999980926514","174464","pSARL_v2","pSARL_v2q5d5ctn0","5b92b49921e7200001f530a0","freq","img/green_2bandit_b2.png","70","70","test","1","41","41","2","",""
"null","174961","pSARL_v2","pSARL_v2q5d5ctn0","5b92b49921e7200001f530a0","freq_resp","img/green_2bandit_b.png","70","70","test","","","","2","",""
"null","175121","pSARL_v2","pSARL_v2q5d5ctn0","5b92b49921e7200001f530a0","fixation","img/fixation.png","null","","test","","","","","",""
"541.7999999523163","175664","pSARL_v2","pSARL_v2q5d5ctn0","5b92b49921e7200001f530a0","reward","img/slot.png","74","","test","","","","","",""
"null","176431","pSARL_v2","pSARL_v2q5d5ctn0","5b92b49921e7200001f530a0","points","<div class=""verylowPoints""> -11 </div>","null","na","test","","","","2","-11","1"
"null","177248","pSARL_v2","pSARL_v2q5d5ctn0","5b92b49921e7200001f530a0","freq","img/green_2bandit_b2.png","null","70","test","0","42","42","3","",""
"null","177407","pSARL_v2","pSARL_v2q5d5ctn0","5b92b49921e7200001f530a0","fixation","img/fixation.png","null","","test","","","","","",""
"439.09999990463257","177848","pSARL_v2","pSARL_v2q5d5ctn0","5b92b49921e7200001f530a0","freq","img/green_2bandit_b2.png","70","70","test","1","43","43","3","",""
"null","178223","pSARL_v2","pSARL_v2q5d5ctn0","5b92b49921e7200001f530a0","freq_resp","img/green_2bandit_b.png","70","70","test","","","","3","",""
"null","178383","pSARL_v2","pSARL_v2q5d5ctn0","5b92b49921e7200001f530a0","fixation","img/fixation.png","null","","test","","","","","",""
"143","178528","pSARL_v2","pSARL_v2q5d5ctn0","5b92b49921e7200001f530a0","freq","img/green_2bandit_b2.png","70","70","test","1","44","44","3","",""
"null","179198","pSARL_v2","pSARL_v2q5d5ctn0","5b92b49921e7200001f530a0","freq_resp","img/green_2bandit_b.png","70","70","test","","","","3","",""
"null","179358","pSARL_v2","pSARL_v2q5d5ctn0","5b92b49921e7200001f530a0","fixation","img/fixation.png","null","","test","","","","","",""
"71.90000009536743","179432","pSARL_v2","pSARL_v2q5d5ctn0","5b92b49921e7200001f530a0","freq","img/green_2bandit_b2.png","70","70","test","1","45","45","3","",""
"null","180172","pSARL_v2","pSARL_v2q5d5ctn0","5b92b49921e7200001f530a0","freq_resp","img/green_2bandit_b.png","70","70","test","","","","3","",""
"null","180332","pSARL_v2","pSARL_v2q5d5ctn0","5b92b49921e7200001f530a0","fixation","img/fixation.png","null","","test","","","","","",""
"162.30000019073486","180497","pSARL_v2","pSARL_v2q5d5ctn0","5b92b49921e7200001f530a0","freq","img/green_2bandit_b2.png","70","70","test","1","46","46","3","",""
"null","181147","pSARL_v2","pSARL_v2q5d5ctn0","5b92b49921e7200001f530a0","freq_resp","img/green_2bandit_b.png","70","70","test","","","","3","",""
"null","181307","pSARL_v2","pSARL_v2q5d5ctn0","5b92b49921e7200001f530a0","fixation","img/fixation.png","null","","test","","","","","",""
"204","181513","pSARL_v2","pSARL_v2q5d5ctn0","5b92b49921e7200001f530a0","freq","img/green_2bandit_b2.png","70","70","test","1","47","47","3","",""
"null","182123","pSARL_v2","pSARL_v2q5d5ctn0","5b92b49921e7200001f530a0","freq_resp","img/green_2bandit_b.png","70","70","test","","","","3","",""
"null","182283","pSARL_v2","pSARL_v2q5d5ctn0","5b92b49921e7200001f530a0","fixation","img/fixation.png","null","","test","","","","","",""
"139.59999990463257","182425","pSARL_v2","pSARL_v2q5d5ctn0","5b92b49921e7200001f530a0","freq","img/green_2bandit_b2.png","70","70","test","1","48","48","3","",""
"null","183099","pSARL_v2","pSARL_v2q5d5ctn0","5b92b49921e7200001f530a0","freq_resp","img/green_2bandit_b.png","70","70","test","","","","3","",""
"null","183258","pSARL_v2","pSARL_v2q5d5ctn0","5b92b49921e7200001f530a0","fixation","img/fixation.png","null","","test","","","","","",""
"68.59999990463257","183329","pSARL_v2","pSARL_v2q5d5ctn0","5b92b49921e7200001f530a0","freq","img/green_2bandit_b2.png","70","70","test","1","49","49","3","",""
"null","184074","pSARL_v2","pSARL_v2q5d5ctn0","5b92b49921e7200001f530a0","freq_resp","img/green_2bandit_b.png","70","70","test","","","","3","",""
"null","184234","pSARL_v2","pSARL_v2q5d5ctn0","5b92b49921e7200001f530a0","fixation","img/fixation.png","null","","test","","","","","",""
"132.70000004768372","184369","pSARL_v2","pSARL_v2q5d5ctn0","5b92b49921e7200001f530a0","freq","img/green_2bandit_b2.png","70","70","test","1","50","50","3","",""
"null","185048","pSARL_v2","pSARL_v2q5d5ctn0","5b92b49921e7200001f530a0","freq_resp","img/green_2bandit_b.png","70","70","test","","","","3","",""
"null","185208","pSARL_v2","pSARL_v2q5d5ctn0","5b92b49921e7200001f530a0","fixation","img/fixation.png","null","","test","","","","","",""
"295.39999985694885","185505","pSARL_v2","pSARL_v2q5d5ctn0","5b92b49921e7200001f530a0","freq","img/green_2bandit_b2.png","70","70","test","1","51","51","3","",""
"null","186024","pSARL_v2","pSARL_v2q5d5ctn0","5b92b49921e7200001f530a0","freq_resp","img/green_2bandit_b.png","70","70","test","","","","3","",""
"null","186184","pSARL_v2","pSARL_v2q5d5ctn0","5b92b49921e7200001f530a0","fixation","img/fixation.png","null","","test","","","","","",""
"279.7000000476837","186466","pSARL_v2","pSARL_v2q5d5ctn0","5b92b49921e7200001f530a0","freq","img/green_2bandit_b2.png","70","70","test","1","52","52","3","",""
"null","187000","pSARL_v2","pSARL_v2q5d5ctn0","5b92b49921e7200001f530a0","freq_resp","img/green_2bandit_b.png","70","70","test","","","","3","",""
"null","187160","pSARL_v2","pSARL_v2q5d5ctn0","5b92b49921e7200001f530a0","fixation","img/fixation.png","null","","test","","","","","",""
"279.39999985694885","187442","pSARL_v2","pSARL_v2q5d5ctn0","5b92b49921e7200001f530a0","freq","img/green_2bandit_b2.png","70","70","test","1","53","53","3","",""
"null","187971","pSARL_v2","pSARL_v2q5d5ctn0","5b92b49921e7200001f530a0","freq_resp","img/green_2bandit_b.png","70","70","test","","","","3","",""
"null","188132","pSARL_v2","pSARL_v2q5d5ctn0","5b92b49921e7200001f530a0","fixation","img/fixation.png","null","","test","","","","","",""
"180.09999990463257","188314","pSARL_v2","pSARL_v2q5d5ctn0","5b92b49921e7200001f530a0","infreq","img/orange_2bandit_b2.png","70","68","test","0","54","54","3","",""
"null","188947","pSARL_v2","pSARL_v2q5d5ctn0","5b92b49921e7200001f530a0","infreq_resp","img/orange_2bandit_b.png","70","68","test","","","","3","",""
"null","189107","pSARL_v2","pSARL_v2q5d5ctn0","5b92b49921e7200001f530a0","fixation","img/fixation.png","null","","test","","","","","",""
"341.5","189450","pSARL_v2","pSARL_v2q5d5ctn0","5b92b49921e7200001f530a0","infreq","img/orange_2bandit_b2.png","70","68","test","0","55","55","3","",""
"null","189920","pSARL_v2","pSARL_v2q5d5ctn0","5b92b49921e7200001f530a0","infreq_resp","img/orange_2bandit_b.png","70","68","test","","","","3","",""
"null","190079","pSARL_v2","pSARL_v2q5d5ctn0","5b92b49921e7200001f530a0","fixation","img/fixation.png","null","","test","","","","","",""
"360.5","190442","pSARL_v2","pSARL_v2q5d5ctn0","5b92b49921e7200001f530a0","freq","img/green_2bandit_b2.png","70","70","test","1","56","56","3","",""
"null","190895","pSARL_v2","pSARL_v2q5d5ctn0","5b92b49921e7200001f530a0","freq_resp","img/green_2bandit_b.png","70","70","test","","","","3","",""
"null","191055","pSARL_v2","pSARL_v2q5d5ctn0","5b92b49921e7200001f530a0","fixation","img/fixation.png","null","","test","","","","","",""
"329.40000009536743","191386","pSARL_v2","pSARL_v2q5d5ctn0","5b92b49921e7200001f530a0","freq","img/green_2bandit_b2.png","70","70","test","1","57","57","3","",""
"null","191871","pSARL_v2","pSARL_v2q5d5ctn0","5b92b49921e7200001f530a0","freq_resp","img/green_2bandit_b.png","70","70","test","","","","3","",""
"null","192031","pSARL_v2","pSARL_v2q5d5ctn0","5b92b49921e7200001f530a0","fixation","img/fixation.png","null","","test","","","","","",""
"505.2000000476837","192539","pSARL_v2","pSARL_v2q5d5ctn0","5b92b49921e7200001f530a0","infreq","img/orange_2bandit_b2.png","68","68","test","1","58","58","3","",""
"null","192847","pSARL_v2","pSARL_v2q5d5ctn0","5b92b49921e7200001f530a0","infreq_resp","img/orange_2bandit_b.png","68","68","test","","","","3","",""
"null","193007","pSARL_v2","pSARL_v2q5d5ctn0","5b92b49921e7200001f530a0","fixation","img/fixation.png","null","","test","","","","","",""
"449.2000000476837","193458","pSARL_v2","pSARL_v2q5d5ctn0","5b92b49921e7200001f530a0","freq","img/green_2bandit_b2.png","70","70","test","1","59","59","3","",""
"null","193820","pSARL_v2","pSARL_v2q5d5ctn0","5b92b49921e7200001f530a0","freq_resp","img/green_2bandit_b.png","70","70","test","","","","3","",""
"null","193976","pSARL_v2","pSARL_v2q5d5ctn0","5b92b49921e7200001f530a0","fixation","img/fixation.png","null","","test","","","","","",""
"440.40000009536743","194419","pSARL_v2","pSARL_v2q5d5ctn0","5b92b49921e7200001f530a0","freq","img/green_2bandit_b2.png","70","70","test","1","60","60","3","",""
"null","194787","pSARL_v2","pSARL_v2q5d5ctn0","5b92b49921e7200001f530a0","freq_resp","img/green_2bandit_b.png","70","70","test","","","","3","",""
"null","194948","pSARL_v2","pSARL_v2q5d5ctn0","5b92b49921e7200001f530a0","fixation","img/fixation.png","null","","test","","","","","",""
"325.09999990463257","195275","pSARL_v2","pSARL_v2q5d5ctn0","5b92b49921e7200001f530a0","freq","img/green_2bandit_b2.png","70","70","test","1","61","61","3","",""
"null","195764","pSARL_v2","pSARL_v2q5d5ctn0","5b92b49921e7200001f530a0","freq_resp","img/green_2bandit_b.png","70","70","test","","","","3","",""
"null","195924","pSARL_v2","pSARL_v2q5d5ctn0","5b92b49921e7200001f530a0","fixation","img/fixation.png","null","","test","","","","","",""
"357.2000000476837","196283","pSARL_v2","pSARL_v2q5d5ctn0","5b92b49921e7200001f530a0","freq","img/green_2bandit_b2.png","70","70","test","1","62","62","3","",""
"null","196739","pSARL_v2","pSARL_v2q5d5ctn0","5b92b49921e7200001f530a0","freq_resp","img/green_2bandit_b.png","70","70","test","","","","3","",""
"null","196898","pSARL_v2","pSARL_v2q5d5ctn0","5b92b49921e7200001f530a0","fixation","img/fixation.png","null","","test","","","","","",""
"655.4000000953674","197555","pSARL_v2","pSARL_v2q5d5ctn0","5b92b49921e7200001f530a0","reward","img/slot.png","74","","test","","","","","",""
"null","198320","pSARL_v2","pSARL_v2q5d5ctn0","5b92b49921e7200001f530a0","points","<div class=""verylowPoints""> -7 </div>","null","na","test","","","","3","-7","2"
"505.2999999523163","198827","pSARL_v2","pSARL_v2q5d5ctn0","5b92b49921e7200001f530a0","freq","img/green_2bandit_b2.png","70","70","test","1","63","63","4","",""
"null","199136","pSARL_v2","pSARL_v2q5d5ctn0","5b92b49921e7200001f530a0","freq_resp","img/green_2bandit_b.png","70","70","test","","","","4","",""
"null","199296","pSARL_v2","pSARL_v2q5d5ctn0","5b92b49921e7200001f530a0","fixation","img/fixation.png","null","","test","","","","","",""
"337.40000009536743","199635","pSARL_v2","pSARL_v2q5d5ctn0","5b92b49921e7200001f530a0","freq","img/green_2bandit_b2.png","70","70","test","1","64","64","4","",""
"null","200111","pSARL_v2","pSARL_v2q5d5ctn0","5b92b49921e7200001f530a0","freq_resp","img/green_2bandit_b.png","70","70","test","","","","4","",""
"null","200269","pSARL_v2","pSARL_v2q5d5ctn0","5b92b49921e7200001f530a0","fixation","img/fixation.png","null","","test","","","","","",""
"188.5","200460","pSARL_v2","pSARL_v2q5d5ctn0","5b92b49921e7200001f530a0","freq","img/green_2bandit_b2.png","70","70","test","1","65","65","4","",""
"null","201084","pSARL_v2","pSARL_v2q5d5ctn0","5b92b49921e7200001f530a0","freq_resp","img/green_2bandit_b.png","70","70","test","","","","4","",""
"null","201244","pSARL_v2","pSARL_v2q5d5ctn0","5b92b49921e7200001f530a0","fixation","img/fixation.png","null","","test","","","","","",""
"309.90000009536743","201556","pSARL_v2","pSARL_v2q5d5ctn0","5b92b49921e7200001f530a0","freq","img/green_2bandit_b2.png","70","70","test","1","66","66","4","",""
"null","202059","pSARL_v2","pSARL_v2q5d5ctn0","5b92b49921e7200001f530a0","freq_resp","img/green_2bandit_b.png","70","70","test","","","","4","",""
"null","202219","pSARL_v2","pSARL_v2q5d5ctn0","5b92b49921e7200001f530a0","fixation","img/fixation.png","null","","test","","","","","",""
"294.40000009536743","202516","pSARL_v2","pSARL_v2q5d5ctn0","5b92b49921e7200001f530a0","freq","img/green_2bandit_b2.png","70","70","test","1","67","67","4","",""
"null","203034","pSARL_v2","pSARL_v2q5d5ctn0","5b92b49921e7200001f530a0","freq_resp","img/green_2bandit_b.png","70","70","test","","","","4","",""
"null","203195","pSARL_v2","pSARL_v2q5d5ctn0","5b92b49921e7200001f530a0","fixation","img/fixation.png","null","","test","","","","","",""
"359.5","203556","pSARL_v2","pSARL_v2q5d5ctn0","5b92b49921e7200001f530a0","freq","img/green_2bandit_b2.png","70","70","test","1","68","68","4","",""
"null","204011","pSARL_v2","pSARL_v2q5d5ctn0","5b92b49921e7200001f530a0","freq_resp","img/green_2bandit_b.png","70","70","test","","","","4","",""
"null","204171","pSARL_v2","pSARL_v2q5d5ctn0","5b92b49921e7200001f530a0","fixation","img/fixation.png","null","","test","","","","","",""
"567.2999999523163","204740","pSARL_v2","pSARL_v2q5d5ctn0","5b92b49921e7200001f530a0","infreq","img/orange_2bandit_b2.png","68","68","test","1","69","69","4","",""
"null","204986","pSARL_v2","pSARL_v2q5d5ctn0","5b92b49921e7200001f530a0","infreq_resp","img/orange_2bandit_b.png","68","68","test","","","","4","",""
"null","205146","pSARL_v2","pSARL_v2q5d5ctn0","5b92b49921e7200001f530a0","fixation","img/fixation.png","null","","test","","","","","",""
"551.8999998569489","205701","pSARL_v2","pSARL_v2q5d5ctn0","5b92b49921e7200001f530a0","freq","img/green_2bandit_b2.png","70","70","test","1","70","70","4","",""
"null","205963","pSARL_v2","pSARL_v2q5d5ctn0","5b92b49921e7200001f530a0","freq_resp","img/green_2bandit_b.png","70","70","test","","","","4","",""
"null","206123","pSARL_v2","pSARL_v2q5d5ctn0","5b92b49921e7200001f530a0","fixation","img/fixation.png","null","","test","","","","","",""
"551.7000000476837","206676","pSARL_v2","pSARL_v2q5d5ctn0","5b92b49921e7200001f530a0","infreq","img/orange_2bandit_b2.png","68","68","test","1","71","71","4","",""
"null","206939","pSARL_v2","pSARL_v2q5d5ctn0","5b92b49921e7200001f530a0","infreq_resp","img/orange_2bandit_b.png","68","68","test","","","","4","",""
"null","207099","pSARL_v2","pSARL_v2q5d5ctn0","5b92b49921e7200001f530a0","fixation","img/fixation.png","null","","test","","","","","",""
"640","207741","pSARL_v2","pSARL_v2q5d5ctn0","5b92b49921e7200001f530a0","freq","img/green_2bandit_b2.png","70","70","test","1","72","72","4","",""
"null","207915","pSARL_v2","pSARL_v2q5d5ctn0","5b92b49921e7200001f530a0","freq_resp","img/green_2bandit_b.png","70","70","test","","","","4","",""
"null","208075","pSARL_v2","pSARL_v2q5d5ctn0","5b92b49921e7200001f530a0","fixation","img/fixation.png","null","","test","","","","","",""
"359.39999985694885","208437","pSARL_v2","pSARL_v2q5d5ctn0","5b92b49921e7200001f530a0","freq","img/green_2bandit_b2.png","70","70","test","1","73","73","4","",""
"null","208888","pSARL_v2","pSARL_v2q5d5ctn0","5b92b49921e7200001f530a0","freq_resp","img/green_2bandit_b.png","70","70","test","","","","4","",""
"null","209048","pSARL_v2","pSARL_v2q5d5ctn0","5b92b49921e7200001f530a0","fixation","img/fixation.png","null","","test","","","","","",""
"298.7999999523163","209349","pSARL_v2","pSARL_v2q5d5ctn0","5b92b49921e7200001f530a0","freq","img/green_2bandit_b2.png","70","70","test","1","74","74","4","",""
"null","209863","pSARL_v2","pSARL_v2q5d5ctn0","5b92b49921e7200001f530a0","freq_resp","img/green_2bandit_b.png","70","70","test","","","","4","",""
"null","210023","pSARL_v2","pSARL_v2q5d5ctn0","5b92b49921e7200001f530a0","fixation","img/fixation.png","null","","test","","","","","",""
"324.5","210349","pSARL_v2","pSARL_v2q5d5ctn0","5b92b49921e7200001f530a0","freq","img/green_2bandit_b2.png","70","70","test","1","75","75","4","",""
"null","210841","pSARL_v2","pSARL_v2q5d5ctn0","5b92b49921e7200001f530a0","freq_resp","img/green_2bandit_b.png","70","70","test","","","","4","",""
"null","210998","pSARL_v2","pSARL_v2q5d5ctn0","5b92b49921e7200001f530a0","fixation","img/fixation.png","null","","test","","","","","",""
"293.2000000476837","211293","pSARL_v2","pSARL_v2q5d5ctn0","5b92b49921e7200001f530a0","freq","img/green_2bandit_b2.png","70","70","test","1","76","76","4","",""
"null","211813","pSARL_v2","pSARL_v2q5d5ctn0","5b92b49921e7200001f530a0","freq_resp","img/green_2bandit_b.png","70","70","test","","","","4","",""
"null","211973","pSARL_v2","pSARL_v2q5d5ctn0","5b92b49921e7200001f530a0","fixation","img/fixation.png","null","","test","","","","","",""
"342.39999985694885","212317","pSARL_v2","pSARL_v2q5d5ctn0","5b92b49921e7200001f530a0","freq","img/green_2bandit_b2.png","70","70","test","1","77","77","4","",""
"null","212787","pSARL_v2","pSARL_v2q5d5ctn0","5b92b49921e7200001f530a0","freq_resp","img/green_2bandit_b.png","70","70","test","","","","4","",""
"null","212947","pSARL_v2","pSARL_v2q5d5ctn0","5b92b49921e7200001f530a0","fixation","img/fixation.png","null","","test","","","","","",""
"329","213278","pSARL_v2","pSARL_v2q5d5ctn0","5b92b49921e7200001f530a0","freq","img/green_2bandit_b2.png","70","70","test","1","78","78","4","",""
"null","213763","pSARL_v2","pSARL_v2q5d5ctn0","5b92b49921e7200001f530a0","freq_resp","img/green_2bandit_b.png","70","70","test","","","","4","",""
"null","213923","pSARL_v2","pSARL_v2q5d5ctn0","5b92b49921e7200001f530a0","fixation","img/fixation.png","null","","test","","","","","",""
"343.90000009536743","214270","pSARL_v2","pSARL_v2q5d5ctn0","5b92b49921e7200001f530a0","freq","img/green_2bandit_b2.png","70","70","test","1","79","79","4","",""
"null","214738","pSARL_v2","pSARL_v2q5d5ctn0","5b92b49921e7200001f530a0","freq_resp","img/green_2bandit_b.png","70","70","test","","","","4","",""
"null","214898","pSARL_v2","pSARL_v2q5d5ctn0","5b92b49921e7200001f530a0","fixation","img/fixation.png","null","","test","","","","","",""
"369.69999980926514","215270","pSARL_v2","pSARL_v2q5d5ctn0","5b92b49921e7200001f530a0","freq","img/green_2bandit_b2.png","70","70","test","1","80","80","4","",""
"null","215713","pSARL_v2","pSARL_v2q5d5ctn0","5b92b49921e7200001f530a0","freq_resp","img/green_2bandit_b.png","70","70","test","","","","4","",""
"null","215873","pSARL_v2","pSARL_v2q5d5ctn0","5b92b49921e7200001f530a0","fixation","img/fixation.png","null","","test","","","","","",""
"290.7000000476837","216166","pSARL_v2","pSARL_v2q5d5ctn0","5b92b49921e7200001f530a0","freq","img/green_2bandit_b2.png","70","70","test","1","81","81","4","",""
"null","216687","pSARL_v2","pSARL_v2q5d5ctn0","5b92b49921e7200001f530a0","freq_resp","img/green_2bandit_b.png","70","70","test","","","","4","",""
"null","216847","pSARL_v2","pSARL_v2q5d5ctn0","5b92b49921e7200001f530a0","fixation","img/fixation.png","null","","test","","","","","",""
"380.89999985694885","217230","pSARL_v2","pSARL_v2q5d5ctn0","5b92b49921e7200001f530a0","freq","img/green_2bandit_b2.png","70","70","test","1","82","82","4","",""
"null","217662","pSARL_v2","pSARL_v2q5d5ctn0","5b92b49921e7200001f530a0","freq_resp","img/green_2bandit_b.png","70","70","test","","","","4","",""
"null","217822","pSARL_v2","pSARL_v2q5d5ctn0","5b92b49921e7200001f530a0","fixation","img/fixation.png","null","","test","","","","","",""
"430.60000014305115","218255","pSARL_v2","pSARL_v2q5d5ctn0","5b92b49921e7200001f530a0","freq","img/green_2bandit_b2.png","70","70","test","1","83","83","4","",""
"null","218639","pSARL_v2","pSARL_v2q5d5ctn0","5b92b49921e7200001f530a0","freq_resp","img/green_2bandit_b.png","70","70","test","","","","4","",""
"null","218798","pSARL_v2","pSARL_v2q5d5ctn0","5b92b49921e7200001f530a0","fixation","img/fixation.png","null","","test","","","","","",""
"518.1000001430511","219319","pSARL_v2","pSARL_v2q5d5ctn0","5b92b49921e7200001f530a0","infreq","img/orange_2bandit_b2.png","68","68","test","1","84","84","4","",""
"null","219611","pSARL_v2","pSARL_v2q5d5ctn0","5b92b49921e7200001f530a0","infreq_resp","img/orange_2bandit_b.png","68","68","test","","","","4","",""
"null","219771","pSARL_v2","pSARL_v2q5d5ctn0","5b92b49921e7200001f530a0","fixation","img/fixation.png","null","","test","","","","","",""
"521.9000000953674","220295","pSARL_v2","pSARL_v2q5d5ctn0","5b92b49921e7200001f530a0","freq","img/green_2bandit_b2.png","70","70","test","1","85","85","4","",""
"null","220585","pSARL_v2","pSARL_v2q5d5ctn0","5b92b49921e7200001f530a0","freq_resp","img/green_2bandit_b.png","70","70","test","","","","4","",""
"null","220745","pSARL_v2","pSARL_v2q5d5ctn0","5b92b49921e7200001f530a0","fixation","img/fixation.png","null","","test","","","","","",""
"468","221215","pSARL_v2","pSARL_v2q5d5ctn0","5b92b49921e7200001f530a0","freq","img/green_2bandit_b2.png","70","70","test","1","86","86","4","",""
"null","221560","pSARL_v2","pSARL_v2q5d5ctn0","5b92b49921e7200001f530a0","freq_resp","img/green_2bandit_b.png","70","70","test","","","","4","",""
"null","221720","pSARL_v2","pSARL_v2q5d5ctn0","5b92b49921e7200001f530a0","fixation","img/fixation.png","null","","test","","","","","",""
"301.10000014305115","222023","pSARL_v2","pSARL_v2q5d5ctn0","5b92b49921e7200001f530a0","freq","img/green_2bandit_b2.png","70","70","test","1","87","87","4","",""
"null","222536","pSARL_v2","pSARL_v2q5d5ctn0","5b92b49921e7200001f530a0","freq_resp","img/green_2bandit_b.png","70","70","test","","","","4","",""
"null","222696","pSARL_v2","pSARL_v2q5d5ctn0","5b92b49921e7200001f530a0","fixation","img/fixation.png","null","","test","","","","","",""
"173","222871","pSARL_v2","pSARL_v2q5d5ctn0","5b92b49921e7200001f530a0","freq","img/green_2bandit_b2.png","70","70","test","1","88","88","4","",""
"null","223511","pSARL_v2","pSARL_v2q5d5ctn0","5b92b49921e7200001f530a0","freq_resp","img/green_2bandit_b.png","70","70","test","","","","4","",""
"null","223671","pSARL_v2","pSARL_v2q5d5ctn0","5b92b49921e7200001f530a0","fixation","img/fixation.png","null","","test","","","","","",""
"333.5","224007","pSARL_v2","pSARL_v2q5d5ctn0","5b92b49921e7200001f530a0","freq","img/green_2bandit_b2.png","70","70","test","1","89","89","4","",""
"null","224485","pSARL_v2","pSARL_v2q5d5ctn0","5b92b49921e7200001f530a0","freq_resp","img/green_2bandit_b.png","70","70","test","","","","4","",""
"null","224645","pSARL_v2","pSARL_v2q5d5ctn0","5b92b49921e7200001f530a0","fixation","img/fixation.png","null","","test","","","","","",""
"448.59999990463257","225095","pSARL_v2","pSARL_v2q5d5ctn0","5b92b49921e7200001f530a0","reward","img/slot.png","74","","test","","","","","",""
"null","225859","pSARL_v2","pSARL_v2q5d5ctn0","5b92b49921e7200001f530a0","points","<div class=""verylowPoints""> -3 </div>","null","na","test","","","","4","-3","3"
"482.89999985694885","226344","pSARL_v2","pSARL_v2q5d5ctn0","5b92b49921e7200001f530a0","freq","img/green_2bandit_b2.png","70","70","test","1","90","90","5","",""
"null","226675","pSARL_v2","pSARL_v2q5d5ctn0","5b92b49921e7200001f530a0","freq_resp","img/green_2bandit_b.png","70","70","test","","","","5","",""
"null","226835","pSARL_v2","pSARL_v2q5d5ctn0","5b92b49921e7200001f530a0","fixation","img/fixation.png","null","","test","","","","","",""
"186.59999990463257","227024","pSARL_v2","pSARL_v2q5d5ctn0","5b92b49921e7200001f530a0","freq","img/green_2bandit_b2.png","70","70","test","1","91","91","5","",""
"null","227651","pSARL_v2","pSARL_v2q5d5ctn0","5b92b49921e7200001f530a0","freq_resp","img/green_2bandit_b.png","70","70","test","","","","5","",""
"null","227810","pSARL_v2","pSARL_v2q5d5ctn0","5b92b49921e7200001f530a0","fixation","img/fixation.png","null","","test","","","","","",""
"171.09999990463257","227983","pSARL_v2","pSARL_v2q5d5ctn0","5b92b49921e7200001f530a0","freq","img/green_2bandit_b2.png","70","70","test","1","92","92","5","",""
"null","228624","pSARL_v2","pSARL_v2q5d5ctn0","5b92b49921e7200001f530a0","freq_resp","img/green_2bandit_b.png","70","70","test","","","","5","",""
"null","228783","pSARL_v2","pSARL_v2q5d5ctn0","5b92b49921e7200001f530a0","fixation","img/fixation.png","null","","test","","","","","",""
"262.60000014305115","229048","pSARL_v2","pSARL_v2q5d5ctn0","5b92b49921e7200001f530a0","freq","img/green_2bandit_b2.png","70","70","test","1","93","93","5","",""
"null","229597","pSARL_v2","pSARL_v2q5d5ctn0","5b92b49921e7200001f530a0","freq_resp","img/green_2bandit_b.png","70","70","test","","","","5","",""
"null","229756","pSARL_v2","pSARL_v2q5d5ctn0","5b92b49921e7200001f530a0","fixation","img/fixation.png","null","","test","","","","","",""
"178","229936","pSARL_v2","pSARL_v2q5d5ctn0","5b92b49921e7200001f530a0","freq","img/green_2bandit_b2.png","70","70","test","1","94","94","5","",""
"null","230572","pSARL_v2","pSARL_v2q5d5ctn0","5b92b49921e7200001f530a0","freq_resp","img/green_2bandit_b.png","70","70","test","","","","5","",""
"null","230732","pSARL_v2","pSARL_v2q5d5ctn0","5b92b49921e7200001f530a0","fixation","img/fixation.png","null","","test","","","","","",""
"273.7999999523163","231008","pSARL_v2","pSARL_v2q5d5ctn0","5b92b49921e7200001f530a0","infreq","img/orange_2bandit_b2.png","70","68","test","0","95","95","5","",""
"null","231548","pSARL_v2","pSARL_v2q5d5ctn0","5b92b49921e7200001f530a0","infreq_resp","img/orange_2bandit_b.png","70","68","test","","","","5","",""
"null","231708","pSARL_v2","pSARL_v2q5d5ctn0","5b92b49921e7200001f530a0","fixation","img/fixation.png","null","","test","","","","","",""
"218","231928","pSARL_v2","pSARL_v2q5d5ctn0","5b92b49921e7200001f530a0","freq","img/green_2bandit_b2.png","70","70","test","1","96","96","5","",""
"null","232520","pSARL_v2","pSARL_v2q5d5ctn0","5b92b49921e7200001f530a0","freq_resp","img/green_2bandit_b.png","70","70","test","","","","5","",""
"null","232681","pSARL_v2","pSARL_v2q5d5ctn0","5b92b49921e7200001f530a0","fixation","img/fixation.png","null","","test","","","","","",""
"357.7999999523163","233040","pSARL_v2","pSARL_v2q5d5ctn0","5b92b49921e7200001f530a0","freq","img/green_2bandit_b2.png","70","70","test","1","97","97","5","",""
"null","233495","pSARL_v2","pSARL_v2q5d5ctn0","5b92b49921e7200001f530a0","freq_resp","img/green_2bandit_b.png","70","70","test","","","","5","",""
"null","233655","pSARL_v2","pSARL_v2q5d5ctn0","5b92b49921e7200001f530a0","fixation","img/fixation.png","null","","test","","","","","",""
"351.7999999523163","234008","pSARL_v2","pSARL_v2q5d5ctn0","5b92b49921e7200001f530a0","freq","img/green_2bandit_b2.png","70","70","test","1","98","98","5","",""
"null","234470","pSARL_v2","pSARL_v2q5d5ctn0","5b92b49921e7200001f530a0","freq_resp","img/green_2bandit_b.png","70","70","test","","","","5","",""
"null","234630","pSARL_v2","pSARL_v2q5d5ctn0","5b92b49921e7200001f530a0","fixation","img/fixation.png","null","","test","","","","","",""
"360.90000009536743","234993","pSARL_v2","pSARL_v2q5d5ctn0","5b92b49921e7200001f530a0","freq","img/green_2bandit_b2.png","70","70","test","1","99","99","5","",""
"null","235445","pSARL_v2","pSARL_v2q5d5ctn0","5b92b49921e7200001f530a0","freq_resp","img/green_2bandit_b.png","70","70","test","","","","5","",""
"null","235605","pSARL_v2","pSARL_v2q5d5ctn0","5b92b49921e7200001f530a0","fixation","img/fixation.png","null","","test","","","","","",""
"345.89999985694885","235953","pSARL_v2","pSARL_v2q5d5ctn0","5b92b49921e7200001f530a0","freq","img/green_2bandit_b2.png","70","70","test","1","100","100","5","",""
"null","236421","pSARL_v2","pSARL_v2q5d5ctn0","5b92b49921e7200001f530a0","freq_resp","img/green_2bandit_b.png","70","70","test","","","","5","",""
"null","236581","pSARL_v2","pSARL_v2q5d5ctn0","5b92b49921e7200001f530a0","fixation","img/fixation.png","null","","test","","","","","",""
"337.60000014305115","236921","pSARL_v2","pSARL_v2q5d5ctn0","5b92b49921e7200001f530a0","freq","img/green_2bandit_b2.png","70","70","test","1","101","101","5","",""
"null","237396","pSARL_v2","pSARL_v2q5d5ctn0","5b92b49921e7200001f530a0","freq_resp","img/green_2bandit_b.png","70","70","test","","","","5","",""
"null","237554","pSARL_v2","pSARL_v2q5d5ctn0","5b92b49921e7200001f530a0","fixation","img/fixation.png","null","","test","","","","","",""
"332.89999985694885","237890","pSARL_v2","pSARL_v2q5d5ctn0","5b92b49921e7200001f530a0","freq","img/green_2bandit_b2.png","70","70","test","1","102","102","5","",""
"null","238371","pSARL_v2","pSARL_v2q5d5ctn0","5b92b49921e7200001f530a0","freq_resp","img/green_2bandit_b.png","70","70","test","","","","5","",""
"null","238531","pSARL_v2","pSARL_v2q5d5ctn0","5b92b49921e7200001f530a0","fixation","img/fixation.png","null","","test","","","","","",""
"428.60000014305115","238962","pSARL_v2","pSARL_v2q5d5ctn0","5b92b49921e7200001f530a0","infreq","img/orange_2bandit_b2.png","68","68","test","1","103","103","5","",""
"null","239347","pSARL_v2","pSARL_v2q5d5ctn0","5b92b49921e7200001f530a0","infreq_resp","img/orange_2bandit_b.png","68","68","test","","","","5","",""
"null","239507","pSARL_v2","pSARL_v2q5d5ctn0","5b92b49921e7200001f530a0","fixation","img/fixation.png","null","","test","","","","","",""
"388.7000000476837","239898","pSARL_v2","pSARL_v2q5d5ctn0","5b92b49921e7200001f530a0","freq","img/green_2bandit_b2.png","70","70","test","1","104","104","5","",""
"null","240320","pSARL_v2","pSARL_v2q5d5ctn0","5b92b49921e7200001f530a0","freq_resp","img/green_2bandit_b.png","70","70","test","","","","5","",""
"null","240481","pSARL_v2","pSARL_v2q5d5ctn0","5b92b49921e7200001f530a0","fixation","img/fixation.png","null","","test","","","","","",""
"359.2000000476837","240842","pSARL_v2","pSARL_v2q5d5ctn0","5b92b49921e7200001f530a0","freq","img/green_2bandit_b2.png","70","70","test","1","105","105","5","",""
"null","241293","pSARL_v2","pSARL_v2q5d5ctn0","5b92b49921e7200001f530a0","freq_resp","img/green_2bandit_b.png","70","70","test","","","","5","",""
"null","241452","pSARL_v2","pSARL_v2q5d5ctn0","5b92b49921e7200001f530a0","fixation","img/fixation.png","null","","test","","","","","",""
"340.2000000476837","241794","pSARL_v2","pSARL_v2q5d5ctn0","5b92b49921e7200001f530a0","freq","img/green_2bandit_b2.png","70","70","test","1","106","106","5","",""
"null","242264","pSARL_v2","pSARL_v2q5d5ctn0","5b92b49921e7200001f530a0","freq_resp","img/green_2bandit_b.png","70","70","test","","","","5","",""
"null","242423","pSARL_v2","pSARL_v2q5d5ctn0","5b92b49921e7200001f530a0","fixation","img/fixation.png","null","","test","","","","","",""
"376.59999990463257","242802","pSARL_v2","pSARL_v2q5d5ctn0","5b92b49921e7200001f530a0","freq","img/green_2bandit_b2.png","70","70","test","1","107","107","5","",""
"null","243239","pSARL_v2","pSARL_v2q5d5ctn0","5b92b49921e7200001f530a0","freq_resp","img/green_2bandit_b.png","70","70","test","","","","5","",""
"null","243398","pSARL_v2","pSARL_v2q5d5ctn0","5b92b49921e7200001f530a0","fixation","img/fixation.png","null","","test","","","","","",""
"313.7000000476837","243714","pSARL_v2","pSARL_v2q5d5ctn0","5b92b49921e7200001f530a0","freq","img/green_2bandit_b2.png","70","70","test","1","108","108","5","",""
"null","244212","pSARL_v2","pSARL_v2q5d5ctn0","5b92b49921e7200001f530a0","freq_resp","img/green_2bandit_b.png","70","70","test","","","","5","",""
"null","244372","pSARL_v2","pSARL_v2q5d5ctn0","5b92b49921e7200001f530a0","fixation","img/fixation.png","null","","test","","","","","",""
"324","244698","pSARL_v2","pSARL_v2q5d5ctn0","5b92b49921e7200001f530a0","freq","img/green_2bandit_b2.png","70","70","test","1","109","109","5","",""
"null","245187","pSARL_v2","pSARL_v2q5d5ctn0","5b92b49921e7200001f530a0","freq_resp","img/green_2bandit_b.png","70","70","test","","","","5","",""
"null","245347","pSARL_v2","pSARL_v2q5d5ctn0","5b92b49921e7200001f530a0","fixation","img/fixation.png","null","","test","","","","","",""
"325.39999985694885","245675","pSARL_v2","pSARL_v2q5d5ctn0","5b92b49921e7200001f530a0","freq","img/green_2bandit_b2.png","70","70","test","1","110","110","5","",""
"null","246160","pSARL_v2","pSARL_v2q5d5ctn0","5b92b49921e7200001f530a0","freq_resp","img/green_2bandit_b.png","70","70","test","","","","5","",""
"null","246320","pSARL_v2","pSARL_v2q5d5ctn0","5b92b49921e7200001f530a0","fixation","img/fixation.png","null","","test","","","","","",""
"353.69999980926514","246675","pSARL_v2","pSARL_v2q5d5ctn0","5b92b49921e7200001f530a0","freq","img/green_2bandit_b2.png","70","70","test","1","111","111","5","",""
"null","247135","pSARL_v2","pSARL_v2q5d5ctn0","5b92b49921e7200001f530a0","freq_resp","img/green_2bandit_b.png","70","70","test","","","","5","",""
"null","247295","pSARL_v2","pSARL_v2q5d5ctn0","5b92b49921e7200001f530a0","fixation","img/fixation.png","null","","test","","","","","",""
"314","247611","pSARL_v2","pSARL_v2q5d5ctn0","5b92b49921e7200001f530a0","freq","img/green_2bandit_b2.png","70","70","test","1","112","112","5","",""
"null","248111","pSARL_v2","pSARL_v2q5d5ctn0","5b92b49921e7200001f530a0","freq_resp","img/green_2bandit_b.png","70","70","test","","","","5","",""
"null","248271","pSARL_v2","pSARL_v2q5d5ctn0","5b92b49921e7200001f530a0","fixation","img/fixation.png","null","","test","","","","","",""
"305.90000009536743","248579","pSARL_v2","pSARL_v2q5d5ctn0","5b92b49921e7200001f530a0","freq","img/green_2bandit_b2.png","70","70","test","1","113","113","5","",""
"null","249085","pSARL_v2","pSARL_v2q5d5ctn0","5b92b49921e7200001f530a0","freq_resp","img/green_2bandit_b.png","70","70","test","","","","5","",""
"null","249244","pSARL_v2","pSARL_v2q5d5ctn0","5b92b49921e7200001f530a0","fixation","img/fixation.png","null","","test","","","","","",""
"316.7000000476837","249563","pSARL_v2","pSARL_v2q5d5ctn0","5b92b49921e7200001f530a0","freq","img/green_2bandit_b2.png","70","70","test","1","114","114","5","",""
"null","250056","pSARL_v2","pSARL_v2q5d5ctn0","5b92b49921e7200001f530a0","freq_resp","img/green_2bandit_b.png","70","70","test","","","","5","",""
"null","250216","pSARL_v2","pSARL_v2q5d5ctn0","5b92b49921e7200001f530a0","fixation","img/fixation.png","null","","test","","","","","",""
"369.7999999523163","250587","pSARL_v2","pSARL_v2q5d5ctn0","5b92b49921e7200001f530a0","freq","img/green_2bandit_b2.png","70","70","test","1","115","115","5","",""
"null","251027","pSARL_v2","pSARL_v2q5d5ctn0","5b92b49921e7200001f530a0","freq_resp","img/green_2bandit_b.png","70","70","test","","","","5","",""
"null","251187","pSARL_v2","pSARL_v2q5d5ctn0","5b92b49921e7200001f530a0","fixation","img/fixation.png","null","","test","","","","","",""
"470.60000014305115","251660","pSARL_v2","pSARL_v2q5d5ctn0","5b92b49921e7200001f530a0","reward","img/slot.png","74","","test","","","","","",""
"null","252419","pSARL_v2","pSARL_v2q5d5ctn0","5b92b49921e7200001f530a0","points","<div class=""veryhighPoints""> +1 </div>","null","na","test","","","","5","1","4"
"358.60000014305115","252780","pSARL_v2","pSARL_v2q5d5ctn0","5b92b49921e7200001f530a0","freq","img/green_2bandit_b2.png","70","70","test","1","116","116","6","",""
"null","253235","pSARL_v2","pSARL_v2q5d5ctn0","5b92b49921e7200001f530a0","freq_resp","img/green_2bandit_b.png","70","70","test","","","","6","",""
"null","253395","pSARL_v2","pSARL_v2q5d5ctn0","5b92b49921e7200001f530a0","fixation","img/fixation.png","null","","test","","","","","",""
"158.59999990463257","253556","pSARL_v2","pSARL_v2q5d5ctn0","5b92b49921e7200001f530a0","freq","img/green_2bandit_b2.png","70","70","test","1","117","117","6","",""
"null","254210","pSARL_v2","pSARL_v2q5d5ctn0","5b92b49921e7200001f530a0","freq_resp","img/green_2bandit_b.png","70","70","test","","","","6","",""
"null","254371","pSARL_v2","pSARL_v2q5d5ctn0","5b92b49921e7200001f530a0","fixation","img/fixation.png","null","","test","","","","","",""
"111.09999990463257","254484","pSARL_v2","pSARL_v2q5d5ctn0","5b92b49921e7200001f530a0","infreq","img/orange_2bandit_b2.png","70","68","test","0","118","118","6","",""
"null","255185","pSARL_v2","pSARL_v2q5d5ctn0","5b92b49921e7200001f530a0","infreq_resp","img/orange_2bandit_b.png","70","68","test","","","","6","",""
"null","255345","pSARL_v2","pSARL_v2q5d5ctn0","5b92b49921e7200001f530a0","fixation","img/fixation.png","null","","test","","","","","",""
"177.29999995231628","255524","pSARL_v2","pSARL_v2q5d5ctn0","5b92b49921e7200001f530a0","freq","img/green_2bandit_b2.png","70","70","test","1","119","119","6","",""
"null","256159","pSARL_v2","pSARL_v2q5d5ctn0","5b92b49921e7200001f530a0","freq_resp","img/green_2bandit_b.png","70","70","test","","","","6","",""
"null","256319","pSARL_v2","pSARL_v2q5d5ctn0","5b92b49921e7200001f530a0","fixation","img/fixation.png","null","","test","","","","","",""
"355.60000014305115","256676","pSARL_v2","pSARL_v2q5d5ctn0","5b92b49921e7200001f530a0","freq","img/green_2bandit_b2.png","70","70","test","1","120","120","6","",""
"null","257131","pSARL_v2","pSARL_v2q5d5ctn0","5b92b49921e7200001f530a0","freq_resp","img/green_2bandit_b.png","70","70","test","","","","6","",""
"null","257291","pSARL_v2","pSARL_v2q5d5ctn0","5b92b49921e7200001f530a0","fixation","img/fixation.png","null","","test","","","","","",""
"327.5","257620","pSARL_v2","pSARL_v2q5d5ctn0","5b92b49921e7200001f530a0","freq","img/green_2bandit_b2.png","70","70","test","1","121","121","6","",""
"null","258107","pSARL_v2","pSARL_v2q5d5ctn0","5b92b49921e7200001f530a0","freq_resp","img/green_2bandit_b.png","70","70","test","","","","6","",""
"null","258267","pSARL_v2","pSARL_v2q5d5ctn0","5b92b49921e7200001f530a0","fixation","img/fixation.png","null","","test","","","","","",""
"279.39999985694885","258548","pSARL_v2","pSARL_v2q5d5ctn0","5b92b49921e7200001f530a0","freq","img/green_2bandit_b2.png","70","70","test","1","122","122","6","",""
"null","259083","pSARL_v2","pSARL_v2q5d5ctn0","5b92b49921e7200001f530a0","freq_resp","img/green_2bandit_b.png","70","70","test","","","","6","",""
"null","259242","pSARL_v2","pSARL_v2q5d5ctn0","5b92b49921e7200001f530a0","fixation","img/fixation.png","null","","test","","","","","",""
"320.39999985694885","259565","pSARL_v2","pSARL_v2q5d5ctn0","5b92b49921e7200001f530a0","freq","img/green_2bandit_b2.png","70","70","test","1","123","123","6","",""
"null","260054","pSARL_v2","pSARL_v2q5d5ctn0","5b92b49921e7200001f530a0","freq_resp","img/green_2bandit_b.png","70","70","test","","","","6","",""
"null","260215","pSARL_v2","pSARL_v2q5d5ctn0","5b92b49921e7200001f530a0","fixation","img/fixation.png","null","","test","","","","","",""
"244.20000004768372","260461","pSARL_v2","pSARL_v2q5d5ctn0","5b92b49921e7200001f530a0","infreq","img/orange_2bandit_b2.png","70","68","test","0","124","124","6","",""
"null","261031","pSARL_v2","pSARL_v2q5d5ctn0","5b92b49921e7200001f530a0","infreq_resp","img/orange_2bandit_b.png","70","68","test","","","","6","",""
"null","261191","pSARL_v2","pSARL_v2q5d5ctn0","5b92b49921e7200001f530a0","fixation","img/fixation.png","null","","test","","","","","",""
"180.5","261373","pSARL_v2","pSARL_v2q5d5ctn0","5b92b49921e7200001f530a0","freq","img/green_2bandit_b2.png","70","70","test","1","125","125","6","",""
"null","262007","pSARL_v2","pSARL_v2q5d5ctn0","5b92b49921e7200001f530a0","freq_resp","img/green_2bandit_b.png","70","70","test","","","","6","",""
"null","262165","pSARL_v2","pSARL_v2q5d5ctn0","5b92b49921e7200001f530a0","fixation","img/fixation.png","null","","test","","","","","",""
"270.2000000476837","262437","pSARL_v2","pSARL_v2q5d5ctn0","5b92b49921e7200001f530a0","freq","img/green_2bandit_b2.png","70","70","test","1","126","126","6","",""
"null","262981","pSARL_v2","pSARL_v2q5d5ctn0","5b92b49921e7200001f530a0","freq_resp","img/green_2bandit_b.png","70","70","test","","","","6","",""
"null","263141","pSARL_v2","pSARL_v2q5d5ctn0","5b92b49921e7200001f530a0","fixation","img/fixation.png","null","","test","","","","","",""
"310.10000014305115","263453","pSARL_v2","pSARL_v2q5d5ctn0","5b92b49921e7200001f530a0","freq","img/green_2bandit_b2.png","70","70","test","1","127","127","6","",""
"null","263957","pSARL_v2","pSARL_v2q5d5ctn0","5b92b49921e7200001f530a0","freq_resp","img/green_2bandit_b.png","70","70","test","","","","6","",""
"null","264116","pSARL_v2","pSARL_v2q5d5ctn0","5b92b49921e7200001f530a0","fixation","img/fixation.png","null","","test","","","","","",""
"334.7000000476837","264453","pSARL_v2","pSARL_v2q5d5ctn0","5b92b49921e7200001f530a0","freq","img/green_2bandit_b2.png","70","70","test","1","128","128","6","",""
"null","264929","pSARL_v2","pSARL_v2q5d5ctn0","5b92b49921e7200001f530a0","freq_resp","img/green_2bandit_b.png","70","70","test","","","","6","",""
"null","265088","pSARL_v2","pSARL_v2q5d5ctn0","5b92b49921e7200001f530a0","fixation","img/fixation.png","null","","test","","","","","",""
"339.60000014305115","265429","pSARL_v2","pSARL_v2q5d5ctn0","5b92b49921e7200001f530a0","freq","img/green_2bandit_b2.png","70","70","test","1","129","129","6","",""
"null","265903","pSARL_v2","pSARL_v2q5d5ctn0","5b92b49921e7200001f530a0","freq_resp","img/green_2bandit_b.png","70","70","test","","","","6","",""
"null","266063","pSARL_v2","pSARL_v2q5d5ctn0","5b92b49921e7200001f530a0","fixation","img/fixation.png","null","","test","","","","","",""
"332.89999985694885","266398","pSARL_v2","pSARL_v2q5d5ctn0","5b92b49921e7200001f530a0","freq","img/green_2bandit_b2.png","70","70","test","1","130","130","6","",""
"null","266878","pSARL_v2","pSARL_v2q5d5ctn0","5b92b49921e7200001f530a0","freq_resp","img/green_2bandit_b.png","70","70","test","","","","6","",""
"null","267038","pSARL_v2","pSARL_v2q5d5ctn0","5b92b49921e7200001f530a0","fixation","img/fixation.png","null","","test","","","","","",""
"341.60000014305115","267382","pSARL_v2","pSARL_v2q5d5ctn0","5b92b49921e7200001f530a0","freq","img/green_2bandit_b2.png","70","70","test","1","131","131","6","",""
"null","267854","pSARL_v2","pSARL_v2q5d5ctn0","5b92b49921e7200001f530a0","freq_resp","img/green_2bandit_b.png","70","70","test","","","","6","",""
"null","268014","pSARL_v2","pSARL_v2q5d5ctn0","5b92b49921e7200001f530a0","fixation","img/fixation.png","null","","test","","","","","",""
"357.59999990463257","268374","pSARL_v2","pSARL_v2q5d5ctn0","5b92b49921e7200001f530a0","freq","img/green_2bandit_b2.png","70","70","test","1","132","132","6","",""
"null","268830","pSARL_v2","pSARL_v2q5d5ctn0","5b92b49921e7200001f530a0","freq_resp","img/green_2bandit_b.png","70","70","test","","","","6","",""
"null","268988","pSARL_v2","pSARL_v2q5d5ctn0","5b92b49921e7200001f530a0","fixation","img/fixation.png","null","","test","","","","","",""
"303.59999990463257","269294","pSARL_v2","pSARL_v2q5d5ctn0","5b92b49921e7200001f530a0","freq","img/green_2bandit_b2.png","70","70","test","1","133","133","6","",""
"null","269803","pSARL_v2","pSARL_v2q5d5ctn0","5b92b49921e7200001f530a0","freq_resp","img/green_2bandit_b.png","70","70","test","","","","6","",""
"null","269963","pSARL_v2","pSARL_v2q5d5ctn0","5b92b49921e7200001f530a0","fixation","img/fixation.png","null","","test","","","","","",""
"353","270318","pSARL_v2","pSARL_v2q5d5ctn0","5b92b49921e7200001f530a0","freq","img/green_2bandit_b2.png","70","70","test","1","134","134","6","",""
"null","270779","pSARL_v2","pSARL_v2q5d5ctn0","5b92b49921e7200001f530a0","freq_resp","img/green_2bandit_b.png","70","70","test","","","","6","",""
"null","270938","pSARL_v2","pSARL_v2q5d5ctn0","5b92b49921e7200001f530a0","fixation","img/fixation.png","null","","test","","","","","",""
"354.09999990463257","271294","pSARL_v2","pSARL_v2q5d5ctn0","5b92b49921e7200001f530a0","freq","img/green_2bandit_b2.png","70","70","test","1","135","135","6","",""
"null","271754","pSARL_v2","pSARL_v2q5d5ctn0","5b92b49921e7200001f530a0","freq_resp","img/green_2bandit_b.png","70","70","test","","","","6","",""
"null","271915","pSARL_v2","pSARL_v2q5d5ctn0","5b92b49921e7200001f530a0","fixation","img/fixation.png","null","","test","","","","","",""
"346.19999980926514","272263","pSARL_v2","pSARL_v2q5d5ctn0","5b92b49921e7200001f530a0","freq","img/green_2bandit_b2.png","70","70","test","1","136","136","6","",""
"null","272727","pSARL_v2","pSARL_v2q5d5ctn0","5b92b49921e7200001f530a0","freq_resp","img/green_2bandit_b.png","70","70","test","","","","6","",""
"null","272887","pSARL_v2","pSARL_v2q5d5ctn0","5b92b49921e7200001f530a0","fixation","img/fixation.png","null","","test","","","","","",""
"333.89999985694885","273223","pSARL_v2","pSARL_v2q5d5ctn0","5b92b49921e7200001f530a0","freq","img/green_2bandit_b2.png","70","70","test","1","137","137","6","",""
"null","273703","pSARL_v2","pSARL_v2q5d5ctn0","5b92b49921e7200001f530a0","freq_resp","img/green_2bandit_b.png","70","70","test","","","","6","",""
"null","273863","pSARL_v2","pSARL_v2q5d5ctn0","5b92b49921e7200001f530a0","fixation","img/fixation.png","null","","test","","","","","",""
"342.09999990463257","274207","pSARL_v2","pSARL_v2q5d5ctn0","5b92b49921e7200001f530a0","freq","img/green_2bandit_b2.png","70","70","test","1","138","138","6","",""
"null","274678","pSARL_v2","pSARL_v2q5d5ctn0","5b92b49921e7200001f530a0","freq_resp","img/green_2bandit_b.png","70","70","test","","","","6","",""
"null","274838","pSARL_v2","pSARL_v2q5d5ctn0","5b92b49921e7200001f530a0","fixation","img/fixation.png","null","","test","","","","","",""
"334.5","275175","pSARL_v2","pSARL_v2q5d5ctn0","5b92b49921e7200001f530a0","freq","img/green_2bandit_b2.png","70","70","test","1","139","139","6","",""
"null","275654","pSARL_v2","pSARL_v2q5d5ctn0","5b92b49921e7200001f530a0","freq_resp","img/green_2bandit_b.png","70","70","test","","","","6","",""
"null","275814","pSARL_v2","pSARL_v2q5d5ctn0","5b92b49921e7200001f530a0","fixation","img/fixation.png","null","","test","","","","","",""
"590.5999999046326","276408","pSARL_v2","pSARL_v2q5d5ctn0","5b92b49921e7200001f530a0","reward","img/slot.png","74","","test","","","","","",""
"null","277171","pSARL_v2","pSARL_v2q5d5ctn0","5b92b49921e7200001f530a0","points","<div class=""verylowPoints""> -7 </div>","null","na","test","","","","6","-7","5"
"418.2000000476837","277591","pSARL_v2","pSARL_v2q5d5ctn0","5b92b49921e7200001f530a0","freq","img/green_2bandit_b2.png","70","70","test","1","140","140","7","",""
"null","277983","pSARL_v2","pSARL_v2q5d5ctn0","5b92b49921e7200001f530a0","freq_resp","img/green_2bandit_b.png","70","70","test","","","","7","",""
"null","278143","pSARL_v2","pSARL_v2q5d5ctn0","5b92b49921e7200001f530a0","fixation","img/fixation.png","null","","test","","","","","",""
"134.69999980926514","278279","pSARL_v2","pSARL_v2q5d5ctn0","5b92b49921e7200001f530a0","freq","img/green_2bandit_b2.png","70","70","test","1","141","141","7","",""
"null","278959","pSARL_v2","pSARL_v2q5d5ctn0","5b92b49921e7200001f530a0","freq_resp","img/green_2bandit_b.png","70","70","test","","","","7","",""
"null","279119","pSARL_v2","pSARL_v2q5d5ctn0","5b92b49921e7200001f530a0","fixation","img/fixation.png","null","","test","","","","","",""
"318.2999999523163","279440","pSARL_v2","pSARL_v2q5d5ctn0","5b92b49921e7200001f530a0","freq","img/green_2bandit_b2.png","70","70","test","1","142","142","7","",""
"null","279931","pSARL_v2","pSARL_v2q5d5ctn0","5b92b49921e7200001f530a0","freq_resp","img/green_2bandit_b.png","70","70","test","","","","7","",""
"null","280091","pSARL_v2","pSARL_v2q5d5ctn0","5b92b49921e7200001f530a0","fixation","img/fixation.png","null","","test","","","","","",""
"322.60000014305115","280416","pSARL_v2","pSARL_v2q5d5ctn0","5b92b49921e7200001f530a0","infreq","img/orange_2bandit_b2.png","70","68","test","0","143","143","7","",""
"null","280906","pSARL_v2","pSARL_v2q5d5ctn0","5b92b49921e7200001f530a0","infreq_resp","img/orange_2bandit_b.png","70","68","test","","","","7","",""
"null","281065","pSARL_v2","pSARL_v2q5d5ctn0","5b92b49921e7200001f530a0","fixation","img/fixation.png","null","","test","","","","","",""
"364.69999980926514","281432","pSARL_v2","pSARL_v2q5d5ctn0","5b92b49921e7200001f530a0","freq","img/green_2bandit_b2.png","70","70","test","1","144","144","7","",""
"null","281881","pSARL_v2","pSARL_v2q5d5ctn0","5b92b49921e7200001f530a0","freq_resp","img/green_2bandit_b.png","70","70","test","","","","7","",""
"null","282039","pSARL_v2","pSARL_v2q5d5ctn0","5b92b49921e7200001f530a0","fixation","img/fixation.png","null","","test","","","","","",""
"326.7999999523163","282368","pSARL_v2","pSARL_v2q5d5ctn0","5b92b49921e7200001f530a0","freq","img/green_2bandit_b2.png","70","70","test","1","145","145","7","",""
"null","282852","pSARL_v2","pSARL_v2q5d5ctn0","5b92b49921e7200001f530a0","freq_resp","img/green_2bandit_b.png","70","70","test","","","","7","",""
"null","283012","pSARL_v2","pSARL_v2q5d5ctn0","5b92b49921e7200001f530a0","fixation","img/fixation.png","null","","test","","","","","",""
"346.40000009536743","283360","pSARL_v2","pSARL_v2q5d5ctn0","5b92b49921e7200001f530a0","freq","img/green_2bandit_b2.png","70","70","test","1","146","146","7","",""
"null","283828","pSARL_v2","pSARL_v2q5d5ctn0","5b92b49921e7200001f530a0","freq_resp","img/green_2bandit_b.png","70","70","test","","","","7","",""
"null","283988","pSARL_v2","pSARL_v2q5d5ctn0","5b92b49921e7200001f530a0","fixation","img/fixation.png","null","","test","","","","","",""
"538.5","284528","pSARL_v2","pSARL_v2q5d5ctn0","5b92b49921e7200001f530a0","infreq","img/orange_2bandit_b2.png","68","68","test","1","147","147","7","",""
"null","284803","pSARL_v2","pSARL_v2q5d5ctn0","5b92b49921e7200001f530a0","infreq_resp","img/orange_2bandit_b.png","68","68","test","","","","7","",""
"null","284963","pSARL_v2","pSARL_v2q5d5ctn0","5b92b49921e7200001f530a0","fixation","img/fixation.png","null","","test","","","","","",""
"475.09999990463257","285440","pSARL_v2","pSARL_v2q5d5ctn0","5b92b49921e7200001f530a0","freq","img/green_2bandit_b2.png","70","70","test","1","148","148","7","",""
"null","285780","pSARL_v2","pSARL_v2q5d5ctn0","5b92b49921e7200001f530a0","freq_resp","img/green_2bandit_b.png","70","70","test","","","","7","",""
"null","285937","pSARL_v2","pSARL_v2q5d5ctn0","5b92b49921e7200001f530a0","fixation","img/fixation.png","null","","test","","","","","",""
"310.2000000476837","286249","pSARL_v2","pSARL_v2q5d5ctn0","5b92b49921e7200001f530a0","freq","img/green_2bandit_b2.png","70","70","test","1","149","149","7","",""
"null","286751","pSARL_v2","pSARL_v2q5d5ctn0","5b92b49921e7200001f530a0","freq_resp","img/green_2bandit_b.png","70","70","test","","","","7","",""
"null","286911","pSARL_v2","pSARL_v2q5d5ctn0","5b92b49921e7200001f530a0","fixation","img/fixation.png","null","","test","","","","","",""
"335.90000009536743","287249","pSARL_v2","pSARL_v2q5d5ctn0","5b92b49921e7200001f530a0","freq","img/green_2bandit_b2.png","70","70","test","1","150","150","7","",""
"null","287727","pSARL_v2","pSARL_v2q5d5ctn0","5b92b49921e7200001f530a0","freq_resp","img/green_2bandit_b.png","70","70","test","","","","7","",""
"null","287888","pSARL_v2","pSARL_v2q5d5ctn0","5b92b49921e7200001f530a0","fixation","img/fixation.png","null","","test","","","","","",""
"247.20000004768372","288137","pSARL_v2","pSARL_v2q5d5ctn0","5b92b49921e7200001f530a0","freq","img/green_2bandit_b2.png","70","70","test","1","151","151","7","",""
"null","288703","pSARL_v2","pSARL_v2q5d5ctn0","5b92b49921e7200001f530a0","freq_resp","img/green_2bandit_b.png","70","70","test","","","","7","",""
"null","288863","pSARL_v2","pSARL_v2q5d5ctn0","5b92b49921e7200001f530a0","fixation","img/fixation.png","null","","test","","","","","",""
"351.5","289217","pSARL_v2","pSARL_v2q5d5ctn0","5b92b49921e7200001f530a0","freq","img/green_2bandit_b2.png","70","70","test","1","152","152","7","",""
"null","289679","pSARL_v2","pSARL_v2q5d5ctn0","5b92b49921e7200001f530a0","freq_resp","img/green_2bandit_b.png","70","70","test","","","","7","",""
"null","289838","pSARL_v2","pSARL_v2q5d5ctn0","5b92b49921e7200001f530a0","fixation","img/fixation.png","null","","test","","","","","",""
"345.39999985694885","290185","pSARL_v2","pSARL_v2q5d5ctn0","5b92b49921e7200001f530a0","freq","img/green_2bandit_b2.png","70","70","test","1","153","153","7","",""
"null","290649","pSARL_v2","pSARL_v2q5d5ctn0","5b92b49921e7200001f530a0","freq_resp","img/green_2bandit_b.png","70","70","test","","","","7","",""
"null","290809","pSARL_v2","pSARL_v2q5d5ctn0","5b92b49921e7200001f530a0","fixation","img/fixation.png","null","","test","","","","","",""
"318.2999999523163","291129","pSARL_v2","pSARL_v2q5d5ctn0","5b92b49921e7200001f530a0","freq","img/green_2bandit_b2.png","70","70","test","1","154","154","7","",""
"null","291624","pSARL_v2","pSARL_v2q5d5ctn0","5b92b49921e7200001f530a0","freq_resp","img/green_2bandit_b.png","70","70","test","","","","7","",""
"null","291784","pSARL_v2","pSARL_v2q5d5ctn0","5b92b49921e7200001f530a0","fixation","img/fixation.png","null","","test","","","","","",""
"335.40000009536743","292122","pSARL_v2","pSARL_v2q5d5ctn0","5b92b49921e7200001f530a0","freq","img/green_2bandit_b2.png","70","70","test","1","155","155","7","",""
"null","292600","pSARL_v2","pSARL_v2q5d5ctn0","5b92b49921e7200001f530a0","freq_resp","img/green_2bandit_b.png","70","70","test","","","","7","",""
"null","292760","pSARL_v2","pSARL_v2q5d5ctn0","5b92b49921e7200001f530a0","fixation","img/fixation.png","null","","test","","","","","",""
"343.69999980926514","293106","pSARL_v2","pSARL_v2q5d5ctn0","5b92b49921e7200001f530a0","freq","img/green_2bandit_b2.png","70","70","test","1","156","156","7","",""
"null","293575","pSARL_v2","pSARL_v2q5d5ctn0","5b92b49921e7200001f530a0","freq_resp","img/green_2bandit_b.png","70","70","test","","","","7","",""
"null","293736","pSARL_v2","pSARL_v2q5d5ctn0","5b92b49921e7200001f530a0","fixation","img/fixation.png","null","","test","","","","","",""
"336.10000014305115","294074","pSARL_v2","pSARL_v2q5d5ctn0","5b92b49921e7200001f530a0","freq","img/green_2bandit_b2.png","70","70","test","1","157","157","7","",""
"null","294549","pSARL_v2","pSARL_v2q5d5ctn0","5b92b49921e7200001f530a0","freq_resp","img/green_2bandit_b.png","70","70","test","","","","7","",""
"null","294706","pSARL_v2","pSARL_v2q5d5ctn0","5b92b49921e7200001f530a0","fixation","img/fixation.png","null","","test","","","","","",""
"525.2999999523163","295234","pSARL_v2","pSARL_v2q5d5ctn0","5b92b49921e7200001f530a0","infreq","img/orange_2bandit_b2.png","68","68","test","1","158","158","7","",""
"null","295523","pSARL_v2","pSARL_v2q5d5ctn0","5b92b49921e7200001f530a0","infreq_resp","img/orange_2bandit_b.png","68","68","test","","","","7","",""
"null","295683","pSARL_v2","pSARL_v2q5d5ctn0","5b92b49921e7200001f530a0","fixation","img/fixation.png","null","","test","","","","","",""
"317.09999990463257","296002","pSARL_v2","pSARL_v2q5d5ctn0","5b92b49921e7200001f530a0","freq","img/green_2bandit_b2.png","70","70","test","1","159","159","7","",""
"null","296494","pSARL_v2","pSARL_v2q5d5ctn0","5b92b49921e7200001f530a0","freq_resp","img/green_2bandit_b.png","70","70","test","","","","7","",""
"null","296654","pSARL_v2","pSARL_v2q5d5ctn0","5b92b49921e7200001f530a0","fixation","img/fixation.png","null","","test","","","","","",""
"330.40000009536743","296986","pSARL_v2","pSARL_v2q5d5ctn0","5b92b49921e7200001f530a0","freq","img/green_2bandit_b2.png","70","70","test","1","160","160","7","",""
"null","297467","pSARL_v2","pSARL_v2q5d5ctn0","5b92b49921e7200001f530a0","freq_resp","img/green_2bandit_b.png","70","70","test","","","","7","",""
"null","297627","pSARL_v2","pSARL_v2q5d5ctn0","5b92b49921e7200001f530a0","fixation","img/fixation.png","null","","test","","","","","",""
"301.2000000476837","297930","pSARL_v2","pSARL_v2q5d5ctn0","5b92b49921e7200001f530a0","freq","img/green_2bandit_b2.png","70","70","test","1","161","161","7","",""
"null","298443","pSARL_v2","pSARL_v2q5d5ctn0","5b92b49921e7200001f530a0","freq_resp","img/green_2bandit_b.png","70","70","test","","","","7","",""
"null","298603","pSARL_v2","pSARL_v2q5d5ctn0","5b92b49921e7200001f530a0","fixation","img/fixation.png","null","","test","","","","","",""
"293.09999990463257","298898","pSARL_v2","pSARL_v2q5d5ctn0","5b92b49921e7200001f530a0","freq","img/green_2bandit_b2.png","70","70","test","1","162","162","7","",""
"null","299419","pSARL_v2","pSARL_v2q5d5ctn0","5b92b49921e7200001f530a0","freq_resp","img/green_2bandit_b.png","70","70","test","","","","7","",""
"null","299579","pSARL_v2","pSARL_v2q5d5ctn0","5b92b49921e7200001f530a0","fixation","img/fixation.png","null","","test","","","","","",""
"685.2000000476837","300267","pSARL_v2","pSARL_v2q5d5ctn0","5b92b49921e7200001f530a0","reward","img/slot.png","74","","test","","","","","",""
"null","301031","pSARL_v2","pSARL_v2q5d5ctn0","5b92b49921e7200001f530a0","points","<div class=""verylowPoints""> -6 </div>","null","na","test","","","","7","-6","6"
"337.7000000476837","301371","pSARL_v2","pSARL_v2q5d5ctn0","5b92b49921e7200001f530a0","freq","img/green_2bandit_b2.png","70","70","test","1","163","163","8","",""
"null","301847","pSARL_v2","pSARL_v2q5d5ctn0","5b92b49921e7200001f530a0","freq_resp","img/green_2bandit_b.png","70","70","test","","","","8","",""
"null","302007","pSARL_v2","pSARL_v2q5d5ctn0","5b92b49921e7200001f530a0","fixation","img/fixation.png","null","","test","","","","","",""
"305.69999980926514","302315","pSARL_v2","pSARL_v2q5d5ctn0","5b92b49921e7200001f530a0","freq","img/green_2bandit_b2.png","70","70","test","1","164","164","8","",""
"null","302823","pSARL_v2","pSARL_v2q5d5ctn0","5b92b49921e7200001f530a0","freq_resp","img/green_2bandit_b.png","70","70","test","","","","8","",""
"null","302983","pSARL_v2","pSARL_v2q5d5ctn0","5b92b49921e7200001f530a0","fixation","img/fixation.png","null","","test","","","","","",""
"178.5","303164","pSARL_v2","pSARL_v2q5d5ctn0","5b92b49921e7200001f530a0","freq","img/green_2bandit_b2.png","70","70","test","1","165","165","8","",""
"null","303798","pSARL_v2","pSARL_v2q5d5ctn0","5b92b49921e7200001f530a0","freq_resp","img/green_2bandit_b.png","70","70","test","","","","8","",""
"null","303958","pSARL_v2","pSARL_v2q5d5ctn0","5b92b49921e7200001f530a0","fixation","img/fixation.png","null","","test","","","","","",""
"307.30000019073486","304267","pSARL_v2","pSARL_v2q5d5ctn0","5b92b49921e7200001f530a0","freq","img/green_2bandit_b2.png","70","70","test","1","166","166","8","",""
"null","304771","pSARL_v2","pSARL_v2q5d5ctn0","5b92b49921e7200001f530a0","freq_resp","img/green_2bandit_b.png","70","70","test","","","","8","",""
"null","304932","pSARL_v2","pSARL_v2q5d5ctn0","5b92b49921e7200001f530a0","fixation","img/fixation.png","null","","test","","","","","",""
"357.89999985694885","305291","pSARL_v2","pSARL_v2q5d5ctn0","5b92b49921e7200001f530a0","freq","img/green_2bandit_b2.png","70","70","test","1","167","167","8","",""
"null","305742","pSARL_v2","pSARL_v2q5d5ctn0","5b92b49921e7200001f530a0","freq_resp","img/green_2bandit_b.png","70","70","test","","","","8","",""
"null","305901","pSARL_v2","pSARL_v2q5d5ctn0","5b92b49921e7200001f530a0","fixation","img/fixation.png","null","","test","","","","","",""
"372.5","306276","pSARL_v2","pSARL_v2q5d5ctn0","5b92b49921e7200001f530a0","freq","img/green_2bandit_b2.png","70","70","test","1","168","168","8","",""
"null","306716","pSARL_v2","pSARL_v2q5d5ctn0","5b92b49921e7200001f530a0","freq_resp","img/green_2bandit_b.png","70","70","test","","","","8","",""
"null","306876","pSARL_v2","pSARL_v2q5d5ctn0","5b92b49921e7200001f530a0","fixation","img/fixation.png","null","","test","","","","","",""
"325.5","307204","pSARL_v2","pSARL_v2q5d5ctn0","5b92b49921e7200001f530a0","freq","img/green_2bandit_b2.png","70","70","test","1","169","169","8","",""
"null","307691","pSARL_v2","pSARL_v2q5d5ctn0","5b92b49921e7200001f530a0","freq_resp","img/green_2bandit_b.png","70","70","test","","","","8","",""
"null","307851","pSARL_v2","pSARL_v2q5d5ctn0","5b92b49921e7200001f530a0","fixation","img/fixation.png","null","","test","","","","","",""
"342.59999990463257","308195","pSARL_v2","pSARL_v2q5d5ctn0","5b92b49921e7200001f530a0","freq","img/green_2bandit_b2.png","70","70","test","1","170","170","8","",""
"null","308667","pSARL_v2","pSARL_v2q5d5ctn0","5b92b49921e7200001f530a0","freq_resp","img/green_2bandit_b.png","70","70","test","","","","8","",""
"null","308827","pSARL_v2","pSARL_v2q5d5ctn0","5b92b49921e7200001f530a0","fixation","img/fixation.png","null","","test","","","","","",""
"358.90000009536743","309188","pSARL_v2","pSARL_v2q5d5ctn0","5b92b49921e7200001f530a0","freq","img/green_2bandit_b2.png","70","70","test","1","171","171","8","",""
"null","309642","pSARL_v2","pSARL_v2q5d5ctn0","5b92b49921e7200001f530a0","freq_resp","img/green_2bandit_b.png","70","70","test","","","","8","",""
"null","309803","pSARL_v2","pSARL_v2q5d5ctn0","5b92b49921e7200001f530a0","fixation","img/fixation.png","null","","test","","","","","",""
"375.5","310180","pSARL_v2","pSARL_v2q5d5ctn0","5b92b49921e7200001f530a0","freq","img/green_2bandit_b2.png","70","70","test","1","172","172","8","",""
"null","310615","pSARL_v2","pSARL_v2q5d5ctn0","5b92b49921e7200001f530a0","freq_resp","img/green_2bandit_b.png","70","70","test","","","","8","",""
"null","310774","pSARL_v2","pSARL_v2q5d5ctn0","5b92b49921e7200001f530a0","fixation","img/fixation.png","null","","test","","","","","",""
"507.59999990463257","311284","pSARL_v2","pSARL_v2q5d5ctn0","5b92b49921e7200001f530a0","infreq","img/orange_2bandit_b2.png","68","68","test","1","173","173","8","",""
"null","311590","pSARL_v2","pSARL_v2q5d5ctn0","5b92b49921e7200001f530a0","infreq_resp","img/orange_2bandit_b.png","68","68","test","","","","8","",""
"null","311750","pSARL_v2","pSARL_v2q5d5ctn0","5b92b49921e7200001f530a0","fixation","img/fixation.png","null","","test","","","","","",""
"276.40000009536743","312028","pSARL_v2","pSARL_v2q5d5ctn0","5b92b49921e7200001f530a0","freq","img/green_2bandit_b2.png","70","70","test","1","174","174","8","",""
"null","312565","pSARL_v2","pSARL_v2q5d5ctn0","5b92b49921e7200001f530a0","freq_resp","img/green_2bandit_b.png","70","70","test","","","","8","",""
"null","312725","pSARL_v2","pSARL_v2q5d5ctn0","5b92b49921e7200001f530a0","fixation","img/fixation.png","null","","test","","","","","",""
"301.40000009536743","313029","pSARL_v2","pSARL_v2q5d5ctn0","5b92b49921e7200001f530a0","freq","img/green_2bandit_b2.png","70","70","test","1","175","175","8","",""
"null","313541","pSARL_v2","pSARL_v2q5d5ctn0","5b92b49921e7200001f530a0","freq_resp","img/green_2bandit_b.png","70","70","test","","","","8","",""
"null","313700","pSARL_v2","pSARL_v2q5d5ctn0","5b92b49921e7200001f530a0","fixation","img/fixation.png","null","","test","","","","","",""
"318.7000000476837","314021","pSARL_v2","pSARL_v2q5d5ctn0","5b92b49921e7200001f530a0","freq","img/green_2bandit_b2.png","70","70","test","1","176","176","8","",""
"null","314515","pSARL_v2","pSARL_v2q5d5ctn0","5b92b49921e7200001f530a0","freq_resp","img/green_2bandit_b.png","70","70","test","","","","8","",""
"null","314675","pSARL_v2","pSARL_v2q5d5ctn0","5b92b49921e7200001f530a0","fixation","img/fixation.png","null","","test","","","","","",""
"247.10000014305115","314925","pSARL_v2","pSARL_v2q5d5ctn0","5b92b49921e7200001f530a0","freq","img/green_2bandit_b2.png","70","70","test","1","177","177","8","",""
"null","315490","pSARL_v2","pSARL_v2q5d5ctn0","5b92b49921e7200001f530a0","freq_resp","img/green_2bandit_b.png","70","70","test","","","","8","",""
"null","315650","pSARL_v2","pSARL_v2q5d5ctn0","5b92b49921e7200001f530a0","fixation","img/fixation.png","null","","test","","","","","",""
"512.6000001430511","316165","pSARL_v2","pSARL_v2q5d5ctn0","5b92b49921e7200001f530a0","infreq","img/orange_2bandit_b2.png","68","68","test","1","178","178","8","",""
"null","316463","pSARL_v2","pSARL_v2q5d5ctn0","5b92b49921e7200001f530a0","infreq_resp","img/orange_2bandit_b.png","68","68","test","","","","8","",""
"null","316623","pSARL_v2","pSARL_v2q5d5ctn0","5b92b49921e7200001f530a0","fixation","img/fixation.png","null","","test","","","","","",""
"356.19999980926514","316981","pSARL_v2","pSARL_v2q5d5ctn0","5b92b49921e7200001f530a0","freq","img/green_2bandit_b2.png","70","70","test","1","179","179","8","",""
"null","317436","pSARL_v2","pSARL_v2q5d5ctn0","5b92b49921e7200001f530a0","freq_resp","img/green_2bandit_b.png","70","70","test","","","","8","",""
"null","317594","pSARL_v2","pSARL_v2q5d5ctn0","5b92b49921e7200001f530a0","fixation","img/fixation.png","null","","test","","","","","",""
"456.5","318053","pSARL_v2","pSARL_v2q5d5ctn0","5b92b49921e7200001f530a0","freq","img/green_2bandit_b2.png","70","70","test","1","180","180","8","",""
"null","318409","pSARL_v2","pSARL_v2q5d5ctn0","5b92b49921e7200001f530a0","freq_resp","img/green_2bandit_b.png","70","70","test","","","","8","",""
"null","318569","pSARL_v2","pSARL_v2q5d5ctn0","5b92b49921e7200001f530a0","fixation","img/fixation.png","null","","test","","","","","",""
"330.7999999523163","318901","pSARL_v2","pSARL_v2q5d5ctn0","5b92b49921e7200001f530a0","freq","img/green_2bandit_b2.png","70","70","test","1","181","181","8","",""
"null","319383","pSARL_v2","pSARL_v2q5d5ctn0","5b92b49921e7200001f530a0","freq_resp","img/green_2bandit_b.png","70","70","test","","","","8","",""
"null","319543","pSARL_v2","pSARL_v2q5d5ctn0","5b92b49921e7200001f530a0","fixation","img/fixation.png","null","","test","","","","","",""
"356.59999990463257","319902","pSARL_v2","pSARL_v2q5d5ctn0","5b92b49921e7200001f530a0","freq","img/green_2bandit_b2.png","70","70","test","1","182","182","8","",""
"null","320358","pSARL_v2","pSARL_v2q5d5ctn0","5b92b49921e7200001f530a0","freq_resp","img/green_2bandit_b.png","70","70","test","","","","8","",""
"null","320517","pSARL_v2","pSARL_v2q5d5ctn0","5b92b49921e7200001f530a0","fixation","img/fixation.png","null","","test","","","","","",""
"342.59999990463257","320862","pSARL_v2","pSARL_v2q5d5ctn0","5b92b49921e7200001f530a0","freq","img/green_2bandit_b2.png","70","70","test","1","183","183","8","",""
"null","321332","pSARL_v2","pSARL_v2q5d5ctn0","5b92b49921e7200001f530a0","freq_resp","img/green_2bandit_b.png","70","70","test","","","","8","",""
"null","321491","pSARL_v2","pSARL_v2q5d5ctn0","5b92b49921e7200001f530a0","fixation","img/fixation.png","null","","test","","","","","",""
"336.59999990463257","321830","pSARL_v2","pSARL_v2q5d5ctn0","5b92b49921e7200001f530a0","freq","img/green_2bandit_b2.png","70","70","test","1","184","184","8","",""
"null","322307","pSARL_v2","pSARL_v2q5d5ctn0","5b92b49921e7200001f530a0","freq_resp","img/green_2bandit_b.png","70","70","test","","","","8","",""
"null","322467","pSARL_v2","pSARL_v2q5d5ctn0","5b92b49921e7200001f530a0","fixation","img/fixation.png","null","","test","","","","","",""
"353","322822","pSARL_v2","pSARL_v2q5d5ctn0","5b92b49921e7200001f530a0","freq","img/green_2bandit_b2.png","70","70","test","1","185","185","8","",""
"null","323283","pSARL_v2","pSARL_v2q5d5ctn0","5b92b49921e7200001f530a0","freq_resp","img/green_2bandit_b.png","70","70","test","","","","8","",""
"null","323443","pSARL_v2","pSARL_v2q5d5ctn0","5b92b49921e7200001f530a0","fixation","img/fixation.png","null","","test","","","","","",""
"296.7000000476837","323742","pSARL_v2","pSARL_v2q5d5ctn0","5b92b49921e7200001f530a0","freq","img/green_2bandit_b2.png","70","70","test","1","186","186","8","",""
"null","324258","pSARL_v2","pSARL_v2q5d5ctn0","5b92b49921e7200001f530a0","freq_resp","img/green_2bandit_b.png","70","70","test","","","","8","",""
"null","324419","pSARL_v2","pSARL_v2q5d5ctn0","5b92b49921e7200001f530a0","fixation","img/fixation.png","null","","test","","","","","",""
"393.7000000476837","324814","pSARL_v2","pSARL_v2q5d5ctn0","5b92b49921e7200001f530a0","freq","img/green_2bandit_b2.png","70","70","test","1","187","187","8","",""
"null","325235","pSARL_v2","pSARL_v2q5d5ctn0","5b92b49921e7200001f530a0","freq_resp","img/green_2bandit_b.png","70","70","test","","","","8","",""
"null","325395","pSARL_v2","pSARL_v2q5d5ctn0","5b92b49921e7200001f530a0","fixation","img/fixation.png","null","","test","","","","","",""
"465","325862","pSARL_v2","pSARL_v2q5d5ctn0","5b92b49921e7200001f530a0","reward","img/slot.png","74","","test","","","","","",""
"null","326626","pSARL_v2","pSARL_v2q5d5ctn0","5b92b49921e7200001f530a0","points","<div class=""verylowPoints""> -4 </div>","null","na","test","","","","8","-4","7"
"10","326638","pSARL_v2","pSARL_v2q5d5ctn0","5b92b49921e7200001f530a0","freq","img/green_2bandit_b2.png","70","70","test","1","188","188","9","",""
"null","327441","pSARL_v2","pSARL_v2q5d5ctn0","5b92b49921e7200001f530a0","freq_resp","img/green_2bandit_b.png","70","70","test","","","","9","",""
"null","327601","pSARL_v2","pSARL_v2q5d5ctn0","5b92b49921e7200001f530a0","fixation","img/fixation.png","null","","test","","","","","",""
"243.20000004768372","327847","pSARL_v2","pSARL_v2q5d5ctn0","5b92b49921e7200001f530a0","freq","img/green_2bandit_b2.png","70","70","test","1","189","189","9","",""
"null","328417","pSARL_v2","pSARL_v2q5d5ctn0","5b92b49921e7200001f530a0","freq_resp","img/green_2bandit_b.png","70","70","test","","","","9","",""
"null","328576","pSARL_v2","pSARL_v2q5d5ctn0","5b92b49921e7200001f530a0","fixation","img/fixation.png","null","","test","","","","","",""
"308.40000009536743","328887","pSARL_v2","pSARL_v2q5d5ctn0","5b92b49921e7200001f530a0","freq","img/green_2bandit_b2.png","70","70","test","1","190","190","9","",""
"null","329391","pSARL_v2","pSARL_v2q5d5ctn0","5b92b49921e7200001f530a0","freq_resp","img/green_2bandit_b.png","70","70","test","","","","9","",""
"null","329550","pSARL_v2","pSARL_v2q5d5ctn0","5b92b49921e7200001f530a0","fixation","img/fixation.png","null","","test","","","","","",""
"326.90000009536743","329879","pSARL_v2","pSARL_v2q5d5ctn0","5b92b49921e7200001f530a0","freq","img/green_2bandit_b2.png","70","70","test","1","191","191","9","",""
"null","330362","pSARL_v2","pSARL_v2q5d5ctn0","5b92b49921e7200001f530a0","freq_resp","img/green_2bandit_b.png","70","70","test","","","","9","",""
"null","330522","pSARL_v2","pSARL_v2q5d5ctn0","5b92b49921e7200001f530a0","fixation","img/fixation.png","null","","test","","","","","",""
"402.69999980926514","330927","pSARL_v2","pSARL_v2q5d5ctn0","5b92b49921e7200001f530a0","freq","img/green_2bandit_b2.png","70","70","test","1","192","192","9","",""
"null","331335","pSARL_v2","pSARL_v2q5d5ctn0","5b92b49921e7200001f530a0","freq_resp","img/green_2bandit_b.png","70","70","test","","","","9","",""
"null","331495","pSARL_v2","pSARL_v2q5d5ctn0","5b92b49921e7200001f530a0","fixation","img/fixation.png","null","","test","","","","","",""
"341.90000009536743","331839","pSARL_v2","pSARL_v2q5d5ctn0","5b92b49921e7200001f530a0","freq","img/green_2bandit_b2.png","70","70","test","1","193","193","9","",""
"null","332311","pSARL_v2","pSARL_v2q5d5ctn0","5b92b49921e7200001f530a0","freq_resp","img/green_2bandit_b.png","70","70","test","","","","9","",""
"null","332470","pSARL_v2","pSARL_v2q5d5ctn0","5b92b49921e7200001f530a0","fixation","img/fixation.png","null","","test","","","","","",""
"310.7999999523163","332783","pSARL_v2","pSARL_v2q5d5ctn0","5b92b49921e7200001f530a0","freq","img/green_2bandit_b2.png","70","70","test","1","194","194","9","",""
"null","333286","pSARL_v2","pSARL_v2q5d5ctn0","5b92b49921e7200001f530a0","freq_resp","img/green_2bandit_b.png","70","70","test","","","","9","",""
"null","333446","pSARL_v2","pSARL_v2q5d5ctn0","5b92b49921e7200001f530a0","fixation","img/fixation.png","null","","test","","","","","",""
"327.2999999523163","333776","pSARL_v2","pSARL_v2q5d5ctn0","5b92b49921e7200001f530a0","freq","img/green_2bandit_b2.png","70","70","test","1","195","195","9","",""
"null","334262","pSARL_v2","pSARL_v2q5d5ctn0","5b92b49921e7200001f530a0","freq_resp","img/green_2bandit_b.png","70","70","test","","","","9","",""
"null","334419","pSARL_v2","pSARL_v2q5d5ctn0","5b92b49921e7200001f530a0","fixation","img/fixation.png","null","","test","","","","","",""
"306.2999999523163","334728","pSARL_v2","pSARL_v2q5d5ctn0","5b92b49921e7200001f530a0","freq","img/green_2bandit_b2.png","70","70","test","1","196","196","9","",""
"null","335232","pSARL_v2","pSARL_v2q5d5ctn0","5b92b49921e7200001f530a0","freq_resp","img/green_2bandit_b.png","70","70","test","","","","9","",""
"null","335391","pSARL_v2","pSARL_v2q5d5ctn0","5b92b49921e7200001f530a0","fixation","img/fixation.png","null","","test","","","","","",""
"342.7000000476837","335736","pSARL_v2","pSARL_v2q5d5ctn0","5b92b49921e7200001f530a0","freq","img/green_2bandit_b2.png","70","70","test","1","197","197","9","",""
"null","336205","pSARL_v2","pSARL_v2q5d5ctn0","5b92b49921e7200001f530a0","freq_resp","img/green_2bandit_b.png","70","70","test","","","","9","",""
"null","336365","pSARL_v2","pSARL_v2q5d5ctn0","5b92b49921e7200001f530a0","fixation","img/fixation.png","null","","test","","","","","",""
"353.09999990463257","336720","pSARL_v2","pSARL_v2q5d5ctn0","5b92b49921e7200001f530a0","freq","img/green_2bandit_b2.png","70","70","test","1","198","198","9","",""
"null","337180","pSARL_v2","pSARL_v2q5d5ctn0","5b92b49921e7200001f530a0","freq_resp","img/green_2bandit_b.png","70","70","test","","","","9","",""
"null","337340","pSARL_v2","pSARL_v2q5d5ctn0","5b92b49921e7200001f530a0","fixation","img/fixation.png","null","","test","","","","","",""
"482.2999999523163","337824","pSARL_v2","pSARL_v2q5d5ctn0","5b92b49921e7200001f530a0","infreq","img/orange_2bandit_b2.png","68","68","test","1","199","199","9","",""
"null","338155","pSARL_v2","pSARL_v2q5d5ctn0","5b92b49921e7200001f530a0","infreq_resp","img/orange_2bandit_b.png","68","68","test","","","","9","",""
"null","338315","pSARL_v2","pSARL_v2q5d5ctn0","5b92b49921e7200001f530a0","fixation","img/fixation.png","null","","test","","","","","",""
"291.09999990463257","338608","pSARL_v2","pSARL_v2q5d5ctn0","5b92b49921e7200001f530a0","freq","img/green_2bandit_b2.png","70","70","test","1","200","200","9","",""
"null","339131","pSARL_v2","pSARL_v2q5d5ctn0","5b92b49921e7200001f530a0","freq_resp","img/green_2bandit_b.png","70","70","test","","","","9","",""
"null","339291","pSARL_v2","pSARL_v2q5d5ctn0","5b92b49921e7200001f530a0","fixation","img/fixation.png","null","","test","","","","","",""
"323.10000014305115","339616","pSARL_v2","pSARL_v2q5d5ctn0","5b92b49921e7200001f530a0","freq","img/green_2bandit_b2.png","70","70","test","1","201","201","9","",""
"null","340107","pSARL_v2","pSARL_v2q5d5ctn0","5b92b49921e7200001f530a0","freq_resp","img/green_2bandit_b.png","70","70","test","","","","9","",""
"null","340266","pSARL_v2","pSARL_v2q5d5ctn0","5b92b49921e7200001f530a0","fixation","img/fixation.png","null","","test","","","","","",""
"357.09999990463257","340625","pSARL_v2","pSARL_v2q5d5ctn0","5b92b49921e7200001f530a0","freq","img/green_2bandit_b2.png","70","70","test","1","202","202","9","",""
"null","341078","pSARL_v2","pSARL_v2q5d5ctn0","5b92b49921e7200001f530a0","freq_resp","img/green_2bandit_b.png","70","70","test","","","","9","",""
"null","341238","pSARL_v2","pSARL_v2q5d5ctn0","5b92b49921e7200001f530a0","fixation","img/fixation.png","null","","test","","","","","",""
"416.09999990463257","341657","pSARL_v2","pSARL_v2q5d5ctn0","5b92b49921e7200001f530a0","freq","img/green_2bandit_b2.png","70","70","test","1","203","203","9","",""
"null","342052","pSARL_v2","pSARL_v2q5d5ctn0","5b92b49921e7200001f530a0","freq_resp","img/green_2bandit_b.png","70","70","test","","","","9","",""
"null","342212","pSARL_v2","pSARL_v2q5d5ctn0","5b92b49921e7200001f530a0","fixation","img/fixation.png","null","","test","","","","","",""
"578.5","342793","pSARL_v2","pSARL_v2q5d5ctn0","5b92b49921e7200001f530a0","freq","img/green_2bandit_b2.png","70","70","test","1","204","204","9","",""
"null","343027","pSARL_v2","pSARL_v2q5d5ctn0","5b92b49921e7200001f530a0","freq_resp","img/green_2bandit_b.png","70","70","test","","","","9","",""
"null","343187","pSARL_v2","pSARL_v2q5d5ctn0","5b92b49921e7200001f530a0","fixation","img/fixation.png","null","","test","","","","","",""
"547.7999999523163","343737","pSARL_v2","pSARL_v2q5d5ctn0","5b92b49921e7200001f530a0","infreq","img/orange_2bandit_b2.png","68","68","test","1","205","205","9","",""
"null","343999","pSARL_v2","pSARL_v2q5d5ctn0","5b92b49921e7200001f530a0","infreq_resp","img/orange_2bandit_b.png","68","68","test","","","","9","",""
"null","344159","pSARL_v2","pSARL_v2q5d5ctn0","5b92b49921e7200001f530a0","fixation","img/fixation.png","null","","test","","","","","",""
"328.10000014305115","344489","pSARL_v2","pSARL_v2q5d5ctn0","5b92b49921e7200001f530a0","freq","img/green_2bandit_b2.png","70","70","test","1","206","206","9","",""
"null","344975","pSARL_v2","pSARL_v2q5d5ctn0","5b92b49921e7200001f530a0","freq_resp","img/green_2bandit_b.png","70","70","test","","","","9","",""
"null","345136","pSARL_v2","pSARL_v2q5d5ctn0","5b92b49921e7200001f530a0","fixation","img/fixation.png","null","","test","","","","","",""
"335.59999990463257","345473","pSARL_v2","pSARL_v2q5d5ctn0","5b92b49921e7200001f530a0","freq","img/green_2bandit_b2.png","70","70","test","1","207","207","9","",""
