"rt","time_elapsed","expId","subject","prolificID","trialType","stimulus","key_press","corrresp","phase","corr","trialNum","attentionRunNum","blockNum","points","rlNum"
"4753","4764","pSARL_v2","pSARL_v2e69adbd5","5aee513f3606ab0001b92b29","","","","","","","","","","",""
"","13040","pSARL_v2","pSARL_v2e69adbd5","5aee513f3606ab0001b92b29","fullscreen","","","","","","","","","",""
"40369","53412","pSARL_v2","pSARL_v2e69adbd5","5aee513f3606ab0001b92b29","","","","","","","","","","",""
"null","54222","pSARL_v2","pSARL_v2e69adbd5","5aee513f3606ab0001b92b29","freqPrac","img/orange_2bandit_a2.png","null","70","prac","0","","","","",""
"null","55240","pSARL_v2","pSARL_v2e69adbd5","5aee513f3606ab0001b92b29","feedback","img/tooSlow.png","null","na","prac","","","","","",""
"null","55395","pSARL_v2","pSARL_v2e69adbd5","5aee513f3606ab0001b92b29","fixation","img/fixation.png","null","","prac","","","","","",""
"278","55679","pSARL_v2","pSARL_v2e69adbd5","5aee513f3606ab0001b92b29","infreqPrac","img/green_2bandit_a2.png","70","68","prac","0","","","","",""
"278","56207","pSARL_v2","pSARL_v2e69adbd5","5aee513f3606ab0001b92b29","infreqPrac_resp","img/green_2bandit_a.png","70","68","prac","","","","","",""
"null","57220","pSARL_v2","pSARL_v2e69adbd5","5aee513f3606ab0001b92b29","feedback","img/wrongKey.png","null","na","prac","","","","","",""
"null","57377","pSARL_v2","pSARL_v2e69adbd5","5aee513f3606ab0001b92b29","fixation","img/fixation.png","null","","prac","","","","","",""
"264","57646","pSARL_v2","pSARL_v2e69adbd5","5aee513f3606ab0001b92b29","freqPrac","img/orange_2bandit_a2.png","70","70","prac","1","","","","",""
"264","58199","pSARL_v2","pSARL_v2e69adbd5","5aee513f3606ab0001b92b29","freqPrac_resp","img/orange_2bandit_a.png","70","70","prac","","","","","",""
"null","58356","pSARL_v2","pSARL_v2e69adbd5","5aee513f3606ab0001b92b29","fixation","img/fixation.png","null","","prac","","","","","",""
"405","58765","pSARL_v2","pSARL_v2e69adbd5","5aee513f3606ab0001b92b29","infreqPrac","img/green_2bandit_a2.png","68","68","prac","1","","","","",""
"405","59173","pSARL_v2","pSARL_v2e69adbd5","5aee513f3606ab0001b92b29","infreqPrac_resp","img/green_2bandit_a.png","68","68","prac","","","","","",""
"null","59331","pSARL_v2","pSARL_v2e69adbd5","5aee513f3606ab0001b92b29","fixation","img/fixation.png","null","","prac","","","","","",""
"341","59676","pSARL_v2","pSARL_v2e69adbd5","5aee513f3606ab0001b92b29","infreqPrac","img/green_2bandit_a2.png","68","68","prac","1","","","","",""
"341","60145","pSARL_v2","pSARL_v2e69adbd5","5aee513f3606ab0001b92b29","infreqPrac_resp","img/green_2bandit_a.png","68","68","prac","","","","","",""
"null","60300","pSARL_v2","pSARL_v2e69adbd5","5aee513f3606ab0001b92b29","fixation","img/fixation.png","null","","prac","","","","","",""
"311","60613","pSARL_v2","pSARL_v2e69adbd5","5aee513f3606ab0001b92b29","infreqPrac","img/green_2bandit_a2.png","68","68","prac","1","","","","",""
"311","61120","pSARL_v2","pSARL_v2e69adbd5","5aee513f3606ab0001b92b29","infreqPrac_resp","img/green_2bandit_a.png","68","68","prac","","","","","",""
"null","61278","pSARL_v2","pSARL_v2e69adbd5","5aee513f3606ab0001b92b29","fixation","img/fixation.png","null","","prac","","","","","",""
"261","61543","pSARL_v2","pSARL_v2e69adbd5","5aee513f3606ab0001b92b29","freqPrac","img/orange_2bandit_a2.png","70","70","prac","1","","","","",""
"261","62093","pSARL_v2","pSARL_v2e69adbd5","5aee513f3606ab0001b92b29","freqPrac_resp","img/orange_2bandit_a.png","70","70","prac","","","","","",""
"null","62248","pSARL_v2","pSARL_v2e69adbd5","5aee513f3606ab0001b92b29","fixation","img/fixation.png","null","","prac","","","","","",""
"269","62522","pSARL_v2","pSARL_v2e69adbd5","5aee513f3606ab0001b92b29","infreqPrac","img/green_2bandit_a2.png","68","68","prac","1","","","","",""
"269","63068","pSARL_v2","pSARL_v2e69adbd5","5aee513f3606ab0001b92b29","infreqPrac_resp","img/green_2bandit_a.png","68","68","prac","","","","","",""
"null","63224","pSARL_v2","pSARL_v2e69adbd5","5aee513f3606ab0001b92b29","fixation","img/fixation.png","null","","prac","","","","","",""
"319","63547","pSARL_v2","pSARL_v2e69adbd5","5aee513f3606ab0001b92b29","freqPrac","img/orange_2bandit_a2.png","70","70","prac","1","","","","",""
"319","64036","pSARL_v2","pSARL_v2e69adbd5","5aee513f3606ab0001b92b29","freqPrac_resp","img/orange_2bandit_a.png","70","70","prac","","","","","",""
"null","64192","pSARL_v2","pSARL_v2e69adbd5","5aee513f3606ab0001b92b29","fixation","img/fixation.png","null","","prac","","","","","",""
"345","64540","pSARL_v2","pSARL_v2e69adbd5","5aee513f3606ab0001b92b29","freqPrac","img/orange_2bandit_a2.png","70","70","prac","1","","","","",""
"345","65008","pSARL_v2","pSARL_v2e69adbd5","5aee513f3606ab0001b92b29","freqPrac_resp","img/orange_2bandit_a.png","70","70","prac","","","","","",""
"null","65166","pSARL_v2","pSARL_v2e69adbd5","5aee513f3606ab0001b92b29","fixation","img/fixation.png","null","","prac","","","","","",""
"21123","86294","pSARL_v2","pSARL_v2e69adbd5","5aee513f3606ab0001b92b29","","","","","prac","","","","","",""
"386","86685","pSARL_v2","pSARL_v2e69adbd5","5aee513f3606ab0001b92b29","rewardPractice","img/slot.png","74","","prac","","","","","",""
"null","87454","pSARL_v2","pSARL_v2e69adbd5","5aee513f3606ab0001b92b29","feedback","<div class=""veryhighPoints""> +15 </div>","null","na","prac","","","","","",""
"null","87609","pSARL_v2","pSARL_v2e69adbd5","5aee513f3606ab0001b92b29","fixation","img/fixation.png","null","","prac","","","","","",""
"4335","91947","pSARL_v2","pSARL_v2e69adbd5","5aee513f3606ab0001b92b29","","","","","prac","","","","","",""
"554","92505","pSARL_v2","pSARL_v2e69adbd5","5aee513f3606ab0001b92b29","freq","img/orange_2bandit_a2.png","70","70","test","1","1","1","1","",""
"null","92764","pSARL_v2","pSARL_v2e69adbd5","5aee513f3606ab0001b92b29","freq_resp","img/orange_2bandit_a.png","70","70","test","","","","1","",""
"null","92924","pSARL_v2","pSARL_v2e69adbd5","5aee513f3606ab0001b92b29","fixation","img/fixation.png","null","","test","","","","","",""
"321","93248","pSARL_v2","pSARL_v2e69adbd5","5aee513f3606ab0001b92b29","freq","img/orange_2bandit_a2.png","70","70","test","1","2","2","1","",""
"null","93739","pSARL_v2","pSARL_v2e69adbd5","5aee513f3606ab0001b92b29","freq_resp","img/orange_2bandit_a.png","70","70","test","","","","1","",""
"null","93894","pSARL_v2","pSARL_v2e69adbd5","5aee513f3606ab0001b92b29","fixation","img/fixation.png","null","","test","","","","","",""
"311","94210","pSARL_v2","pSARL_v2e69adbd5","5aee513f3606ab0001b92b29","freq","img/orange_2bandit_a2.png","70","70","test","1","3","3","1","",""
"null","94712","pSARL_v2","pSARL_v2e69adbd5","5aee513f3606ab0001b92b29","freq_resp","img/orange_2bandit_a.png","70","70","test","","","","1","",""
"null","94869","pSARL_v2","pSARL_v2e69adbd5","5aee513f3606ab0001b92b29","fixation","img/fixation.png","null","","test","","","","","",""
"294","95167","pSARL_v2","pSARL_v2e69adbd5","5aee513f3606ab0001b92b29","infreq","img/green_2bandit_a2.png","68","68","test","1","4","4","1","",""
"null","95682","pSARL_v2","pSARL_v2e69adbd5","5aee513f3606ab0001b92b29","infreq_resp","img/green_2bandit_a.png","68","68","test","","","","1","",""
"null","95837","pSARL_v2","pSARL_v2e69adbd5","5aee513f3606ab0001b92b29","fixation","img/fixation.png","null","","test","","","","","",""
"281","96121","pSARL_v2","pSARL_v2e69adbd5","5aee513f3606ab0001b92b29","freq","img/orange_2bandit_a2.png","70","70","test","1","5","5","1","",""
"null","96654","pSARL_v2","pSARL_v2e69adbd5","5aee513f3606ab0001b92b29","freq_resp","img/orange_2bandit_a.png","70","70","test","","","","1","",""
"null","96809","pSARL_v2","pSARL_v2e69adbd5","5aee513f3606ab0001b92b29","fixation","img/fixation.png","null","","test","","","","","",""
"248","97060","pSARL_v2","pSARL_v2e69adbd5","5aee513f3606ab0001b92b29","infreq","img/green_2bandit_a2.png","68","68","test","1","6","6","1","",""
"null","97619","pSARL_v2","pSARL_v2e69adbd5","5aee513f3606ab0001b92b29","infreq_resp","img/green_2bandit_a.png","68","68","test","","","","1","",""
"null","97774","pSARL_v2","pSARL_v2e69adbd5","5aee513f3606ab0001b92b29","fixation","img/fixation.png","null","","test","","","","","",""
"241","98019","pSARL_v2","pSARL_v2e69adbd5","5aee513f3606ab0001b92b29","freq","img/orange_2bandit_a2.png","70","70","test","1","7","7","1","",""
"null","98586","pSARL_v2","pSARL_v2e69adbd5","5aee513f3606ab0001b92b29","freq_resp","img/orange_2bandit_a.png","70","70","test","","","","1","",""
"null","98745","pSARL_v2","pSARL_v2e69adbd5","5aee513f3606ab0001b92b29","fixation","img/fixation.png","null","","test","","","","","",""
"235","98984","pSARL_v2","pSARL_v2e69adbd5","5aee513f3606ab0001b92b29","freq","img/orange_2bandit_a2.png","70","70","test","1","8","8","1","",""
"null","99561","pSARL_v2","pSARL_v2e69adbd5","5aee513f3606ab0001b92b29","freq_resp","img/orange_2bandit_a.png","70","70","test","","","","1","",""
"null","99718","pSARL_v2","pSARL_v2e69adbd5","5aee513f3606ab0001b92b29","fixation","img/fixation.png","null","","test","","","","","",""
"314","100035","pSARL_v2","pSARL_v2e69adbd5","5aee513f3606ab0001b92b29","freq","img/orange_2bandit_a2.png","70","70","test","1","9","9","1","",""
"null","100531","pSARL_v2","pSARL_v2e69adbd5","5aee513f3606ab0001b92b29","freq_resp","img/orange_2bandit_a.png","70","70","test","","","","1","",""
"null","100690","pSARL_v2","pSARL_v2e69adbd5","5aee513f3606ab0001b92b29","fixation","img/fixation.png","null","","test","","","","","",""
"311","101003","pSARL_v2","pSARL_v2e69adbd5","5aee513f3606ab0001b92b29","freq","img/orange_2bandit_a2.png","70","70","test","1","10","10","1","",""
"null","101508","pSARL_v2","pSARL_v2e69adbd5","5aee513f3606ab0001b92b29","freq_resp","img/orange_2bandit_a.png","70","70","test","","","","1","",""
"null","101665","pSARL_v2","pSARL_v2e69adbd5","5aee513f3606ab0001b92b29","fixation","img/fixation.png","null","","test","","","","","",""
"232","101901","pSARL_v2","pSARL_v2e69adbd5","5aee513f3606ab0001b92b29","freq","img/orange_2bandit_a2.png","70","70","test","1","11","11","1","",""
"null","102477","pSARL_v2","pSARL_v2e69adbd5","5aee513f3606ab0001b92b29","freq_resp","img/orange_2bandit_a.png","70","70","test","","","","1","",""
"null","102634","pSARL_v2","pSARL_v2e69adbd5","5aee513f3606ab0001b92b29","fixation","img/fixation.png","null","","test","","","","","",""
"203","102840","pSARL_v2","pSARL_v2e69adbd5","5aee513f3606ab0001b92b29","freq","img/orange_2bandit_a2.png","70","70","test","1","12","12","1","",""
"null","103456","pSARL_v2","pSARL_v2e69adbd5","5aee513f3606ab0001b92b29","freq_resp","img/orange_2bandit_a.png","70","70","test","","","","1","",""
"null","103611","pSARL_v2","pSARL_v2e69adbd5","5aee513f3606ab0001b92b29","fixation","img/fixation.png","null","","test","","","","","",""
"199","103814","pSARL_v2","pSARL_v2e69adbd5","5aee513f3606ab0001b92b29","freq","img/orange_2bandit_a2.png","70","70","test","1","13","13","1","",""
"null","104421","pSARL_v2","pSARL_v2e69adbd5","5aee513f3606ab0001b92b29","freq_resp","img/orange_2bandit_a.png","70","70","test","","","","1","",""
"null","104578","pSARL_v2","pSARL_v2e69adbd5","5aee513f3606ab0001b92b29","fixation","img/fixation.png","null","","test","","","","","",""
"294","104875","pSARL_v2","pSARL_v2e69adbd5","5aee513f3606ab0001b92b29","freq","img/orange_2bandit_a2.png","70","70","test","1","14","14","1","",""
"null","105390","pSARL_v2","pSARL_v2e69adbd5","5aee513f3606ab0001b92b29","freq_resp","img/orange_2bandit_a.png","70","70","test","","","","1","",""
"null","105547","pSARL_v2","pSARL_v2e69adbd5","5aee513f3606ab0001b92b29","fixation","img/fixation.png","null","","test","","","","","",""
"267","105818","pSARL_v2","pSARL_v2e69adbd5","5aee513f3606ab0001b92b29","freq","img/orange_2bandit_a2.png","70","70","test","1","15","15","1","",""
"null","106364","pSARL_v2","pSARL_v2e69adbd5","5aee513f3606ab0001b92b29","freq_resp","img/orange_2bandit_a.png","70","70","test","","","","1","",""
"null","106520","pSARL_v2","pSARL_v2e69adbd5","5aee513f3606ab0001b92b29","fixation","img/fixation.png","null","","test","","","","","",""
"230","106753","pSARL_v2","pSARL_v2e69adbd5","5aee513f3606ab0001b92b29","freq","img/orange_2bandit_a2.png","70","70","test","1","16","16","1","",""
"null","107332","pSARL_v2","pSARL_v2e69adbd5","5aee513f3606ab0001b92b29","freq_resp","img/orange_2bandit_a.png","70","70","test","","","","1","",""
"null","107488","pSARL_v2","pSARL_v2e69adbd5","5aee513f3606ab0001b92b29","fixation","img/fixation.png","null","","test","","","","","",""
"252","107745","pSARL_v2","pSARL_v2e69adbd5","5aee513f3606ab0001b92b29","freq","img/orange_2bandit_a2.png","70","70","test","1","17","17","1","",""
"null","108301","pSARL_v2","pSARL_v2e69adbd5","5aee513f3606ab0001b92b29","freq_resp","img/orange_2bandit_a.png","70","70","test","","","","1","",""
"null","108460","pSARL_v2","pSARL_v2e69adbd5","5aee513f3606ab0001b92b29","fixation","img/fixation.png","null","","test","","","","","",""
"243","108707","pSARL_v2","pSARL_v2e69adbd5","5aee513f3606ab0001b92b29","freq","img/orange_2bandit_a2.png","70","70","test","1","18","18","1","",""
"null","109275","pSARL_v2","pSARL_v2e69adbd5","5aee513f3606ab0001b92b29","freq_resp","img/orange_2bandit_a.png","70","70","test","","","","1","",""
"null","109433","pSARL_v2","pSARL_v2e69adbd5","5aee513f3606ab0001b92b29","fixation","img/fixation.png","null","","test","","","","","",""
"189","109625","pSARL_v2","pSARL_v2e69adbd5","5aee513f3606ab0001b92b29","freq","img/orange_2bandit_a2.png","70","70","test","1","19","19","1","",""
"null","110244","pSARL_v2","pSARL_v2e69adbd5","5aee513f3606ab0001b92b29","freq_resp","img/orange_2bandit_a.png","70","70","test","","","","1","",""
"null","110403","pSARL_v2","pSARL_v2e69adbd5","5aee513f3606ab0001b92b29","fixation","img/fixation.png","null","","test","","","","","",""
"189","110594","pSARL_v2","pSARL_v2e69adbd5","5aee513f3606ab0001b92b29","freq","img/orange_2bandit_a2.png","70","70","test","1","20","20","1","",""
"null","111220","pSARL_v2","pSARL_v2e69adbd5","5aee513f3606ab0001b92b29","freq_resp","img/orange_2bandit_a.png","70","70","test","","","","1","",""
"null","111378","pSARL_v2","pSARL_v2e69adbd5","5aee513f3606ab0001b92b29","fixation","img/fixation.png","null","","test","","","","","",""
"463","111846","pSARL_v2","pSARL_v2e69adbd5","5aee513f3606ab0001b92b29","reward","img/slot.png","74","","test","","","","","",""
"null","112601","pSARL_v2","pSARL_v2e69adbd5","5aee513f3606ab0001b92b29","points","<div class=""verylowPoints""> -6 </div>","null","na","test","","","","1","-6","0"
"441","113045","pSARL_v2","pSARL_v2e69adbd5","5aee513f3606ab0001b92b29","freq","img/orange_2bandit_a2.png","70","70","test","1","21","21","2","",""
"null","113432","pSARL_v2","pSARL_v2e69adbd5","5aee513f3606ab0001b92b29","freq_resp","img/orange_2bandit_a.png","70","70","test","","","","2","",""
"null","113587","pSARL_v2","pSARL_v2e69adbd5","5aee513f3606ab0001b92b29","fixation","img/fixation.png","null","","test","","","","","",""
"312","113904","pSARL_v2","pSARL_v2e69adbd5","5aee513f3606ab0001b92b29","freq","img/orange_2bandit_a2.png","70","70","test","1","22","22","2","",""
"null","114403","pSARL_v2","pSARL_v2e69adbd5","5aee513f3606ab0001b92b29","freq_resp","img/orange_2bandit_a.png","70","70","test","","","","2","",""
"null","114561","pSARL_v2","pSARL_v2e69adbd5","5aee513f3606ab0001b92b29","fixation","img/fixation.png","null","","test","","","","","",""
"244","114808","pSARL_v2","pSARL_v2e69adbd5","5aee513f3606ab0001b92b29","freq","img/orange_2bandit_a2.png","70","70","test","1","23","23","2","",""
"null","115377","pSARL_v2","pSARL_v2e69adbd5","5aee513f3606ab0001b92b29","freq_resp","img/orange_2bandit_a.png","70","70","test","","","","2","",""
"null","115531","pSARL_v2","pSARL_v2e69adbd5","5aee513f3606ab0001b92b29","fixation","img/fixation.png","null","","test","","","","","",""
"218","115752","pSARL_v2","pSARL_v2e69adbd5","5aee513f3606ab0001b92b29","freq","img/orange_2bandit_a2.png","70","70","test","1","24","24","2","",""
"null","116344","pSARL_v2","pSARL_v2e69adbd5","5aee513f3606ab0001b92b29","freq_resp","img/orange_2bandit_a.png","70","70","test","","","","2","",""
"null","116501","pSARL_v2","pSARL_v2e69adbd5","5aee513f3606ab0001b92b29","fixation","img/fixation.png","null","","test","","","","","",""
"178","116681","pSARL_v2","pSARL_v2e69adbd5","5aee513f3606ab0001b92b29","freq","img/orange_2bandit_a2.png","70","70","test","1","25","25","2","",""
"null","117314","pSARL_v2","pSARL_v2e69adbd5","5aee513f3606ab0001b92b29","freq_resp","img/orange_2bandit_a.png","70","70","test","","","","2","",""
"null","117471","pSARL_v2","pSARL_v2e69adbd5","5aee513f3606ab0001b92b29","fixation","img/fixation.png","null","","test","","","","","",""
"256","117731","pSARL_v2","pSARL_v2e69adbd5","5aee513f3606ab0001b92b29","freq","img/orange_2bandit_a2.png","70","70","test","1","26","26","2","",""
"null","118285","pSARL_v2","pSARL_v2e69adbd5","5aee513f3606ab0001b92b29","freq_resp","img/orange_2bandit_a.png","70","70","test","","","","2","",""
"null","118440","pSARL_v2","pSARL_v2e69adbd5","5aee513f3606ab0001b92b29","fixation","img/fixation.png","null","","test","","","","","",""
"221","118665","pSARL_v2","pSARL_v2e69adbd5","5aee513f3606ab0001b92b29","freq","img/orange_2bandit_a2.png","70","70","test","1","27","27","2","",""
"null","119259","pSARL_v2","pSARL_v2e69adbd5","5aee513f3606ab0001b92b29","freq_resp","img/orange_2bandit_a.png","70","70","test","","","","2","",""
"null","119417","pSARL_v2","pSARL_v2e69adbd5","5aee513f3606ab0001b92b29","fixation","img/fixation.png","null","","test","","","","","",""
"246","119665","pSARL_v2","pSARL_v2e69adbd5","5aee513f3606ab0001b92b29","freq","img/orange_2bandit_a2.png","70","70","test","1","28","28","2","",""
"null","120230","pSARL_v2","pSARL_v2e69adbd5","5aee513f3606ab0001b92b29","freq_resp","img/orange_2bandit_a.png","70","70","test","","","","2","",""
"null","120386","pSARL_v2","pSARL_v2e69adbd5","5aee513f3606ab0001b92b29","fixation","img/fixation.png","null","","test","","","","","",""
"253","120643","pSARL_v2","pSARL_v2e69adbd5","5aee513f3606ab0001b92b29","freq","img/orange_2bandit_a2.png","70","70","test","1","29","29","2","",""
"null","121202","pSARL_v2","pSARL_v2e69adbd5","5aee513f3606ab0001b92b29","freq_resp","img/orange_2bandit_a.png","70","70","test","","","","2","",""
"null","121358","pSARL_v2","pSARL_v2e69adbd5","5aee513f3606ab0001b92b29","fixation","img/fixation.png","null","","test","","","","","",""
"286","121648","pSARL_v2","pSARL_v2e69adbd5","5aee513f3606ab0001b92b29","freq","img/orange_2bandit_a2.png","70","70","test","1","30","30","2","",""
"null","122177","pSARL_v2","pSARL_v2e69adbd5","5aee513f3606ab0001b92b29","freq_resp","img/orange_2bandit_a.png","70","70","test","","","","2","",""
"null","122330","pSARL_v2","pSARL_v2e69adbd5","5aee513f3606ab0001b92b29","fixation","img/fixation.png","null","","test","","","","","",""
"349","122682","pSARL_v2","pSARL_v2e69adbd5","5aee513f3606ab0001b92b29","infreq","img/green_2bandit_a2.png","68","68","test","1","31","31","2","",""
"null","123151","pSARL_v2","pSARL_v2e69adbd5","5aee513f3606ab0001b92b29","infreq_resp","img/green_2bandit_a.png","68","68","test","","","","2","",""
"null","123309","pSARL_v2","pSARL_v2e69adbd5","5aee513f3606ab0001b92b29","fixation","img/fixation.png","null","","test","","","","","",""
"289","123601","pSARL_v2","pSARL_v2e69adbd5","5aee513f3606ab0001b92b29","freq","img/orange_2bandit_a2.png","70","70","test","1","32","32","2","",""
"null","124125","pSARL_v2","pSARL_v2e69adbd5","5aee513f3606ab0001b92b29","freq_resp","img/orange_2bandit_a.png","70","70","test","","","","2","",""
"null","124283","pSARL_v2","pSARL_v2e69adbd5","5aee513f3606ab0001b92b29","fixation","img/fixation.png","null","","test","","","","","",""
"239","124525","pSARL_v2","pSARL_v2e69adbd5","5aee513f3606ab0001b92b29","freq","img/orange_2bandit_a2.png","70","70","test","1","33","33","2","",""
"null","125096","pSARL_v2","pSARL_v2e69adbd5","5aee513f3606ab0001b92b29","freq_resp","img/orange_2bandit_a.png","70","70","test","","","","2","",""
"null","125253","pSARL_v2","pSARL_v2e69adbd5","5aee513f3606ab0001b92b29","fixation","img/fixation.png","null","","test","","","","","",""
"258","125515","pSARL_v2","pSARL_v2e69adbd5","5aee513f3606ab0001b92b29","freq","img/orange_2bandit_a2.png","70","70","test","1","34","34","2","",""
"null","126066","pSARL_v2","pSARL_v2e69adbd5","5aee513f3606ab0001b92b29","freq_resp","img/orange_2bandit_a.png","70","70","test","","","","2","",""
"null","126220","pSARL_v2","pSARL_v2e69adbd5","5aee513f3606ab0001b92b29","fixation","img/fixation.png","null","","test","","","","","",""
"246","126469","pSARL_v2","pSARL_v2e69adbd5","5aee513f3606ab0001b92b29","freq","img/orange_2bandit_a2.png","70","70","test","1","35","35","2","",""
"null","127035","pSARL_v2","pSARL_v2e69adbd5","5aee513f3606ab0001b92b29","freq_resp","img/orange_2bandit_a.png","70","70","test","","","","2","",""
"null","127190","pSARL_v2","pSARL_v2e69adbd5","5aee513f3606ab0001b92b29","fixation","img/fixation.png","null","","test","","","","","",""
"266","127458","pSARL_v2","pSARL_v2e69adbd5","5aee513f3606ab0001b92b29","freq","img/orange_2bandit_a2.png","70","70","test","1","36","36","2","",""
"null","128006","pSARL_v2","pSARL_v2e69adbd5","5aee513f3606ab0001b92b29","freq_resp","img/orange_2bandit_a.png","70","70","test","","","","2","",""
"null","128161","pSARL_v2","pSARL_v2e69adbd5","5aee513f3606ab0001b92b29","fixation","img/fixation.png","null","","test","","","","","",""
"252","128416","pSARL_v2","pSARL_v2e69adbd5","5aee513f3606ab0001b92b29","freq","img/orange_2bandit_a2.png","70","70","test","1","37","37","2","",""
"null","128977","pSARL_v2","pSARL_v2e69adbd5","5aee513f3606ab0001b92b29","freq_resp","img/orange_2bandit_a.png","70","70","test","","","","2","",""
"null","129133","pSARL_v2","pSARL_v2e69adbd5","5aee513f3606ab0001b92b29","fixation","img/fixation.png","null","","test","","","","","",""
"240","129376","pSARL_v2","pSARL_v2e69adbd5","5aee513f3606ab0001b92b29","freq","img/orange_2bandit_a2.png","70","70","test","1","38","38","2","",""
"null","129947","pSARL_v2","pSARL_v2e69adbd5","5aee513f3606ab0001b92b29","freq_resp","img/orange_2bandit_a.png","70","70","test","","","","2","",""
"null","130106","pSARL_v2","pSARL_v2e69adbd5","5aee513f3606ab0001b92b29","fixation","img/fixation.png","null","","test","","","","","",""
"292","130400","pSARL_v2","pSARL_v2e69adbd5","5aee513f3606ab0001b92b29","freq","img/orange_2bandit_a2.png","70","70","test","1","39","39","2","",""
"null","130912","pSARL_v2","pSARL_v2e69adbd5","5aee513f3606ab0001b92b29","freq_resp","img/orange_2bandit_a.png","70","70","test","","","","2","",""
"null","131071","pSARL_v2","pSARL_v2e69adbd5","5aee513f3606ab0001b92b29","fixation","img/fixation.png","null","","test","","","","","",""
"296","131371","pSARL_v2","pSARL_v2e69adbd5","5aee513f3606ab0001b92b29","freq","img/orange_2bandit_a2.png","70","70","test","1","40","40","2","",""
"null","131884","pSARL_v2","pSARL_v2e69adbd5","5aee513f3606ab0001b92b29","freq_resp","img/orange_2bandit_a.png","70","70","test","","","","2","",""
"null","132039","pSARL_v2","pSARL_v2e69adbd5","5aee513f3606ab0001b92b29","fixation","img/fixation.png","null","","test","","","","","",""
"397","132439","pSARL_v2","pSARL_v2e69adbd5","5aee513f3606ab0001b92b29","infreq","img/green_2bandit_a2.png","68","68","test","1","41","41","2","",""
"null","132851","pSARL_v2","pSARL_v2e69adbd5","5aee513f3606ab0001b92b29","infreq_resp","img/green_2bandit_a.png","68","68","test","","","","2","",""
"null","133011","pSARL_v2","pSARL_v2e69adbd5","5aee513f3606ab0001b92b29","fixation","img/fixation.png","null","","test","","","","","",""
"320","133334","pSARL_v2","pSARL_v2e69adbd5","5aee513f3606ab0001b92b29","freq","img/orange_2bandit_a2.png","70","70","test","1","42","42","2","",""
"null","133826","pSARL_v2","pSARL_v2e69adbd5","5aee513f3606ab0001b92b29","freq_resp","img/orange_2bandit_a.png","70","70","test","","","","2","",""
"null","133981","pSARL_v2","pSARL_v2e69adbd5","5aee513f3606ab0001b92b29","fixation","img/fixation.png","null","","test","","","","","",""
"395","134377","pSARL_v2","pSARL_v2e69adbd5","5aee513f3606ab0001b92b29","reward","img/slot.png","74","","test","","","","","",""
"null","135144","pSARL_v2","pSARL_v2e69adbd5","5aee513f3606ab0001b92b29","points","<div class=""verylowPoints""> -11 </div>","null","na","test","","","","2","-11","1"
"552","135699","pSARL_v2","pSARL_v2e69adbd5","5aee513f3606ab0001b92b29","freq","img/orange_2bandit_a2.png","70","70","test","1","43","43","3","",""
"null","135958","pSARL_v2","pSARL_v2e69adbd5","5aee513f3606ab0001b92b29","freq_resp","img/orange_2bandit_a.png","70","70","test","","","","3","",""
"null","136116","pSARL_v2","pSARL_v2e69adbd5","5aee513f3606ab0001b92b29","fixation","img/fixation.png","null","","test","","","","","",""
"323","136443","pSARL_v2","pSARL_v2e69adbd5","5aee513f3606ab0001b92b29","freq","img/orange_2bandit_a2.png","70","70","test","1","44","44","3","",""
"null","136934","pSARL_v2","pSARL_v2e69adbd5","5aee513f3606ab0001b92b29","freq_resp","img/orange_2bandit_a.png","70","70","test","","","","3","",""
"null","137092","pSARL_v2","pSARL_v2e69adbd5","5aee513f3606ab0001b92b29","fixation","img/fixation.png","null","","test","","","","","",""
"548","137642","pSARL_v2","pSARL_v2e69adbd5","5aee513f3606ab0001b92b29","freq","img/orange_2bandit_a2.png","70","70","test","1","45","45","3","",""
"null","137905","pSARL_v2","pSARL_v2e69adbd5","5aee513f3606ab0001b92b29","freq_resp","img/orange_2bandit_a.png","70","70","test","","","","3","",""
"null","138061","pSARL_v2","pSARL_v2e69adbd5","5aee513f3606ab0001b92b29","fixation","img/fixation.png","null","","test","","","","","",""
"282","138346","pSARL_v2","pSARL_v2e69adbd5","5aee513f3606ab0001b92b29","freq","img/orange_2bandit_a2.png","70","70","test","1","46","46","3","",""
"null","138876","pSARL_v2","pSARL_v2e69adbd5","5aee513f3606ab0001b92b29","freq_resp","img/orange_2bandit_a.png","70","70","test","","","","3","",""
"null","139035","pSARL_v2","pSARL_v2e69adbd5","5aee513f3606ab0001b92b29","fixation","img/fixation.png","null","","test","","","","","",""
"272","139309","pSARL_v2","pSARL_v2e69adbd5","5aee513f3606ab0001b92b29","freq","img/orange_2bandit_a2.png","70","70","test","1","47","47","3","",""
"null","139851","pSARL_v2","pSARL_v2e69adbd5","5aee513f3606ab0001b92b29","freq_resp","img/orange_2bandit_a.png","70","70","test","","","","3","",""
"null","140008","pSARL_v2","pSARL_v2e69adbd5","5aee513f3606ab0001b92b29","fixation","img/fixation.png","null","","test","","","","","",""
"273","140284","pSARL_v2","pSARL_v2e69adbd5","5aee513f3606ab0001b92b29","freq","img/orange_2bandit_a2.png","70","70","test","1","48","48","3","",""
"null","140821","pSARL_v2","pSARL_v2e69adbd5","5aee513f3606ab0001b92b29","freq_resp","img/orange_2bandit_a.png","70","70","test","","","","3","",""
"null","140978","pSARL_v2","pSARL_v2e69adbd5","5aee513f3606ab0001b92b29","fixation","img/fixation.png","null","","test","","","","","",""
"136","141118","pSARL_v2","pSARL_v2e69adbd5","5aee513f3606ab0001b92b29","infreq","img/green_2bandit_a2.png","70","68","test","0","49","49","3","",""
"null","141794","pSARL_v2","pSARL_v2e69adbd5","5aee513f3606ab0001b92b29","infreq_resp","img/green_2bandit_a.png","70","68","test","","","","3","",""
"null","141950","pSARL_v2","pSARL_v2e69adbd5","5aee513f3606ab0001b92b29","fixation","img/fixation.png","null","","test","","","","","",""
"304","142258","pSARL_v2","pSARL_v2e69adbd5","5aee513f3606ab0001b92b29","freq","img/orange_2bandit_a2.png","70","70","test","1","50","50","3","",""
"null","142762","pSARL_v2","pSARL_v2e69adbd5","5aee513f3606ab0001b92b29","freq_resp","img/orange_2bandit_a.png","70","70","test","","","","3","",""
"null","142919","pSARL_v2","pSARL_v2e69adbd5","5aee513f3606ab0001b92b29","fixation","img/fixation.png","null","","test","","","","","",""
"265","143187","pSARL_v2","pSARL_v2e69adbd5","5aee513f3606ab0001b92b29","freq","img/orange_2bandit_a2.png","70","70","test","1","51","51","3","",""
"null","143733","pSARL_v2","pSARL_v2e69adbd5","5aee513f3606ab0001b92b29","freq_resp","img/orange_2bandit_a.png","70","70","test","","","","3","",""
"null","143889","pSARL_v2","pSARL_v2e69adbd5","5aee513f3606ab0001b92b29","fixation","img/fixation.png","null","","test","","","","","",""
"246","144137","pSARL_v2","pSARL_v2e69adbd5","5aee513f3606ab0001b92b29","freq","img/orange_2bandit_a2.png","70","70","test","1","52","52","3","",""
"null","144705","pSARL_v2","pSARL_v2e69adbd5","5aee513f3606ab0001b92b29","freq_resp","img/orange_2bandit_a.png","70","70","test","","","","3","",""
"null","144864","pSARL_v2","pSARL_v2e69adbd5","5aee513f3606ab0001b92b29","fixation","img/fixation.png","null","","test","","","","","",""
"409","145276","pSARL_v2","pSARL_v2e69adbd5","5aee513f3606ab0001b92b29","freq","img/orange_2bandit_a2.png","70","70","test","1","53","53","3","",""
"null","145678","pSARL_v2","pSARL_v2e69adbd5","5aee513f3606ab0001b92b29","freq_resp","img/orange_2bandit_a.png","70","70","test","","","","3","",""
"null","145834","pSARL_v2","pSARL_v2e69adbd5","5aee513f3606ab0001b92b29","fixation","img/fixation.png","null","","test","","","","","",""
"257","146095","pSARL_v2","pSARL_v2e69adbd5","5aee513f3606ab0001b92b29","freq","img/orange_2bandit_a2.png","70","70","test","1","54","54","3","",""
"null","146652","pSARL_v2","pSARL_v2e69adbd5","5aee513f3606ab0001b92b29","freq_resp","img/orange_2bandit_a.png","70","70","test","","","","3","",""
"null","146808","pSARL_v2","pSARL_v2e69adbd5","5aee513f3606ab0001b92b29","fixation","img/fixation.png","null","","test","","","","","",""
"231","147043","pSARL_v2","pSARL_v2e69adbd5","5aee513f3606ab0001b92b29","infreq","img/green_2bandit_a2.png","70","68","test","0","55","55","3","",""
"null","147620","pSARL_v2","pSARL_v2e69adbd5","5aee513f3606ab0001b92b29","infreq_resp","img/green_2bandit_a.png","70","68","test","","","","3","",""
"null","147777","pSARL_v2","pSARL_v2e69adbd5","5aee513f3606ab0001b92b29","fixation","img/fixation.png","null","","test","","","","","",""
"378","148159","pSARL_v2","pSARL_v2e69adbd5","5aee513f3606ab0001b92b29","freq","img/orange_2bandit_a2.png","70","70","test","1","56","56","3","",""
"null","148593","pSARL_v2","pSARL_v2e69adbd5","5aee513f3606ab0001b92b29","freq_resp","img/orange_2bandit_a.png","70","70","test","","","","3","",""
"null","148749","pSARL_v2","pSARL_v2e69adbd5","5aee513f3606ab0001b92b29","fixation","img/fixation.png","null","","test","","","","","",""
"385","149139","pSARL_v2","pSARL_v2e69adbd5","5aee513f3606ab0001b92b29","freq","img/orange_2bandit_a2.png","70","70","test","1","57","57","3","",""
"null","149559","pSARL_v2","pSARL_v2e69adbd5","5aee513f3606ab0001b92b29","freq_resp","img/orange_2bandit_a.png","70","70","test","","","","3","",""
"null","149714","pSARL_v2","pSARL_v2e69adbd5","5aee513f3606ab0001b92b29","fixation","img/fixation.png","null","","test","","","","","",""
"284","150002","pSARL_v2","pSARL_v2e69adbd5","5aee513f3606ab0001b92b29","freq","img/orange_2bandit_a2.png","70","70","test","1","58","58","3","",""
"null","150531","pSARL_v2","pSARL_v2e69adbd5","5aee513f3606ab0001b92b29","freq_resp","img/orange_2bandit_a.png","70","70","test","","","","3","",""
"null","150688","pSARL_v2","pSARL_v2e69adbd5","5aee513f3606ab0001b92b29","fixation","img/fixation.png","null","","test","","","","","",""
"330","151022","pSARL_v2","pSARL_v2e69adbd5","5aee513f3606ab0001b92b29","freq","img/orange_2bandit_a2.png","70","70","test","1","59","59","3","",""
"null","151497","pSARL_v2","pSARL_v2e69adbd5","5aee513f3606ab0001b92b29","freq_resp","img/orange_2bandit_a.png","70","70","test","","","","3","",""
"null","151653","pSARL_v2","pSARL_v2e69adbd5","5aee513f3606ab0001b92b29","fixation","img/fixation.png","null","","test","","","","","",""
"228","151886","pSARL_v2","pSARL_v2e69adbd5","5aee513f3606ab0001b92b29","freq","img/orange_2bandit_a2.png","70","70","test","1","60","60","3","",""
"null","152467","pSARL_v2","pSARL_v2e69adbd5","5aee513f3606ab0001b92b29","freq_resp","img/orange_2bandit_a.png","70","70","test","","","","3","",""
"null","152623","pSARL_v2","pSARL_v2e69adbd5","5aee513f3606ab0001b92b29","fixation","img/fixation.png","null","","test","","","","","",""
"269","152895","pSARL_v2","pSARL_v2e69adbd5","5aee513f3606ab0001b92b29","freq","img/orange_2bandit_a2.png","70","70","test","1","61","61","3","",""
"null","153438","pSARL_v2","pSARL_v2e69adbd5","5aee513f3606ab0001b92b29","freq_resp","img/orange_2bandit_a.png","70","70","test","","","","3","",""
"null","153596","pSARL_v2","pSARL_v2e69adbd5","5aee513f3606ab0001b92b29","fixation","img/fixation.png","null","","test","","","","","",""
"290","153889","pSARL_v2","pSARL_v2e69adbd5","5aee513f3606ab0001b92b29","freq","img/orange_2bandit_a2.png","70","70","test","1","62","62","3","",""
"null","154412","pSARL_v2","pSARL_v2e69adbd5","5aee513f3606ab0001b92b29","freq_resp","img/orange_2bandit_a.png","70","70","test","","","","3","",""
"null","154569","pSARL_v2","pSARL_v2e69adbd5","5aee513f3606ab0001b92b29","fixation","img/fixation.png","null","","test","","","","","",""
"286","154859","pSARL_v2","pSARL_v2e69adbd5","5aee513f3606ab0001b92b29","freq","img/orange_2bandit_a2.png","70","70","test","1","63","63","3","",""
"null","155390","pSARL_v2","pSARL_v2e69adbd5","5aee513f3606ab0001b92b29","freq_resp","img/orange_2bandit_a.png","70","70","test","","","","3","",""
"null","155547","pSARL_v2","pSARL_v2e69adbd5","5aee513f3606ab0001b92b29","fixation","img/fixation.png","null","","test","","","","","",""
"292","155843","pSARL_v2","pSARL_v2e69adbd5","5aee513f3606ab0001b92b29","freq","img/orange_2bandit_a2.png","70","70","test","1","64","64","3","",""
"null","156361","pSARL_v2","pSARL_v2e69adbd5","5aee513f3606ab0001b92b29","freq_resp","img/orange_2bandit_a.png","70","70","test","","","","3","",""
"null","156518","pSARL_v2","pSARL_v2e69adbd5","5aee513f3606ab0001b92b29","fixation","img/fixation.png","null","","test","","","","","",""
"471","156994","pSARL_v2","pSARL_v2e69adbd5","5aee513f3606ab0001b92b29","reward","img/slot.png","74","","test","","","","","",""
"null","157756","pSARL_v2","pSARL_v2e69adbd5","5aee513f3606ab0001b92b29","points","<div class=""verylowPoints""> -7 </div>","null","na","test","","","","3","-7","2"
"504","158263","pSARL_v2","pSARL_v2e69adbd5","5aee513f3606ab0001b92b29","freq","img/orange_2bandit_a2.png","70","70","test","1","65","65","4","",""
"null","158574","pSARL_v2","pSARL_v2e69adbd5","5aee513f3606ab0001b92b29","freq_resp","img/orange_2bandit_a.png","70","70","test","","","","4","",""
"null","158733","pSARL_v2","pSARL_v2e69adbd5","5aee513f3606ab0001b92b29","fixation","img/fixation.png","null","","test","","","","","",""
"306","159043","pSARL_v2","pSARL_v2e69adbd5","5aee513f3606ab0001b92b29","freq","img/orange_2bandit_a2.png","70","70","test","1","66","66","4","",""
"null","159549","pSARL_v2","pSARL_v2e69adbd5","5aee513f3606ab0001b92b29","freq_resp","img/orange_2bandit_a.png","70","70","test","","","","4","",""
"null","159707","pSARL_v2","pSARL_v2e69adbd5","5aee513f3606ab0001b92b29","fixation","img/fixation.png","null","","test","","","","","",""
"310","160021","pSARL_v2","pSARL_v2e69adbd5","5aee513f3606ab0001b92b29","freq","img/orange_2bandit_a2.png","70","70","test","1","67","67","4","",""
"null","160516","pSARL_v2","pSARL_v2e69adbd5","5aee513f3606ab0001b92b29","freq_resp","img/orange_2bandit_a.png","70","70","test","","","","4","",""
"null","160673","pSARL_v2","pSARL_v2e69adbd5","5aee513f3606ab0001b92b29","fixation","img/fixation.png","null","","test","","","","","",""
"288","160965","pSARL_v2","pSARL_v2e69adbd5","5aee513f3606ab0001b92b29","freq","img/orange_2bandit_a2.png","70","70","test","1","68","68","4","",""
"null","161487","pSARL_v2","pSARL_v2e69adbd5","5aee513f3606ab0001b92b29","freq_resp","img/orange_2bandit_a.png","70","70","test","","","","4","",""
"null","161643","pSARL_v2","pSARL_v2e69adbd5","5aee513f3606ab0001b92b29","fixation","img/fixation.png","null","","test","","","","","",""
"318","161964","pSARL_v2","pSARL_v2e69adbd5","5aee513f3606ab0001b92b29","freq","img/orange_2bandit_a2.png","70","70","test","1","69","69","4","",""
"null","162461","pSARL_v2","pSARL_v2e69adbd5","5aee513f3606ab0001b92b29","freq_resp","img/orange_2bandit_a.png","70","70","test","","","","4","",""
"null","162617","pSARL_v2","pSARL_v2e69adbd5","5aee513f3606ab0001b92b29","fixation","img/fixation.png","null","","test","","","","","",""
"313","162934","pSARL_v2","pSARL_v2e69adbd5","5aee513f3606ab0001b92b29","freq","img/orange_2bandit_a2.png","70","70","test","1","70","70","4","",""
"null","163437","pSARL_v2","pSARL_v2e69adbd5","5aee513f3606ab0001b92b29","freq_resp","img/orange_2bandit_a.png","70","70","test","","","","4","",""
"null","163592","pSARL_v2","pSARL_v2e69adbd5","5aee513f3606ab0001b92b29","fixation","img/fixation.png","null","","test","","","","","",""
"283","163878","pSARL_v2","pSARL_v2e69adbd5","5aee513f3606ab0001b92b29","freq","img/orange_2bandit_a2.png","70","70","test","1","71","71","4","",""
"null","164410","pSARL_v2","pSARL_v2e69adbd5","5aee513f3606ab0001b92b29","freq_resp","img/orange_2bandit_a.png","70","70","test","","","","4","",""
"null","164567","pSARL_v2","pSARL_v2e69adbd5","5aee513f3606ab0001b92b29","fixation","img/fixation.png","null","","test","","","","","",""
"327","164897","pSARL_v2","pSARL_v2e69adbd5","5aee513f3606ab0001b92b29","freq","img/orange_2bandit_a2.png","70","70","test","1","72","72","4","",""
"null","165387","pSARL_v2","pSARL_v2e69adbd5","5aee513f3606ab0001b92b29","freq_resp","img/orange_2bandit_a.png","70","70","test","","","","4","",""
"null","165542","pSARL_v2","pSARL_v2e69adbd5","5aee513f3606ab0001b92b29","fixation","img/fixation.png","null","","test","","","","","",""
"322","165866","pSARL_v2","pSARL_v2e69adbd5","5aee513f3606ab0001b92b29","freq","img/orange_2bandit_a2.png","70","70","test","1","73","73","4","",""
"null","166356","pSARL_v2","pSARL_v2e69adbd5","5aee513f3606ab0001b92b29","freq_resp","img/orange_2bandit_a.png","70","70","test","","","","4","",""
"null","166513","pSARL_v2","pSARL_v2e69adbd5","5aee513f3606ab0001b92b29","fixation","img/fixation.png","null","","test","","","","","",""
"329","166845","pSARL_v2","pSARL_v2e69adbd5","5aee513f3606ab0001b92b29","freq","img/orange_2bandit_a2.png","70","70","test","1","74","74","4","",""
"null","167331","pSARL_v2","pSARL_v2e69adbd5","5aee513f3606ab0001b92b29","freq_resp","img/orange_2bandit_a.png","70","70","test","","","","4","",""
"null","167488","pSARL_v2","pSARL_v2e69adbd5","5aee513f3606ab0001b92b29","fixation","img/fixation.png","null","","test","","","","","",""
"364","167855","pSARL_v2","pSARL_v2e69adbd5","5aee513f3606ab0001b92b29","infreq","img/green_2bandit_a2.png","68","68","test","1","75","75","4","",""
"null","168298","pSARL_v2","pSARL_v2e69adbd5","5aee513f3606ab0001b92b29","infreq_resp","img/green_2bandit_a.png","68","68","test","","","","4","",""
"null","168456","pSARL_v2","pSARL_v2e69adbd5","5aee513f3606ab0001b92b29","fixation","img/fixation.png","null","","test","","","","","",""
"329","168790","pSARL_v2","pSARL_v2e69adbd5","5aee513f3606ab0001b92b29","freq","img/orange_2bandit_a2.png","70","70","test","1","76","76","4","",""
"null","169273","pSARL_v2","pSARL_v2e69adbd5","5aee513f3606ab0001b92b29","freq_resp","img/orange_2bandit_a.png","70","70","test","","","","4","",""
"null","169430","pSARL_v2","pSARL_v2e69adbd5","5aee513f3606ab0001b92b29","fixation","img/fixation.png","null","","test","","","","","",""
"281","169714","pSARL_v2","pSARL_v2e69adbd5","5aee513f3606ab0001b92b29","freq","img/orange_2bandit_a2.png","70","70","test","1","77","77","4","",""
"null","170243","pSARL_v2","pSARL_v2e69adbd5","5aee513f3606ab0001b92b29","freq_resp","img/orange_2bandit_a.png","70","70","test","","","","4","",""
"null","170399","pSARL_v2","pSARL_v2e69adbd5","5aee513f3606ab0001b92b29","fixation","img/fixation.png","null","","test","","","","","",""
"351","170753","pSARL_v2","pSARL_v2e69adbd5","5aee513f3606ab0001b92b29","freq","img/orange_2bandit_a2.png","70","70","test","1","78","78","4","",""
"null","171222","pSARL_v2","pSARL_v2e69adbd5","5aee513f3606ab0001b92b29","freq_resp","img/orange_2bandit_a.png","70","70","test","","","","4","",""
"null","171379","pSARL_v2","pSARL_v2e69adbd5","5aee513f3606ab0001b92b29","fixation","img/fixation.png","null","","test","","","","","",""
"787","172169","pSARL_v2","pSARL_v2e69adbd5","5aee513f3606ab0001b92b29","infreq","img/green_2bandit_a2.png","68","68","test","1","79","79","4","",""
"null","172193","pSARL_v2","pSARL_v2e69adbd5","5aee513f3606ab0001b92b29","infreq_resp","img/green_2bandit_a.png","68","68","test","","","","4","",""
"null","172350","pSARL_v2","pSARL_v2e69adbd5","5aee513f3606ab0001b92b29","fixation","img/fixation.png","null","","test","","","","","",""
"533","172887","pSARL_v2","pSARL_v2e69adbd5","5aee513f3606ab0001b92b29","freq","img/orange_2bandit_a2.png","70","70","test","1","80","80","4","",""
"null","173165","pSARL_v2","pSARL_v2e69adbd5","5aee513f3606ab0001b92b29","freq_resp","img/orange_2bandit_a.png","70","70","test","","","","4","",""
"null","173320","pSARL_v2","pSARL_v2e69adbd5","5aee513f3606ab0001b92b29","fixation","img/fixation.png","null","","test","","","","","",""
"382","173706","pSARL_v2","pSARL_v2e69adbd5","5aee513f3606ab0001b92b29","freq","img/orange_2bandit_a2.png","70","70","test","1","81","81","4","",""
"null","174135","pSARL_v2","pSARL_v2e69adbd5","5aee513f3606ab0001b92b29","freq_resp","img/orange_2bandit_a.png","70","70","test","","","","4","",""
"null","174292","pSARL_v2","pSARL_v2e69adbd5","5aee513f3606ab0001b92b29","fixation","img/fixation.png","null","","test","","","","","",""
"340","174636","pSARL_v2","pSARL_v2e69adbd5","5aee513f3606ab0001b92b29","freq","img/orange_2bandit_a2.png","70","70","test","1","82","82","4","",""
"null","175105","pSARL_v2","pSARL_v2e69adbd5","5aee513f3606ab0001b92b29","freq_resp","img/orange_2bandit_a.png","70","70","test","","","","4","",""
"null","175265","pSARL_v2","pSARL_v2e69adbd5","5aee513f3606ab0001b92b29","fixation","img/fixation.png","null","","test","","","","","",""
"311","175579","pSARL_v2","pSARL_v2e69adbd5","5aee513f3606ab0001b92b29","freq","img/orange_2bandit_a2.png","70","70","test","1","83","83","4","",""
"null","176086","pSARL_v2","pSARL_v2e69adbd5","5aee513f3606ab0001b92b29","freq_resp","img/orange_2bandit_a.png","70","70","test","","","","4","",""
"null","176243","pSARL_v2","pSARL_v2e69adbd5","5aee513f3606ab0001b92b29","fixation","img/fixation.png","null","","test","","","","","",""
"262","176508","pSARL_v2","pSARL_v2e69adbd5","5aee513f3606ab0001b92b29","freq","img/orange_2bandit_a2.png","70","70","test","1","84","84","4","",""
"null","177063","pSARL_v2","pSARL_v2e69adbd5","5aee513f3606ab0001b92b29","freq_resp","img/orange_2bandit_a.png","70","70","test","","","","4","",""
"null","177220","pSARL_v2","pSARL_v2e69adbd5","5aee513f3606ab0001b92b29","fixation","img/fixation.png","null","","test","","","","","",""
"251","177475","pSARL_v2","pSARL_v2e69adbd5","5aee513f3606ab0001b92b29","freq","img/orange_2bandit_a2.png","70","70","test","1","85","85","4","",""
"null","178033","pSARL_v2","pSARL_v2e69adbd5","5aee513f3606ab0001b92b29","freq_resp","img/orange_2bandit_a.png","70","70","test","","","","4","",""
"null","178188","pSARL_v2","pSARL_v2e69adbd5","5aee513f3606ab0001b92b29","fixation","img/fixation.png","null","","test","","","","","",""
"356","178547","pSARL_v2","pSARL_v2e69adbd5","5aee513f3606ab0001b92b29","freq","img/orange_2bandit_a2.png","70","70","test","1","86","86","4","",""
"null","178999","pSARL_v2","pSARL_v2e69adbd5","5aee513f3606ab0001b92b29","freq_resp","img/orange_2bandit_a.png","70","70","test","","","","4","",""
"null","179155","pSARL_v2","pSARL_v2e69adbd5","5aee513f3606ab0001b92b29","fixation","img/fixation.png","null","","test","","","","","",""
"277","179437","pSARL_v2","pSARL_v2e69adbd5","5aee513f3606ab0001b92b29","freq","img/orange_2bandit_a2.png","70","70","test","1","87","87","4","",""
"null","179973","pSARL_v2","pSARL_v2e69adbd5","5aee513f3606ab0001b92b29","freq_resp","img/orange_2bandit_a.png","70","70","test","","","","4","",""
"null","180130","pSARL_v2","pSARL_v2e69adbd5","5aee513f3606ab0001b92b29","fixation","img/fixation.png","null","","test","","","","","",""
"287","180421","pSARL_v2","pSARL_v2e69adbd5","5aee513f3606ab0001b92b29","freq","img/orange_2bandit_a2.png","70","70","test","1","88","88","4","",""
"null","180946","pSARL_v2","pSARL_v2e69adbd5","5aee513f3606ab0001b92b29","freq_resp","img/orange_2bandit_a.png","70","70","test","","","","4","",""
"null","181103","pSARL_v2","pSARL_v2e69adbd5","5aee513f3606ab0001b92b29","fixation","img/fixation.png","null","","test","","","","","",""
"464","181570","pSARL_v2","pSARL_v2e69adbd5","5aee513f3606ab0001b92b29","reward","img/slot.png","74","","test","","","","","",""
"null","182334","pSARL_v2","pSARL_v2e69adbd5","5aee513f3606ab0001b92b29","points","<div class=""verylowPoints""> -3 </div>","null","na","test","","","","4","-3","3"
"268","182605","pSARL_v2","pSARL_v2e69adbd5","5aee513f3606ab0001b92b29","freq","img/orange_2bandit_a2.png","70","70","test","1","89","89","5","",""
"null","183152","pSARL_v2","pSARL_v2e69adbd5","5aee513f3606ab0001b92b29","freq_resp","img/orange_2bandit_a.png","70","70","test","","","","5","",""
"null","183309","pSARL_v2","pSARL_v2e69adbd5","5aee513f3606ab0001b92b29","fixation","img/fixation.png","null","","test","","","","","",""
"246","183559","pSARL_v2","pSARL_v2e69adbd5","5aee513f3606ab0001b92b29","freq","img/orange_2bandit_a2.png","70","70","test","1","90","90","5","",""
"null","184128","pSARL_v2","pSARL_v2e69adbd5","5aee513f3606ab0001b92b29","freq_resp","img/orange_2bandit_a.png","70","70","test","","","","5","",""
"null","184285","pSARL_v2","pSARL_v2e69adbd5","5aee513f3606ab0001b92b29","fixation","img/fixation.png","null","","test","","","","","",""
"352","184639","pSARL_v2","pSARL_v2e69adbd5","5aee513f3606ab0001b92b29","freq","img/orange_2bandit_a2.png","70","70","test","1","91","91","5","",""
"null","185099","pSARL_v2","pSARL_v2e69adbd5","5aee513f3606ab0001b92b29","freq_resp","img/orange_2bandit_a.png","70","70","test","","","","5","",""
"null","185257","pSARL_v2","pSARL_v2e69adbd5","5aee513f3606ab0001b92b29","fixation","img/fixation.png","null","","test","","","","","",""
"222","185482","pSARL_v2","pSARL_v2e69adbd5","5aee513f3606ab0001b92b29","freq","img/orange_2bandit_a2.png","70","70","test","1","92","92","5","",""
"null","186069","pSARL_v2","pSARL_v2e69adbd5","5aee513f3606ab0001b92b29","freq_resp","img/orange_2bandit_a.png","70","70","test","","","","5","",""
"null","186226","pSARL_v2","pSARL_v2e69adbd5","5aee513f3606ab0001b92b29","fixation","img/fixation.png","null","","test","","","","","",""
"202","186432","pSARL_v2","pSARL_v2e69adbd5","5aee513f3606ab0001b92b29","freq","img/orange_2bandit_a2.png","70","70","test","1","93","93","5","",""
"null","187044","pSARL_v2","pSARL_v2e69adbd5","5aee513f3606ab0001b92b29","freq_resp","img/orange_2bandit_a.png","70","70","test","","","","5","",""
"null","187200","pSARL_v2","pSARL_v2e69adbd5","5aee513f3606ab0001b92b29","fixation","img/fixation.png","null","","test","","","","","",""
"223","187427","pSARL_v2","pSARL_v2e69adbd5","5aee513f3606ab0001b92b29","freq","img/orange_2bandit_a2.png","70","70","test","1","94","94","5","",""
"null","188014","pSARL_v2","pSARL_v2e69adbd5","5aee513f3606ab0001b92b29","freq_resp","img/orange_2bandit_a.png","70","70","test","","","","5","",""
"null","188170","pSARL_v2","pSARL_v2e69adbd5","5aee513f3606ab0001b92b29","fixation","img/fixation.png","null","","test","","","","","",""
"283","188456","pSARL_v2","pSARL_v2e69adbd5","5aee513f3606ab0001b92b29","freq","img/orange_2bandit_a2.png","70","70","test","1","95","95","5","",""
"null","188991","pSARL_v2","pSARL_v2e69adbd5","5aee513f3606ab0001b92b29","freq_resp","img/orange_2bandit_a.png","70","70","test","","","","5","",""
"null","189147","pSARL_v2","pSARL_v2e69adbd5","5aee513f3606ab0001b92b29","fixation","img/fixation.png","null","","test","","","","","",""
"270","189421","pSARL_v2","pSARL_v2e69adbd5","5aee513f3606ab0001b92b29","freq","img/orange_2bandit_a2.png","70","70","test","1","96","96","5","",""
"null","189956","pSARL_v2","pSARL_v2e69adbd5","5aee513f3606ab0001b92b29","freq_resp","img/orange_2bandit_a.png","70","70","test","","","","5","",""
"null","190112","pSARL_v2","pSARL_v2e69adbd5","5aee513f3606ab0001b92b29","fixation","img/fixation.png","null","","test","","","","","",""
"255","190369","pSARL_v2","pSARL_v2e69adbd5","5aee513f3606ab0001b92b29","freq","img/orange_2bandit_a2.png","70","70","test","1","97","97","5","",""
"null","190931","pSARL_v2","pSARL_v2e69adbd5","5aee513f3606ab0001b92b29","freq_resp","img/orange_2bandit_a.png","70","70","test","","","","5","",""
"null","191088","pSARL_v2","pSARL_v2e69adbd5","5aee513f3606ab0001b92b29","fixation","img/fixation.png","null","","test","","","","","",""
"248","191339","pSARL_v2","pSARL_v2e69adbd5","5aee513f3606ab0001b92b29","freq","img/orange_2bandit_a2.png","70","70","test","1","98","98","5","",""
"null","191907","pSARL_v2","pSARL_v2e69adbd5","5aee513f3606ab0001b92b29","freq_resp","img/orange_2bandit_a.png","70","70","test","","","","5","",""
"null","192062","pSARL_v2","pSARL_v2e69adbd5","5aee513f3606ab0001b92b29","fixation","img/fixation.png","null","","test","","","","","",""
"239","192303","pSARL_v2","pSARL_v2e69adbd5","5aee513f3606ab0001b92b29","infreq","img/green_2bandit_a2.png","70","68","test","0","99","99","5","",""
"null","192880","pSARL_v2","pSARL_v2e69adbd5","5aee513f3606ab0001b92b29","infreq_resp","img/green_2bandit_a.png","70","68","test","","","","5","",""
"null","193037","pSARL_v2","pSARL_v2e69adbd5","5aee513f3606ab0001b92b29","fixation","img/fixation.png","null","","test","","","","","",""
"443","193483","pSARL_v2","pSARL_v2e69adbd5","5aee513f3606ab0001b92b29","infreq","img/green_2bandit_a2.png","68","68","test","1","100","100","5","",""
"null","193858","pSARL_v2","pSARL_v2e69adbd5","5aee513f3606ab0001b92b29","infreq_resp","img/green_2bandit_a.png","68","68","test","","","","5","",""
"null","194016","pSARL_v2","pSARL_v2e69adbd5","5aee513f3606ab0001b92b29","fixation","img/fixation.png","null","","test","","","","","",""
"317","194337","pSARL_v2","pSARL_v2e69adbd5","5aee513f3606ab0001b92b29","freq","img/orange_2bandit_a2.png","70","70","test","1","101","101","5","",""
"null","194835","pSARL_v2","pSARL_v2e69adbd5","5aee513f3606ab0001b92b29","freq_resp","img/orange_2bandit_a.png","70","70","test","","","","5","",""
"null","194995","pSARL_v2","pSARL_v2e69adbd5","5aee513f3606ab0001b92b29","fixation","img/fixation.png","null","","test","","","","","",""
"323","195321","pSARL_v2","pSARL_v2e69adbd5","5aee513f3606ab0001b92b29","freq","img/orange_2bandit_a2.png","70","70","test","1","102","102","5","",""
"null","195812","pSARL_v2","pSARL_v2e69adbd5","5aee513f3606ab0001b92b29","freq_resp","img/orange_2bandit_a.png","70","70","test","","","","5","",""
"null","195969","pSARL_v2","pSARL_v2e69adbd5","5aee513f3606ab0001b92b29","fixation","img/fixation.png","null","","test","","","","","",""
"309","196281","pSARL_v2","pSARL_v2e69adbd5","5aee513f3606ab0001b92b29","freq","img/orange_2bandit_a2.png","70","70","test","1","103","103","5","",""
"null","196785","pSARL_v2","pSARL_v2e69adbd5","5aee513f3606ab0001b92b29","freq_resp","img/orange_2bandit_a.png","70","70","test","","","","5","",""
"null","196942","pSARL_v2","pSARL_v2e69adbd5","5aee513f3606ab0001b92b29","fixation","img/fixation.png","null","","test","","","","","",""
"350","197295","pSARL_v2","pSARL_v2e69adbd5","5aee513f3606ab0001b92b29","freq","img/orange_2bandit_a2.png","70","70","test","1","104","104","5","",""
"null","197755","pSARL_v2","pSARL_v2e69adbd5","5aee513f3606ab0001b92b29","freq_resp","img/orange_2bandit_a.png","70","70","test","","","","5","",""
"null","197913","pSARL_v2","pSARL_v2e69adbd5","5aee513f3606ab0001b92b29","fixation","img/fixation.png","null","","test","","","","","",""
"353","198270","pSARL_v2","pSARL_v2e69adbd5","5aee513f3606ab0001b92b29","freq","img/orange_2bandit_a2.png","70","70","test","1","105","105","5","",""
"null","198729","pSARL_v2","pSARL_v2e69adbd5","5aee513f3606ab0001b92b29","freq_resp","img/orange_2bandit_a.png","70","70","test","","","","5","",""
"null","198888","pSARL_v2","pSARL_v2e69adbd5","5aee513f3606ab0001b92b29","fixation","img/fixation.png","null","","test","","","","","",""
"252","199143","pSARL_v2","pSARL_v2e69adbd5","5aee513f3606ab0001b92b29","freq","img/orange_2bandit_a2.png","70","70","test","1","106","106","5","",""
"null","199706","pSARL_v2","pSARL_v2e69adbd5","5aee513f3606ab0001b92b29","freq_resp","img/orange_2bandit_a.png","70","70","test","","","","5","",""
"null","199862","pSARL_v2","pSARL_v2e69adbd5","5aee513f3606ab0001b92b29","fixation","img/fixation.png","null","","test","","","","","",""
"274","200138","pSARL_v2","pSARL_v2e69adbd5","5aee513f3606ab0001b92b29","freq","img/orange_2bandit_a2.png","70","70","test","1","107","107","5","",""
"null","200683","pSARL_v2","pSARL_v2e69adbd5","5aee513f3606ab0001b92b29","freq_resp","img/orange_2bandit_a.png","70","70","test","","","","5","",""
"null","200841","pSARL_v2","pSARL_v2e69adbd5","5aee513f3606ab0001b92b29","fixation","img/fixation.png","null","","test","","","","","",""
"238","201082","pSARL_v2","pSARL_v2e69adbd5","5aee513f3606ab0001b92b29","freq","img/orange_2bandit_a2.png","70","70","test","1","108","108","5","",""
"null","201654","pSARL_v2","pSARL_v2e69adbd5","5aee513f3606ab0001b92b29","freq_resp","img/orange_2bandit_a.png","70","70","test","","","","5","",""
"null","201809","pSARL_v2","pSARL_v2e69adbd5","5aee513f3606ab0001b92b29","fixation","img/fixation.png","null","","test","","","","","",""
"248","202062","pSARL_v2","pSARL_v2e69adbd5","5aee513f3606ab0001b92b29","freq","img/orange_2bandit_a2.png","70","70","test","1","109","109","5","",""
"null","202628","pSARL_v2","pSARL_v2e69adbd5","5aee513f3606ab0001b92b29","freq_resp","img/orange_2bandit_a.png","70","70","test","","","","5","",""
"null","202786","pSARL_v2","pSARL_v2e69adbd5","5aee513f3606ab0001b92b29","fixation","img/fixation.png","null","","test","","","","","",""
"276","203066","pSARL_v2","pSARL_v2e69adbd5","5aee513f3606ab0001b92b29","freq","img/orange_2bandit_a2.png","70","70","test","1","110","110","5","",""
"null","203601","pSARL_v2","pSARL_v2e69adbd5","5aee513f3606ab0001b92b29","freq_resp","img/orange_2bandit_a.png","70","70","test","","","","5","",""
"null","203758","pSARL_v2","pSARL_v2e69adbd5","5aee513f3606ab0001b92b29","fixation","img/fixation.png","null","","test","","","","","",""
"289","204051","pSARL_v2","pSARL_v2e69adbd5","5aee513f3606ab0001b92b29","freq","img/orange_2bandit_a2.png","70","70","test","1","111","111","5","",""
"null","204572","pSARL_v2","pSARL_v2e69adbd5","5aee513f3606ab0001b92b29","freq_resp","img/orange_2bandit_a.png","70","70","test","","","","5","",""
"null","204730","pSARL_v2","pSARL_v2e69adbd5","5aee513f3606ab0001b92b29","fixation","img/fixation.png","null","","test","","","","","",""
"411","205145","pSARL_v2","pSARL_v2e69adbd5","5aee513f3606ab0001b92b29","reward","img/slot.png","74","","test","","","","","",""
"null","205914","pSARL_v2","pSARL_v2e69adbd5","5aee513f3606ab0001b92b29","points","<div class=""veryhighPoints""> +1 </div>","null","na","test","","","","5","1","4"
"485","206402","pSARL_v2","pSARL_v2e69adbd5","5aee513f3606ab0001b92b29","freq","img/orange_2bandit_a2.png","70","70","test","1","112","112","6","",""
"null","206727","pSARL_v2","pSARL_v2e69adbd5","5aee513f3606ab0001b92b29","freq_resp","img/orange_2bandit_a.png","70","70","test","","","","6","",""
"null","206883","pSARL_v2","pSARL_v2e69adbd5","5aee513f3606ab0001b92b29","fixation","img/fixation.png","null","","test","","","","","",""
"327","207214","pSARL_v2","pSARL_v2e69adbd5","5aee513f3606ab0001b92b29","freq","img/orange_2bandit_a2.png","70","70","test","1","113","113","6","",""
"null","207701","pSARL_v2","pSARL_v2e69adbd5","5aee513f3606ab0001b92b29","freq_resp","img/orange_2bandit_a.png","70","70","test","","","","6","",""
"null","207857","pSARL_v2","pSARL_v2e69adbd5","5aee513f3606ab0001b92b29","fixation","img/fixation.png","null","","test","","","","","",""
"287","208148","pSARL_v2","pSARL_v2e69adbd5","5aee513f3606ab0001b92b29","freq","img/orange_2bandit_a2.png","70","70","test","1","114","114","6","",""
"null","208673","pSARL_v2","pSARL_v2e69adbd5","5aee513f3606ab0001b92b29","freq_resp","img/orange_2bandit_a.png","70","70","test","","","","6","",""
"null","208831","pSARL_v2","pSARL_v2e69adbd5","5aee513f3606ab0001b92b29","fixation","img/fixation.png","null","","test","","","","","",""
"222","209057","pSARL_v2","pSARL_v2e69adbd5","5aee513f3606ab0001b92b29","freq","img/orange_2bandit_a2.png","70","70","test","1","115","115","6","",""
"null","209648","pSARL_v2","pSARL_v2e69adbd5","5aee513f3606ab0001b92b29","freq_resp","img/orange_2bandit_a.png","70","70","test","","","","6","",""
"null","209804","pSARL_v2","pSARL_v2e69adbd5","5aee513f3606ab0001b92b29","fixation","img/fixation.png","null","","test","","","","","",""
"214","210021","pSARL_v2","pSARL_v2e69adbd5","5aee513f3606ab0001b92b29","infreq","img/green_2bandit_a2.png","70","68","test","0","116","116","6","",""
"null","210622","pSARL_v2","pSARL_v2e69adbd5","5aee513f3606ab0001b92b29","infreq_resp","img/green_2bandit_a.png","70","68","test","","","","6","",""
"null","210777","pSARL_v2","pSARL_v2e69adbd5","5aee513f3606ab0001b92b29","fixation","img/fixation.png","null","","test","","","","","",""
"259","211040","pSARL_v2","pSARL_v2e69adbd5","5aee513f3606ab0001b92b29","freq","img/orange_2bandit_a2.png","70","70","test","1","117","117","6","",""
"null","211595","pSARL_v2","pSARL_v2e69adbd5","5aee513f3606ab0001b92b29","freq_resp","img/orange_2bandit_a.png","70","70","test","","","","6","",""
"null","211752","pSARL_v2","pSARL_v2e69adbd5","5aee513f3606ab0001b92b29","fixation","img/fixation.png","null","","test","","","","","",""
"390","212145","pSARL_v2","pSARL_v2e69adbd5","5aee513f3606ab0001b92b29","freq","img/orange_2bandit_a2.png","70","70","test","1","118","118","6","",""
"null","212562","pSARL_v2","pSARL_v2e69adbd5","5aee513f3606ab0001b92b29","freq_resp","img/orange_2bandit_a.png","70","70","test","","","","6","",""
"null","212720","pSARL_v2","pSARL_v2e69adbd5","5aee513f3606ab0001b92b29","fixation","img/fixation.png","null","","test","","","","","",""
"370","213094","pSARL_v2","pSARL_v2e69adbd5","5aee513f3606ab0001b92b29","freq","img/orange_2bandit_a2.png","70","70","test","1","119","119","6","",""
"null","213538","pSARL_v2","pSARL_v2e69adbd5","5aee513f3606ab0001b92b29","freq_resp","img/orange_2bandit_a.png","70","70","test","","","","6","",""
"null","213694","pSARL_v2","pSARL_v2e69adbd5","5aee513f3606ab0001b92b29","fixation","img/fixation.png","null","","test","","","","","",""
"301","213998","pSARL_v2","pSARL_v2e69adbd5","5aee513f3606ab0001b92b29","freq","img/orange_2bandit_a2.png","70","70","test","1","120","120","6","",""
"null","214501","pSARL_v2","pSARL_v2e69adbd5","5aee513f3606ab0001b92b29","freq_resp","img/orange_2bandit_a.png","70","70","test","","","","6","",""
"null","214657","pSARL_v2","pSARL_v2e69adbd5","5aee513f3606ab0001b92b29","fixation","img/fixation.png","null","","test","","","","","",""
"329","214989","pSARL_v2","pSARL_v2e69adbd5","5aee513f3606ab0001b92b29","freq","img/orange_2bandit_a2.png","70","70","test","1","121","121","6","",""
"null","215475","pSARL_v2","pSARL_v2e69adbd5","5aee513f3606ab0001b92b29","freq_resp","img/orange_2bandit_a.png","70","70","test","","","","6","",""
"null","215631","pSARL_v2","pSARL_v2e69adbd5","5aee513f3606ab0001b92b29","fixation","img/fixation.png","null","","test","","","","","",""
"397","216032","pSARL_v2","pSARL_v2e69adbd5","5aee513f3606ab0001b92b29","infreq","img/green_2bandit_a2.png","68","68","test","1","122","122","6","",""
"null","216442","pSARL_v2","pSARL_v2e69adbd5","5aee513f3606ab0001b92b29","infreq_resp","img/green_2bandit_a.png","68","68","test","","","","6","",""
"null","216599","pSARL_v2","pSARL_v2e69adbd5","5aee513f3606ab0001b92b29","fixation","img/fixation.png","null","","test","","","","","",""
"262","216866","pSARL_v2","pSARL_v2e69adbd5","5aee513f3606ab0001b92b29","freq","img/orange_2bandit_a2.png","70","70","test","1","123","123","6","",""
"null","217415","pSARL_v2","pSARL_v2e69adbd5","5aee513f3606ab0001b92b29","freq_resp","img/orange_2bandit_a.png","70","70","test","","","","6","",""
"null","217573","pSARL_v2","pSARL_v2e69adbd5","5aee513f3606ab0001b92b29","fixation","img/fixation.png","null","","test","","","","","",""
"465","218041","pSARL_v2","pSARL_v2e69adbd5","5aee513f3606ab0001b92b29","infreq","img/green_2bandit_a2.png","68","68","test","1","124","124","6","",""
"null","218386","pSARL_v2","pSARL_v2e69adbd5","5aee513f3606ab0001b92b29","infreq_resp","img/green_2bandit_a.png","68","68","test","","","","6","",""
"null","218544","pSARL_v2","pSARL_v2e69adbd5","5aee513f3606ab0001b92b29","fixation","img/fixation.png","null","","test","","","","","",""
"296","218844","pSARL_v2","pSARL_v2e69adbd5","5aee513f3606ab0001b92b29","freq","img/orange_2bandit_a2.png","70","70","test","1","125","125","6","",""
"null","219361","pSARL_v2","pSARL_v2e69adbd5","5aee513f3606ab0001b92b29","freq_resp","img/orange_2bandit_a.png","70","70","test","","","","6","",""
"null","219519","pSARL_v2","pSARL_v2e69adbd5","5aee513f3606ab0001b92b29","fixation","img/fixation.png","null","","test","","","","","",""
"281","219804","pSARL_v2","pSARL_v2e69adbd5","5aee513f3606ab0001b92b29","freq","img/orange_2bandit_a2.png","70","70","test","1","126","126","6","",""
"null","220335","pSARL_v2","pSARL_v2e69adbd5","5aee513f3606ab0001b92b29","freq_resp","img/orange_2bandit_a.png","70","70","test","","","","6","",""
"null","220492","pSARL_v2","pSARL_v2e69adbd5","5aee513f3606ab0001b92b29","fixation","img/fixation.png","null","","test","","","","","",""
"312","220808","pSARL_v2","pSARL_v2e69adbd5","5aee513f3606ab0001b92b29","freq","img/orange_2bandit_a2.png","70","70","test","1","127","127","6","",""
"null","221310","pSARL_v2","pSARL_v2e69adbd5","5aee513f3606ab0001b92b29","freq_resp","img/orange_2bandit_a.png","70","70","test","","","","6","",""
"null","221468","pSARL_v2","pSARL_v2e69adbd5","5aee513f3606ab0001b92b29","fixation","img/fixation.png","null","","test","","","","","",""
"346","221817","pSARL_v2","pSARL_v2e69adbd5","5aee513f3606ab0001b92b29","freq","img/orange_2bandit_a2.png","70","70","test","1","128","128","6","",""
"null","222278","pSARL_v2","pSARL_v2e69adbd5","5aee513f3606ab0001b92b29","freq_resp","img/orange_2bandit_a.png","70","70","test","","","","6","",""
"null","222435","pSARL_v2","pSARL_v2e69adbd5","5aee513f3606ab0001b92b29","fixation","img/fixation.png","null","","test","","","","","",""
"308","222746","pSARL_v2","pSARL_v2e69adbd5","5aee513f3606ab0001b92b29","freq","img/orange_2bandit_a2.png","70","70","test","1","129","129","6","",""
"null","223253","pSARL_v2","pSARL_v2e69adbd5","5aee513f3606ab0001b92b29","freq_resp","img/orange_2bandit_a.png","70","70","test","","","","6","",""
"null","223412","pSARL_v2","pSARL_v2e69adbd5","5aee513f3606ab0001b92b29","fixation","img/fixation.png","null","","test","","","","","",""
"340","223755","pSARL_v2","pSARL_v2e69adbd5","5aee513f3606ab0001b92b29","freq","img/orange_2bandit_a2.png","70","70","test","1","130","130","6","",""
"null","224225","pSARL_v2","pSARL_v2e69adbd5","5aee513f3606ab0001b92b29","freq_resp","img/orange_2bandit_a.png","70","70","test","","","","6","",""
"null","224382","pSARL_v2","pSARL_v2e69adbd5","5aee513f3606ab0001b92b29","fixation","img/fixation.png","null","","test","","","","","",""
"360","224745","pSARL_v2","pSARL_v2e69adbd5","5aee513f3606ab0001b92b29","freq","img/orange_2bandit_a2.png","70","70","test","1","131","131","6","",""
"null","225201","pSARL_v2","pSARL_v2e69adbd5","5aee513f3606ab0001b92b29","freq_resp","img/orange_2bandit_a.png","70","70","test","","","","6","",""
"null","225359","pSARL_v2","pSARL_v2e69adbd5","5aee513f3606ab0001b92b29","fixation","img/fixation.png","null","","test","","","","","",""
"347","225710","pSARL_v2","pSARL_v2e69adbd5","5aee513f3606ab0001b92b29","freq","img/orange_2bandit_a2.png","70","70","test","1","132","132","6","",""
"null","226170","pSARL_v2","pSARL_v2e69adbd5","5aee513f3606ab0001b92b29","freq_resp","img/orange_2bandit_a.png","70","70","test","","","","6","",""
"null","226325","pSARL_v2","pSARL_v2e69adbd5","5aee513f3606ab0001b92b29","fixation","img/fixation.png","null","","test","","","","","",""
"295","226623","pSARL_v2","pSARL_v2e69adbd5","5aee513f3606ab0001b92b29","freq","img/orange_2bandit_a2.png","70","70","test","1","133","133","6","",""
"null","227138","pSARL_v2","pSARL_v2e69adbd5","5aee513f3606ab0001b92b29","freq_resp","img/orange_2bandit_a.png","70","70","test","","","","6","",""
"null","227295","pSARL_v2","pSARL_v2e69adbd5","5aee513f3606ab0001b92b29","fixation","img/fixation.png","null","","test","","","","","",""
"379","227677","pSARL_v2","pSARL_v2e69adbd5","5aee513f3606ab0001b92b29","reward","img/slot.png","74","","test","","","","","",""
"null","228440","pSARL_v2","pSARL_v2e69adbd5","5aee513f3606ab0001b92b29","points","<div class=""verylowPoints""> -7 </div>","null","na","test","","","","6","-7","5"
"500","228943","pSARL_v2","pSARL_v2e69adbd5","5aee513f3606ab0001b92b29","freq","img/orange_2bandit_a2.png","70","70","test","1","134","134","7","",""
"null","229261","pSARL_v2","pSARL_v2e69adbd5","5aee513f3606ab0001b92b29","freq_resp","img/orange_2bandit_a.png","70","70","test","","","","7","",""
"null","229417","pSARL_v2","pSARL_v2e69adbd5","5aee513f3606ab0001b92b29","fixation","img/fixation.png","null","","test","","","","","",""
"291","229711","pSARL_v2","pSARL_v2e69adbd5","5aee513f3606ab0001b92b29","freq","img/orange_2bandit_a2.png","70","70","test","1","135","135","7","",""
"null","230229","pSARL_v2","pSARL_v2e69adbd5","5aee513f3606ab0001b92b29","freq_resp","img/orange_2bandit_a.png","70","70","test","","","","7","",""
"null","230384","pSARL_v2","pSARL_v2e69adbd5","5aee513f3606ab0001b92b29","fixation","img/fixation.png","null","","test","","","","","",""
"302","230690","pSARL_v2","pSARL_v2e69adbd5","5aee513f3606ab0001b92b29","freq","img/orange_2bandit_a2.png","70","70","test","1","136","136","7","",""
"null","231192","pSARL_v2","pSARL_v2e69adbd5","5aee513f3606ab0001b92b29","freq_resp","img/orange_2bandit_a.png","70","70","test","","","","7","",""
"null","231348","pSARL_v2","pSARL_v2e69adbd5","5aee513f3606ab0001b92b29","fixation","img/fixation.png","null","","test","","","","","",""
"283","231634","pSARL_v2","pSARL_v2e69adbd5","5aee513f3606ab0001b92b29","freq","img/orange_2bandit_a2.png","70","70","test","1","137","137","7","",""
"null","232164","pSARL_v2","pSARL_v2e69adbd5","5aee513f3606ab0001b92b29","freq_resp","img/orange_2bandit_a.png","70","70","test","","","","7","",""
"null","232323","pSARL_v2","pSARL_v2e69adbd5","5aee513f3606ab0001b92b29","fixation","img/fixation.png","null","","test","","","","","",""
"251","232579","pSARL_v2","pSARL_v2e69adbd5","5aee513f3606ab0001b92b29","freq","img/orange_2bandit_a2.png","70","70","test","1","138","138","7","",""
"null","233141","pSARL_v2","pSARL_v2e69adbd5","5aee513f3606ab0001b92b29","freq_resp","img/orange_2bandit_a.png","70","70","test","","","","7","",""
"null","233297","pSARL_v2","pSARL_v2e69adbd5","5aee513f3606ab0001b92b29","fixation","img/fixation.png","null","","test","","","","","",""
"220","233519","pSARL_v2","pSARL_v2e69adbd5","5aee513f3606ab0001b92b29","freq","img/orange_2bandit_a2.png","70","70","test","1","139","139","7","",""
"null","234111","pSARL_v2","pSARL_v2e69adbd5","5aee513f3606ab0001b92b29","freq_resp","img/orange_2bandit_a.png","70","70","test","","","","7","",""
"null","234270","pSARL_v2","pSARL_v2e69adbd5","5aee513f3606ab0001b92b29","fixation","img/fixation.png","null","","test","","","","","",""
"234","234507","pSARL_v2","pSARL_v2e69adbd5","5aee513f3606ab0001b92b29","freq","img/orange_2bandit_a2.png","70","70","test","1","140","140","7","",""
"null","235087","pSARL_v2","pSARL_v2e69adbd5","5aee513f3606ab0001b92b29","freq_resp","img/orange_2bandit_a.png","70","70","test","","","","7","",""
"null","235245","pSARL_v2","pSARL_v2e69adbd5","5aee513f3606ab0001b92b29","fixation","img/fixation.png","null","","test","","","","","",""
"253","235502","pSARL_v2","pSARL_v2e69adbd5","5aee513f3606ab0001b92b29","freq","img/orange_2bandit_a2.png","70","70","test","1","141","141","7","",""
"null","236059","pSARL_v2","pSARL_v2e69adbd5","5aee513f3606ab0001b92b29","freq_resp","img/orange_2bandit_a.png","70","70","test","","","","7","",""
"null","236217","pSARL_v2","pSARL_v2e69adbd5","5aee513f3606ab0001b92b29","fixation","img/fixation.png","null","","test","","","","","",""
"326","236545","pSARL_v2","pSARL_v2e69adbd5","5aee513f3606ab0001b92b29","freq","img/orange_2bandit_a2.png","70","70","test","1","142","142","7","",""
"null","237027","pSARL_v2","pSARL_v2e69adbd5","5aee513f3606ab0001b92b29","freq_resp","img/orange_2bandit_a.png","70","70","test","","","","7","",""
"null","237195","pSARL_v2","pSARL_v2e69adbd5","5aee513f3606ab0001b92b29","fixation","img/fixation.png","null","","test","","","","","",""
"394","237591","pSARL_v2","pSARL_v2e69adbd5","5aee513f3606ab0001b92b29","freq","img/orange_2bandit_a2.png","70","70","test","1","143","143","7","",""
"null","238009","pSARL_v2","pSARL_v2e69adbd5","5aee513f3606ab0001b92b29","freq_resp","img/orange_2bandit_a.png","70","70","test","","","","7","",""
"null","238163","pSARL_v2","pSARL_v2e69adbd5","5aee513f3606ab0001b92b29","fixation","img/fixation.png","null","","test","","","","","",""
"359","238525","pSARL_v2","pSARL_v2e69adbd5","5aee513f3606ab0001b92b29","freq","img/orange_2bandit_a2.png","70","70","test","1","144","144","7","",""
"null","238981","pSARL_v2","pSARL_v2e69adbd5","5aee513f3606ab0001b92b29","freq_resp","img/orange_2bandit_a.png","70","70","test","","","","7","",""
"null","239138","pSARL_v2","pSARL_v2e69adbd5","5aee513f3606ab0001b92b29","fixation","img/fixation.png","null","","test","","","","","",""
"312","239454","pSARL_v2","pSARL_v2e69adbd5","5aee513f3606ab0001b92b29","freq","img/orange_2bandit_a2.png","70","70","test","1","145","145","7","",""
"null","239953","pSARL_v2","pSARL_v2e69adbd5","5aee513f3606ab0001b92b29","freq_resp","img/orange_2bandit_a.png","70","70","test","","","","7","",""
"null","240112","pSARL_v2","pSARL_v2e69adbd5","5aee513f3606ab0001b92b29","fixation","img/fixation.png","null","","test","","","","","",""
"307","240423","pSARL_v2","pSARL_v2e69adbd5","5aee513f3606ab0001b92b29","freq","img/orange_2bandit_a2.png","70","70","test","1","146","146","7","",""
"null","240931","pSARL_v2","pSARL_v2e69adbd5","5aee513f3606ab0001b92b29","freq_resp","img/orange_2bandit_a.png","70","70","test","","","","7","",""
"null","241089","pSARL_v2","pSARL_v2e69adbd5","5aee513f3606ab0001b92b29","fixation","img/fixation.png","null","","test","","","","","",""
"310","241403","pSARL_v2","pSARL_v2e69adbd5","5aee513f3606ab0001b92b29","freq","img/orange_2bandit_a2.png","70","70","test","1","147","147","7","",""
"null","241905","pSARL_v2","pSARL_v2e69adbd5","5aee513f3606ab0001b92b29","freq_resp","img/orange_2bandit_a.png","70","70","test","","","","7","",""
"null","242060","pSARL_v2","pSARL_v2e69adbd5","5aee513f3606ab0001b92b29","fixation","img/fixation.png","null","","test","","","","","",""
"282","242345","pSARL_v2","pSARL_v2e69adbd5","5aee513f3606ab0001b92b29","freq","img/orange_2bandit_a2.png","70","70","test","1","148","148","7","",""
"null","242874","pSARL_v2","pSARL_v2e69adbd5","5aee513f3606ab0001b92b29","freq_resp","img/orange_2bandit_a.png","70","70","test","","","","7","",""
"null","243030","pSARL_v2","pSARL_v2e69adbd5","5aee513f3606ab0001b92b29","fixation","img/fixation.png","null","","test","","","","","",""
"302","243335","pSARL_v2","pSARL_v2e69adbd5","5aee513f3606ab0001b92b29","infreq","img/green_2bandit_a2.png","68","68","test","1","149","149","7","",""
"null","243842","pSARL_v2","pSARL_v2e69adbd5","5aee513f3606ab0001b92b29","infreq_resp","img/green_2bandit_a.png","68","68","test","","","","7","",""
"null","243997","pSARL_v2","pSARL_v2e69adbd5","5aee513f3606ab0001b92b29","fixation","img/fixation.png","null","","test","","","","","",""
"345","244344","pSARL_v2","pSARL_v2e69adbd5","5aee513f3606ab0001b92b29","infreq","img/green_2bandit_a2.png","68","68","test","1","150","150","7","",""
"null","244813","pSARL_v2","pSARL_v2e69adbd5","5aee513f3606ab0001b92b29","infreq_resp","img/green_2bandit_a.png","68","68","test","","","","7","",""
"null","244972","pSARL_v2","pSARL_v2e69adbd5","5aee513f3606ab0001b92b29","fixation","img/fixation.png","null","","test","","","","","",""
"347","245324","pSARL_v2","pSARL_v2e69adbd5","5aee513f3606ab0001b92b29","freq","img/orange_2bandit_a2.png","70","70","test","1","151","151","7","",""
"null","245785","pSARL_v2","pSARL_v2e69adbd5","5aee513f3606ab0001b92b29","freq_resp","img/orange_2bandit_a.png","70","70","test","","","","7","",""
"null","245943","pSARL_v2","pSARL_v2e69adbd5","5aee513f3606ab0001b92b29","fixation","img/fixation.png","null","","test","","","","","",""
"291","246238","pSARL_v2","pSARL_v2e69adbd5","5aee513f3606ab0001b92b29","freq","img/orange_2bandit_a2.png","70","70","test","1","152","152","7","",""
"null","246763","pSARL_v2","pSARL_v2e69adbd5","5aee513f3606ab0001b92b29","freq_resp","img/orange_2bandit_a.png","70","70","test","","","","7","",""
"null","246921","pSARL_v2","pSARL_v2e69adbd5","5aee513f3606ab0001b92b29","fixation","img/fixation.png","null","","test","","","","","",""
"313","247239","pSARL_v2","pSARL_v2e69adbd5","5aee513f3606ab0001b92b29","freq","img/orange_2bandit_a2.png","70","70","test","1","153","153","7","",""
"null","247737","pSARL_v2","pSARL_v2e69adbd5","5aee513f3606ab0001b92b29","freq_resp","img/orange_2bandit_a.png","70","70","test","","","","7","",""
"null","247893","pSARL_v2","pSARL_v2e69adbd5","5aee513f3606ab0001b92b29","fixation","img/fixation.png","null","","test","","","","","",""
"314","248212","pSARL_v2","pSARL_v2e69adbd5","5aee513f3606ab0001b92b29","freq","img/orange_2bandit_a2.png","70","70","test","1","154","154","7","",""
"null","248710","pSARL_v2","pSARL_v2e69adbd5","5aee513f3606ab0001b92b29","freq_resp","img/orange_2bandit_a.png","70","70","test","","","","7","",""
"null","248865","pSARL_v2","pSARL_v2e69adbd5","5aee513f3606ab0001b92b29","fixation","img/fixation.png","null","","test","","","","","",""
"372","249241","pSARL_v2","pSARL_v2e69adbd5","5aee513f3606ab0001b92b29","freq","img/orange_2bandit_a2.png","70","70","test","1","155","155","7","",""
"null","249681","pSARL_v2","pSARL_v2e69adbd5","5aee513f3606ab0001b92b29","freq_resp","img/orange_2bandit_a.png","70","70","test","","","","7","",""
"null","249838","pSARL_v2","pSARL_v2e69adbd5","5aee513f3606ab0001b92b29","fixation","img/fixation.png","null","","test","","","","","",""
"360","250200","pSARL_v2","pSARL_v2e69adbd5","5aee513f3606ab0001b92b29","freq","img/orange_2bandit_a2.png","70","70","test","1","156","156","7","",""
"null","250652","pSARL_v2","pSARL_v2e69adbd5","5aee513f3606ab0001b92b29","freq_resp","img/orange_2bandit_a.png","70","70","test","","","","7","",""
"null","250811","pSARL_v2","pSARL_v2e69adbd5","5aee513f3606ab0001b92b29","fixation","img/fixation.png","null","","test","","","","","",""
"375","251189","pSARL_v2","pSARL_v2e69adbd5","5aee513f3606ab0001b92b29","freq","img/orange_2bandit_a2.png","70","70","test","1","157","157","7","",""
"null","251627","pSARL_v2","pSARL_v2e69adbd5","5aee513f3606ab0001b92b29","freq_resp","img/orange_2bandit_a.png","70","70","test","","","","7","",""
"null","251783","pSARL_v2","pSARL_v2e69adbd5","5aee513f3606ab0001b92b29","fixation","img/fixation.png","null","","test","","","","","",""
"382","252169","pSARL_v2","pSARL_v2e69adbd5","5aee513f3606ab0001b92b29","reward","img/slot.png","74","","test","","","","","",""
"null","252927","pSARL_v2","pSARL_v2e69adbd5","5aee513f3606ab0001b92b29","points","<div class=""verylowPoints""> -6 </div>","null","na","test","","","","7","-6","6"
"514","253443","pSARL_v2","pSARL_v2e69adbd5","5aee513f3606ab0001b92b29","freq","img/orange_2bandit_a2.png","70","70","test","1","158","158","8","",""
"null","253739","pSARL_v2","pSARL_v2e69adbd5","5aee513f3606ab0001b92b29","freq_resp","img/orange_2bandit_a.png","70","70","test","","","","8","",""
"null","253895","pSARL_v2","pSARL_v2e69adbd5","5aee513f3606ab0001b92b29","fixation","img/fixation.png","null","","test","","","","","",""
"311","254211","pSARL_v2","pSARL_v2e69adbd5","5aee513f3606ab0001b92b29","freq","img/orange_2bandit_a2.png","70","70","test","1","159","159","8","",""
"null","254712","pSARL_v2","pSARL_v2e69adbd5","5aee513f3606ab0001b92b29","freq_resp","img/orange_2bandit_a.png","70","70","test","","","","8","",""
"null","254869","pSARL_v2","pSARL_v2e69adbd5","5aee513f3606ab0001b92b29","fixation","img/fixation.png","null","","test","","","","","",""
"310","255183","pSARL_v2","pSARL_v2e69adbd5","5aee513f3606ab0001b92b29","freq","img/orange_2bandit_a2.png","70","70","test","1","160","160","8","",""
"null","255689","pSARL_v2","pSARL_v2e69adbd5","5aee513f3606ab0001b92b29","freq_resp","img/orange_2bandit_a.png","70","70","test","","","","8","",""
"null","255847","pSARL_v2","pSARL_v2e69adbd5","5aee513f3606ab0001b92b29","fixation","img/fixation.png","null","","test","","","","","",""
"346","256196","pSARL_v2","pSARL_v2e69adbd5","5aee513f3606ab0001b92b29","freq","img/orange_2bandit_a2.png","70","70","test","1","161","161","8","",""
"null","256664","pSARL_v2","pSARL_v2e69adbd5","5aee513f3606ab0001b92b29","freq_resp","img/orange_2bandit_a.png","70","70","test","","","","8","",""
"null","256823","pSARL_v2","pSARL_v2e69adbd5","5aee513f3606ab0001b92b29","fixation","img/fixation.png","null","","test","","","","","",""
"413","257241","pSARL_v2","pSARL_v2e69adbd5","5aee513f3606ab0001b92b29","infreq","img/green_2bandit_a2.png","68","68","test","1","162","162","8","",""
"null","257644","pSARL_v2","pSARL_v2e69adbd5","5aee513f3606ab0001b92b29","infreq_resp","img/green_2bandit_a.png","68","68","test","","","","8","",""
"null","257799","pSARL_v2","pSARL_v2e69adbd5","5aee513f3606ab0001b92b29","fixation","img/fixation.png","null","","test","","","","","",""
"317","258119","pSARL_v2","pSARL_v2e69adbd5","5aee513f3606ab0001b92b29","freq","img/orange_2bandit_a2.png","70","70","test","1","163","163","8","",""
"null","258616","pSARL_v2","pSARL_v2e69adbd5","5aee513f3606ab0001b92b29","freq_resp","img/orange_2bandit_a.png","70","70","test","","","","8","",""
"null","258771","pSARL_v2","pSARL_v2e69adbd5","5aee513f3606ab0001b92b29","fixation","img/fixation.png","null","","test","","","","","",""
"264","259039","pSARL_v2","pSARL_v2e69adbd5","5aee513f3606ab0001b92b29","freq","img/orange_2bandit_a2.png","70","70","test","1","164","164","8","",""
"null","259585","pSARL_v2","pSARL_v2e69adbd5","5aee513f3606ab0001b92b29","freq_resp","img/orange_2bandit_a.png","70","70","test","","","","8","",""
"null","259744","pSARL_v2","pSARL_v2e69adbd5","5aee513f3606ab0001b92b29","fixation","img/fixation.png","null","","test","","","","","",""
"281","260029","pSARL_v2","pSARL_v2e69adbd5","5aee513f3606ab0001b92b29","freq","img/orange_2bandit_a2.png","70","70","test","1","165","165","8","",""
"null","260555","pSARL_v2","pSARL_v2e69adbd5","5aee513f3606ab0001b92b29","freq_resp","img/orange_2bandit_a.png","70","70","test","","","","8","",""
"null","260711","pSARL_v2","pSARL_v2e69adbd5","5aee513f3606ab0001b92b29","fixation","img/fixation.png","null","","test","","","","","",""
"231","260947","pSARL_v2","pSARL_v2e69adbd5","5aee513f3606ab0001b92b29","freq","img/orange_2bandit_a2.png","70","70","test","1","166","166","8","",""
"null","261533","pSARL_v2","pSARL_v2e69adbd5","5aee513f3606ab0001b92b29","freq_resp","img/orange_2bandit_a.png","70","70","test","","","","8","",""
"null","261691","pSARL_v2","pSARL_v2e69adbd5","5aee513f3606ab0001b92b29","fixation","img/fixation.png","null","","test","","","","","",""
"249","261943","pSARL_v2","pSARL_v2e69adbd5","5aee513f3606ab0001b92b29","freq","img/orange_2bandit_a2.png","70","70","test","1","167","167","8","",""
"null","262505","pSARL_v2","pSARL_v2e69adbd5","5aee513f3606ab0001b92b29","freq_resp","img/orange_2bandit_a.png","70","70","test","","","","8","",""
"null","262665","pSARL_v2","pSARL_v2e69adbd5","5aee513f3606ab0001b92b29","fixation","img/fixation.png","null","","test","","","","","",""
"238","262906","pSARL_v2","pSARL_v2e69adbd5","5aee513f3606ab0001b92b29","freq","img/orange_2bandit_a2.png","70","70","test","1","168","168","8","",""
"null","263480","pSARL_v2","pSARL_v2e69adbd5","5aee513f3606ab0001b92b29","freq_resp","img/orange_2bandit_a.png","70","70","test","","","","8","",""
"null","263640","pSARL_v2","pSARL_v2e69adbd5","5aee513f3606ab0001b92b29","fixation","img/fixation.png","null","","test","","","","","",""
"276","263920","pSARL_v2","pSARL_v2e69adbd5","5aee513f3606ab0001b92b29","freq","img/orange_2bandit_a2.png","70","70","test","1","169","169","8","",""
"null","264454","pSARL_v2","pSARL_v2e69adbd5","5aee513f3606ab0001b92b29","freq_resp","img/orange_2bandit_a.png","70","70","test","","","","8","",""
"null","264613","pSARL_v2","pSARL_v2e69adbd5","5aee513f3606ab0001b92b29","fixation","img/fixation.png","null","","test","","","","","",""
"274","264890","pSARL_v2","pSARL_v2e69adbd5","5aee513f3606ab0001b92b29","freq","img/orange_2bandit_a2.png","70","70","test","1","170","170","8","",""
"null","265431","pSARL_v2","pSARL_v2e69adbd5","5aee513f3606ab0001b92b29","freq_resp","img/orange_2bandit_a.png","70","70","test","","","","8","",""
"null","265586","pSARL_v2","pSARL_v2e69adbd5","5aee513f3606ab0001b92b29","fixation","img/fixation.png","null","","test","","","","","",""
"414","266005","pSARL_v2","pSARL_v2e69adbd5","5aee513f3606ab0001b92b29","infreq","img/green_2bandit_a2.png","68","68","test","1","171","171","8","",""
"null","266399","pSARL_v2","pSARL_v2e69adbd5","5aee513f3606ab0001b92b29","infreq_resp","img/green_2bandit_a.png","68","68","test","","","","8","",""
"null","266556","pSARL_v2","pSARL_v2e69adbd5","5aee513f3606ab0001b92b29","fixation","img/fixation.png","null","","test","","","","","",""
"323","266884","pSARL_v2","pSARL_v2e69adbd5","5aee513f3606ab0001b92b29","freq","img/orange_2bandit_a2.png","70","70","test","1","172","172","8","",""
"null","267372","pSARL_v2","pSARL_v2e69adbd5","5aee513f3606ab0001b92b29","freq_resp","img/orange_2bandit_a.png","70","70","test","","","","8","",""
"null","267530","pSARL_v2","pSARL_v2e69adbd5","5aee513f3606ab0001b92b29","fixation","img/fixation.png","null","","test","","","","","",""
"294","267828","pSARL_v2","pSARL_v2e69adbd5","5aee513f3606ab0001b92b29","freq","img/orange_2bandit_a2.png","70","70","test","1","173","173","8","",""
"null","268344","pSARL_v2","pSARL_v2e69adbd5","5aee513f3606ab0001b92b29","freq_resp","img/orange_2bandit_a.png","70","70","test","","","","8","",""
"null","268500","pSARL_v2","pSARL_v2e69adbd5","5aee513f3606ab0001b92b29","fixation","img/fixation.png","null","","test","","","","","",""
"292","268797","pSARL_v2","pSARL_v2e69adbd5","5aee513f3606ab0001b92b29","freq","img/orange_2bandit_a2.png","70","70","test","1","174","174","8","",""
"null","269322","pSARL_v2","pSARL_v2e69adbd5","5aee513f3606ab0001b92b29","freq_resp","img/orange_2bandit_a.png","70","70","test","","","","8","",""
"null","269481","pSARL_v2","pSARL_v2e69adbd5","5aee513f3606ab0001b92b29","fixation","img/fixation.png","null","","test","","","","","",""
"317","269801","pSARL_v2","pSARL_v2e69adbd5","5aee513f3606ab0001b92b29","freq","img/orange_2bandit_a2.png","70","70","test","1","175","175","8","",""
"null","270290","pSARL_v2","pSARL_v2e69adbd5","5aee513f3606ab0001b92b29","freq_resp","img/orange_2bandit_a.png","70","70","test","","","","8","",""
"null","270447","pSARL_v2","pSARL_v2e69adbd5","5aee513f3606ab0001b92b29","fixation","img/fixation.png","null","","test","","","","","",""
"249","270700","pSARL_v2","pSARL_v2e69adbd5","5aee513f3606ab0001b92b29","freq","img/orange_2bandit_a2.png","70","70","test","1","176","176","8","",""
"null","271268","pSARL_v2","pSARL_v2e69adbd5","5aee513f3606ab0001b92b29","freq_resp","img/orange_2bandit_a.png","70","70","test","","","","8","",""
"null","271424","pSARL_v2","pSARL_v2e69adbd5","5aee513f3606ab0001b92b29","fixation","img/fixation.png","null","","test","","","","","",""
"175","271604","pSARL_v2","pSARL_v2e69adbd5","5aee513f3606ab0001b92b29","freq","img/orange_2bandit_a2.png","70","70","test","1","177","177","8","",""
"null","272236","pSARL_v2","pSARL_v2e69adbd5","5aee513f3606ab0001b92b29","freq_resp","img/orange_2bandit_a.png","70","70","test","","","","8","",""
"null","272390","pSARL_v2","pSARL_v2e69adbd5","5aee513f3606ab0001b92b29","fixation","img/fixation.png","null","","test","","","","","",""
"306","272699","pSARL_v2","pSARL_v2e69adbd5","5aee513f3606ab0001b92b29","freq","img/orange_2bandit_a2.png","70","70","test","1","178","178","8","",""
"null","273201","pSARL_v2","pSARL_v2e69adbd5","5aee513f3606ab0001b92b29","freq_resp","img/orange_2bandit_a.png","70","70","test","","","","8","",""
"null","273355","pSARL_v2","pSARL_v2e69adbd5","5aee513f3606ab0001b92b29","fixation","img/fixation.png","null","","test","","","","","",""
"305","273663","pSARL_v2","pSARL_v2e69adbd5","5aee513f3606ab0001b92b29","freq","img/orange_2bandit_a2.png","70","70","test","1","179","179","8","",""
"null","274166","pSARL_v2","pSARL_v2e69adbd5","5aee513f3606ab0001b92b29","freq_resp","img/orange_2bandit_a.png","70","70","test","","","","8","",""
"null","274325","pSARL_v2","pSARL_v2e69adbd5","5aee513f3606ab0001b92b29","fixation","img/fixation.png","null","","test","","","","","",""
"343","274673","pSARL_v2","pSARL_v2e69adbd5","5aee513f3606ab0001b92b29","freq","img/orange_2bandit_a2.png","70","70","test","1","180","180","8","",""
"null","275141","pSARL_v2","pSARL_v2e69adbd5","5aee513f3606ab0001b92b29","freq_resp","img/orange_2bandit_a.png","70","70","test","","","","8","",""
"null","275298","pSARL_v2","pSARL_v2e69adbd5","5aee513f3606ab0001b92b29","fixation","img/fixation.png","null","","test","","","","","",""
"302","275604","pSARL_v2","pSARL_v2e69adbd5","5aee513f3606ab0001b92b29","freq","img/orange_2bandit_a2.png","70","70","test","1","181","181","8","",""
"null","276112","pSARL_v2","pSARL_v2e69adbd5","5aee513f3606ab0001b92b29","freq_resp","img/orange_2bandit_a.png","70","70","test","","","","8","",""
"null","276268","pSARL_v2","pSARL_v2e69adbd5","5aee513f3606ab0001b92b29","fixation","img/fixation.png","null","","test","","","","","",""
"285","276557","pSARL_v2","pSARL_v2e69adbd5","5aee513f3606ab0001b92b29","freq","img/orange_2bandit_a2.png","70","70","test","1","182","182","8","",""
"null","277086","pSARL_v2","pSARL_v2e69adbd5","5aee513f3606ab0001b92b29","freq_resp","img/orange_2bandit_a.png","70","70","test","","","","8","",""
"null","277242","pSARL_v2","pSARL_v2e69adbd5","5aee513f3606ab0001b92b29","fixation","img/fixation.png","null","","test","","","","","",""
"305","277550","pSARL_v2","pSARL_v2e69adbd5","5aee513f3606ab0001b92b29","freq","img/orange_2bandit_a2.png","70","70","test","1","183","183","8","",""
"null","278059","pSARL_v2","pSARL_v2e69adbd5","5aee513f3606ab0001b92b29","freq_resp","img/orange_2bandit_a.png","70","70","test","","","","8","",""
"null","278214","pSARL_v2","pSARL_v2e69adbd5","5aee513f3606ab0001b92b29","fixation","img/fixation.png","null","","test","","","","","",""
"804","279022","pSARL_v2","pSARL_v2e69adbd5","5aee513f3606ab0001b92b29","reward","img/slot.png","74","","test","","","","","",""
"null","279786","pSARL_v2","pSARL_v2e69adbd5","5aee513f3606ab0001b92b29","points","<div class=""verylowPoints""> -4 </div>","null","na","test","","","","8","-4","7"
"518","280307","pSARL_v2","pSARL_v2e69adbd5","5aee513f3606ab0001b92b29","freq","img/orange_2bandit_a2.png","70","70","test","1","184","184","9","",""
"null","280599","pSARL_v2","pSARL_v2e69adbd5","5aee513f3606ab0001b92b29","freq_resp","img/orange_2bandit_a.png","70","70","test","","","","9","",""
"null","280756","pSARL_v2","pSARL_v2e69adbd5","5aee513f3606ab0001b92b29","fixation","img/fixation.png","null","","test","","","","","",""
"375","281136","pSARL_v2","pSARL_v2e69adbd5","5aee513f3606ab0001b92b29","freq","img/orange_2bandit_a2.png","70","70","test","1","185","185","9","",""
"null","281572","pSARL_v2","pSARL_v2e69adbd5","5aee513f3606ab0001b92b29","freq_resp","img/orange_2bandit_a.png","70","70","test","","","","9","",""
"null","281729","pSARL_v2","pSARL_v2e69adbd5","5aee513f3606ab0001b92b29","fixation","img/fixation.png","null","","test","","","","","",""
"228","281960","pSARL_v2","pSARL_v2e69adbd5","5aee513f3606ab0001b92b29","freq","img/orange_2bandit_a2.png","70","70","test","1","186","186","9","",""
"null","282550","pSARL_v2","pSARL_v2e69adbd5","5aee513f3606ab0001b92b29","freq_resp","img/orange_2bandit_a.png","70","70","test","","","","9","",""
"null","282706","pSARL_v2","pSARL_v2e69adbd5","5aee513f3606ab0001b92b29","fixation","img/fixation.png","null","","test","","","","","",""
"113","282823","pSARL_v2","pSARL_v2e69adbd5","5aee513f3606ab0001b92b29","freq","img/orange_2bandit_a2.png","70","70","test","1","187","187","9","",""
"null","283525","pSARL_v2","pSARL_v2e69adbd5","5aee513f3606ab0001b92b29","freq_resp","img/orange_2bandit_a.png","70","70","test","","","","9","",""
"null","283682","pSARL_v2","pSARL_v2e69adbd5","5aee513f3606ab0001b92b29","fixation","img/fixation.png","null","","test","","","","","",""
"107","283793","pSARL_v2","pSARL_v2e69adbd5","5aee513f3606ab0001b92b29","infreq","img/green_2bandit_a2.png","70","68","test","0","188","188","9","",""
"null","284499","pSARL_v2","pSARL_v2e69adbd5","5aee513f3606ab0001b92b29","infreq_resp","img/green_2bandit_a.png","70","68","test","","","","9","",""
"null","284655","pSARL_v2","pSARL_v2e69adbd5","5aee513f3606ab0001b92b29","fixation","img/fixation.png","null","","test","","","","","",""
"541","285199","pSARL_v2","pSARL_v2e69adbd5","5aee513f3606ab0001b92b29","freq","img/orange_2bandit_a2.png","70","70","test","1","189","189","9","",""
"null","285474","pSARL_v2","pSARL_v2e69adbd5","5aee513f3606ab0001b92b29","freq_resp","img/orange_2bandit_a.png","70","70","test","","","","9","",""
"null","285632","pSARL_v2","pSARL_v2e69adbd5","5aee513f3606ab0001b92b29","fixation","img/fixation.png","null","","test","","","","","",""
"377","286013","pSARL_v2","pSARL_v2e69adbd5","5aee513f3606ab0001b92b29","infreq","img/green_2bandit_a2.png","68","68","test","1","190","190","9","",""
"null","286450","pSARL_v2","pSARL_v2e69adbd5","5aee513f3606ab0001b92b29","infreq_resp","img/green_2bandit_a.png","68","68","test","","","","9","",""
"null","286608","pSARL_v2","pSARL_v2e69adbd5","5aee513f3606ab0001b92b29","fixation","img/fixation.png","null","","test","","","","","",""
"345","286957","pSARL_v2","pSARL_v2e69adbd5","5aee513f3606ab0001b92b29","freq","img/orange_2bandit_a2.png","70","70","test","1","191","191","9","",""
"null","287427","pSARL_v2","pSARL_v2e69adbd5","5aee513f3606ab0001b92b29","freq_resp","img/orange_2bandit_a.png","70","70","test","","","","9","",""
"null","287581","pSARL_v2","pSARL_v2e69adbd5","5aee513f3606ab0001b92b29","fixation","img/fixation.png","null","","test","","","","","",""
"274","287857","pSARL_v2","pSARL_v2e69adbd5","5aee513f3606ab0001b92b29","freq","img/orange_2bandit_a2.png","70","70","test","1","192","192","9","",""
"null","288397","pSARL_v2","pSARL_v2e69adbd5","5aee513f3606ab0001b92b29","freq_resp","img/orange_2bandit_a.png","70","70","test","","","","9","",""
"null","288553","pSARL_v2","pSARL_v2e69adbd5","5aee513f3606ab0001b92b29","fixation","img/fixation.png","null","","test","","","","","",""
"258","288815","pSARL_v2","pSARL_v2e69adbd5","5aee513f3606ab0001b92b29","freq","img/orange_2bandit_a2.png","70","70","test","1","193","193","9","",""
"null","289373","pSARL_v2","pSARL_v2e69adbd5","5aee513f3606ab0001b92b29","freq_resp","img/orange_2bandit_a.png","70","70","test","","","","9","",""
"null","289531","pSARL_v2","pSARL_v2e69adbd5","5aee513f3606ab0001b92b29","fixation","img/fixation.png","null","","test","","","","","",""
"239","289774","pSARL_v2","pSARL_v2e69adbd5","5aee513f3606ab0001b92b29","freq","img/orange_2bandit_a2.png","70","70","test","1","194","194","9","",""
"null","290344","pSARL_v2","pSARL_v2e69adbd5","5aee513f3606ab0001b92b29","freq_resp","img/orange_2bandit_a.png","70","70","test","","","","9","",""
"null","290515","pSARL_v2","pSARL_v2e69adbd5","5aee513f3606ab0001b92b29","fixation","img/fixation.png","null","","test","","","","","",""
"226","290744","pSARL_v2","pSARL_v2e69adbd5","5aee513f3606ab0001b92b29","freq","img/orange_2bandit_a2.png","70","70","test","1","195","195","9","",""
"null","291332","pSARL_v2","pSARL_v2e69adbd5","5aee513f3606ab0001b92b29","freq_resp","img/orange_2bandit_a.png","70","70","test","","","","9","",""
"null","291490","pSARL_v2","pSARL_v2e69adbd5","5aee513f3606ab0001b92b29","fixation","img/fixation.png","null","","test","","","","","",""
"275","291769","pSARL_v2","pSARL_v2e69adbd5","5aee513f3606ab0001b92b29","freq","img/orange_2bandit_a2.png","70","70","test","1","196","196","9","",""
"null","292301","pSARL_v2","pSARL_v2e69adbd5","5aee513f3606ab0001b92b29","freq_resp","img/orange_2bandit_a.png","70","70","test","","","","9","",""
"null","292457","pSARL_v2","pSARL_v2e69adbd5","5aee513f3606ab0001b92b29","fixation","img/fixation.png","null","","test","","","","","",""
"253","292712","pSARL_v2","pSARL_v2e69adbd5","5aee513f3606ab0001b92b29","freq","img/orange_2bandit_a2.png","70","70","test","1","197","197","9","",""
"null","293278","pSARL_v2","pSARL_v2e69adbd5","5aee513f3606ab0001b92b29","freq_resp","img/orange_2bandit_a.png","70","70","test","","","","9","",""
"null","293438","pSARL_v2","pSARL_v2e69adbd5","5aee513f3606ab0001b92b29","fixation","img/fixation.png","null","","test","","","","","",""
"291","293733","pSARL_v2","pSARL_v2e69adbd5","5aee513f3606ab0001b92b29","freq","img/orange_2bandit_a2.png","70","70","test","1","198","198","9","",""
"null","294248","pSARL_v2","pSARL_v2e69adbd5","5aee513f3606ab0001b92b29","freq_resp","img/orange_2bandit_a.png","70","70","test","","","","9","",""
"null","294405","pSARL_v2","pSARL_v2e69adbd5","5aee513f3606ab0001b92b29","fixation","img/fixation.png","null","","test","","","","","",""
"258","294667","pSARL_v2","pSARL_v2e69adbd5","5aee513f3606ab0001b92b29","freq","img/orange_2bandit_a2.png","70","70","test","1","199","199","9","",""
"null","295217","pSARL_v2","pSARL_v2e69adbd5","5aee513f3606ab0001b92b29","freq_resp","img/orange_2bandit_a.png","70","70","test","","","","9","",""
"null","295375","pSARL_v2","pSARL_v2e69adbd5","5aee513f3606ab0001b92b29","fixation","img/fixation.png","null","","test","","","","","",""
"232","295612","pSARL_v2","pSARL_v2e69adbd5","5aee513f3606ab0001b92b29","freq","img/orange_2bandit_a2.png","70","70","test","1","200","200","9","",""
"null","296185","pSARL_v2","pSARL_v2e69adbd5","5aee513f3606ab0001b92b29","freq_resp","img/orange_2bandit_a.png","70","70","test","","","","9","",""
"null","296341","pSARL_v2","pSARL_v2e69adbd5","5aee513f3606ab0001b92b29","fixation","img/fixation.png","null","","test","","","","","",""
"247","296591","pSARL_v2","pSARL_v2e69adbd5","5aee513f3606ab0001b92b29","freq","img/orange_2bandit_a2.png","70","70","test","1","201","201","9","",""
"null","297150","pSARL_v2","pSARL_v2e69adbd5","5aee513f3606ab0001b92b29","freq_resp","img/orange_2bandit_a.png","70","70","test","","","","9","",""
"null","297305","pSARL_v2","pSARL_v2e69adbd5","5aee513f3606ab0001b92b29","fixation","img/fixation.png","null","","test","","","","","",""
"211","297520","pSARL_v2","pSARL_v2e69adbd5","5aee513f3606ab0001b92b29","freq","img/orange_2bandit_a2.png","70","70","test","1","202","202","9","",""
"null","298117","pSARL_v2","pSARL_v2e69adbd5","5aee513f3606ab0001b92b29","freq_resp","img/orange_2bandit_a.png","70","70","test","","","","9","",""
"null","298275","pSARL_v2","pSARL_v2e69adbd5","5aee513f3606ab0001b92b29","fixation","img/fixation.png","null","","test","","","","","",""
"272","298549","pSARL_v2","pSARL_v2e69adbd5","5aee513f3606ab0001b92b29","freq","img/orange_2bandit_a2.png","70","70","test","1","203","203","9","",""
"null","299087","pSARL_v2","pSARL_v2e69adbd5","5aee513f3606ab0001b92b29","freq_resp","img/orange_2bandit_a.png","70","70","test","","","","9","",""
"null","299242","pSARL_v2","pSARL_v2e69adbd5","5aee513f3606ab0001b92b29","fixation","img/fixation.png","null","","test","","","","","",""
"589","299835","pSARL_v2","pSARL_v2e69adbd5","5aee513f3606ab0001b92b29","infreq","img/green_2bandit_a2.png","68","68","test","1","204","204","9","",""
"null","300051","pSARL_v2","pSARL_v2e69adbd5","5aee513f3606ab0001b92b29","infreq_resp","img/green_2bandit_a.png","68","68","test","","","","9","",""
"null","300207","pSARL_v2","pSARL_v2e69adbd5","5aee513f3606ab0001b92b29","fixation","img/fixation.png","null","","test","","","","","",""
"357","300569","pSARL_v2","pSARL_v2e69adbd5","5aee513f3606ab0001b92b29","freq","img/orange_2bandit_a2.png","70","70","test","1","205","205","9","",""
"null","301021","pSARL_v2","pSARL_v2e69adbd5","5aee513f3606ab0001b92b29","freq_resp","img/orange_2bandit_a.png","70","70","test","","","","9","",""
"null","301178","pSARL_v2","pSARL_v2e69adbd5","5aee513f3606ab0001b92b29","fixation","img/fixation.png","null","","test","","","","","",""
"250","301433","pSARL_v2","pSARL_v2e69adbd5","5aee513f3606ab0001b92b29","freq","img/orange_2bandit_a2.png","70","70","test","1","206","206","9","",""
"null","301997","pSARL_v2","pSARL_v2e69adbd5","5aee513f3606ab0001b92b29","freq_resp","img/orange_2bandit_a.png","70","70","test","","","","9","",""
"null","302156","pSARL_v2","pSARL_v2e69adbd5","5aee513f3606ab0001b92b29","fixation","img/fixation.png","null","","test","","","","","",""
"357","302517","pSARL_v2","pSARL_v2e69adbd5","5aee513f3606ab0001b92b29","reward","img/slot.png","74","","test","","","","","",""
"null","303286","pSARL_v2","pSARL_v2e69adbd5","5aee513f3606ab0001b92b29","points","<div class=""verylowPoints""> -3 </div>","null","na","test","","","","9","-3","8"
"368","303657","pSARL_v2","pSARL_v2e69adbd5","5aee513f3606ab0001b92b29","freq","img/orange_2bandit_a2.png","70","70","test","1","207","207","10","",""
"null","304096","pSARL_v2","pSARL_v2e69adbd5","5aee513f3606ab0001b92b29","freq_resp","img/orange_2bandit_a.png","70","70","test","","","","10","",""
"null","304254","pSARL_v2","pSARL_v2e69adbd5","5aee513f3606ab0001b92b29","fixation","img/fixation.png","null","","test","","","","","",""
"267","304525","pSARL_v2","pSARL_v2e69adbd5","5aee513f3606ab0001b92b29","freq","img/orange_2bandit_a2.png","70","70","test","1","208","208","10","",""
"null","305075","pSARL_v2","pSARL_v2e69adbd5","5aee513f3606ab0001b92b29","freq_resp","img/orange_2bandit_a.png","70","70","test","","","","10","",""
"null","305232","pSARL_v2","pSARL_v2e69adbd5","5aee513f3606ab0001b92b29","fixation","img/fixation.png","null","","test","","","","","",""
"239","305475","pSARL_v2","pSARL_v2e69adbd5","5aee513f3606ab0001b92b29","freq","img/orange_2bandit_a2.png","70","70","test","1","209","209","10","",""
"null","306044","pSARL_v2","pSARL_v2e69adbd5","5aee513f3606ab0001b92b29","freq_resp","img/orange_2bandit_a.png","70","70","test","","","","10","",""
"null","306202","pSARL_v2","pSARL_v2e69adbd5","5aee513f3606ab0001b92b29","fixation","img/fixation.png","null","","test","","","","","",""
"237","306442","pSARL_v2","pSARL_v2e69adbd5","5aee513f3606ab0001b92b29","freq","img/orange_2bandit_a2.png","70","70","test","1","210","210","10","",""
"null","307019","pSARL_v2","pSARL_v2e69adbd5","5aee513f3606ab0001b92b29","freq_resp","img/orange_2bandit_a.png","70","70","test","","","","10","",""
"null","307175","pSARL_v2","pSARL_v2e69adbd5","5aee513f3606ab0001b92b29","fixation","img/fixation.png","null","","test","","","","","",""
"205","307384","pSARL_v2","pSARL_v2e69adbd5","5aee513f3606ab0001b92b29","freq","img/orange_2bandit_a2.png","70","70","test","1","211","211","10","",""
"null","307989","pSARL_v2","pSARL_v2e69adbd5","5aee513f3606ab0001b92b29","freq_resp","img/orange_2bandit_a.png","70","70","test","","","","10","",""
