"rt","time_elapsed","expId","subject","prolificID","trialType","stimulus","key_press","corrresp","phase","corr","trialNum","attentionRunNum","blockNum","points","rlNum"
"8458.5","8464","pSARL_v2","pSARL_v29rc6r2ab","63d13b586b230d231577a44b","","","","","","","","","","",""
"","11490","pSARL_v2","pSARL_v29rc6r2ab","63d13b586b230d231577a44b","fullscreen","","","","","","","","","",""
"74540.39999961853","86050","pSARL_v2","pSARL_v29rc6r2ab","63d13b586b230d231577a44b","","","","","","","","","","",""
"482.40000009536743","86536","pSARL_v2","pSARL_v29rc6r2ab","63d13b586b230d231577a44b","freqPrac","img/green_2bandit_b2.png","70","70","prac","1","","","","",""
"482.40000009536743","86863","pSARL_v2","pSARL_v29rc6r2ab","63d13b586b230d231577a44b","freqPrac_resp","img/green_2bandit_b.png","70","70","prac","","","","","",""
"null","87033","pSARL_v2","pSARL_v29rc6r2ab","63d13b586b230d231577a44b","fixation","img/fixation.png","null","","prac","","","","","",""
"429","87468","pSARL_v2","pSARL_v29rc6r2ab","63d13b586b230d231577a44b","infreqPrac","img/orange_2bandit_b2.png","68","68","prac","1","","","","",""
"429","87856","pSARL_v2","pSARL_v29rc6r2ab","63d13b586b230d231577a44b","infreqPrac_resp","img/orange_2bandit_b.png","68","68","prac","","","","","",""
"null","88010","pSARL_v2","pSARL_v29rc6r2ab","63d13b586b230d231577a44b","fixation","img/fixation.png","null","","prac","","","","","",""
"354.90000009536743","88367","pSARL_v2","pSARL_v29rc6r2ab","63d13b586b230d231577a44b","freqPrac","img/green_2bandit_b2.png","70","70","prac","1","","","","",""
"354.90000009536743","88827","pSARL_v2","pSARL_v29rc6r2ab","63d13b586b230d231577a44b","freqPrac_resp","img/green_2bandit_b.png","70","70","prac","","","","","",""
"null","88997","pSARL_v2","pSARL_v29rc6r2ab","63d13b586b230d231577a44b","fixation","img/fixation.png","null","","prac","","","","","",""
"393.69999980926514","89395","pSARL_v2","pSARL_v29rc6r2ab","63d13b586b230d231577a44b","infreqPrac","img/orange_2bandit_b2.png","68","68","prac","1","","","","",""
"393.69999980926514","89814","pSARL_v2","pSARL_v29rc6r2ab","63d13b586b230d231577a44b","infreqPrac_resp","img/orange_2bandit_b.png","68","68","prac","","","","","",""
"null","89982","pSARL_v2","pSARL_v29rc6r2ab","63d13b586b230d231577a44b","fixation","img/fixation.png","null","","prac","","","","","",""
"308.19999980926514","90296","pSARL_v2","pSARL_v29rc6r2ab","63d13b586b230d231577a44b","infreqPrac","img/orange_2bandit_b2.png","70","68","prac","0","","","","",""
"308.19999980926514","90791","pSARL_v2","pSARL_v29rc6r2ab","63d13b586b230d231577a44b","infreqPrac_resp","img/orange_2bandit_b.png","70","68","prac","","","","","",""
"null","91799","pSARL_v2","pSARL_v29rc6r2ab","63d13b586b230d231577a44b","feedback","img/wrongKey.png","null","na","prac","","","","","",""
"null","91964","pSARL_v2","pSARL_v29rc6r2ab","63d13b586b230d231577a44b","fixation","img/fixation.png","null","","prac","","","","","",""
"505.1000003814697","92471","pSARL_v2","pSARL_v29rc6r2ab","63d13b586b230d231577a44b","infreqPrac","img/orange_2bandit_b2.png","68","68","prac","1","","","","",""
"505.1000003814697","92782","pSARL_v2","pSARL_v29rc6r2ab","63d13b586b230d231577a44b","infreqPrac_resp","img/orange_2bandit_b.png","68","68","prac","","","","","",""
"null","92949","pSARL_v2","pSARL_v29rc6r2ab","63d13b586b230d231577a44b","fixation","img/fixation.png","null","","prac","","","","","",""
"361","93316","pSARL_v2","pSARL_v29rc6r2ab","63d13b586b230d231577a44b","freqPrac","img/green_2bandit_b2.png","68","70","prac","0","","","","",""
"361","93776","pSARL_v2","pSARL_v29rc6r2ab","63d13b586b230d231577a44b","freqPrac_resp","img/green_2bandit_b.png","68","70","prac","","","","","",""
"null","94795","pSARL_v2","pSARL_v29rc6r2ab","63d13b586b230d231577a44b","feedback","img/wrongKey.png","null","na","prac","","","","","",""
"null","94960","pSARL_v2","pSARL_v29rc6r2ab","63d13b586b230d231577a44b","fixation","img/fixation.png","null","","prac","","","","","",""
"439.69999980926514","95403","pSARL_v2","pSARL_v29rc6r2ab","63d13b586b230d231577a44b","infreqPrac","img/orange_2bandit_b2.png","68","68","prac","1","","","","",""
"439.69999980926514","95782","pSARL_v2","pSARL_v29rc6r2ab","63d13b586b230d231577a44b","infreqPrac_resp","img/orange_2bandit_b.png","68","68","prac","","","","","",""
"null","95947","pSARL_v2","pSARL_v29rc6r2ab","63d13b586b230d231577a44b","fixation","img/fixation.png","null","","prac","","","","","",""
"521.8999996185303","96472","pSARL_v2","pSARL_v29rc6r2ab","63d13b586b230d231577a44b","freqPrac","img/green_2bandit_b2.png","70","70","prac","1","","","","",""
"521.8999996185303","96759","pSARL_v2","pSARL_v29rc6r2ab","63d13b586b230d231577a44b","freqPrac_resp","img/green_2bandit_b.png","70","70","prac","","","","","",""
"null","96922","pSARL_v2","pSARL_v29rc6r2ab","63d13b586b230d231577a44b","fixation","img/fixation.png","null","","prac","","","","","",""
"426.8999996185303","97352","pSARL_v2","pSARL_v29rc6r2ab","63d13b586b230d231577a44b","freqPrac","img/green_2bandit_b2.png","70","70","prac","1","","","","",""
"426.8999996185303","97729","pSARL_v2","pSARL_v29rc6r2ab","63d13b586b230d231577a44b","freqPrac_resp","img/green_2bandit_b.png","70","70","prac","","","","","",""
"null","97899","pSARL_v2","pSARL_v29rc6r2ab","63d13b586b230d231577a44b","fixation","img/fixation.png","null","","prac","","","","","",""
"27881.39999961853","125784","pSARL_v2","pSARL_v29rc6r2ab","63d13b586b230d231577a44b","","","","","prac","","","","","",""
"420.7999997138977","126208","pSARL_v2","pSARL_v29rc6r2ab","63d13b586b230d231577a44b","rewardPractice","img/slot.png","74","","prac","","","","","",""
"null","126976","pSARL_v2","pSARL_v29rc6r2ab","63d13b586b230d231577a44b","feedback","<div class=""veryhighPoints""> +15 </div>","null","na","prac","","","","","",""
"null","127143","pSARL_v2","pSARL_v29rc6r2ab","63d13b586b230d231577a44b","fixation","img/fixation.png","null","","prac","","","","","",""
"13831.39999961853","140981","pSARL_v2","pSARL_v29rc6r2ab","63d13b586b230d231577a44b","","","","","prac","","","","","",""
"728.1999998092651","141711","pSARL_v2","pSARL_v29rc6r2ab","63d13b586b230d231577a44b","freq","img/green_2bandit_b2.png","70","70","test","1","1","1","1","",""
"null","141799","pSARL_v2","pSARL_v29rc6r2ab","63d13b586b230d231577a44b","freq_resp","img/green_2bandit_b.png","70","70","test","","","","1","",""
"null","141964","pSARL_v2","pSARL_v29rc6r2ab","63d13b586b230d231577a44b","fixation","img/fixation.png","null","","test","","","","","",""
"467.19999980926514","142434","pSARL_v2","pSARL_v29rc6r2ab","63d13b586b230d231577a44b","freq","img/green_2bandit_b2.png","70","70","test","1","2","2","1","",""
"null","142773","pSARL_v2","pSARL_v29rc6r2ab","63d13b586b230d231577a44b","freq_resp","img/green_2bandit_b.png","70","70","test","","","","1","",""
"null","142941","pSARL_v2","pSARL_v29rc6r2ab","63d13b586b230d231577a44b","fixation","img/fixation.png","null","","test","","","","","",""
"457.30000019073486","143405","pSARL_v2","pSARL_v29rc6r2ab","63d13b586b230d231577a44b","freq","img/green_2bandit_b2.png","70","70","test","1","3","3","1","",""
"null","143764","pSARL_v2","pSARL_v29rc6r2ab","63d13b586b230d231577a44b","freq_resp","img/green_2bandit_b.png","70","70","test","","","","1","",""
"null","143932","pSARL_v2","pSARL_v29rc6r2ab","63d13b586b230d231577a44b","fixation","img/fixation.png","null","","test","","","","","",""
"424.7000002861023","144364","pSARL_v2","pSARL_v29rc6r2ab","63d13b586b230d231577a44b","freq","img/green_2bandit_b2.png","70","70","test","1","4","4","1","",""
"null","144748","pSARL_v2","pSARL_v29rc6r2ab","63d13b586b230d231577a44b","freq_resp","img/green_2bandit_b.png","70","70","test","","","","1","",""
"null","144910","pSARL_v2","pSARL_v29rc6r2ab","63d13b586b230d231577a44b","fixation","img/fixation.png","null","","test","","","","","",""
"391.30000019073486","145308","pSARL_v2","pSARL_v29rc6r2ab","63d13b586b230d231577a44b","freq","img/green_2bandit_b2.png","70","70","test","1","5","5","1","",""
"null","145725","pSARL_v2","pSARL_v29rc6r2ab","63d13b586b230d231577a44b","freq_resp","img/green_2bandit_b.png","70","70","test","","","","1","",""
"null","145892","pSARL_v2","pSARL_v29rc6r2ab","63d13b586b230d231577a44b","fixation","img/fixation.png","null","","test","","","","","",""
"418","146316","pSARL_v2","pSARL_v29rc6r2ab","63d13b586b230d231577a44b","infreq","img/orange_2bandit_b2.png","68","68","test","1","6","6","1","",""
"null","146713","pSARL_v2","pSARL_v29rc6r2ab","63d13b586b230d231577a44b","infreq_resp","img/orange_2bandit_b.png","68","68","test","","","","1","",""
"null","146881","pSARL_v2","pSARL_v29rc6r2ab","63d13b586b230d231577a44b","fixation","img/fixation.png","null","","test","","","","","",""
"477.5","147362","pSARL_v2","pSARL_v29rc6r2ab","63d13b586b230d231577a44b","infreq","img/orange_2bandit_b2.png","68","68","test","1","7","7","1","",""
"null","147692","pSARL_v2","pSARL_v29rc6r2ab","63d13b586b230d231577a44b","infreq_resp","img/orange_2bandit_b.png","68","68","test","","","","1","",""
"null","147852","pSARL_v2","pSARL_v29rc6r2ab","63d13b586b230d231577a44b","fixation","img/fixation.png","null","","test","","","","","",""
"506.59999990463257","148361","pSARL_v2","pSARL_v29rc6r2ab","63d13b586b230d231577a44b","freq","img/green_2bandit_b2.png","70","70","test","1","8","8","1","",""
"null","148664","pSARL_v2","pSARL_v29rc6r2ab","63d13b586b230d231577a44b","freq_resp","img/green_2bandit_b.png","70","70","test","","","","1","",""
"null","148833","pSARL_v2","pSARL_v29rc6r2ab","63d13b586b230d231577a44b","fixation","img/fixation.png","null","","test","","","","","",""
"380.5","149217","pSARL_v2","pSARL_v29rc6r2ab","63d13b586b230d231577a44b","freq","img/green_2bandit_b2.png","70","70","test","1","9","9","1","",""
"null","149652","pSARL_v2","pSARL_v29rc6r2ab","63d13b586b230d231577a44b","freq_resp","img/green_2bandit_b.png","70","70","test","","","","1","",""
"null","149813","pSARL_v2","pSARL_v29rc6r2ab","63d13b586b230d231577a44b","fixation","img/fixation.png","null","","test","","","","","",""
"352.59999990463257","150172","pSARL_v2","pSARL_v29rc6r2ab","63d13b586b230d231577a44b","freq","img/green_2bandit_b2.png","70","70","test","1","10","10","1","",""
"null","150626","pSARL_v2","pSARL_v29rc6r2ab","63d13b586b230d231577a44b","freq_resp","img/green_2bandit_b.png","70","70","test","","","","1","",""
"null","150795","pSARL_v2","pSARL_v29rc6r2ab","63d13b586b230d231577a44b","fixation","img/fixation.png","null","","test","","","","","",""
"338.5","151141","pSARL_v2","pSARL_v29rc6r2ab","63d13b586b230d231577a44b","freq","img/green_2bandit_b2.png","70","70","test","1","11","11","1","",""
"null","151617","pSARL_v2","pSARL_v29rc6r2ab","63d13b586b230d231577a44b","freq_resp","img/green_2bandit_b.png","70","70","test","","","","1","",""
"null","151782","pSARL_v2","pSARL_v29rc6r2ab","63d13b586b230d231577a44b","fixation","img/fixation.png","null","","test","","","","","",""
"409.19999980926514","152194","pSARL_v2","pSARL_v29rc6r2ab","63d13b586b230d231577a44b","freq","img/green_2bandit_b2.png","70","70","test","1","12","12","1","",""
"null","152592","pSARL_v2","pSARL_v29rc6r2ab","63d13b586b230d231577a44b","freq_resp","img/green_2bandit_b.png","70","70","test","","","","1","",""
"null","152760","pSARL_v2","pSARL_v29rc6r2ab","63d13b586b230d231577a44b","fixation","img/fixation.png","null","","test","","","","","",""
"333.09999990463257","153095","pSARL_v2","pSARL_v29rc6r2ab","63d13b586b230d231577a44b","freq","img/green_2bandit_b2.png","70","70","test","1","13","13","1","",""
"null","153582","pSARL_v2","pSARL_v29rc6r2ab","63d13b586b230d231577a44b","freq_resp","img/green_2bandit_b.png","70","70","test","","","","1","",""
"null","153744","pSARL_v2","pSARL_v29rc6r2ab","63d13b586b230d231577a44b","fixation","img/fixation.png","null","","test","","","","","",""
"380.7000002861023","154128","pSARL_v2","pSARL_v29rc6r2ab","63d13b586b230d231577a44b","freq","img/green_2bandit_b2.png","70","70","test","1","14","14","1","",""
"null","154568","pSARL_v2","pSARL_v29rc6r2ab","63d13b586b230d231577a44b","freq_resp","img/green_2bandit_b.png","70","70","test","","","","1","",""
"null","154735","pSARL_v2","pSARL_v29rc6r2ab","63d13b586b230d231577a44b","fixation","img/fixation.png","null","","test","","","","","",""
"342.40000009536743","155080","pSARL_v2","pSARL_v29rc6r2ab","63d13b586b230d231577a44b","freq","img/green_2bandit_b2.png","70","70","test","1","15","15","1","",""
"null","155542","pSARL_v2","pSARL_v29rc6r2ab","63d13b586b230d231577a44b","freq_resp","img/green_2bandit_b.png","70","70","test","","","","1","",""
"null","155711","pSARL_v2","pSARL_v29rc6r2ab","63d13b586b230d231577a44b","fixation","img/fixation.png","null","","test","","","","","",""
"327.19999980926514","156045","pSARL_v2","pSARL_v29rc6r2ab","63d13b586b230d231577a44b","freq","img/green_2bandit_b2.png","70","70","test","1","16","16","1","",""
"null","156532","pSARL_v2","pSARL_v29rc6r2ab","63d13b586b230d231577a44b","freq_resp","img/green_2bandit_b.png","70","70","test","","","","1","",""
"null","156697","pSARL_v2","pSARL_v29rc6r2ab","63d13b586b230d231577a44b","fixation","img/fixation.png","null","","test","","","","","",""
"341.19999980926514","157044","pSARL_v2","pSARL_v29rc6r2ab","63d13b586b230d231577a44b","freq","img/green_2bandit_b2.png","70","70","test","1","17","17","1","",""
"null","157508","pSARL_v2","pSARL_v29rc6r2ab","63d13b586b230d231577a44b","freq_resp","img/green_2bandit_b.png","70","70","test","","","","1","",""
"null","157673","pSARL_v2","pSARL_v29rc6r2ab","63d13b586b230d231577a44b","fixation","img/fixation.png","null","","test","","","","","",""
"365.09999990463257","158044","pSARL_v2","pSARL_v29rc6r2ab","63d13b586b230d231577a44b","freq","img/green_2bandit_b2.png","70","70","test","1","18","18","1","",""
"null","158484","pSARL_v2","pSARL_v29rc6r2ab","63d13b586b230d231577a44b","freq_resp","img/green_2bandit_b.png","70","70","test","","","","1","",""
"null","158645","pSARL_v2","pSARL_v29rc6r2ab","63d13b586b230d231577a44b","fixation","img/fixation.png","null","","test","","","","","",""
"329.19999980926514","158980","pSARL_v2","pSARL_v29rc6r2ab","63d13b586b230d231577a44b","freq","img/green_2bandit_b2.png","70","70","test","1","19","19","1","",""
"null","159468","pSARL_v2","pSARL_v29rc6r2ab","63d13b586b230d231577a44b","freq_resp","img/green_2bandit_b.png","70","70","test","","","","1","",""
"null","159632","pSARL_v2","pSARL_v29rc6r2ab","63d13b586b230d231577a44b","fixation","img/fixation.png","null","","test","","","","","",""
"351.3999996185303","159986","pSARL_v2","pSARL_v29rc6r2ab","63d13b586b230d231577a44b","freq","img/green_2bandit_b2.png","70","70","test","1","20","20","1","",""
"null","160441","pSARL_v2","pSARL_v29rc6r2ab","63d13b586b230d231577a44b","freq_resp","img/green_2bandit_b.png","70","70","test","","","","1","",""
"null","160608","pSARL_v2","pSARL_v29rc6r2ab","63d13b586b230d231577a44b","fixation","img/fixation.png","null","","test","","","","","",""
"334.40000009536743","160945","pSARL_v2","pSARL_v29rc6r2ab","63d13b586b230d231577a44b","freq","img/green_2bandit_b2.png","70","70","test","1","21","21","1","",""
"null","161428","pSARL_v2","pSARL_v29rc6r2ab","63d13b586b230d231577a44b","freq_resp","img/green_2bandit_b.png","70","70","test","","","","1","",""
"null","161600","pSARL_v2","pSARL_v29rc6r2ab","63d13b586b230d231577a44b","fixation","img/fixation.png","null","","test","","","","","",""
"1173.6000003814697","162779","pSARL_v2","pSARL_v29rc6r2ab","63d13b586b230d231577a44b","reward","img/slot.png","74","","test","","","","","",""
"null","163544","pSARL_v2","pSARL_v29rc6r2ab","63d13b586b230d231577a44b","points","<div class=""verylowPoints""> -6 </div>","null","na","test","","","","1","-6","0"
"676.9000000953674","164227","pSARL_v2","pSARL_v29rc6r2ab","63d13b586b230d231577a44b","freq","img/green_2bandit_b2.png","70","70","test","1","22","22","2","",""
"null","164367","pSARL_v2","pSARL_v29rc6r2ab","63d13b586b230d231577a44b","freq_resp","img/green_2bandit_b.png","70","70","test","","","","2","",""
"null","164535","pSARL_v2","pSARL_v29rc6r2ab","63d13b586b230d231577a44b","fixation","img/fixation.png","null","","test","","","","","",""
"509.90000009536743","165048","pSARL_v2","pSARL_v29rc6r2ab","63d13b586b230d231577a44b","infreq","img/orange_2bandit_b2.png","68","68","test","1","23","23","2","",""
"null","165356","pSARL_v2","pSARL_v29rc6r2ab","63d13b586b230d231577a44b","infreq_resp","img/orange_2bandit_b.png","68","68","test","","","","2","",""
"null","165521","pSARL_v2","pSARL_v29rc6r2ab","63d13b586b230d231577a44b","fixation","img/fixation.png","null","","test","","","","","",""
"452.59999990463257","165976","pSARL_v2","pSARL_v29rc6r2ab","63d13b586b230d231577a44b","freq","img/green_2bandit_b2.png","70","70","test","1","24","24","2","",""
"null","166329","pSARL_v2","pSARL_v29rc6r2ab","63d13b586b230d231577a44b","freq_resp","img/green_2bandit_b.png","70","70","test","","","","2","",""
"null","166497","pSARL_v2","pSARL_v29rc6r2ab","63d13b586b230d231577a44b","fixation","img/fixation.png","null","","test","","","","","",""
"356.6000003814697","166856","pSARL_v2","pSARL_v29rc6r2ab","63d13b586b230d231577a44b","freq","img/green_2bandit_b2.png","70","70","test","1","25","25","2","",""
"null","167307","pSARL_v2","pSARL_v29rc6r2ab","63d13b586b230d231577a44b","freq_resp","img/green_2bandit_b.png","70","70","test","","","","2","",""
"null","167460","pSARL_v2","pSARL_v29rc6r2ab","63d13b586b230d231577a44b","fixation","img/fixation.png","null","","test","","","","","",""
"305.90000009536743","167772","pSARL_v2","pSARL_v29rc6r2ab","63d13b586b230d231577a44b","freq","img/green_2bandit_b2.png","70","70","test","1","26","26","2","",""
"null","168277","pSARL_v2","pSARL_v29rc6r2ab","63d13b586b230d231577a44b","freq_resp","img/green_2bandit_b.png","70","70","test","","","","2","",""
"null","168445","pSARL_v2","pSARL_v29rc6r2ab","63d13b586b230d231577a44b","fixation","img/fixation.png","null","","test","","","","","",""
"296.19999980926514","168744","pSARL_v2","pSARL_v29rc6r2ab","63d13b586b230d231577a44b","freq","img/green_2bandit_b2.png","70","70","test","1","27","27","2","",""
"null","169264","pSARL_v2","pSARL_v29rc6r2ab","63d13b586b230d231577a44b","freq_resp","img/green_2bandit_b.png","70","70","test","","","","2","",""
"null","169432","pSARL_v2","pSARL_v29rc6r2ab","63d13b586b230d231577a44b","fixation","img/fixation.png","null","","test","","","","","",""
"310.09999990463257","169748","pSARL_v2","pSARL_v29rc6r2ab","63d13b586b230d231577a44b","freq","img/green_2bandit_b2.png","70","70","test","1","28","28","2","",""
"null","170241","pSARL_v2","pSARL_v29rc6r2ab","63d13b586b230d231577a44b","freq_resp","img/green_2bandit_b.png","70","70","test","","","","2","",""
"null","170408","pSARL_v2","pSARL_v29rc6r2ab","63d13b586b230d231577a44b","fixation","img/fixation.png","null","","test","","","","","",""
"309.3999996185303","170720","pSARL_v2","pSARL_v29rc6r2ab","63d13b586b230d231577a44b","freq","img/green_2bandit_b2.png","70","70","test","1","29","29","2","",""
"null","171213","pSARL_v2","pSARL_v29rc6r2ab","63d13b586b230d231577a44b","freq_resp","img/green_2bandit_b.png","70","70","test","","","","2","",""
"null","171382","pSARL_v2","pSARL_v29rc6r2ab","63d13b586b230d231577a44b","fixation","img/fixation.png","null","","test","","","","","",""
"291.40000009536743","171679","pSARL_v2","pSARL_v29rc6r2ab","63d13b586b230d231577a44b","freq","img/green_2bandit_b2.png","70","70","test","1","30","30","2","",""
"null","172205","pSARL_v2","pSARL_v29rc6r2ab","63d13b586b230d231577a44b","freq_resp","img/green_2bandit_b.png","70","70","test","","","","2","",""
"null","172362","pSARL_v2","pSARL_v29rc6r2ab","63d13b586b230d231577a44b","fixation","img/fixation.png","null","","test","","","","","",""
"323.2000002861023","172688","pSARL_v2","pSARL_v29rc6r2ab","63d13b586b230d231577a44b","freq","img/green_2bandit_b2.png","70","70","test","1","31","31","2","",""
"null","173176","pSARL_v2","pSARL_v29rc6r2ab","63d13b586b230d231577a44b","freq_resp","img/green_2bandit_b.png","70","70","test","","","","2","",""
"null","173334","pSARL_v2","pSARL_v29rc6r2ab","63d13b586b230d231577a44b","fixation","img/fixation.png","null","","test","","","","","",""
"313.8999996185303","173651","pSARL_v2","pSARL_v29rc6r2ab","63d13b586b230d231577a44b","freq","img/green_2bandit_b2.png","70","70","test","1","32","32","2","",""
"null","174152","pSARL_v2","pSARL_v29rc6r2ab","63d13b586b230d231577a44b","freq_resp","img/green_2bandit_b.png","70","70","test","","","","2","",""
"null","174317","pSARL_v2","pSARL_v29rc6r2ab","63d13b586b230d231577a44b","fixation","img/fixation.png","null","","test","","","","","",""
"306.69999980926514","174626","pSARL_v2","pSARL_v29rc6r2ab","63d13b586b230d231577a44b","freq","img/green_2bandit_b2.png","70","70","test","1","33","33","2","",""
"null","175126","pSARL_v2","pSARL_v29rc6r2ab","63d13b586b230d231577a44b","freq_resp","img/green_2bandit_b.png","70","70","test","","","","2","",""
"null","175293","pSARL_v2","pSARL_v29rc6r2ab","63d13b586b230d231577a44b","fixation","img/fixation.png","null","","test","","","","","",""
"377.5","175677","pSARL_v2","pSARL_v29rc6r2ab","63d13b586b230d231577a44b","freq","img/green_2bandit_b2.png","70","70","test","1","34","34","2","",""
"null","176117","pSARL_v2","pSARL_v29rc6r2ab","63d13b586b230d231577a44b","freq_resp","img/green_2bandit_b.png","70","70","test","","","","2","",""
"null","176282","pSARL_v2","pSARL_v29rc6r2ab","63d13b586b230d231577a44b","fixation","img/fixation.png","null","","test","","","","","",""
"379.90000009536743","176665","pSARL_v2","pSARL_v29rc6r2ab","63d13b586b230d231577a44b","freq","img/green_2bandit_b2.png","70","70","test","1","35","35","2","",""
"null","177090","pSARL_v2","pSARL_v29rc6r2ab","63d13b586b230d231577a44b","freq_resp","img/green_2bandit_b.png","70","70","test","","","","2","",""
"null","177244","pSARL_v2","pSARL_v29rc6r2ab","63d13b586b230d231577a44b","fixation","img/fixation.png","null","","test","","","","","",""
"426.30000019073486","177677","pSARL_v2","pSARL_v29rc6r2ab","63d13b586b230d231577a44b","infreq","img/orange_2bandit_b2.png","68","68","test","1","36","36","2","",""
"null","178065","pSARL_v2","pSARL_v29rc6r2ab","63d13b586b230d231577a44b","infreq_resp","img/orange_2bandit_b.png","68","68","test","","","","2","",""
"null","178229","pSARL_v2","pSARL_v29rc6r2ab","63d13b586b230d231577a44b","fixation","img/fixation.png","null","","test","","","","","",""
"320.5","178552","pSARL_v2","pSARL_v29rc6r2ab","63d13b586b230d231577a44b","freq","img/green_2bandit_b2.png","70","70","test","1","37","37","2","",""
"null","179053","pSARL_v2","pSARL_v29rc6r2ab","63d13b586b230d231577a44b","freq_resp","img/green_2bandit_b.png","70","70","test","","","","2","",""
"null","179217","pSARL_v2","pSARL_v29rc6r2ab","63d13b586b230d231577a44b","fixation","img/fixation.png","null","","test","","","","","",""
"292.7000002861023","179512","pSARL_v2","pSARL_v29rc6r2ab","63d13b586b230d231577a44b","freq","img/green_2bandit_b2.png","70","70","test","1","38","38","2","",""
"null","180028","pSARL_v2","pSARL_v29rc6r2ab","63d13b586b230d231577a44b","freq_resp","img/green_2bandit_b.png","70","70","test","","","","2","",""
"null","180196","pSARL_v2","pSARL_v29rc6r2ab","63d13b586b230d231577a44b","fixation","img/fixation.png","null","","test","","","","","",""
"442.5","180644","pSARL_v2","pSARL_v29rc6r2ab","63d13b586b230d231577a44b","freq","img/green_2bandit_b2.png","70","70","test","1","39","39","2","",""
"null","181014","pSARL_v2","pSARL_v29rc6r2ab","63d13b586b230d231577a44b","freq_resp","img/green_2bandit_b.png","70","70","test","","","","2","",""
"null","181182","pSARL_v2","pSARL_v29rc6r2ab","63d13b586b230d231577a44b","fixation","img/fixation.png","null","","test","","","","","",""
"343.5","181529","pSARL_v2","pSARL_v29rc6r2ab","63d13b586b230d231577a44b","freq","img/green_2bandit_b2.png","70","70","test","1","40","40","2","",""
"null","181991","pSARL_v2","pSARL_v29rc6r2ab","63d13b586b230d231577a44b","freq_resp","img/green_2bandit_b.png","70","70","test","","","","2","",""
"null","182159","pSARL_v2","pSARL_v29rc6r2ab","63d13b586b230d231577a44b","fixation","img/fixation.png","null","","test","","","","","",""
"302.80000019073486","182464","pSARL_v2","pSARL_v29rc6r2ab","63d13b586b230d231577a44b","freq","img/green_2bandit_b2.png","70","70","test","1","41","41","2","",""
"null","182977","pSARL_v2","pSARL_v29rc6r2ab","63d13b586b230d231577a44b","freq_resp","img/green_2bandit_b.png","70","70","test","","","","2","",""
"null","183131","pSARL_v2","pSARL_v29rc6r2ab","63d13b586b230d231577a44b","fixation","img/fixation.png","null","","test","","","","","",""
"442.7000002861023","183577","pSARL_v2","pSARL_v29rc6r2ab","63d13b586b230d231577a44b","freq","img/green_2bandit_b2.png","70","70","test","1","42","42","2","",""
"null","183951","pSARL_v2","pSARL_v29rc6r2ab","63d13b586b230d231577a44b","freq_resp","img/green_2bandit_b.png","70","70","test","","","","2","",""
"null","184106","pSARL_v2","pSARL_v29rc6r2ab","63d13b586b230d231577a44b","fixation","img/fixation.png","null","","test","","","","","",""
"379","184489","pSARL_v2","pSARL_v29rc6r2ab","63d13b586b230d231577a44b","freq","img/green_2bandit_b2.png","70","70","test","1","43","43","2","",""
"null","184927","pSARL_v2","pSARL_v29rc6r2ab","63d13b586b230d231577a44b","freq_resp","img/green_2bandit_b.png","70","70","test","","","","2","",""
"null","185096","pSARL_v2","pSARL_v29rc6r2ab","63d13b586b230d231577a44b","fixation","img/fixation.png","null","","test","","","","","",""
"365","185465","pSARL_v2","pSARL_v29rc6r2ab","63d13b586b230d231577a44b","reward","img/slot.png","74","","test","","","","","",""
"null","186233","pSARL_v2","pSARL_v29rc6r2ab","63d13b586b230d231577a44b","points","<div class=""verylowPoints""> -11 </div>","null","na","test","","","","2","-11","1"
"null","187045","pSARL_v2","pSARL_v29rc6r2ab","63d13b586b230d231577a44b","freq","img/green_2bandit_b2.png","null","70","test","0","44","44","3","",""
"null","187208","pSARL_v2","pSARL_v29rc6r2ab","63d13b586b230d231577a44b","fixation","img/fixation.png","null","","test","","","","","",""
"428.90000009536743","187640","pSARL_v2","pSARL_v29rc6r2ab","63d13b586b230d231577a44b","freq","img/green_2bandit_b2.png","70","70","test","1","45","45","3","",""
"null","188029","pSARL_v2","pSARL_v29rc6r2ab","63d13b586b230d231577a44b","freq_resp","img/green_2bandit_b.png","70","70","test","","","","3","",""
"null","188197","pSARL_v2","pSARL_v29rc6r2ab","63d13b586b230d231577a44b","fixation","img/fixation.png","null","","test","","","","","",""
"272.5","188473","pSARL_v2","pSARL_v29rc6r2ab","63d13b586b230d231577a44b","freq","img/green_2bandit_b2.png","70","70","test","1","46","46","3","",""
"null","189008","pSARL_v2","pSARL_v29rc6r2ab","63d13b586b230d231577a44b","freq_resp","img/green_2bandit_b.png","70","70","test","","","","3","",""
"null","189175","pSARL_v2","pSARL_v29rc6r2ab","63d13b586b230d231577a44b","fixation","img/fixation.png","null","","test","","","","","",""
"319","189501","pSARL_v2","pSARL_v29rc6r2ab","63d13b586b230d231577a44b","freq","img/green_2bandit_b2.png","70","70","test","1","47","47","3","",""
"null","189993","pSARL_v2","pSARL_v29rc6r2ab","63d13b586b230d231577a44b","freq_resp","img/green_2bandit_b.png","70","70","test","","","","3","",""
"null","190162","pSARL_v2","pSARL_v29rc6r2ab","63d13b586b230d231577a44b","fixation","img/fixation.png","null","","test","","","","","",""
"286.90000009536743","190451","pSARL_v2","pSARL_v29rc6r2ab","63d13b586b230d231577a44b","freq","img/green_2bandit_b2.png","70","70","test","1","48","48","3","",""
"null","190984","pSARL_v2","pSARL_v29rc6r2ab","63d13b586b230d231577a44b","freq_resp","img/green_2bandit_b.png","70","70","test","","","","3","",""
"null","191149","pSARL_v2","pSARL_v29rc6r2ab","63d13b586b230d231577a44b","fixation","img/fixation.png","null","","test","","","","","",""
"293.09999990463257","191448","pSARL_v2","pSARL_v29rc6r2ab","63d13b586b230d231577a44b","freq","img/green_2bandit_b2.png","70","70","test","1","49","49","3","",""
"null","191985","pSARL_v2","pSARL_v29rc6r2ab","63d13b586b230d231577a44b","freq_resp","img/green_2bandit_b.png","70","70","test","","","","3","",""
"null","192144","pSARL_v2","pSARL_v29rc6r2ab","63d13b586b230d231577a44b","fixation","img/fixation.png","null","","test","","","","","",""
"294.1000003814697","192441","pSARL_v2","pSARL_v29rc6r2ab","63d13b586b230d231577a44b","freq","img/green_2bandit_b2.png","70","70","test","1","50","50","3","",""
"null","192961","pSARL_v2","pSARL_v29rc6r2ab","63d13b586b230d231577a44b","freq_resp","img/green_2bandit_b.png","70","70","test","","","","3","",""
"null","193127","pSARL_v2","pSARL_v29rc6r2ab","63d13b586b230d231577a44b","fixation","img/fixation.png","null","","test","","","","","",""
"223.19999980926514","193356","pSARL_v2","pSARL_v29rc6r2ab","63d13b586b230d231577a44b","freq","img/green_2bandit_b2.png","70","70","test","1","51","51","3","",""
"null","193948","pSARL_v2","pSARL_v29rc6r2ab","63d13b586b230d231577a44b","freq_resp","img/green_2bandit_b.png","70","70","test","","","","3","",""
"null","194119","pSARL_v2","pSARL_v29rc6r2ab","63d13b586b230d231577a44b","fixation","img/fixation.png","null","","test","","","","","",""
"278.80000019073486","194401","pSARL_v2","pSARL_v29rc6r2ab","63d13b586b230d231577a44b","freq","img/green_2bandit_b2.png","70","70","test","1","52","52","3","",""
"null","194940","pSARL_v2","pSARL_v29rc6r2ab","63d13b586b230d231577a44b","freq_resp","img/green_2bandit_b.png","70","70","test","","","","3","",""
"null","195093","pSARL_v2","pSARL_v29rc6r2ab","63d13b586b230d231577a44b","fixation","img/fixation.png","null","","test","","","","","",""
"321.09999990463257","195417","pSARL_v2","pSARL_v29rc6r2ab","63d13b586b230d231577a44b","freq","img/green_2bandit_b2.png","70","70","test","1","53","53","3","",""
"null","195915","pSARL_v2","pSARL_v29rc6r2ab","63d13b586b230d231577a44b","freq_resp","img/green_2bandit_b.png","70","70","test","","","","3","",""
"null","196084","pSARL_v2","pSARL_v29rc6r2ab","63d13b586b230d231577a44b","fixation","img/fixation.png","null","","test","","","","","",""
"290.40000009536743","196381","pSARL_v2","pSARL_v29rc6r2ab","63d13b586b230d231577a44b","freq","img/green_2bandit_b2.png","70","70","test","1","54","54","3","",""
"null","196902","pSARL_v2","pSARL_v29rc6r2ab","63d13b586b230d231577a44b","freq_resp","img/green_2bandit_b.png","70","70","test","","","","3","",""
"null","197061","pSARL_v2","pSARL_v29rc6r2ab","63d13b586b230d231577a44b","fixation","img/fixation.png","null","","test","","","","","",""
"281","197345","pSARL_v2","pSARL_v29rc6r2ab","63d13b586b230d231577a44b","freq","img/green_2bandit_b2.png","70","70","test","1","55","55","3","",""
"null","197876","pSARL_v2","pSARL_v29rc6r2ab","63d13b586b230d231577a44b","freq_resp","img/green_2bandit_b.png","70","70","test","","","","3","",""
"null","198045","pSARL_v2","pSARL_v29rc6r2ab","63d13b586b230d231577a44b","fixation","img/fixation.png","null","","test","","","","","",""
"297.69999980926514","198349","pSARL_v2","pSARL_v29rc6r2ab","63d13b586b230d231577a44b","freq","img/green_2bandit_b2.png","70","70","test","1","56","56","3","",""
"null","198868","pSARL_v2","pSARL_v29rc6r2ab","63d13b586b230d231577a44b","freq_resp","img/green_2bandit_b.png","70","70","test","","","","3","",""
"null","199031","pSARL_v2","pSARL_v29rc6r2ab","63d13b586b230d231577a44b","fixation","img/fixation.png","null","","test","","","","","",""
"296.19999980926514","199334","pSARL_v2","pSARL_v29rc6r2ab","63d13b586b230d231577a44b","freq","img/green_2bandit_b2.png","70","70","test","1","57","57","3","",""
"null","199844","pSARL_v2","pSARL_v29rc6r2ab","63d13b586b230d231577a44b","freq_resp","img/green_2bandit_b.png","70","70","test","","","","3","",""
"null","200012","pSARL_v2","pSARL_v29rc6r2ab","63d13b586b230d231577a44b","fixation","img/fixation.png","null","","test","","","","","",""
"426.1000003814697","200440","pSARL_v2","pSARL_v29rc6r2ab","63d13b586b230d231577a44b","infreq","img/orange_2bandit_b2.png","68","68","test","1","58","58","3","",""
"null","200827","pSARL_v2","pSARL_v29rc6r2ab","63d13b586b230d231577a44b","infreq_resp","img/orange_2bandit_b.png","68","68","test","","","","3","",""
"null","200981","pSARL_v2","pSARL_v29rc6r2ab","63d13b586b230d231577a44b","fixation","img/fixation.png","null","","test","","","","","",""
"280.69999980926514","201265","pSARL_v2","pSARL_v29rc6r2ab","63d13b586b230d231577a44b","freq","img/green_2bandit_b2.png","70","70","test","1","59","59","3","",""
"null","201799","pSARL_v2","pSARL_v29rc6r2ab","63d13b586b230d231577a44b","freq_resp","img/green_2bandit_b.png","70","70","test","","","","3","",""
"null","201961","pSARL_v2","pSARL_v29rc6r2ab","63d13b586b230d231577a44b","fixation","img/fixation.png","null","","test","","","","","",""
"220.5","202185","pSARL_v2","pSARL_v29rc6r2ab","63d13b586b230d231577a44b","freq","img/green_2bandit_b2.png","70","70","test","1","60","60","3","",""
"null","202777","pSARL_v2","pSARL_v29rc6r2ab","63d13b586b230d231577a44b","freq_resp","img/green_2bandit_b.png","70","70","test","","","","3","",""
"null","202944","pSARL_v2","pSARL_v29rc6r2ab","63d13b586b230d231577a44b","fixation","img/fixation.png","null","","test","","","","","",""
"246.09999990463257","203197","pSARL_v2","pSARL_v29rc6r2ab","63d13b586b230d231577a44b","freq","img/green_2bandit_b2.png","70","70","test","1","61","61","3","",""
"null","203766","pSARL_v2","pSARL_v29rc6r2ab","63d13b586b230d231577a44b","freq_resp","img/green_2bandit_b.png","70","70","test","","","","3","",""
"null","203932","pSARL_v2","pSARL_v29rc6r2ab","63d13b586b230d231577a44b","fixation","img/fixation.png","null","","test","","","","","",""
"334.5","204269","pSARL_v2","pSARL_v29rc6r2ab","63d13b586b230d231577a44b","freq","img/green_2bandit_b2.png","68","70","test","0","62","62","3","",""
"null","204743","pSARL_v2","pSARL_v29rc6r2ab","63d13b586b230d231577a44b","freq_resp","img/green_2bandit_b.png","68","70","test","","","","3","",""
"null","204909","pSARL_v2","pSARL_v29rc6r2ab","63d13b586b230d231577a44b","fixation","img/fixation.png","null","","test","","","","","",""
"376.6000003814697","205289","pSARL_v2","pSARL_v29rc6r2ab","63d13b586b230d231577a44b","freq","img/green_2bandit_b2.png","70","70","test","1","63","63","3","",""
"null","205727","pSARL_v2","pSARL_v29rc6r2ab","63d13b586b230d231577a44b","freq_resp","img/green_2bandit_b.png","70","70","test","","","","3","",""
"null","205897","pSARL_v2","pSARL_v29rc6r2ab","63d13b586b230d231577a44b","fixation","img/fixation.png","null","","test","","","","","",""
"308","206209","pSARL_v2","pSARL_v29rc6r2ab","63d13b586b230d231577a44b","freq","img/green_2bandit_b2.png","70","70","test","1","64","64","3","",""
"null","206718","pSARL_v2","pSARL_v29rc6r2ab","63d13b586b230d231577a44b","freq_resp","img/green_2bandit_b.png","70","70","test","","","","3","",""
"null","206886","pSARL_v2","pSARL_v29rc6r2ab","63d13b586b230d231577a44b","fixation","img/fixation.png","null","","test","","","","","",""
"409.2999997138977","207300","pSARL_v2","pSARL_v29rc6r2ab","63d13b586b230d231577a44b","infreq","img/orange_2bandit_b2.png","68","68","test","1","65","65","3","",""
"null","207708","pSARL_v2","pSARL_v29rc6r2ab","63d13b586b230d231577a44b","infreq_resp","img/orange_2bandit_b.png","68","68","test","","","","3","",""
"null","207876","pSARL_v2","pSARL_v29rc6r2ab","63d13b586b230d231577a44b","fixation","img/fixation.png","null","","test","","","","","",""
"306.59999990463257","208189","pSARL_v2","pSARL_v29rc6r2ab","63d13b586b230d231577a44b","freq","img/green_2bandit_b2.png","70","70","test","1","66","66","3","",""
"null","208695","pSARL_v2","pSARL_v29rc6r2ab","63d13b586b230d231577a44b","freq_resp","img/green_2bandit_b.png","70","70","test","","","","3","",""
"null","208848","pSARL_v2","pSARL_v29rc6r2ab","63d13b586b230d231577a44b","fixation","img/fixation.png","null","","test","","","","","",""
"326","209176","pSARL_v2","pSARL_v29rc6r2ab","63d13b586b230d231577a44b","reward","img/slot.png","74","","test","","","","","",""
"null","209946","pSARL_v2","pSARL_v29rc6r2ab","63d13b586b230d231577a44b","points","<div class=""verylowPoints""> -7 </div>","null","na","test","","","","3","-7","2"
"788.0999999046326","210738","pSARL_v2","pSARL_v29rc6r2ab","63d13b586b230d231577a44b","freq","img/green_2bandit_b2.png","70","70","test","1","67","67","4","",""
"null","210754","pSARL_v2","pSARL_v29rc6r2ab","63d13b586b230d231577a44b","freq_resp","img/green_2bandit_b.png","70","70","test","","","","4","",""
"null","210917","pSARL_v2","pSARL_v29rc6r2ab","63d13b586b230d231577a44b","fixation","img/fixation.png","null","","test","","","","","",""
"null","211727","pSARL_v2","pSARL_v29rc6r2ab","63d13b586b230d231577a44b","freq","img/green_2bandit_b2.png","null","70","test","0","68","68","4","",""
"null","211889","pSARL_v2","pSARL_v29rc6r2ab","63d13b586b230d231577a44b","fixation","img/fixation.png","null","","test","","","","","",""
"334.2000002861023","212227","pSARL_v2","pSARL_v29rc6r2ab","63d13b586b230d231577a44b","freq","img/green_2bandit_b2.png","70","70","test","1","69","69","4","",""
"null","212712","pSARL_v2","pSARL_v29rc6r2ab","63d13b586b230d231577a44b","freq_resp","img/green_2bandit_b.png","70","70","test","","","","4","",""
"null","212869","pSARL_v2","pSARL_v29rc6r2ab","63d13b586b230d231577a44b","fixation","img/fixation.png","null","","test","","","","","",""
"272.90000009536743","213144","pSARL_v2","pSARL_v29rc6r2ab","63d13b586b230d231577a44b","freq","img/green_2bandit_b2.png","70","70","test","1","70","70","4","",""
"null","213685","pSARL_v2","pSARL_v29rc6r2ab","63d13b586b230d231577a44b","freq_resp","img/green_2bandit_b.png","70","70","test","","","","4","",""
"null","213844","pSARL_v2","pSARL_v29rc6r2ab","63d13b586b230d231577a44b","fixation","img/fixation.png","null","","test","","","","","",""
"181.90000009536743","214032","pSARL_v2","pSARL_v29rc6r2ab","63d13b586b230d231577a44b","freq","img/green_2bandit_b2.png","70","70","test","1","71","71","4","",""
"null","214661","pSARL_v2","pSARL_v29rc6r2ab","63d13b586b230d231577a44b","freq_resp","img/green_2bandit_b.png","70","70","test","","","","4","",""
"null","214827","pSARL_v2","pSARL_v29rc6r2ab","63d13b586b230d231577a44b","fixation","img/fixation.png","null","","test","","","","","",""
"122.09999990463257","214952","pSARL_v2","pSARL_v29rc6r2ab","63d13b586b230d231577a44b","freq","img/green_2bandit_b2.png","70","70","test","1","72","72","4","",""
"null","215648","pSARL_v2","pSARL_v29rc6r2ab","63d13b586b230d231577a44b","freq_resp","img/green_2bandit_b.png","70","70","test","","","","4","",""
"null","215815","pSARL_v2","pSARL_v29rc6r2ab","63d13b586b230d231577a44b","fixation","img/fixation.png","null","","test","","","","","",""
"175","215996","pSARL_v2","pSARL_v29rc6r2ab","63d13b586b230d231577a44b","freq","img/green_2bandit_b2.png","70","70","test","1","73","73","4","",""
"null","216625","pSARL_v2","pSARL_v29rc6r2ab","63d13b586b230d231577a44b","freq_resp","img/green_2bandit_b.png","70","70","test","","","","4","",""
"null","216795","pSARL_v2","pSARL_v29rc6r2ab","63d13b586b230d231577a44b","fixation","img/fixation.png","null","","test","","","","","",""
"382.59999990463257","217183","pSARL_v2","pSARL_v29rc6r2ab","63d13b586b230d231577a44b","infreq","img/orange_2bandit_b2.png","68","68","test","1","74","74","4","",""
"null","217615","pSARL_v2","pSARL_v29rc6r2ab","63d13b586b230d231577a44b","infreq_resp","img/orange_2bandit_b.png","68","68","test","","","","4","",""
"null","217779","pSARL_v2","pSARL_v29rc6r2ab","63d13b586b230d231577a44b","fixation","img/fixation.png","null","","test","","","","","",""
"299.69999980926514","218085","pSARL_v2","pSARL_v29rc6r2ab","63d13b586b230d231577a44b","freq","img/green_2bandit_b2.png","70","70","test","1","75","75","4","",""
"null","218598","pSARL_v2","pSARL_v29rc6r2ab","63d13b586b230d231577a44b","freq_resp","img/green_2bandit_b.png","70","70","test","","","","4","",""
"null","218764","pSARL_v2","pSARL_v29rc6r2ab","63d13b586b230d231577a44b","fixation","img/fixation.png","null","","test","","","","","",""
"339.59999990463257","219107","pSARL_v2","pSARL_v29rc6r2ab","63d13b586b230d231577a44b","freq","img/green_2bandit_b2.png","70","70","test","1","76","76","4","",""
"null","219576","pSARL_v2","pSARL_v29rc6r2ab","63d13b586b230d231577a44b","freq_resp","img/green_2bandit_b.png","70","70","test","","","","4","",""
"null","219744","pSARL_v2","pSARL_v29rc6r2ab","63d13b586b230d231577a44b","fixation","img/fixation.png","null","","test","","","","","",""
"414.7000002861023","220165","pSARL_v2","pSARL_v29rc6r2ab","63d13b586b230d231577a44b","freq","img/green_2bandit_b2.png","70","70","test","1","77","77","4","",""
"null","220564","pSARL_v2","pSARL_v29rc6r2ab","63d13b586b230d231577a44b","freq_resp","img/green_2bandit_b.png","70","70","test","","","","4","",""
"null","220734","pSARL_v2","pSARL_v29rc6r2ab","63d13b586b230d231577a44b","fixation","img/fixation.png","null","","test","","","","","",""
"470.7999997138977","221208","pSARL_v2","pSARL_v29rc6r2ab","63d13b586b230d231577a44b","freq","img/green_2bandit_b2.png","70","70","test","1","78","78","4","",""
"null","221556","pSARL_v2","pSARL_v29rc6r2ab","63d13b586b230d231577a44b","freq_resp","img/green_2bandit_b.png","70","70","test","","","","4","",""
"null","221710","pSARL_v2","pSARL_v29rc6r2ab","63d13b586b230d231577a44b","fixation","img/fixation.png","null","","test","","","","","",""
"304.59999990463257","222017","pSARL_v2","pSARL_v29rc6r2ab","63d13b586b230d231577a44b","freq","img/green_2bandit_b2.png","70","70","test","1","79","79","4","",""
"null","222529","pSARL_v2","pSARL_v29rc6r2ab","63d13b586b230d231577a44b","freq_resp","img/green_2bandit_b.png","70","70","test","","","","4","",""
"null","222697","pSARL_v2","pSARL_v29rc6r2ab","63d13b586b230d231577a44b","fixation","img/fixation.png","null","","test","","","","","",""
"245.59999990463257","222948","pSARL_v2","pSARL_v29rc6r2ab","63d13b586b230d231577a44b","freq","img/green_2bandit_b2.png","70","70","test","1","80","80","4","",""
"null","223513","pSARL_v2","pSARL_v29rc6r2ab","63d13b586b230d231577a44b","freq_resp","img/green_2bandit_b.png","70","70","test","","","","4","",""
"null","223670","pSARL_v2","pSARL_v29rc6r2ab","63d13b586b230d231577a44b","fixation","img/fixation.png","null","","test","","","","","",""
"322.59999990463257","223998","pSARL_v2","pSARL_v29rc6r2ab","63d13b586b230d231577a44b","freq","img/green_2bandit_b2.png","70","70","test","1","81","81","4","",""
"null","224492","pSARL_v2","pSARL_v29rc6r2ab","63d13b586b230d231577a44b","freq_resp","img/green_2bandit_b.png","70","70","test","","","","4","",""
"null","224659","pSARL_v2","pSARL_v29rc6r2ab","63d13b586b230d231577a44b","fixation","img/fixation.png","null","","test","","","","","",""
"399","225061","pSARL_v2","pSARL_v29rc6r2ab","63d13b586b230d231577a44b","freq","img/green_2bandit_b2.png","70","70","test","1","82","82","4","",""
"null","225479","pSARL_v2","pSARL_v29rc6r2ab","63d13b586b230d231577a44b","freq_resp","img/green_2bandit_b.png","70","70","test","","","","4","",""
"null","225651","pSARL_v2","pSARL_v29rc6r2ab","63d13b586b230d231577a44b","fixation","img/fixation.png","null","","test","","","","","",""
"297.30000019073486","225952","pSARL_v2","pSARL_v29rc6r2ab","63d13b586b230d231577a44b","freq","img/green_2bandit_b2.png","70","70","test","1","83","83","4","",""
"null","226486","pSARL_v2","pSARL_v29rc6r2ab","63d13b586b230d231577a44b","freq_resp","img/green_2bandit_b.png","70","70","test","","","","4","",""
"null","226651","pSARL_v2","pSARL_v29rc6r2ab","63d13b586b230d231577a44b","fixation","img/fixation.png","null","","test","","","","","",""
"434.19999980926514","227088","pSARL_v2","pSARL_v29rc6r2ab","63d13b586b230d231577a44b","infreq","img/orange_2bandit_b2.png","70","68","test","0","84","84","4","",""
"null","227458","pSARL_v2","pSARL_v29rc6r2ab","63d13b586b230d231577a44b","infreq_resp","img/orange_2bandit_b.png","70","68","test","","","","4","",""
"null","227630","pSARL_v2","pSARL_v29rc6r2ab","63d13b586b230d231577a44b","fixation","img/fixation.png","null","","test","","","","","",""
"567.8000001907349","228201","pSARL_v2","pSARL_v29rc6r2ab","63d13b586b230d231577a44b","freq","img/green_2bandit_b2.png","70","70","test","1","85","85","4","",""
"null","228446","pSARL_v2","pSARL_v29rc6r2ab","63d13b586b230d231577a44b","freq_resp","img/green_2bandit_b.png","70","70","test","","","","4","",""
"null","228614","pSARL_v2","pSARL_v29rc6r2ab","63d13b586b230d231577a44b","fixation","img/fixation.png","null","","test","","","","","",""
"319","228936","pSARL_v2","pSARL_v29rc6r2ab","63d13b586b230d231577a44b","freq","img/green_2bandit_b2.png","70","70","test","1","86","86","4","",""
"null","229426","pSARL_v2","pSARL_v29rc6r2ab","63d13b586b230d231577a44b","freq_resp","img/green_2bandit_b.png","70","70","test","","","","4","",""
"null","229592","pSARL_v2","pSARL_v29rc6r2ab","63d13b586b230d231577a44b","fixation","img/fixation.png","null","","test","","","","","",""
"301.5","229896","pSARL_v2","pSARL_v29rc6r2ab","63d13b586b230d231577a44b","freq","img/green_2bandit_b2.png","70","70","test","1","87","87","4","",""
"null","230410","pSARL_v2","pSARL_v29rc6r2ab","63d13b586b230d231577a44b","freq_resp","img/green_2bandit_b.png","70","70","test","","","","4","",""
"null","230577","pSARL_v2","pSARL_v29rc6r2ab","63d13b586b230d231577a44b","fixation","img/fixation.png","null","","test","","","","","",""
"257.09999990463257","230837","pSARL_v2","pSARL_v29rc6r2ab","63d13b586b230d231577a44b","freq","img/green_2bandit_b2.png","70","70","test","1","88","88","4","",""
"null","231383","pSARL_v2","pSARL_v29rc6r2ab","63d13b586b230d231577a44b","freq_resp","img/green_2bandit_b.png","70","70","test","","","","4","",""
"null","231550","pSARL_v2","pSARL_v29rc6r2ab","63d13b586b230d231577a44b","fixation","img/fixation.png","null","","test","","","","","",""
"312","231865","pSARL_v2","pSARL_v29rc6r2ab","63d13b586b230d231577a44b","freq","img/green_2bandit_b2.png","70","70","test","1","89","89","4","",""
"null","232359","pSARL_v2","pSARL_v29rc6r2ab","63d13b586b230d231577a44b","freq_resp","img/green_2bandit_b.png","70","70","test","","","","4","",""
"null","232526","pSARL_v2","pSARL_v29rc6r2ab","63d13b586b230d231577a44b","fixation","img/fixation.png","null","","test","","","","","",""
"279.8999996185303","232808","pSARL_v2","pSARL_v29rc6r2ab","63d13b586b230d231577a44b","freq","img/green_2bandit_b2.png","70","70","test","1","90","90","4","",""
"null","233345","pSARL_v2","pSARL_v29rc6r2ab","63d13b586b230d231577a44b","freq_resp","img/green_2bandit_b.png","70","70","test","","","","4","",""
"null","233499","pSARL_v2","pSARL_v29rc6r2ab","63d13b586b230d231577a44b","fixation","img/fixation.png","null","","test","","","","","",""
"339.2000002861023","233841","pSARL_v2","pSARL_v29rc6r2ab","63d13b586b230d231577a44b","freq","img/green_2bandit_b2.png","70","70","test","1","91","91","4","",""
"null","234318","pSARL_v2","pSARL_v29rc6r2ab","63d13b586b230d231577a44b","freq_resp","img/green_2bandit_b.png","70","70","test","","","","4","",""
"null","234477","pSARL_v2","pSARL_v29rc6r2ab","63d13b586b230d231577a44b","fixation","img/fixation.png","null","","test","","","","","",""
"305","234784","pSARL_v2","pSARL_v29rc6r2ab","63d13b586b230d231577a44b","reward","img/slot.png","74","","test","","","","","",""
"null","235540","pSARL_v2","pSARL_v29rc6r2ab","63d13b586b230d231577a44b","points","<div class=""verylowPoints""> -3 </div>","null","na","test","","","","4","-3","3"
"409.2999997138977","235953","pSARL_v2","pSARL_v29rc6r2ab","63d13b586b230d231577a44b","freq","img/green_2bandit_b2.png","70","70","test","1","92","92","5","",""
"null","236361","pSARL_v2","pSARL_v29rc6r2ab","63d13b586b230d231577a44b","freq_resp","img/green_2bandit_b.png","70","70","test","","","","5","",""
"null","236527","pSARL_v2","pSARL_v29rc6r2ab","63d13b586b230d231577a44b","fixation","img/fixation.png","null","","test","","","","","",""
"263.69999980926514","236797","pSARL_v2","pSARL_v29rc6r2ab","63d13b586b230d231577a44b","freq","img/green_2bandit_b2.png","70","70","test","1","93","93","5","",""
"null","237351","pSARL_v2","pSARL_v29rc6r2ab","63d13b586b230d231577a44b","freq_resp","img/green_2bandit_b.png","70","70","test","","","","5","",""
"null","237517","pSARL_v2","pSARL_v29rc6r2ab","63d13b586b230d231577a44b","fixation","img/fixation.png","null","","test","","","","","",""
"218.09999990463257","237741","pSARL_v2","pSARL_v29rc6r2ab","63d13b586b230d231577a44b","freq","img/green_2bandit_b2.png","70","70","test","1","94","94","5","",""
"null","238340","pSARL_v2","pSARL_v29rc6r2ab","63d13b586b230d231577a44b","freq_resp","img/green_2bandit_b.png","70","70","test","","","","5","",""
"null","238494","pSARL_v2","pSARL_v29rc6r2ab","63d13b586b230d231577a44b","fixation","img/fixation.png","null","","test","","","","","",""
"128.40000009536743","238628","pSARL_v2","pSARL_v29rc6r2ab","63d13b586b230d231577a44b","infreq","img/orange_2bandit_b2.png","70","68","test","0","95","95","5","",""
"null","239321","pSARL_v2","pSARL_v29rc6r2ab","63d13b586b230d231577a44b","infreq_resp","img/orange_2bandit_b.png","70","68","test","","","","5","",""
"null","239482","pSARL_v2","pSARL_v29rc6r2ab","63d13b586b230d231577a44b","fixation","img/fixation.png","null","","test","","","","","",""
"292.3999996185303","239781","pSARL_v2","pSARL_v29rc6r2ab","63d13b586b230d231577a44b","freq","img/green_2bandit_b2.png","70","70","test","1","96","96","5","",""
"null","240300","pSARL_v2","pSARL_v29rc6r2ab","63d13b586b230d231577a44b","freq_resp","img/green_2bandit_b.png","70","70","test","","","","5","",""
"null","240461","pSARL_v2","pSARL_v29rc6r2ab","63d13b586b230d231577a44b","fixation","img/fixation.png","null","","test","","","","","",""
"434.19999980926514","240899","pSARL_v2","pSARL_v29rc6r2ab","63d13b586b230d231577a44b","infreq","img/orange_2bandit_b2.png","68","68","test","1","97","97","5","",""
"null","241280","pSARL_v2","pSARL_v29rc6r2ab","63d13b586b230d231577a44b","infreq_resp","img/orange_2bandit_b.png","68","68","test","","","","5","",""
"null","241444","pSARL_v2","pSARL_v29rc6r2ab","63d13b586b230d231577a44b","fixation","img/fixation.png","null","","test","","","","","",""
"481.59999990463257","241929","pSARL_v2","pSARL_v29rc6r2ab","63d13b586b230d231577a44b","freq","img/green_2bandit_b2.png","70","70","test","1","98","98","5","",""
"null","242268","pSARL_v2","pSARL_v29rc6r2ab","63d13b586b230d231577a44b","freq_resp","img/green_2bandit_b.png","70","70","test","","","","5","",""
"null","242435","pSARL_v2","pSARL_v29rc6r2ab","63d13b586b230d231577a44b","fixation","img/fixation.png","null","","test","","","","","",""
"306.7999997138977","242745","pSARL_v2","pSARL_v29rc6r2ab","63d13b586b230d231577a44b","freq","img/green_2bandit_b2.png","70","70","test","1","99","99","5","",""
"null","243255","pSARL_v2","pSARL_v29rc6r2ab","63d13b586b230d231577a44b","freq_resp","img/green_2bandit_b.png","70","70","test","","","","5","",""
"null","243413","pSARL_v2","pSARL_v29rc6r2ab","63d13b586b230d231577a44b","fixation","img/fixation.png","null","","test","","","","","",""
"283.7000002861023","243700","pSARL_v2","pSARL_v29rc6r2ab","63d13b586b230d231577a44b","freq","img/green_2bandit_b2.png","70","70","test","1","100","100","5","",""
"null","244228","pSARL_v2","pSARL_v29rc6r2ab","63d13b586b230d231577a44b","freq_resp","img/green_2bandit_b.png","70","70","test","","","","5","",""
"null","244387","pSARL_v2","pSARL_v29rc6r2ab","63d13b586b230d231577a44b","fixation","img/fixation.png","null","","test","","","","","",""
"291.40000009536743","244683","pSARL_v2","pSARL_v29rc6r2ab","63d13b586b230d231577a44b","freq","img/green_2bandit_b2.png","70","70","test","1","101","101","5","",""
"null","245200","pSARL_v2","pSARL_v29rc6r2ab","63d13b586b230d231577a44b","freq_resp","img/green_2bandit_b.png","70","70","test","","","","5","",""
"null","245365","pSARL_v2","pSARL_v29rc6r2ab","63d13b586b230d231577a44b","fixation","img/fixation.png","null","","test","","","","","",""
"289.2999997138977","245657","pSARL_v2","pSARL_v29rc6r2ab","63d13b586b230d231577a44b","freq","img/green_2bandit_b2.png","70","70","test","1","102","102","5","",""
"null","246176","pSARL_v2","pSARL_v29rc6r2ab","63d13b586b230d231577a44b","freq_resp","img/green_2bandit_b.png","70","70","test","","","","5","",""
"null","246343","pSARL_v2","pSARL_v29rc6r2ab","63d13b586b230d231577a44b","fixation","img/fixation.png","null","","test","","","","","",""
"318.90000009536743","246665","pSARL_v2","pSARL_v29rc6r2ab","63d13b586b230d231577a44b","freq","img/green_2bandit_b2.png","70","70","test","1","103","103","5","",""
"null","247164","pSARL_v2","pSARL_v29rc6r2ab","63d13b586b230d231577a44b","freq_resp","img/green_2bandit_b.png","70","70","test","","","","5","",""
"null","247335","pSARL_v2","pSARL_v29rc6r2ab","63d13b586b230d231577a44b","fixation","img/fixation.png","null","","test","","","","","",""
"318.1000003814697","247657","pSARL_v2","pSARL_v29rc6r2ab","63d13b586b230d231577a44b","freq","img/green_2bandit_b2.png","70","70","test","1","104","104","5","",""
"null","248157","pSARL_v2","pSARL_v29rc6r2ab","63d13b586b230d231577a44b","freq_resp","img/green_2bandit_b.png","70","70","test","","","","5","",""
"null","248311","pSARL_v2","pSARL_v29rc6r2ab","63d13b586b230d231577a44b","fixation","img/fixation.png","null","","test","","","","","",""
"295.40000009536743","248609","pSARL_v2","pSARL_v29rc6r2ab","63d13b586b230d231577a44b","freq","img/green_2bandit_b2.png","70","70","test","1","105","105","5","",""
"null","249128","pSARL_v2","pSARL_v29rc6r2ab","63d13b586b230d231577a44b","freq_resp","img/green_2bandit_b.png","70","70","test","","","","5","",""
"null","249282","pSARL_v2","pSARL_v29rc6r2ab","63d13b586b230d231577a44b","fixation","img/fixation.png","null","","test","","","","","",""
"355.8999996185303","249641","pSARL_v2","pSARL_v29rc6r2ab","63d13b586b230d231577a44b","freq","img/green_2bandit_b2.png","70","70","test","1","106","106","5","",""
"null","250103","pSARL_v2","pSARL_v29rc6r2ab","63d13b586b230d231577a44b","freq_resp","img/green_2bandit_b.png","70","70","test","","","","5","",""
"null","250262","pSARL_v2","pSARL_v29rc6r2ab","63d13b586b230d231577a44b","fixation","img/fixation.png","null","","test","","","","","",""
"385.69999980926514","250651","pSARL_v2","pSARL_v29rc6r2ab","63d13b586b230d231577a44b","freq","img/green_2bandit_b2.png","70","70","test","1","107","107","5","",""
"null","251077","pSARL_v2","pSARL_v29rc6r2ab","63d13b586b230d231577a44b","freq_resp","img/green_2bandit_b.png","70","70","test","","","","5","",""
"null","251243","pSARL_v2","pSARL_v29rc6r2ab","63d13b586b230d231577a44b","fixation","img/fixation.png","null","","test","","","","","",""
"339.5","251589","pSARL_v2","pSARL_v29rc6r2ab","63d13b586b230d231577a44b","freq","img/green_2bandit_b2.png","70","70","test","1","108","108","5","",""
"null","252068","pSARL_v2","pSARL_v29rc6r2ab","63d13b586b230d231577a44b","freq_resp","img/green_2bandit_b.png","70","70","test","","","","5","",""
"null","252230","pSARL_v2","pSARL_v29rc6r2ab","63d13b586b230d231577a44b","fixation","img/fixation.png","null","","test","","","","","",""
"335.1000003814697","252568","pSARL_v2","pSARL_v29rc6r2ab","63d13b586b230d231577a44b","freq","img/green_2bandit_b2.png","70","70","test","1","109","109","5","",""
"null","253041","pSARL_v2","pSARL_v29rc6r2ab","63d13b586b230d231577a44b","freq_resp","img/green_2bandit_b.png","70","70","test","","","","5","",""
"null","253209","pSARL_v2","pSARL_v29rc6r2ab","63d13b586b230d231577a44b","fixation","img/fixation.png","null","","test","","","","","",""
"316.6000003814697","253529","pSARL_v2","pSARL_v29rc6r2ab","63d13b586b230d231577a44b","freq","img/green_2bandit_b2.png","70","70","test","1","110","110","5","",""
"null","254027","pSARL_v2","pSARL_v29rc6r2ab","63d13b586b230d231577a44b","freq_resp","img/green_2bandit_b.png","70","70","test","","","","5","",""
"null","254183","pSARL_v2","pSARL_v29rc6r2ab","63d13b586b230d231577a44b","fixation","img/fixation.png","null","","test","","","","","",""
"416.6000003814697","254605","pSARL_v2","pSARL_v29rc6r2ab","63d13b586b230d231577a44b","freq","img/green_2bandit_b2.png","70","70","test","1","111","111","5","",""
"null","255000","pSARL_v2","pSARL_v29rc6r2ab","63d13b586b230d231577a44b","freq_resp","img/green_2bandit_b.png","70","70","test","","","","5","",""
"null","255159","pSARL_v2","pSARL_v29rc6r2ab","63d13b586b230d231577a44b","fixation","img/fixation.png","null","","test","","","","","",""
"406.7000002861023","255569","pSARL_v2","pSARL_v29rc6r2ab","63d13b586b230d231577a44b","infreq","img/orange_2bandit_b2.png","68","68","test","1","112","112","5","",""
"null","255980","pSARL_v2","pSARL_v29rc6r2ab","63d13b586b230d231577a44b","infreq_resp","img/orange_2bandit_b.png","68","68","test","","","","5","",""
"null","256144","pSARL_v2","pSARL_v29rc6r2ab","63d13b586b230d231577a44b","fixation","img/fixation.png","null","","test","","","","","",""
"262","256409","pSARL_v2","pSARL_v29rc6r2ab","63d13b586b230d231577a44b","freq","img/green_2bandit_b2.png","70","70","test","1","113","113","5","",""
"null","256967","pSARL_v2","pSARL_v29rc6r2ab","63d13b586b230d231577a44b","freq_resp","img/green_2bandit_b.png","70","70","test","","","","5","",""
"null","257135","pSARL_v2","pSARL_v29rc6r2ab","63d13b586b230d231577a44b","fixation","img/fixation.png","null","","test","","","","","",""
"231","257372","pSARL_v2","pSARL_v29rc6r2ab","63d13b586b230d231577a44b","freq","img/green_2bandit_b2.png","70","70","test","1","114","114","5","",""
"null","257957","pSARL_v2","pSARL_v29rc6r2ab","63d13b586b230d231577a44b","freq_resp","img/green_2bandit_b.png","70","70","test","","","","5","",""
"null","258115","pSARL_v2","pSARL_v29rc6r2ab","63d13b586b230d231577a44b","fixation","img/fixation.png","null","","test","","","","","",""
"346.2999997138977","258465","pSARL_v2","pSARL_v29rc6r2ab","63d13b586b230d231577a44b","reward","img/slot.png","74","","test","","","","","",""
"null","259229","pSARL_v2","pSARL_v29rc6r2ab","63d13b586b230d231577a44b","points","<div class=""veryhighPoints""> +1 </div>","null","na","test","","","","5","1","4"
"560.7999997138977","259793","pSARL_v2","pSARL_v29rc6r2ab","63d13b586b230d231577a44b","freq","img/green_2bandit_b2.png","70","70","test","1","115","115","6","",""
"null","260041","pSARL_v2","pSARL_v29rc6r2ab","63d13b586b230d231577a44b","freq_resp","img/green_2bandit_b.png","70","70","test","","","","6","",""
"null","260209","pSARL_v2","pSARL_v29rc6r2ab","63d13b586b230d231577a44b","fixation","img/fixation.png","null","","test","","","","","",""
"317.5","260530","pSARL_v2","pSARL_v29rc6r2ab","63d13b586b230d231577a44b","freq","img/green_2bandit_b2.png","70","70","test","1","116","116","6","",""
"null","261022","pSARL_v2","pSARL_v29rc6r2ab","63d13b586b230d231577a44b","freq_resp","img/green_2bandit_b.png","70","70","test","","","","6","",""
"null","261181","pSARL_v2","pSARL_v29rc6r2ab","63d13b586b230d231577a44b","fixation","img/fixation.png","null","","test","","","","","",""
"400.80000019073486","261584","pSARL_v2","pSARL_v29rc6r2ab","63d13b586b230d231577a44b","freq","img/green_2bandit_b2.png","70","70","test","1","117","117","6","",""
"null","262000","pSARL_v2","pSARL_v29rc6r2ab","63d13b586b230d231577a44b","freq_resp","img/green_2bandit_b.png","70","70","test","","","","6","",""
"null","262162","pSARL_v2","pSARL_v29rc6r2ab","63d13b586b230d231577a44b","fixation","img/fixation.png","null","","test","","","","","",""
"324.2000002861023","262490","pSARL_v2","pSARL_v29rc6r2ab","63d13b586b230d231577a44b","freq","img/green_2bandit_b2.png","70","70","test","1","118","118","6","",""
"null","262976","pSARL_v2","pSARL_v29rc6r2ab","63d13b586b230d231577a44b","freq_resp","img/green_2bandit_b.png","70","70","test","","","","6","",""
"null","263143","pSARL_v2","pSARL_v29rc6r2ab","63d13b586b230d231577a44b","fixation","img/fixation.png","null","","test","","","","","",""
"415.7000002861023","263565","pSARL_v2","pSARL_v29rc6r2ab","63d13b586b230d231577a44b","infreq","img/orange_2bandit_b2.png","68","68","test","1","119","119","6","",""
"null","263964","pSARL_v2","pSARL_v29rc6r2ab","63d13b586b230d231577a44b","infreq_resp","img/orange_2bandit_b.png","68","68","test","","","","6","",""
"null","264134","pSARL_v2","pSARL_v29rc6r2ab","63d13b586b230d231577a44b","fixation","img/fixation.png","null","","test","","","","","",""
"266.30000019073486","264404","pSARL_v2","pSARL_v29rc6r2ab","63d13b586b230d231577a44b","freq","img/green_2bandit_b2.png","70","70","test","1","120","120","6","",""
"null","264958","pSARL_v2","pSARL_v29rc6r2ab","63d13b586b230d231577a44b","freq_resp","img/green_2bandit_b.png","70","70","test","","","","6","",""
"null","265111","pSARL_v2","pSARL_v29rc6r2ab","63d13b586b230d231577a44b","fixation","img/fixation.png","null","","test","","","","","",""
"118.89999961853027","265233","pSARL_v2","pSARL_v29rc6r2ab","63d13b586b230d231577a44b","freq","img/green_2bandit_b2.png","70","70","test","1","121","121","6","",""
"null","265927","pSARL_v2","pSARL_v29rc6r2ab","63d13b586b230d231577a44b","freq_resp","img/green_2bandit_b.png","70","70","test","","","","6","",""
"null","266085","pSARL_v2","pSARL_v29rc6r2ab","63d13b586b230d231577a44b","fixation","img/fixation.png","null","","test","","","","","",""
"138.09999990463257","266229","pSARL_v2","pSARL_v29rc6r2ab","63d13b586b230d231577a44b","freq","img/green_2bandit_b2.png","70","70","test","1","122","122","6","",""
"null","266902","pSARL_v2","pSARL_v29rc6r2ab","63d13b586b230d231577a44b","freq_resp","img/green_2bandit_b.png","70","70","test","","","","6","",""
"null","267061","pSARL_v2","pSARL_v29rc6r2ab","63d13b586b230d231577a44b","fixation","img/fixation.png","null","","test","","","","","",""
"104.5","267173","pSARL_v2","pSARL_v29rc6r2ab","63d13b586b230d231577a44b","freq","img/green_2bandit_b2.png","70","70","test","1","123","123","6","",""
"null","267877","pSARL_v2","pSARL_v29rc6r2ab","63d13b586b230d231577a44b","freq_resp","img/green_2bandit_b.png","70","70","test","","","","6","",""
"null","268043","pSARL_v2","pSARL_v29rc6r2ab","63d13b586b230d231577a44b","fixation","img/fixation.png","null","","test","","","","","",""
"138.69999980926514","268185","pSARL_v2","pSARL_v29rc6r2ab","63d13b586b230d231577a44b","freq","img/green_2bandit_b2.png","70","70","test","1","124","124","6","",""
"null","268868","pSARL_v2","pSARL_v29rc6r2ab","63d13b586b230d231577a44b","freq_resp","img/green_2bandit_b.png","70","70","test","","","","6","",""
"null","269031","pSARL_v2","pSARL_v29rc6r2ab","63d13b586b230d231577a44b","fixation","img/fixation.png","null","","test","","","","","",""
"118.90000009536743","269153","pSARL_v2","pSARL_v29rc6r2ab","63d13b586b230d231577a44b","freq","img/green_2bandit_b2.png","70","70","test","1","125","125","6","",""
"null","269839","pSARL_v2","pSARL_v29rc6r2ab","63d13b586b230d231577a44b","freq_resp","img/green_2bandit_b.png","70","70","test","","","","6","",""
"null","269996","pSARL_v2","pSARL_v29rc6r2ab","63d13b586b230d231577a44b","fixation","img/fixation.png","null","","test","","","","","",""
"154.59999990463257","270153","pSARL_v2","pSARL_v29rc6r2ab","63d13b586b230d231577a44b","freq","img/green_2bandit_b2.png","70","70","test","1","126","126","6","",""
"null","270815","pSARL_v2","pSARL_v29rc6r2ab","63d13b586b230d231577a44b","freq_resp","img/green_2bandit_b.png","70","70","test","","","","6","",""
"null","270979","pSARL_v2","pSARL_v29rc6r2ab","63d13b586b230d231577a44b","fixation","img/fixation.png","null","","test","","","","","",""
"114.69999980926514","271097","pSARL_v2","pSARL_v29rc6r2ab","63d13b586b230d231577a44b","freq","img/green_2bandit_b2.png","70","70","test","1","127","127","6","",""
"null","271803","pSARL_v2","pSARL_v29rc6r2ab","63d13b586b230d231577a44b","freq_resp","img/green_2bandit_b.png","70","70","test","","","","6","",""
"null","271961","pSARL_v2","pSARL_v29rc6r2ab","63d13b586b230d231577a44b","fixation","img/fixation.png","null","","test","","","","","",""
"102.5","272066","pSARL_v2","pSARL_v29rc6r2ab","63d13b586b230d231577a44b","freq","img/green_2bandit_b2.png","70","70","test","1","128","128","6","",""
"null","272777","pSARL_v2","pSARL_v29rc6r2ab","63d13b586b230d231577a44b","freq_resp","img/green_2bandit_b.png","70","70","test","","","","6","",""
"null","272946","pSARL_v2","pSARL_v29rc6r2ab","63d13b586b230d231577a44b","fixation","img/fixation.png","null","","test","","","","","",""
"123.39999961853027","273073","pSARL_v2","pSARL_v29rc6r2ab","63d13b586b230d231577a44b","freq","img/green_2bandit_b2.png","70","70","test","1","129","129","6","",""
"null","273764","pSARL_v2","pSARL_v29rc6r2ab","63d13b586b230d231577a44b","freq_resp","img/green_2bandit_b.png","70","70","test","","","","6","",""
"null","273934","pSARL_v2","pSARL_v29rc6r2ab","63d13b586b230d231577a44b","fixation","img/fixation.png","null","","test","","","","","",""
"136.60000038146973","274073","pSARL_v2","pSARL_v29rc6r2ab","63d13b586b230d231577a44b","freq","img/green_2bandit_b2.png","70","70","test","1","130","130","6","",""
"null","274743","pSARL_v2","pSARL_v29rc6r2ab","63d13b586b230d231577a44b","freq_resp","img/green_2bandit_b.png","70","70","test","","","","6","",""
"null","274908","pSARL_v2","pSARL_v29rc6r2ab","63d13b586b230d231577a44b","fixation","img/fixation.png","null","","test","","","","","",""
"121.19999980926514","275033","pSARL_v2","pSARL_v29rc6r2ab","63d13b586b230d231577a44b","infreq","img/orange_2bandit_b2.png","70","68","test","0","131","131","6","",""
"null","275727","pSARL_v2","pSARL_v29rc6r2ab","63d13b586b230d231577a44b","infreq_resp","img/orange_2bandit_b.png","70","68","test","","","","6","",""
"null","275881","pSARL_v2","pSARL_v29rc6r2ab","63d13b586b230d231577a44b","fixation","img/fixation.png","null","","test","","","","","",""
"340.69999980926514","276225","pSARL_v2","pSARL_v29rc6r2ab","63d13b586b230d231577a44b","freq","img/green_2bandit_b2.png","70","70","test","1","132","132","6","",""
"null","276700","pSARL_v2","pSARL_v29rc6r2ab","63d13b586b230d231577a44b","freq_resp","img/green_2bandit_b.png","70","70","test","","","","6","",""
"null","276862","pSARL_v2","pSARL_v29rc6r2ab","63d13b586b230d231577a44b","fixation","img/fixation.png","null","","test","","","","","",""
"176.2000002861023","277045","pSARL_v2","pSARL_v29rc6r2ab","63d13b586b230d231577a44b","freq","img/green_2bandit_b2.png","70","70","test","1","133","133","6","",""
"null","277676","pSARL_v2","pSARL_v29rc6r2ab","63d13b586b230d231577a44b","freq_resp","img/green_2bandit_b.png","70","70","test","","","","6","",""
"null","277844","pSARL_v2","pSARL_v29rc6r2ab","63d13b586b230d231577a44b","fixation","img/fixation.png","null","","test","","","","","",""
"235.2000002861023","278084","pSARL_v2","pSARL_v29rc6r2ab","63d13b586b230d231577a44b","freq","img/green_2bandit_b2.png","70","70","test","1","134","134","6","",""
"null","278668","pSARL_v2","pSARL_v29rc6r2ab","63d13b586b230d231577a44b","freq_resp","img/green_2bandit_b.png","70","70","test","","","","6","",""
"null","278831","pSARL_v2","pSARL_v29rc6r2ab","63d13b586b230d231577a44b","fixation","img/fixation.png","null","","test","","","","","",""
"144.30000019073486","278981","pSARL_v2","pSARL_v29rc6r2ab","63d13b586b230d231577a44b","freq","img/green_2bandit_b2.png","70","70","test","1","135","135","6","",""
"null","279643","pSARL_v2","pSARL_v29rc6r2ab","63d13b586b230d231577a44b","freq_resp","img/green_2bandit_b.png","70","70","test","","","","6","",""
"null","279809","pSARL_v2","pSARL_v29rc6r2ab","63d13b586b230d231577a44b","fixation","img/fixation.png","null","","test","","","","","",""
"198.5","280010","pSARL_v2","pSARL_v29rc6r2ab","63d13b586b230d231577a44b","freq","img/green_2bandit_b2.png","70","70","test","1","136","136","6","",""
"null","280628","pSARL_v2","pSARL_v29rc6r2ab","63d13b586b230d231577a44b","freq_resp","img/green_2bandit_b.png","70","70","test","","","","6","",""
"null","280795","pSARL_v2","pSARL_v29rc6r2ab","63d13b586b230d231577a44b","fixation","img/fixation.png","null","","test","","","","","",""
"789.5999999046326","281588","pSARL_v2","pSARL_v29rc6r2ab","63d13b586b230d231577a44b","reward","img/slot.png","74","","test","","","","","",""
"null","282347","pSARL_v2","pSARL_v29rc6r2ab","63d13b586b230d231577a44b","points","<div class=""verylowPoints""> -7 </div>","null","na","test","","","","6","-7","5"
"428.6000003814697","282778","pSARL_v2","pSARL_v29rc6r2ab","63d13b586b230d231577a44b","freq","img/green_2bandit_b2.png","70","70","test","1","137","137","7","",""
"null","283157","pSARL_v2","pSARL_v29rc6r2ab","63d13b586b230d231577a44b","freq_resp","img/green_2bandit_b.png","70","70","test","","","","7","",""
"null","283310","pSARL_v2","pSARL_v29rc6r2ab","63d13b586b230d231577a44b","fixation","img/fixation.png","null","","test","","","","","",""
"399.7999997138977","283713","pSARL_v2","pSARL_v29rc6r2ab","63d13b586b230d231577a44b","freq","img/green_2bandit_b2.png","70","70","test","1","138","138","7","",""
"null","284127","pSARL_v2","pSARL_v29rc6r2ab","63d13b586b230d231577a44b","freq_resp","img/green_2bandit_b.png","70","70","test","","","","7","",""
"null","284296","pSARL_v2","pSARL_v29rc6r2ab","63d13b586b230d231577a44b","fixation","img/fixation.png","null","","test","","","","","",""
"289.30000019073486","284588","pSARL_v2","pSARL_v29rc6r2ab","63d13b586b230d231577a44b","freq","img/green_2bandit_b2.png","70","70","test","1","139","139","7","",""
"null","285115","pSARL_v2","pSARL_v29rc6r2ab","63d13b586b230d231577a44b","freq_resp","img/green_2bandit_b.png","70","70","test","","","","7","",""
"null","285287","pSARL_v2","pSARL_v29rc6r2ab","63d13b586b230d231577a44b","fixation","img/fixation.png","null","","test","","","","","",""
"167.59999990463257","285460","pSARL_v2","pSARL_v29rc6r2ab","63d13b586b230d231577a44b","freq","img/green_2bandit_b2.png","70","70","test","1","140","140","7","",""
"null","286108","pSARL_v2","pSARL_v29rc6r2ab","63d13b586b230d231577a44b","freq_resp","img/green_2bandit_b.png","70","70","test","","","","7","",""
"null","286279","pSARL_v2","pSARL_v29rc6r2ab","63d13b586b230d231577a44b","fixation","img/fixation.png","null","","test","","","","","",""
"287.59999990463257","286573","pSARL_v2","pSARL_v29rc6r2ab","63d13b586b230d231577a44b","freq","img/green_2bandit_b2.png","70","70","test","1","141","141","7","",""
"null","287095","pSARL_v2","pSARL_v29rc6r2ab","63d13b586b230d231577a44b","freq_resp","img/green_2bandit_b.png","70","70","test","","","","7","",""
"null","287265","pSARL_v2","pSARL_v29rc6r2ab","63d13b586b230d231577a44b","fixation","img/fixation.png","null","","test","","","","","",""
"286.90000009536743","287555","pSARL_v2","pSARL_v29rc6r2ab","63d13b586b230d231577a44b","freq","img/green_2bandit_b2.png","70","70","test","1","142","142","7","",""
"null","288087","pSARL_v2","pSARL_v29rc6r2ab","63d13b586b230d231577a44b","freq_resp","img/green_2bandit_b.png","70","70","test","","","","7","",""
"null","288250","pSARL_v2","pSARL_v29rc6r2ab","63d13b586b230d231577a44b","fixation","img/fixation.png","null","","test","","","","","",""
"307.80000019073486","288560","pSARL_v2","pSARL_v29rc6r2ab","63d13b586b230d231577a44b","freq","img/green_2bandit_b2.png","70","70","test","1","143","143","7","",""
"null","289059","pSARL_v2","pSARL_v29rc6r2ab","63d13b586b230d231577a44b","freq_resp","img/green_2bandit_b.png","70","70","test","","","","7","",""
"null","289226","pSARL_v2","pSARL_v29rc6r2ab","63d13b586b230d231577a44b","fixation","img/fixation.png","null","","test","","","","","",""
"323.59999990463257","289553","pSARL_v2","pSARL_v29rc6r2ab","63d13b586b230d231577a44b","infreq","img/orange_2bandit_b2.png","70","68","test","0","144","144","7","",""
"null","290048","pSARL_v2","pSARL_v29rc6r2ab","63d13b586b230d231577a44b","infreq_resp","img/orange_2bandit_b.png","70","68","test","","","","7","",""
"null","290217","pSARL_v2","pSARL_v29rc6r2ab","63d13b586b230d231577a44b","fixation","img/fixation.png","null","","test","","","","","",""
"625.3999996185303","290848","pSARL_v2","pSARL_v29rc6r2ab","63d13b586b230d231577a44b","infreq","img/orange_2bandit_b2.png","68","68","test","1","145","145","7","",""
"null","291026","pSARL_v2","pSARL_v29rc6r2ab","63d13b586b230d231577a44b","infreq_resp","img/orange_2bandit_b.png","68","68","test","","","","7","",""
"null","291194","pSARL_v2","pSARL_v29rc6r2ab","63d13b586b230d231577a44b","fixation","img/fixation.png","null","","test","","","","","",""
"436.30000019073486","291633","pSARL_v2","pSARL_v29rc6r2ab","63d13b586b230d231577a44b","freq","img/green_2bandit_b2.png","70","70","test","1","146","146","7","",""
"null","292013","pSARL_v2","pSARL_v29rc6r2ab","63d13b586b230d231577a44b","freq_resp","img/green_2bandit_b.png","70","70","test","","","","7","",""
"null","292172","pSARL_v2","pSARL_v29rc6r2ab","63d13b586b230d231577a44b","fixation","img/fixation.png","null","","test","","","","","",""
"314.19999980926514","292493","pSARL_v2","pSARL_v29rc6r2ab","63d13b586b230d231577a44b","freq","img/green_2bandit_b2.png","70","70","test","1","147","147","7","",""
"null","292987","pSARL_v2","pSARL_v29rc6r2ab","63d13b586b230d231577a44b","freq_resp","img/green_2bandit_b.png","70","70","test","","","","7","",""
"null","293152","pSARL_v2","pSARL_v29rc6r2ab","63d13b586b230d231577a44b","fixation","img/fixation.png","null","","test","","","","","",""
"287","293445","pSARL_v2","pSARL_v29rc6r2ab","63d13b586b230d231577a44b","freq","img/green_2bandit_b2.png","70","70","test","1","148","148","7","",""
"null","293974","pSARL_v2","pSARL_v29rc6r2ab","63d13b586b230d231577a44b","freq_resp","img/green_2bandit_b.png","70","70","test","","","","7","",""
"null","294145","pSARL_v2","pSARL_v29rc6r2ab","63d13b586b230d231577a44b","fixation","img/fixation.png","null","","test","","","","","",""
"316.69999980926514","294465","pSARL_v2","pSARL_v29rc6r2ab","63d13b586b230d231577a44b","freq","img/green_2bandit_b2.png","70","70","test","1","149","149","7","",""
"null","294966","pSARL_v2","pSARL_v29rc6r2ab","63d13b586b230d231577a44b","freq_resp","img/green_2bandit_b.png","70","70","test","","","","7","",""
"null","295130","pSARL_v2","pSARL_v29rc6r2ab","63d13b586b230d231577a44b","fixation","img/fixation.png","null","","test","","","","","",""
"323.09999990463257","295456","pSARL_v2","pSARL_v29rc6r2ab","63d13b586b230d231577a44b","freq","img/green_2bandit_b2.png","70","70","test","1","150","150","7","",""
"null","295950","pSARL_v2","pSARL_v29rc6r2ab","63d13b586b230d231577a44b","freq_resp","img/green_2bandit_b.png","70","70","test","","","","7","",""
"null","296111","pSARL_v2","pSARL_v29rc6r2ab","63d13b586b230d231577a44b","fixation","img/fixation.png","null","","test","","","","","",""
"294.90000009536743","296409","pSARL_v2","pSARL_v29rc6r2ab","63d13b586b230d231577a44b","freq","img/green_2bandit_b2.png","70","70","test","1","151","151","7","",""
"null","296929","pSARL_v2","pSARL_v29rc6r2ab","63d13b586b230d231577a44b","freq_resp","img/green_2bandit_b.png","70","70","test","","","","7","",""
"null","297094","pSARL_v2","pSARL_v29rc6r2ab","63d13b586b230d231577a44b","fixation","img/fixation.png","null","","test","","","","","",""
"183.5","297280","pSARL_v2","pSARL_v29rc6r2ab","63d13b586b230d231577a44b","freq","img/green_2bandit_b2.png","70","70","test","1","152","152","7","",""
"null","297918","pSARL_v2","pSARL_v29rc6r2ab","63d13b586b230d231577a44b","freq_resp","img/green_2bandit_b.png","70","70","test","","","","7","",""
"null","298083","pSARL_v2","pSARL_v29rc6r2ab","63d13b586b230d231577a44b","fixation","img/fixation.png","null","","test","","","","","",""
"203.5","298292","pSARL_v2","pSARL_v29rc6r2ab","63d13b586b230d231577a44b","freq","img/green_2bandit_b2.png","70","70","test","1","153","153","7","",""
"null","298919","pSARL_v2","pSARL_v29rc6r2ab","63d13b586b230d231577a44b","freq_resp","img/green_2bandit_b.png","70","70","test","","","","7","",""
"null","299077","pSARL_v2","pSARL_v29rc6r2ab","63d13b586b230d231577a44b","fixation","img/fixation.png","null","","test","","","","","",""
"417.69999980926514","299499","pSARL_v2","pSARL_v29rc6r2ab","63d13b586b230d231577a44b","freq","img/green_2bandit_b2.png","70","70","test","1","154","154","7","",""
"null","299896","pSARL_v2","pSARL_v29rc6r2ab","63d13b586b230d231577a44b","freq_resp","img/green_2bandit_b.png","70","70","test","","","","7","",""
"null","300062","pSARL_v2","pSARL_v29rc6r2ab","63d13b586b230d231577a44b","fixation","img/fixation.png","null","","test","","","","","",""
"255.69999980926514","300321","pSARL_v2","pSARL_v29rc6r2ab","63d13b586b230d231577a44b","freq","img/green_2bandit_b2.png","70","70","test","1","155","155","7","",""
"null","300881","pSARL_v2","pSARL_v29rc6r2ab","63d13b586b230d231577a44b","freq_resp","img/green_2bandit_b.png","70","70","test","","","","7","",""
"null","301047","pSARL_v2","pSARL_v29rc6r2ab","63d13b586b230d231577a44b","fixation","img/fixation.png","null","","test","","","","","",""
"446.09999990463257","301496","pSARL_v2","pSARL_v29rc6r2ab","63d13b586b230d231577a44b","freq","img/green_2bandit_b2.png","70","70","test","1","156","156","7","",""
"null","301860","pSARL_v2","pSARL_v29rc6r2ab","63d13b586b230d231577a44b","freq_resp","img/green_2bandit_b.png","70","70","test","","","","7","",""
"null","302029","pSARL_v2","pSARL_v29rc6r2ab","63d13b586b230d231577a44b","fixation","img/fixation.png","null","","test","","","","","",""
"363.3999996185303","302400","pSARL_v2","pSARL_v29rc6r2ab","63d13b586b230d231577a44b","freq","img/green_2bandit_b2.png","70","70","test","1","157","157","7","",""
"null","302845","pSARL_v2","pSARL_v29rc6r2ab","63d13b586b230d231577a44b","freq_resp","img/green_2bandit_b.png","70","70","test","","","","7","",""
"null","303012","pSARL_v2","pSARL_v29rc6r2ab","63d13b586b230d231577a44b","fixation","img/fixation.png","null","","test","","","","","",""
"314.59999990463257","303333","pSARL_v2","pSARL_v29rc6r2ab","63d13b586b230d231577a44b","freq","img/green_2bandit_b2.png","70","70","test","1","158","158","7","",""
"null","303836","pSARL_v2","pSARL_v29rc6r2ab","63d13b586b230d231577a44b","freq_resp","img/green_2bandit_b.png","70","70","test","","","","7","",""
"null","303999","pSARL_v2","pSARL_v29rc6r2ab","63d13b586b230d231577a44b","fixation","img/fixation.png","null","","test","","","","","",""
"319.19999980926514","304325","pSARL_v2","pSARL_v29rc6r2ab","63d13b586b230d231577a44b","freq","img/green_2bandit_b2.png","70","70","test","1","159","159","7","",""
"null","304808","pSARL_v2","pSARL_v29rc6r2ab","63d13b586b230d231577a44b","freq_resp","img/green_2bandit_b.png","70","70","test","","","","7","",""
"null","304978","pSARL_v2","pSARL_v29rc6r2ab","63d13b586b230d231577a44b","fixation","img/fixation.png","null","","test","","","","","",""
"386.8999996185303","305369","pSARL_v2","pSARL_v29rc6r2ab","63d13b586b230d231577a44b","freq","img/green_2bandit_b2.png","70","70","test","1","160","160","7","",""
"null","305801","pSARL_v2","pSARL_v29rc6r2ab","63d13b586b230d231577a44b","freq_resp","img/green_2bandit_b.png","70","70","test","","","","7","",""
"null","305965","pSARL_v2","pSARL_v29rc6r2ab","63d13b586b230d231577a44b","fixation","img/fixation.png","null","","test","","","","","",""
"368.2999997138977","306336","pSARL_v2","pSARL_v29rc6r2ab","63d13b586b230d231577a44b","reward","img/slot.png","74","","test","","","","","",""
"null","307095","pSARL_v2","pSARL_v29rc6r2ab","63d13b586b230d231577a44b","points","<div class=""verylowPoints""> -6 </div>","null","na","test","","","","7","-6","6"
"null","307916","pSARL_v2","pSARL_v29rc6r2ab","63d13b586b230d231577a44b","freq","img/green_2bandit_b2.png","null","70","test","0","161","161","8","",""
"null","308083","pSARL_v2","pSARL_v29rc6r2ab","63d13b586b230d231577a44b","fixation","img/fixation.png","null","","test","","","","","",""
"619.9000000953674","308709","pSARL_v2","pSARL_v29rc6r2ab","63d13b586b230d231577a44b","freq","img/green_2bandit_b2.png","70","70","test","1","162","162","8","",""
"null","308900","pSARL_v2","pSARL_v29rc6r2ab","63d13b586b230d231577a44b","freq_resp","img/green_2bandit_b.png","70","70","test","","","","8","",""
"null","309061","pSARL_v2","pSARL_v29rc6r2ab","63d13b586b230d231577a44b","fixation","img/fixation.png","null","","test","","","","","",""
"373.5","309438","pSARL_v2","pSARL_v29rc6r2ab","63d13b586b230d231577a44b","freq","img/green_2bandit_b2.png","70","70","test","1","163","163","8","",""
"null","309878","pSARL_v2","pSARL_v29rc6r2ab","63d13b586b230d231577a44b","freq_resp","img/green_2bandit_b.png","70","70","test","","","","8","",""
"null","310051","pSARL_v2","pSARL_v29rc6r2ab","63d13b586b230d231577a44b","fixation","img/fixation.png","null","","test","","","","","",""
"341.40000009536743","310396","pSARL_v2","pSARL_v29rc6r2ab","63d13b586b230d231577a44b","freq","img/green_2bandit_b2.png","70","70","test","1","164","164","8","",""
"null","310864","pSARL_v2","pSARL_v29rc6r2ab","63d13b586b230d231577a44b","freq_resp","img/green_2bandit_b.png","70","70","test","","","","8","",""
"null","311030","pSARL_v2","pSARL_v29rc6r2ab","63d13b586b230d231577a44b","fixation","img/fixation.png","null","","test","","","","","",""
"319","311352","pSARL_v2","pSARL_v29rc6r2ab","63d13b586b230d231577a44b","freq","img/green_2bandit_b2.png","70","70","test","1","165","165","8","",""
"null","311840","pSARL_v2","pSARL_v29rc6r2ab","63d13b586b230d231577a44b","freq_resp","img/green_2bandit_b.png","70","70","test","","","","8","",""
"null","311994","pSARL_v2","pSARL_v29rc6r2ab","63d13b586b230d231577a44b","fixation","img/fixation.png","null","","test","","","","","",""
"196","312192","pSARL_v2","pSARL_v29rc6r2ab","63d13b586b230d231577a44b","infreq","img/orange_2bandit_b2.png","70","68","test","0","166","166","8","",""
"null","312808","pSARL_v2","pSARL_v29rc6r2ab","63d13b586b230d231577a44b","infreq_resp","img/orange_2bandit_b.png","70","68","test","","","","8","",""
"null","312966","pSARL_v2","pSARL_v29rc6r2ab","63d13b586b230d231577a44b","fixation","img/fixation.png","null","","test","","","","","",""
"226.60000038146973","313196","pSARL_v2","pSARL_v29rc6r2ab","63d13b586b230d231577a44b","freq","img/green_2bandit_b2.png","70","70","test","1","167","167","8","",""
"null","313776","pSARL_v2","pSARL_v29rc6r2ab","63d13b586b230d231577a44b","freq_resp","img/green_2bandit_b.png","70","70","test","","","","8","",""
"null","313944","pSARL_v2","pSARL_v29rc6r2ab","63d13b586b230d231577a44b","fixation","img/fixation.png","null","","test","","","","","",""
"158.90000009536743","314108","pSARL_v2","pSARL_v29rc6r2ab","63d13b586b230d231577a44b","freq","img/green_2bandit_b2.png","70","70","test","1","168","168","8","",""
"null","314766","pSARL_v2","pSARL_v29rc6r2ab","63d13b586b230d231577a44b","freq_resp","img/green_2bandit_b.png","70","70","test","","","","8","",""
"null","314927","pSARL_v2","pSARL_v29rc6r2ab","63d13b586b230d231577a44b","fixation","img/fixation.png","null","","test","","","","","",""
"238.80000019073486","315173","pSARL_v2","pSARL_v29rc6r2ab","63d13b586b230d231577a44b","freq","img/green_2bandit_b2.png","70","70","test","1","169","169","8","",""
"null","315752","pSARL_v2","pSARL_v29rc6r2ab","63d13b586b230d231577a44b","freq_resp","img/green_2bandit_b.png","70","70","test","","","","8","",""
"null","315919","pSARL_v2","pSARL_v29rc6r2ab","63d13b586b230d231577a44b","fixation","img/fixation.png","null","","test","","","","","",""
"150.2999997138977","316076","pSARL_v2","pSARL_v29rc6r2ab","63d13b586b230d231577a44b","freq","img/green_2bandit_b2.png","70","70","test","1","170","170","8","",""
"null","316743","pSARL_v2","pSARL_v29rc6r2ab","63d13b586b230d231577a44b","freq_resp","img/green_2bandit_b.png","70","70","test","","","","8","",""
"null","316903","pSARL_v2","pSARL_v29rc6r2ab","63d13b586b230d231577a44b","fixation","img/fixation.png","null","","test","","","","","",""
"312.90000009536743","317219","pSARL_v2","pSARL_v29rc6r2ab","63d13b586b230d231577a44b","freq","img/green_2bandit_b2.png","70","70","test","1","171","171","8","",""
"null","317712","pSARL_v2","pSARL_v29rc6r2ab","63d13b586b230d231577a44b","freq_resp","img/green_2bandit_b.png","70","70","test","","","","8","",""
"null","317884","pSARL_v2","pSARL_v29rc6r2ab","63d13b586b230d231577a44b","fixation","img/fixation.png","null","","test","","","","","",""
"299.80000019073486","318188","pSARL_v2","pSARL_v29rc6r2ab","63d13b586b230d231577a44b","infreq","img/orange_2bandit_b2.png","70","68","test","0","172","172","8","",""
"null","318699","pSARL_v2","pSARL_v29rc6r2ab","63d13b586b230d231577a44b","infreq_resp","img/orange_2bandit_b.png","70","68","test","","","","8","",""
"null","318862","pSARL_v2","pSARL_v29rc6r2ab","63d13b586b230d231577a44b","fixation","img/fixation.png","null","","test","","","","","",""
"327.09999990463257","319192","pSARL_v2","pSARL_v29rc6r2ab","63d13b586b230d231577a44b","freq","img/green_2bandit_b2.png","70","70","test","1","173","173","8","",""
"null","319672","pSARL_v2","pSARL_v29rc6r2ab","63d13b586b230d231577a44b","freq_resp","img/green_2bandit_b.png","70","70","test","","","","8","",""
"null","319827","pSARL_v2","pSARL_v29rc6r2ab","63d13b586b230d231577a44b","fixation","img/fixation.png","null","","test","","","","","",""
"250.39999961853027","320081","pSARL_v2","pSARL_v29rc6r2ab","63d13b586b230d231577a44b","freq","img/green_2bandit_b2.png","70","70","test","1","174","174","8","",""
"null","320649","pSARL_v2","pSARL_v29rc6r2ab","63d13b586b230d231577a44b","freq_resp","img/green_2bandit_b.png","70","70","test","","","","8","",""
"null","320815","pSARL_v2","pSARL_v29rc6r2ab","63d13b586b230d231577a44b","fixation","img/fixation.png","null","","test","","","","","",""
"205.7999997138977","321024","pSARL_v2","pSARL_v29rc6r2ab","63d13b586b230d231577a44b","freq","img/green_2bandit_b2.png","70","70","test","1","175","175","8","",""
"null","321625","pSARL_v2","pSARL_v29rc6r2ab","63d13b586b230d231577a44b","freq_resp","img/green_2bandit_b.png","70","70","test","","","","8","",""
"null","321792","pSARL_v2","pSARL_v29rc6r2ab","63d13b586b230d231577a44b","fixation","img/fixation.png","null","","test","","","","","",""
"134.60000038146973","321934","pSARL_v2","pSARL_v29rc6r2ab","63d13b586b230d231577a44b","freq","img/green_2bandit_b2.png","70","70","test","1","176","176","8","",""
"null","322612","pSARL_v2","pSARL_v29rc6r2ab","63d13b586b230d231577a44b","freq_resp","img/green_2bandit_b.png","70","70","test","","","","8","",""
"null","322779","pSARL_v2","pSARL_v29rc6r2ab","63d13b586b230d231577a44b","fixation","img/fixation.png","null","","test","","","","","",""
"307.1000003814697","323092","pSARL_v2","pSARL_v29rc6r2ab","63d13b586b230d231577a44b","freq","img/green_2bandit_b2.png","70","70","test","1","177","177","8","",""
"null","323603","pSARL_v2","pSARL_v29rc6r2ab","63d13b586b230d231577a44b","freq_resp","img/green_2bandit_b.png","70","70","test","","","","8","",""
"null","323762","pSARL_v2","pSARL_v29rc6r2ab","63d13b586b230d231577a44b","fixation","img/fixation.png","null","","test","","","","","",""
"396.7999997138977","324166","pSARL_v2","pSARL_v29rc6r2ab","63d13b586b230d231577a44b","freq","img/green_2bandit_b2.png","70","70","test","1","178","178","8","",""
"null","324580","pSARL_v2","pSARL_v29rc6r2ab","63d13b586b230d231577a44b","freq_resp","img/green_2bandit_b.png","70","70","test","","","","8","",""
"null","324745","pSARL_v2","pSARL_v29rc6r2ab","63d13b586b230d231577a44b","fixation","img/fixation.png","null","","test","","","","","",""
"357.1000003814697","325109","pSARL_v2","pSARL_v29rc6r2ab","63d13b586b230d231577a44b","freq","img/green_2bandit_b2.png","70","70","test","1","179","179","8","",""
"null","325564","pSARL_v2","pSARL_v29rc6r2ab","63d13b586b230d231577a44b","freq_resp","img/green_2bandit_b.png","70","70","test","","","","8","",""
"null","325731","pSARL_v2","pSARL_v29rc6r2ab","63d13b586b230d231577a44b","fixation","img/fixation.png","null","","test","","","","","",""
"387.09999990463257","326125","pSARL_v2","pSARL_v29rc6r2ab","63d13b586b230d231577a44b","freq","img/green_2bandit_b2.png","70","70","test","1","180","180","8","",""
"null","326555","pSARL_v2","pSARL_v29rc6r2ab","63d13b586b230d231577a44b","freq_resp","img/green_2bandit_b.png","70","70","test","","","","8","",""
"null","326710","pSARL_v2","pSARL_v29rc6r2ab","63d13b586b230d231577a44b","fixation","img/fixation.png","null","","test","","","","","",""
"312.90000009536743","327029","pSARL_v2","pSARL_v29rc6r2ab","63d13b586b230d231577a44b","freq","img/green_2bandit_b2.png","70","70","test","1","181","181","8","",""
"null","327531","pSARL_v2","pSARL_v29rc6r2ab","63d13b586b230d231577a44b","freq_resp","img/green_2bandit_b.png","70","70","test","","","","8","",""
"null","327695","pSARL_v2","pSARL_v29rc6r2ab","63d13b586b230d231577a44b","fixation","img/fixation.png","null","","test","","","","","",""
"294.90000009536743","327993","pSARL_v2","pSARL_v29rc6r2ab","63d13b586b230d231577a44b","freq","img/green_2bandit_b2.png","70","70","test","1","182","182","8","",""
"null","328518","pSARL_v2","pSARL_v29rc6r2ab","63d13b586b230d231577a44b","freq_resp","img/green_2bandit_b.png","70","70","test","","","","8","",""
"null","328683","pSARL_v2","pSARL_v29rc6r2ab","63d13b586b230d231577a44b","fixation","img/fixation.png","null","","test","","","","","",""
"434.7000002861023","329120","pSARL_v2","pSARL_v29rc6r2ab","63d13b586b230d231577a44b","freq","img/green_2bandit_b2.png","70","70","test","1","183","183","8","",""
"null","329494","pSARL_v2","pSARL_v29rc6r2ab","63d13b586b230d231577a44b","freq_resp","img/green_2bandit_b.png","70","70","test","","","","8","",""
"null","329652","pSARL_v2","pSARL_v29rc6r2ab","63d13b586b230d231577a44b","fixation","img/fixation.png","null","","test","","","","","",""
"433.19999980926514","330088","pSARL_v2","pSARL_v29rc6r2ab","63d13b586b230d231577a44b","reward","img/slot.png","74","","test","","","","","",""
"null","330848","pSARL_v2","pSARL_v29rc6r2ab","63d13b586b230d231577a44b","points","<div class=""verylowPoints""> -4 </div>","null","na","test","","","","8","-4","7"
"533","331384","pSARL_v2","pSARL_v29rc6r2ab","63d13b586b230d231577a44b","freq","img/green_2bandit_b2.png","70","70","test","1","184","184","9","",""
"null","331665","pSARL_v2","pSARL_v29rc6r2ab","63d13b586b230d231577a44b","freq_resp","img/green_2bandit_b.png","70","70","test","","","","9","",""
"null","331835","pSARL_v2","pSARL_v29rc6r2ab","63d13b586b230d231577a44b","fixation","img/fixation.png","null","","test","","","","","",""
"258","332096","pSARL_v2","pSARL_v29rc6r2ab","63d13b586b230d231577a44b","freq","img/green_2bandit_b2.png","70","70","test","1","185","185","9","",""
"null","332660","pSARL_v2","pSARL_v29rc6r2ab","63d13b586b230d231577a44b","freq_resp","img/green_2bandit_b.png","70","70","test","","","","9","",""
"null","332827","pSARL_v2","pSARL_v29rc6r2ab","63d13b586b230d231577a44b","fixation","img/fixation.png","null","","test","","","","","",""
"290.80000019073486","333120","pSARL_v2","pSARL_v29rc6r2ab","63d13b586b230d231577a44b","freq","img/green_2bandit_b2.png","70","70","test","1","186","186","9","",""
"null","333645","pSARL_v2","pSARL_v29rc6r2ab","63d13b586b230d231577a44b","freq_resp","img/green_2bandit_b.png","70","70","test","","","","9","",""
"null","333812","pSARL_v2","pSARL_v29rc6r2ab","63d13b586b230d231577a44b","fixation","img/fixation.png","null","","test","","","","","",""
"145.90000009536743","333960","pSARL_v2","pSARL_v29rc6r2ab","63d13b586b230d231577a44b","freq","img/green_2bandit_b2.png","70","70","test","1","187","187","9","",""
"null","334635","pSARL_v2","pSARL_v29rc6r2ab","63d13b586b230d231577a44b","freq_resp","img/green_2bandit_b.png","70","70","test","","","","9","",""
"null","334801","pSARL_v2","pSARL_v29rc6r2ab","63d13b586b230d231577a44b","fixation","img/fixation.png","null","","test","","","","","",""
"116.40000009536743","334920","pSARL_v2","pSARL_v29rc6r2ab","63d13b586b230d231577a44b","freq","img/green_2bandit_b2.png","70","70","test","1","188","188","9","",""
"null","335612","pSARL_v2","pSARL_v29rc6r2ab","63d13b586b230d231577a44b","freq_resp","img/green_2bandit_b.png","70","70","test","","","","9","",""
"null","335781","pSARL_v2","pSARL_v29rc6r2ab","63d13b586b230d231577a44b","fixation","img/fixation.png","null","","test","","","","","",""
"81","335865","pSARL_v2","pSARL_v29rc6r2ab","63d13b586b230d231577a44b","freq","img/green_2bandit_b2.png","70","70","test","1","189","189","9","",""
"null","336597","pSARL_v2","pSARL_v29rc6r2ab","63d13b586b230d231577a44b","freq_resp","img/green_2bandit_b.png","70","70","test","","","","9","",""
"null","336765","pSARL_v2","pSARL_v29rc6r2ab","63d13b586b230d231577a44b","fixation","img/fixation.png","null","","test","","","","","",""
"143.7999997138977","336912","pSARL_v2","pSARL_v29rc6r2ab","63d13b586b230d231577a44b","freq","img/green_2bandit_b2.png","70","70","test","1","190","190","9","",""
"null","337573","pSARL_v2","pSARL_v29rc6r2ab","63d13b586b230d231577a44b","freq_resp","img/green_2bandit_b.png","70","70","test","","","","9","",""
"null","337728","pSARL_v2","pSARL_v29rc6r2ab","63d13b586b230d231577a44b","fixation","img/fixation.png","null","","test","","","","","",""
"341.69999980926514","338073","pSARL_v2","pSARL_v29rc6r2ab","63d13b586b230d231577a44b","infreq","img/orange_2bandit_b2.png","68","68","test","1","191","191","9","",""
"null","338545","pSARL_v2","pSARL_v29rc6r2ab","63d13b586b230d231577a44b","infreq_resp","img/orange_2bandit_b.png","68","68","test","","","","9","",""
"null","338711","pSARL_v2","pSARL_v29rc6r2ab","63d13b586b230d231577a44b","fixation","img/fixation.png","null","","test","","","","","",""
"303.1000003814697","339017","pSARL_v2","pSARL_v29rc6r2ab","63d13b586b230d231577a44b","freq","img/green_2bandit_b2.png","70","70","test","1","192","192","9","",""
"null","339536","pSARL_v2","pSARL_v29rc6r2ab","63d13b586b230d231577a44b","freq_resp","img/green_2bandit_b.png","70","70","test","","","","9","",""
"null","339700","pSARL_v2","pSARL_v29rc6r2ab","63d13b586b230d231577a44b","fixation","img/fixation.png","null","","test","","","","","",""
"265.80000019073486","339973","pSARL_v2","pSARL_v29rc6r2ab","63d13b586b230d231577a44b","freq","img/green_2bandit_b2.png","70","70","test","1","193","193","9","",""
"null","340527","pSARL_v2","pSARL_v29rc6r2ab","63d13b586b230d231577a44b","freq_resp","img/green_2bandit_b.png","70","70","test","","","","9","",""
"null","340692","pSARL_v2","pSARL_v29rc6r2ab","63d13b586b230d231577a44b","fixation","img/fixation.png","null","","test","","","","","",""
"210.90000009536743","340908","pSARL_v2","pSARL_v29rc6r2ab","63d13b586b230d231577a44b","infreq","img/orange_2bandit_b2.png","70","68","test","0","194","194","9","",""
"null","341515","pSARL_v2","pSARL_v29rc6r2ab","63d13b586b230d231577a44b","infreq_resp","img/orange_2bandit_b.png","70","68","test","","","","9","",""
"null","341680","pSARL_v2","pSARL_v29rc6r2ab","63d13b586b230d231577a44b","fixation","img/fixation.png","null","","test","","","","","",""
"317.2000002861023","342000","pSARL_v2","pSARL_v29rc6r2ab","63d13b586b230d231577a44b","infreq","img/orange_2bandit_b2.png","70","68","test","0","195","195","9","",""
"null","342503","pSARL_v2","pSARL_v29rc6r2ab","63d13b586b230d231577a44b","infreq_resp","img/orange_2bandit_b.png","70","68","test","","","","9","",""
"null","342661","pSARL_v2","pSARL_v29rc6r2ab","63d13b586b230d231577a44b","fixation","img/fixation.png","null","","test","","","","","",""
"641.5","343309","pSARL_v2","pSARL_v29rc6r2ab","63d13b586b230d231577a44b","freq","img/green_2bandit_b2.png","70","70","test","1","196","196","9","",""
"null","343480","pSARL_v2","pSARL_v29rc6r2ab","63d13b586b230d231577a44b","freq_resp","img/green_2bandit_b.png","70","70","test","","","","9","",""
"null","343644","pSARL_v2","pSARL_v29rc6r2ab","63d13b586b230d231577a44b","fixation","img/fixation.png","null","","test","","","","","",""
"349.69999980926514","343998","pSARL_v2","pSARL_v29rc6r2ab","63d13b586b230d231577a44b","freq","img/green_2bandit_b2.png","70","70","test","1","197","197","9","",""
"null","344464","pSARL_v2","pSARL_v29rc6r2ab","63d13b586b230d231577a44b","freq_resp","img/green_2bandit_b.png","70","70","test","","","","9","",""
"null","344635","pSARL_v2","pSARL_v29rc6r2ab","63d13b586b230d231577a44b","fixation","img/fixation.png","null","","test","","","","","",""
"346.30000019073486","344984","pSARL_v2","pSARL_v29rc6r2ab","63d13b586b230d231577a44b","freq","img/green_2bandit_b2.png","70","70","test","1","198","198","9","",""
"null","345457","pSARL_v2","pSARL_v29rc6r2ab","63d13b586b230d231577a44b","freq_resp","img/green_2bandit_b.png","70","70","test","","","","9","",""
"null","345611","pSARL_v2","pSARL_v29rc6r2ab","63d13b586b230d231577a44b","fixation","img/fixation.png","null","","test","","","","","",""
"221","345835","pSARL_v2","pSARL_v29rc6r2ab","63d13b586b230d231577a44b","freq","img/green_2bandit_b2.png","70","70","test","1","199","199","9","",""
"null","346428","pSARL_v2","pSARL_v29rc6r2ab","63d13b586b230d231577a44b","freq_resp","img/green_2bandit_b.png","70","70","test","","","","9","",""
"null","346595","pSARL_v2","pSARL_v29rc6r2ab","63d13b586b230d231577a44b","fixation","img/fixation.png","null","","test","","","","","",""
"162.40000009536743","346760","pSARL_v2","pSARL_v29rc6r2ab","63d13b586b230d231577a44b","freq","img/green_2bandit_b2.png","70","70","test","1","200","200","9","",""
"null","347415","pSARL_v2","pSARL_v29rc6r2ab","63d13b586b230d231577a44b","freq_resp","img/green_2bandit_b.png","70","70","test","","","","9","",""
"null","347587","pSARL_v2","pSARL_v29rc6r2ab","63d13b586b230d231577a44b","fixation","img/fixation.png","null","","test","","","","","",""
"267.80000019073486","347861","pSARL_v2","pSARL_v29rc6r2ab","63d13b586b230d231577a44b","freq","img/green_2bandit_b2.png","70","70","test","1","201","201","9","",""
"null","348411","pSARL_v2","pSARL_v29rc6r2ab","63d13b586b230d231577a44b","freq_resp","img/green_2bandit_b.png","70","70","test","","","","9","",""
"null","348580","pSARL_v2","pSARL_v29rc6r2ab","63d13b586b230d231577a44b","fixation","img/fixation.png","null","","test","","","","","",""
"153.40000009536743","348740","pSARL_v2","pSARL_v29rc6r2ab","63d13b586b230d231577a44b","freq","img/green_2bandit_b2.png","70","70","test","1","202","202","9","",""
"null","349394","pSARL_v2","pSARL_v29rc6r2ab","63d13b586b230d231577a44b","freq_resp","img/green_2bandit_b.png","70","70","test","","","","9","",""
"null","349548","pSARL_v2","pSARL_v29rc6r2ab","63d13b586b230d231577a44b","fixation","img/fixation.png","null","","test","","","","","",""
"287.19999980926514","349838","pSARL_v2","pSARL_v29rc6r2ab","63d13b586b230d231577a44b","freq","img/green_2bandit_b2.png","70","70","test","1","203","203","9","",""
"null","350354","pSARL_v2","pSARL_v29rc6r2ab","63d13b586b230d231577a44b","freq_resp","img/green_2bandit_b.png","70","70","test","","","","9","",""
"null","350510","pSARL_v2","pSARL_v29rc6r2ab","63d13b586b230d231577a44b","fixation","img/fixation.png","null","","test","","","","","",""
"232","350750","pSARL_v2","pSARL_v29rc6r2ab","63d13b586b230d231577a44b","freq","img/green_2bandit_b2.png","70","70","test","1","204","204","9","",""
"null","351327","pSARL_v2","pSARL_v29rc6r2ab","63d13b586b230d231577a44b","freq_resp","img/green_2bandit_b.png","70","70","test","","","","9","",""
"null","351495","pSARL_v2","pSARL_v29rc6r2ab","63d13b586b230d231577a44b","fixation","img/fixation.png","null","","test","","","","","",""
"214.2999997138977","351712","pSARL_v2","pSARL_v29rc6r2ab","63d13b586b230d231577a44b","freq","img/green_2bandit_b2.png","70","70","test","1","205","205","9","",""
"null","352318","pSARL_v2","pSARL_v29rc6r2ab","63d13b586b230d231577a44b","freq_resp","img/green_2bandit_b.png","70","70","test","","","","9","",""
"null","352484","pSARL_v2","pSARL_v29rc6r2ab","63d13b586b230d231577a44b","fixation","img/fixation.png","null","","test","","","","","",""
"370.09999990463257","352861","pSARL_v2","pSARL_v29rc6r2ab","63d13b586b230d231577a44b","freq","img/green_2bandit_b2.png","70","70","test","1","206","206","9","",""
"null","353308","pSARL_v2","pSARL_v29rc6r2ab","63d13b586b230d231577a44b","freq_resp","img/green_2bandit_b.png","70","70","test","","","","9","",""
"null","353477","pSARL_v2","pSARL_v29rc6r2ab","63d13b586b230d231577a44b","fixation","img/fixation.png","null","","test","","","","","",""
"329.59999990463257","353810","pSARL_v2","pSARL_v29rc6r2ab","63d13b586b230d231577a44b","freq","img/green_2bandit_b2.png","70","70","test","1","207","207","9","",""
