"rt","time_elapsed","expId","subject","prolificID","trialType","stimulus","key_press","corrresp","phase","corr","trialNum","attentionRunNum","blockNum","points","rlNum"
"59698.800000190735","59703","pSARL_v2","pSARL_v2z8u69r04","60ace56a83e45642b22d9954","","","","","","","","","","",""
"","63267","pSARL_v2","pSARL_v2z8u69r04","60ace56a83e45642b22d9954","fullscreen","","","","","","","","","",""
"481229","544499","pSARL_v2","pSARL_v2z8u69r04","60ace56a83e45642b22d9954","","","","","","","","","","",""
"null","545313","pSARL_v2","pSARL_v2z8u69r04","60ace56a83e45642b22d9954","freqPrac","img/green_2bandit_b2.png","null","70","prac","0","","","","",""
"null","546320","pSARL_v2","pSARL_v2z8u69r04","60ace56a83e45642b22d9954","feedback","img/tooSlow.png","null","na","prac","","","","","",""
"null","546477","pSARL_v2","pSARL_v2z8u69r04","60ace56a83e45642b22d9954","fixation","img/fixation.png","null","","prac","","","","","",""
"null","547281","pSARL_v2","pSARL_v2z8u69r04","60ace56a83e45642b22d9954","infreqPrac","img/orange_2bandit_b2.png","null","68","prac","0","","","","",""
"null","548296","pSARL_v2","pSARL_v2z8u69r04","60ace56a83e45642b22d9954","feedback","img/tooSlow.png","null","na","prac","","","","","",""
"null","548466","pSARL_v2","pSARL_v2z8u69r04","60ace56a83e45642b22d9954","fixation","img/fixation.png","null","","prac","","","","","",""
"132.20000004768372","548603","pSARL_v2","pSARL_v2z8u69r04","60ace56a83e45642b22d9954","freqPrac","img/green_2bandit_b2.png","70","70","prac","1","","","","",""
"132.20000004768372","549290","pSARL_v2","pSARL_v2z8u69r04","60ace56a83e45642b22d9954","freqPrac_resp","img/green_2bandit_b.png","70","70","prac","","","","","",""
"null","549446","pSARL_v2","pSARL_v2z8u69r04","60ace56a83e45642b22d9954","fixation","img/fixation.png","null","","prac","","","","","",""
"471","549921","pSARL_v2","pSARL_v2z8u69r04","60ace56a83e45642b22d9954","infreqPrac","img/orange_2bandit_b2.png","70","68","prac","0","","","","",""
"471","550256","pSARL_v2","pSARL_v2z8u69r04","60ace56a83e45642b22d9954","infreqPrac_resp","img/orange_2bandit_b.png","70","68","prac","","","","","",""
"null","551273","pSARL_v2","pSARL_v2z8u69r04","60ace56a83e45642b22d9954","feedback","img/wrongKey.png","null","na","prac","","","","","",""
"null","551431","pSARL_v2","pSARL_v2z8u69r04","60ace56a83e45642b22d9954","fixation","img/fixation.png","null","","prac","","","","","",""
"535.8999998569489","551973","pSARL_v2","pSARL_v2z8u69r04","60ace56a83e45642b22d9954","infreqPrac","img/orange_2bandit_b2.png","68","68","prac","1","","","","",""
"535.8999998569489","552256","pSARL_v2","pSARL_v2z8u69r04","60ace56a83e45642b22d9954","infreqPrac_resp","img/orange_2bandit_b.png","68","68","prac","","","","","",""
"null","552426","pSARL_v2","pSARL_v2z8u69r04","60ace56a83e45642b22d9954","fixation","img/fixation.png","null","","prac","","","","","",""
"428.2999999523163","552861","pSARL_v2","pSARL_v2z8u69r04","60ace56a83e45642b22d9954","infreqPrac","img/orange_2bandit_b2.png","68","68","prac","1","","","","",""
"428.2999999523163","553238","pSARL_v2","pSARL_v2z8u69r04","60ace56a83e45642b22d9954","infreqPrac_resp","img/orange_2bandit_b.png","68","68","prac","","","","","",""
"null","553398","pSARL_v2","pSARL_v2z8u69r04","60ace56a83e45642b22d9954","fixation","img/fixation.png","null","","prac","","","","","",""
"392.7000000476837","553796","pSARL_v2","pSARL_v2z8u69r04","60ace56a83e45642b22d9954","freqPrac","img/green_2bandit_b2.png","70","70","prac","1","","","","",""
"392.7000000476837","554217","pSARL_v2","pSARL_v2z8u69r04","60ace56a83e45642b22d9954","freqPrac_resp","img/green_2bandit_b.png","70","70","prac","","","","","",""
"null","554371","pSARL_v2","pSARL_v2z8u69r04","60ace56a83e45642b22d9954","fixation","img/fixation.png","null","","prac","","","","","",""
"364.2000000476837","554741","pSARL_v2","pSARL_v2z8u69r04","60ace56a83e45642b22d9954","infreqPrac","img/orange_2bandit_b2.png","68","68","prac","1","","","","",""
"364.2000000476837","555180","pSARL_v2","pSARL_v2z8u69r04","60ace56a83e45642b22d9954","infreqPrac_resp","img/orange_2bandit_b.png","68","68","prac","","","","","",""
"null","555340","pSARL_v2","pSARL_v2z8u69r04","60ace56a83e45642b22d9954","fixation","img/fixation.png","null","","prac","","","","","",""
"290.5","555633","pSARL_v2","pSARL_v2z8u69r04","60ace56a83e45642b22d9954","freqPrac","img/green_2bandit_b2.png","70","70","prac","1","","","","",""
"290.5","556158","pSARL_v2","pSARL_v2z8u69r04","60ace56a83e45642b22d9954","freqPrac_resp","img/green_2bandit_b.png","70","70","prac","","","","","",""
"null","556314","pSARL_v2","pSARL_v2z8u69r04","60ace56a83e45642b22d9954","fixation","img/fixation.png","null","","prac","","","","","",""
"348.19999980926514","556667","pSARL_v2","pSARL_v2z8u69r04","60ace56a83e45642b22d9954","freqPrac","img/green_2bandit_b2.png","70","70","prac","1","","","","",""
"348.19999980926514","557134","pSARL_v2","pSARL_v2z8u69r04","60ace56a83e45642b22d9954","freqPrac_resp","img/green_2bandit_b.png","70","70","prac","","","","","",""
"null","557290","pSARL_v2","pSARL_v2z8u69r04","60ace56a83e45642b22d9954","fixation","img/fixation.png","null","","prac","","","","","",""
"23948.699999809265","581243","pSARL_v2","pSARL_v2z8u69r04","60ace56a83e45642b22d9954","","","","","prac","","","","","",""
"402.7999999523163","581650","pSARL_v2","pSARL_v2z8u69r04","60ace56a83e45642b22d9954","rewardPractice","img/slot.png","74","","prac","","","","","",""
"null","582412","pSARL_v2","pSARL_v2z8u69r04","60ace56a83e45642b22d9954","feedback","<div class=""veryhighPoints""> +15 </div>","null","na","prac","","","","","",""
"null","582569","pSARL_v2","pSARL_v2z8u69r04","60ace56a83e45642b22d9954","fixation","img/fixation.png","null","","prac","","","","","",""
"17093","599666","pSARL_v2","pSARL_v2z8u69r04","60ace56a83e45642b22d9954","","","","","prac","","","","","",""
"388.09999990463257","600057","pSARL_v2","pSARL_v2z8u69r04","60ace56a83e45642b22d9954","freq","img/green_2bandit_b2.png","70","70","test","1","1","1","1","",""
"null","600482","pSARL_v2","pSARL_v2z8u69r04","60ace56a83e45642b22d9954","freq_resp","img/green_2bandit_b.png","70","70","test","","","","1","",""
"null","600655","pSARL_v2","pSARL_v2z8u69r04","60ace56a83e45642b22d9954","fixation","img/fixation.png","null","","test","","","","","",""
"342.2000000476837","601001","pSARL_v2","pSARL_v2z8u69r04","60ace56a83e45642b22d9954","freq","img/green_2bandit_b2.png","70","70","test","1","2","2","1","",""
"null","601466","pSARL_v2","pSARL_v2z8u69r04","60ace56a83e45642b22d9954","freq_resp","img/green_2bandit_b.png","70","70","test","","","","1","",""
"null","601620","pSARL_v2","pSARL_v2z8u69r04","60ace56a83e45642b22d9954","fixation","img/fixation.png","null","","test","","","","","",""
"354.5","601981","pSARL_v2","pSARL_v2z8u69r04","60ace56a83e45642b22d9954","freq","img/green_2bandit_b2.png","70","70","test","1","3","3","1","",""
"null","602443","pSARL_v2","pSARL_v2z8u69r04","60ace56a83e45642b22d9954","freq_resp","img/green_2bandit_b.png","70","70","test","","","","1","",""
"null","602601","pSARL_v2","pSARL_v2z8u69r04","60ace56a83e45642b22d9954","fixation","img/fixation.png","null","","test","","","","","",""
"420.7999999523163","603026","pSARL_v2","pSARL_v2z8u69r04","60ace56a83e45642b22d9954","freq","img/green_2bandit_b2.png","70","70","test","1","4","4","1","",""
"null","603426","pSARL_v2","pSARL_v2z8u69r04","60ace56a83e45642b22d9954","freq_resp","img/green_2bandit_b.png","70","70","test","","","","1","",""
"null","603583","pSARL_v2","pSARL_v2z8u69r04","60ace56a83e45642b22d9954","fixation","img/fixation.png","null","","test","","","","","",""
"334.39999985694885","603920","pSARL_v2","pSARL_v2z8u69r04","60ace56a83e45642b22d9954","freq","img/green_2bandit_b2.png","70","70","test","1","5","5","1","",""
"null","604392","pSARL_v2","pSARL_v2z8u69r04","60ace56a83e45642b22d9954","freq_resp","img/green_2bandit_b.png","70","70","test","","","","1","",""
"null","604546","pSARL_v2","pSARL_v2z8u69r04","60ace56a83e45642b22d9954","fixation","img/fixation.png","null","","test","","","","","",""
"372.2000000476837","604922","pSARL_v2","pSARL_v2z8u69r04","60ace56a83e45642b22d9954","freq","img/green_2bandit_b2.png","70","70","test","1","6","6","1","",""
"null","605354","pSARL_v2","pSARL_v2z8u69r04","60ace56a83e45642b22d9954","freq_resp","img/green_2bandit_b.png","70","70","test","","","","1","",""
"null","605512","pSARL_v2","pSARL_v2z8u69r04","60ace56a83e45642b22d9954","fixation","img/fixation.png","null","","test","","","","","",""
"359.2999999523163","605878","pSARL_v2","pSARL_v2z8u69r04","60ace56a83e45642b22d9954","freq","img/green_2bandit_b2.png","70","70","test","1","7","7","1","",""
"null","606333","pSARL_v2","pSARL_v2z8u69r04","60ace56a83e45642b22d9954","freq_resp","img/green_2bandit_b.png","70","70","test","","","","1","",""
"null","606502","pSARL_v2","pSARL_v2z8u69r04","60ace56a83e45642b22d9954","fixation","img/fixation.png","null","","test","","","","","",""
"432.2000000476837","606938","pSARL_v2","pSARL_v2z8u69r04","60ace56a83e45642b22d9954","freq","img/green_2bandit_b2.png","70","70","test","1","8","8","1","",""
"null","607319","pSARL_v2","pSARL_v2z8u69r04","60ace56a83e45642b22d9954","freq_resp","img/green_2bandit_b.png","70","70","test","","","","1","",""
"null","607476","pSARL_v2","pSARL_v2z8u69r04","60ace56a83e45642b22d9954","fixation","img/fixation.png","null","","test","","","","","",""
"401.7999999523163","607881","pSARL_v2","pSARL_v2z8u69r04","60ace56a83e45642b22d9954","infreq","img/orange_2bandit_b2.png","68","68","test","1","9","9","1","",""
"null","608297","pSARL_v2","pSARL_v2z8u69r04","60ace56a83e45642b22d9954","infreq_resp","img/orange_2bandit_b.png","68","68","test","","","","1","",""
"null","608469","pSARL_v2","pSARL_v2z8u69r04","60ace56a83e45642b22d9954","fixation","img/fixation.png","null","","test","","","","","",""
"394","608871","pSARL_v2","pSARL_v2z8u69r04","60ace56a83e45642b22d9954","freq","img/green_2bandit_b2.png","70","70","test","1","10","10","1","",""
"null","609294","pSARL_v2","pSARL_v2z8u69r04","60ace56a83e45642b22d9954","freq_resp","img/green_2bandit_b.png","70","70","test","","","","1","",""
"null","609461","pSARL_v2","pSARL_v2z8u69r04","60ace56a83e45642b22d9954","fixation","img/fixation.png","null","","test","","","","","",""
"353.40000009536743","609818","pSARL_v2","pSARL_v2z8u69r04","60ace56a83e45642b22d9954","freq","img/green_2bandit_b2.png","70","70","test","1","11","11","1","",""
"null","610275","pSARL_v2","pSARL_v2z8u69r04","60ace56a83e45642b22d9954","freq_resp","img/green_2bandit_b.png","70","70","test","","","","1","",""
"null","610443","pSARL_v2","pSARL_v2z8u69r04","60ace56a83e45642b22d9954","fixation","img/fixation.png","null","","test","","","","","",""
"370.60000014305115","610818","pSARL_v2","pSARL_v2z8u69r04","60ace56a83e45642b22d9954","freq","img/green_2bandit_b2.png","70","70","test","1","12","12","1","",""
"null","611252","pSARL_v2","pSARL_v2z8u69r04","60ace56a83e45642b22d9954","freq_resp","img/green_2bandit_b.png","70","70","test","","","","1","",""
"null","611407","pSARL_v2","pSARL_v2z8u69r04","60ace56a83e45642b22d9954","fixation","img/fixation.png","null","","test","","","","","",""
"375.2000000476837","611785","pSARL_v2","pSARL_v2z8u69r04","60ace56a83e45642b22d9954","freq","img/green_2bandit_b2.png","70","70","test","1","13","13","1","",""
"null","612220","pSARL_v2","pSARL_v2z8u69r04","60ace56a83e45642b22d9954","freq_resp","img/green_2bandit_b.png","70","70","test","","","","1","",""
"null","612390","pSARL_v2","pSARL_v2z8u69r04","60ace56a83e45642b22d9954","fixation","img/fixation.png","null","","test","","","","","",""
"383.90000009536743","612779","pSARL_v2","pSARL_v2z8u69r04","60ace56a83e45642b22d9954","freq","img/green_2bandit_b2.png","70","70","test","1","14","14","1","",""
"null","613214","pSARL_v2","pSARL_v2z8u69r04","60ace56a83e45642b22d9954","freq_resp","img/green_2bandit_b.png","70","70","test","","","","1","",""
"null","613369","pSARL_v2","pSARL_v2z8u69r04","60ace56a83e45642b22d9954","fixation","img/fixation.png","null","","test","","","","","",""
"429.2000000476837","613802","pSARL_v2","pSARL_v2z8u69r04","60ace56a83e45642b22d9954","freq","img/green_2bandit_b2.png","70","70","test","1","15","15","1","",""
"null","614180","pSARL_v2","pSARL_v2z8u69r04","60ace56a83e45642b22d9954","freq_resp","img/green_2bandit_b.png","70","70","test","","","","1","",""
"null","614347","pSARL_v2","pSARL_v2z8u69r04","60ace56a83e45642b22d9954","fixation","img/fixation.png","null","","test","","","","","",""
"347.5","614701","pSARL_v2","pSARL_v2z8u69r04","60ace56a83e45642b22d9954","freq","img/green_2bandit_b2.png","70","70","test","1","16","16","1","",""
"null","615160","pSARL_v2","pSARL_v2z8u69r04","60ace56a83e45642b22d9954","freq_resp","img/green_2bandit_b.png","70","70","test","","","","1","",""
"null","615320","pSARL_v2","pSARL_v2z8u69r04","60ace56a83e45642b22d9954","fixation","img/fixation.png","null","","test","","","","","",""
"533.5","615858","pSARL_v2","pSARL_v2z8u69r04","60ace56a83e45642b22d9954","infreq","img/orange_2bandit_b2.png","68","68","test","1","17","17","1","",""
"null","616131","pSARL_v2","pSARL_v2z8u69r04","60ace56a83e45642b22d9954","infreq_resp","img/orange_2bandit_b.png","68","68","test","","","","1","",""
"null","616301","pSARL_v2","pSARL_v2z8u69r04","60ace56a83e45642b22d9954","fixation","img/fixation.png","null","","test","","","","","",""
"496.7999999523163","616807","pSARL_v2","pSARL_v2z8u69r04","60ace56a83e45642b22d9954","freq","img/green_2bandit_b2.png","70","70","test","1","18","18","1","",""
"null","617125","pSARL_v2","pSARL_v2z8u69r04","60ace56a83e45642b22d9954","freq_resp","img/green_2bandit_b.png","70","70","test","","","","1","",""
"null","617283","pSARL_v2","pSARL_v2z8u69r04","60ace56a83e45642b22d9954","fixation","img/fixation.png","null","","test","","","","","",""
"516.3999998569489","617805","pSARL_v2","pSARL_v2z8u69r04","60ace56a83e45642b22d9954","freq","img/green_2bandit_b2.png","70","70","test","1","19","19","1","",""
"null","618103","pSARL_v2","pSARL_v2z8u69r04","60ace56a83e45642b22d9954","freq_resp","img/green_2bandit_b.png","70","70","test","","","","1","",""
"null","618266","pSARL_v2","pSARL_v2z8u69r04","60ace56a83e45642b22d9954","fixation","img/fixation.png","null","","test","","","","","",""
"500.09999990463257","618772","pSARL_v2","pSARL_v2z8u69r04","60ace56a83e45642b22d9954","reward","img/slot.png","74","","test","","","","","",""
"null","619539","pSARL_v2","pSARL_v2z8u69r04","60ace56a83e45642b22d9954","points","<div class=""verylowPoints""> -6 </div>","null","na","test","","","","1","-6","0"
"null","620350","pSARL_v2","pSARL_v2z8u69r04","60ace56a83e45642b22d9954","freq","img/green_2bandit_b2.png","null","70","test","0","20","20","2","",""
"null","620516","pSARL_v2","pSARL_v2z8u69r04","60ace56a83e45642b22d9954","fixation","img/fixation.png","null","","test","","","","","",""
"683.4000000953674","621203","pSARL_v2","pSARL_v2z8u69r04","60ace56a83e45642b22d9954","freq","img/green_2bandit_b2.png","70","70","test","1","21","21","2","",""
"null","621330","pSARL_v2","pSARL_v2z8u69r04","60ace56a83e45642b22d9954","freq_resp","img/green_2bandit_b.png","70","70","test","","","","2","",""
"null","621498","pSARL_v2","pSARL_v2z8u69r04","60ace56a83e45642b22d9954","fixation","img/fixation.png","null","","test","","","","","",""
"372.2000000476837","621873","pSARL_v2","pSARL_v2z8u69r04","60ace56a83e45642b22d9954","freq","img/green_2bandit_b2.png","70","70","test","1","22","22","2","",""
"null","622313","pSARL_v2","pSARL_v2z8u69r04","60ace56a83e45642b22d9954","freq_resp","img/green_2bandit_b.png","70","70","test","","","","2","",""
"null","622481","pSARL_v2","pSARL_v2z8u69r04","60ace56a83e45642b22d9954","fixation","img/fixation.png","null","","test","","","","","",""
"332.2000000476837","622819","pSARL_v2","pSARL_v2z8u69r04","60ace56a83e45642b22d9954","freq","img/green_2bandit_b2.png","70","70","test","1","23","23","2","",""
"null","623306","pSARL_v2","pSARL_v2z8u69r04","60ace56a83e45642b22d9954","freq_resp","img/green_2bandit_b.png","70","70","test","","","","2","",""
"null","623477","pSARL_v2","pSARL_v2z8u69r04","60ace56a83e45642b22d9954","fixation","img/fixation.png","null","","test","","","","","",""
"273.09999990463257","623757","pSARL_v2","pSARL_v2z8u69r04","60ace56a83e45642b22d9954","freq","img/green_2bandit_b2.png","70","70","test","1","24","24","2","",""
"null","624301","pSARL_v2","pSARL_v2z8u69r04","60ace56a83e45642b22d9954","freq_resp","img/green_2bandit_b.png","70","70","test","","","","2","",""
"null","624472","pSARL_v2","pSARL_v2z8u69r04","60ace56a83e45642b22d9954","fixation","img/fixation.png","null","","test","","","","","",""
"341.7999999523163","624821","pSARL_v2","pSARL_v2z8u69r04","60ace56a83e45642b22d9954","infreq","img/orange_2bandit_b2.png","70","68","test","0","25","25","2","",""
"null","625295","pSARL_v2","pSARL_v2z8u69r04","60ace56a83e45642b22d9954","infreq_resp","img/orange_2bandit_b.png","70","68","test","","","","2","",""
"null","625462","pSARL_v2","pSARL_v2z8u69r04","60ace56a83e45642b22d9954","fixation","img/fixation.png","null","","test","","","","","",""
"360.69999980926514","625829","pSARL_v2","pSARL_v2z8u69r04","60ace56a83e45642b22d9954","freq","img/green_2bandit_b2.png","70","70","test","1","26","26","2","",""
"null","626287","pSARL_v2","pSARL_v2z8u69r04","60ace56a83e45642b22d9954","freq_resp","img/green_2bandit_b.png","70","70","test","","","","2","",""
"null","626442","pSARL_v2","pSARL_v2z8u69r04","60ace56a83e45642b22d9954","fixation","img/fixation.png","null","","test","","","","","",""
"372.7000000476837","626820","pSARL_v2","pSARL_v2z8u69r04","60ace56a83e45642b22d9954","freq","img/green_2bandit_b2.png","70","70","test","1","27","27","2","",""
"null","627253","pSARL_v2","pSARL_v2z8u69r04","60ace56a83e45642b22d9954","freq_resp","img/green_2bandit_b.png","70","70","test","","","","2","",""
"null","627409","pSARL_v2","pSARL_v2z8u69r04","60ace56a83e45642b22d9954","fixation","img/fixation.png","null","","test","","","","","",""
"476","627889","pSARL_v2","pSARL_v2z8u69r04","60ace56a83e45642b22d9954","freq","img/green_2bandit_b2.png","70","70","test","1","28","28","2","",""
"null","628230","pSARL_v2","pSARL_v2z8u69r04","60ace56a83e45642b22d9954","freq_resp","img/green_2bandit_b.png","70","70","test","","","","2","",""
"null","628389","pSARL_v2","pSARL_v2z8u69r04","60ace56a83e45642b22d9954","fixation","img/fixation.png","null","","test","","","","","",""
"377.09999990463257","628773","pSARL_v2","pSARL_v2z8u69r04","60ace56a83e45642b22d9954","freq","img/green_2bandit_b2.png","70","70","test","1","29","29","2","",""
"null","629210","pSARL_v2","pSARL_v2z8u69r04","60ace56a83e45642b22d9954","freq_resp","img/green_2bandit_b.png","70","70","test","","","","2","",""
"null","629366","pSARL_v2","pSARL_v2z8u69r04","60ace56a83e45642b22d9954","fixation","img/fixation.png","null","","test","","","","","",""
"313","629688","pSARL_v2","pSARL_v2z8u69r04","60ace56a83e45642b22d9954","freq","img/green_2bandit_b2.png","70","70","test","1","30","30","2","",""
"null","630190","pSARL_v2","pSARL_v2z8u69r04","60ace56a83e45642b22d9954","freq_resp","img/green_2bandit_b.png","70","70","test","","","","2","",""
"null","630360","pSARL_v2","pSARL_v2z8u69r04","60ace56a83e45642b22d9954","fixation","img/fixation.png","null","","test","","","","","",""
"359.2000000476837","630725","pSARL_v2","pSARL_v2z8u69r04","60ace56a83e45642b22d9954","freq","img/green_2bandit_b2.png","70","70","test","1","31","31","2","",""
"null","631169","pSARL_v2","pSARL_v2z8u69r04","60ace56a83e45642b22d9954","freq_resp","img/green_2bandit_b.png","70","70","test","","","","2","",""
"null","631328","pSARL_v2","pSARL_v2z8u69r04","60ace56a83e45642b22d9954","fixation","img/fixation.png","null","","test","","","","","",""
"382.5","631718","pSARL_v2","pSARL_v2z8u69r04","60ace56a83e45642b22d9954","freq","img/green_2bandit_b2.png","70","70","test","1","32","32","2","",""
"null","632151","pSARL_v2","pSARL_v2z8u69r04","60ace56a83e45642b22d9954","freq_resp","img/green_2bandit_b.png","70","70","test","","","","2","",""
"null","632323","pSARL_v2","pSARL_v2z8u69r04","60ace56a83e45642b22d9954","fixation","img/fixation.png","null","","test","","","","","",""
"313.7999999523163","632642","pSARL_v2","pSARL_v2z8u69r04","60ace56a83e45642b22d9954","freq","img/green_2bandit_b2.png","70","70","test","1","33","33","2","",""
"null","633136","pSARL_v2","pSARL_v2z8u69r04","60ace56a83e45642b22d9954","freq_resp","img/green_2bandit_b.png","70","70","test","","","","2","",""
"null","633292","pSARL_v2","pSARL_v2z8u69r04","60ace56a83e45642b22d9954","fixation","img/fixation.png","null","","test","","","","","",""
"353","633649","pSARL_v2","pSARL_v2z8u69r04","60ace56a83e45642b22d9954","freq","img/green_2bandit_b2.png","70","70","test","1","34","34","2","",""
"null","634114","pSARL_v2","pSARL_v2z8u69r04","60ace56a83e45642b22d9954","freq_resp","img/green_2bandit_b.png","70","70","test","","","","2","",""
"null","634273","pSARL_v2","pSARL_v2z8u69r04","60ace56a83e45642b22d9954","fixation","img/fixation.png","null","","test","","","","","",""
"308.7000000476837","634586","pSARL_v2","pSARL_v2z8u69r04","60ace56a83e45642b22d9954","freq","img/green_2bandit_b2.png","70","70","test","1","35","35","2","",""
"null","635095","pSARL_v2","pSARL_v2z8u69r04","60ace56a83e45642b22d9954","freq_resp","img/green_2bandit_b.png","70","70","test","","","","2","",""
"null","635251","pSARL_v2","pSARL_v2z8u69r04","60ace56a83e45642b22d9954","fixation","img/fixation.png","null","","test","","","","","",""
"362.2999999523163","635620","pSARL_v2","pSARL_v2z8u69r04","60ace56a83e45642b22d9954","freq","img/green_2bandit_b2.png","70","70","test","1","36","36","2","",""
"null","636074","pSARL_v2","pSARL_v2z8u69r04","60ace56a83e45642b22d9954","freq_resp","img/green_2bandit_b.png","70","70","test","","","","2","",""
"null","636230","pSARL_v2","pSARL_v2z8u69r04","60ace56a83e45642b22d9954","fixation","img/fixation.png","null","","test","","","","","",""
"319.7999999523163","636556","pSARL_v2","pSARL_v2z8u69r04","60ace56a83e45642b22d9954","freq","img/green_2bandit_b2.png","70","70","test","1","37","37","2","",""
"null","637055","pSARL_v2","pSARL_v2z8u69r04","60ace56a83e45642b22d9954","freq_resp","img/green_2bandit_b.png","70","70","test","","","","2","",""
"null","637209","pSARL_v2","pSARL_v2z8u69r04","60ace56a83e45642b22d9954","fixation","img/fixation.png","null","","test","","","","","",""
"284.2999999523163","637498","pSARL_v2","pSARL_v2z8u69r04","60ace56a83e45642b22d9954","infreq","img/orange_2bandit_b2.png","70","68","test","0","38","38","2","",""
"null","638016","pSARL_v2","pSARL_v2z8u69r04","60ace56a83e45642b22d9954","infreq_resp","img/orange_2bandit_b.png","70","68","test","","","","2","",""
"null","638172","pSARL_v2","pSARL_v2z8u69r04","60ace56a83e45642b22d9954","fixation","img/fixation.png","null","","test","","","","","",""
"345.5","638523","pSARL_v2","pSARL_v2z8u69r04","60ace56a83e45642b22d9954","freq","img/green_2bandit_b2.png","70","70","test","1","39","39","2","",""
"null","638996","pSARL_v2","pSARL_v2z8u69r04","60ace56a83e45642b22d9954","freq_resp","img/green_2bandit_b.png","70","70","test","","","","2","",""
"null","639155","pSARL_v2","pSARL_v2z8u69r04","60ace56a83e45642b22d9954","fixation","img/fixation.png","null","","test","","","","","",""
"156.39999985694885","639318","pSARL_v2","pSARL_v2z8u69r04","60ace56a83e45642b22d9954","freq","img/green_2bandit_b2.png","70","70","test","1","40","40","2","",""
"null","639980","pSARL_v2","pSARL_v2z8u69r04","60ace56a83e45642b22d9954","freq_resp","img/green_2bandit_b.png","70","70","test","","","","2","",""
"null","640133","pSARL_v2","pSARL_v2z8u69r04","60ace56a83e45642b22d9954","fixation","img/fixation.png","null","","test","","","","","",""
"448.09999990463257","640585","pSARL_v2","pSARL_v2z8u69r04","60ace56a83e45642b22d9954","reward","img/slot.png","74","","test","","","","","",""
"null","641349","pSARL_v2","pSARL_v2z8u69r04","60ace56a83e45642b22d9954","points","<div class=""verylowPoints""> -11 </div>","null","na","test","","","","2","-11","1"
"474.2000000476837","641829","pSARL_v2","pSARL_v2z8u69r04","60ace56a83e45642b22d9954","freq","img/green_2bandit_b2.png","70","70","test","1","41","41","3","",""
"null","642164","pSARL_v2","pSARL_v2z8u69r04","60ace56a83e45642b22d9954","freq_resp","img/green_2bandit_b.png","70","70","test","","","","3","",""
"null","642333","pSARL_v2","pSARL_v2z8u69r04","60ace56a83e45642b22d9954","fixation","img/fixation.png","null","","test","","","","","",""
"273.40000009536743","642613","pSARL_v2","pSARL_v2z8u69r04","60ace56a83e45642b22d9954","freq","img/green_2bandit_b2.png","70","70","test","1","42","42","3","",""
"null","643159","pSARL_v2","pSARL_v2z8u69r04","60ace56a83e45642b22d9954","freq_resp","img/green_2bandit_b.png","70","70","test","","","","3","",""
"null","643316","pSARL_v2","pSARL_v2z8u69r04","60ace56a83e45642b22d9954","fixation","img/fixation.png","null","","test","","","","","",""
"313","643636","pSARL_v2","pSARL_v2z8u69r04","60ace56a83e45642b22d9954","freq","img/green_2bandit_b2.png","70","70","test","1","43","43","3","",""
"null","644138","pSARL_v2","pSARL_v2z8u69r04","60ace56a83e45642b22d9954","freq_resp","img/green_2bandit_b.png","70","70","test","","","","3","",""
"null","644295","pSARL_v2","pSARL_v2z8u69r04","60ace56a83e45642b22d9954","fixation","img/fixation.png","null","","test","","","","","",""
"286.69999980926514","644585","pSARL_v2","pSARL_v2z8u69r04","60ace56a83e45642b22d9954","freq","img/green_2bandit_b2.png","70","70","test","1","44","44","3","",""
"null","645105","pSARL_v2","pSARL_v2z8u69r04","60ace56a83e45642b22d9954","freq_resp","img/green_2bandit_b.png","70","70","test","","","","3","",""
"null","645260","pSARL_v2","pSARL_v2z8u69r04","60ace56a83e45642b22d9954","fixation","img/fixation.png","null","","test","","","","","",""
"257.7999999523163","645522","pSARL_v2","pSARL_v2z8u69r04","60ace56a83e45642b22d9954","infreq","img/orange_2bandit_b2.png","70","68","test","0","45","45","3","",""
"null","646069","pSARL_v2","pSARL_v2z8u69r04","60ace56a83e45642b22d9954","infreq_resp","img/orange_2bandit_b.png","70","68","test","","","","3","",""
"null","646228","pSARL_v2","pSARL_v2z8u69r04","60ace56a83e45642b22d9954","fixation","img/fixation.png","null","","test","","","","","",""
"384.59999990463257","646618","pSARL_v2","pSARL_v2z8u69r04","60ace56a83e45642b22d9954","freq","img/green_2bandit_b2.png","70","70","test","1","46","46","3","",""
"null","647050","pSARL_v2","pSARL_v2z8u69r04","60ace56a83e45642b22d9954","freq_resp","img/green_2bandit_b.png","70","70","test","","","","3","",""
"null","647204","pSARL_v2","pSARL_v2z8u69r04","60ace56a83e45642b22d9954","fixation","img/fixation.png","null","","test","","","","","",""
"283.2000000476837","647494","pSARL_v2","pSARL_v2z8u69r04","60ace56a83e45642b22d9954","freq","img/green_2bandit_b2.png","70","70","test","1","47","47","3","",""
"null","648029","pSARL_v2","pSARL_v2z8u69r04","60ace56a83e45642b22d9954","freq_resp","img/green_2bandit_b.png","70","70","test","","","","3","",""
"null","648186","pSARL_v2","pSARL_v2z8u69r04","60ace56a83e45642b22d9954","fixation","img/fixation.png","null","","test","","","","","",""
"284.59999990463257","648479","pSARL_v2","pSARL_v2z8u69r04","60ace56a83e45642b22d9954","freq","img/green_2bandit_b2.png","70","70","test","1","48","48","3","",""
"null","649014","pSARL_v2","pSARL_v2z8u69r04","60ace56a83e45642b22d9954","freq_resp","img/green_2bandit_b.png","70","70","test","","","","3","",""
"null","649185","pSARL_v2","pSARL_v2z8u69r04","60ace56a83e45642b22d9954","fixation","img/fixation.png","null","","test","","","","","",""
"469.90000009536743","649664","pSARL_v2","pSARL_v2z8u69r04","60ace56a83e45642b22d9954","freq","img/green_2bandit_b2.png","70","70","test","1","49","49","3","",""
"null","650015","pSARL_v2","pSARL_v2z8u69r04","60ace56a83e45642b22d9954","freq_resp","img/green_2bandit_b.png","70","70","test","","","","3","",""
"null","650168","pSARL_v2","pSARL_v2z8u69r04","60ace56a83e45642b22d9954","fixation","img/fixation.png","null","","test","","","","","",""
"558.0999999046326","650731","pSARL_v2","pSARL_v2z8u69r04","60ace56a83e45642b22d9954","infreq","img/orange_2bandit_b2.png","68","68","test","1","50","50","3","",""
"null","650975","pSARL_v2","pSARL_v2z8u69r04","60ace56a83e45642b22d9954","infreq_resp","img/orange_2bandit_b.png","68","68","test","","","","3","",""
"null","651132","pSARL_v2","pSARL_v2z8u69r04","60ace56a83e45642b22d9954","fixation","img/fixation.png","null","","test","","","","","",""
"450.59999990463257","651585","pSARL_v2","pSARL_v2z8u69r04","60ace56a83e45642b22d9954","freq","img/green_2bandit_b2.png","70","70","test","1","51","51","3","",""
"null","651955","pSARL_v2","pSARL_v2z8u69r04","60ace56a83e45642b22d9954","freq_resp","img/green_2bandit_b.png","70","70","test","","","","3","",""
"null","652114","pSARL_v2","pSARL_v2z8u69r04","60ace56a83e45642b22d9954","fixation","img/fixation.png","null","","test","","","","","",""
"388.7999999523163","652510","pSARL_v2","pSARL_v2z8u69r04","60ace56a83e45642b22d9954","freq","img/green_2bandit_b2.png","70","70","test","1","52","52","3","",""
"null","652936","pSARL_v2","pSARL_v2z8u69r04","60ace56a83e45642b22d9954","freq_resp","img/green_2bandit_b.png","70","70","test","","","","3","",""
"null","653092","pSARL_v2","pSARL_v2z8u69r04","60ace56a83e45642b22d9954","fixation","img/fixation.png","null","","test","","","","","",""
"450.7999999523163","653552","pSARL_v2","pSARL_v2z8u69r04","60ace56a83e45642b22d9954","freq","img/green_2bandit_b2.png","70","70","test","1","53","53","3","",""
"null","653911","pSARL_v2","pSARL_v2z8u69r04","60ace56a83e45642b22d9954","freq_resp","img/green_2bandit_b.png","70","70","test","","","","3","",""
"null","654069","pSARL_v2","pSARL_v2z8u69r04","60ace56a83e45642b22d9954","fixation","img/fixation.png","null","","test","","","","","",""
"368.60000014305115","654441","pSARL_v2","pSARL_v2z8u69r04","60ace56a83e45642b22d9954","freq","img/green_2bandit_b2.png","70","70","test","1","54","54","3","",""
"null","654883","pSARL_v2","pSARL_v2z8u69r04","60ace56a83e45642b22d9954","freq_resp","img/green_2bandit_b.png","70","70","test","","","","3","",""
"null","655042","pSARL_v2","pSARL_v2z8u69r04","60ace56a83e45642b22d9954","fixation","img/fixation.png","null","","test","","","","","",""
"null","655853","pSARL_v2","pSARL_v2z8u69r04","60ace56a83e45642b22d9954","freq","img/green_2bandit_b2.png","null","70","test","0","55","55","3","",""
"null","656007","pSARL_v2","pSARL_v2z8u69r04","60ace56a83e45642b22d9954","fixation","img/fixation.png","null","","test","","","","","",""
"408.09999990463257","656419","pSARL_v2","pSARL_v2z8u69r04","60ace56a83e45642b22d9954","freq","img/green_2bandit_b2.png","70","70","test","1","56","56","3","",""
"null","656827","pSARL_v2","pSARL_v2z8u69r04","60ace56a83e45642b22d9954","freq_resp","img/green_2bandit_b.png","70","70","test","","","","3","",""
"null","656987","pSARL_v2","pSARL_v2z8u69r04","60ace56a83e45642b22d9954","fixation","img/fixation.png","null","","test","","","","","",""
"299.7000000476837","657291","pSARL_v2","pSARL_v2z8u69r04","60ace56a83e45642b22d9954","freq","img/green_2bandit_b2.png","70","70","test","1","57","57","3","",""
"null","657796","pSARL_v2","pSARL_v2z8u69r04","60ace56a83e45642b22d9954","freq_resp","img/green_2bandit_b.png","70","70","test","","","","3","",""
"null","657954","pSARL_v2","pSARL_v2z8u69r04","60ace56a83e45642b22d9954","fixation","img/fixation.png","null","","test","","","","","",""
"445.10000014305115","658406","pSARL_v2","pSARL_v2z8u69r04","60ace56a83e45642b22d9954","infreq","img/orange_2bandit_b2.png","68","68","test","1","58","58","3","",""
"null","658776","pSARL_v2","pSARL_v2z8u69r04","60ace56a83e45642b22d9954","infreq_resp","img/orange_2bandit_b.png","68","68","test","","","","3","",""
"null","658933","pSARL_v2","pSARL_v2z8u69r04","60ace56a83e45642b22d9954","fixation","img/fixation.png","null","","test","","","","","",""
"280.30000019073486","659218","pSARL_v2","pSARL_v2z8u69r04","60ace56a83e45642b22d9954","freq","img/green_2bandit_b2.png","70","70","test","1","59","59","3","",""
"null","659744","pSARL_v2","pSARL_v2z8u69r04","60ace56a83e45642b22d9954","freq_resp","img/green_2bandit_b.png","70","70","test","","","","3","",""
"null","659910","pSARL_v2","pSARL_v2z8u69r04","60ace56a83e45642b22d9954","fixation","img/fixation.png","null","","test","","","","","",""
"247.59999990463257","660162","pSARL_v2","pSARL_v2z8u69r04","60ace56a83e45642b22d9954","freq","img/green_2bandit_b2.png","70","70","test","1","60","60","3","",""
"null","660721","pSARL_v2","pSARL_v2z8u69r04","60ace56a83e45642b22d9954","freq_resp","img/green_2bandit_b.png","70","70","test","","","","3","",""
"null","660875","pSARL_v2","pSARL_v2z8u69r04","60ace56a83e45642b22d9954","fixation","img/fixation.png","null","","test","","","","","",""
"323.09999990463257","661202","pSARL_v2","pSARL_v2z8u69r04","60ace56a83e45642b22d9954","freq","img/green_2bandit_b2.png","70","70","test","1","61","61","3","",""
"null","661683","pSARL_v2","pSARL_v2z8u69r04","60ace56a83e45642b22d9954","freq_resp","img/green_2bandit_b.png","70","70","test","","","","3","",""
"null","661842","pSARL_v2","pSARL_v2z8u69r04","60ace56a83e45642b22d9954","fixation","img/fixation.png","null","","test","","","","","",""
"308.5","662158","pSARL_v2","pSARL_v2z8u69r04","60ace56a83e45642b22d9954","freq","img/green_2bandit_b2.png","70","70","test","1","62","62","3","",""
"null","662664","pSARL_v2","pSARL_v2z8u69r04","60ace56a83e45642b22d9954","freq_resp","img/green_2bandit_b.png","70","70","test","","","","3","",""
"null","662831","pSARL_v2","pSARL_v2z8u69r04","60ace56a83e45642b22d9954","fixation","img/fixation.png","null","","test","","","","","",""
"351.59999990463257","663190","pSARL_v2","pSARL_v2z8u69r04","60ace56a83e45642b22d9954","freq","img/green_2bandit_b2.png","70","70","test","1","63","63","3","",""
"null","663646","pSARL_v2","pSARL_v2z8u69r04","60ace56a83e45642b22d9954","freq_resp","img/green_2bandit_b.png","70","70","test","","","","3","",""
"null","663806","pSARL_v2","pSARL_v2z8u69r04","60ace56a83e45642b22d9954","fixation","img/fixation.png","null","","test","","","","","",""
"425","664239","pSARL_v2","pSARL_v2z8u69r04","60ace56a83e45642b22d9954","freq","img/green_2bandit_b2.png","70","70","test","1","64","64","3","",""
"null","664633","pSARL_v2","pSARL_v2z8u69r04","60ace56a83e45642b22d9954","freq_resp","img/green_2bandit_b.png","70","70","test","","","","3","",""
"null","664799","pSARL_v2","pSARL_v2z8u69r04","60ace56a83e45642b22d9954","fixation","img/fixation.png","null","","test","","","","","",""
"310.90000009536743","665116","pSARL_v2","pSARL_v2z8u69r04","60ace56a83e45642b22d9954","freq","img/green_2bandit_b2.png","70","70","test","1","65","65","3","",""
"null","665622","pSARL_v2","pSARL_v2z8u69r04","60ace56a83e45642b22d9954","freq_resp","img/green_2bandit_b.png","70","70","test","","","","3","",""
"null","665779","pSARL_v2","pSARL_v2z8u69r04","60ace56a83e45642b22d9954","fixation","img/fixation.png","null","","test","","","","","",""
"363","666145","pSARL_v2","pSARL_v2z8u69r04","60ace56a83e45642b22d9954","freq","img/green_2bandit_b2.png","70","70","test","1","66","66","3","",""
"null","666592","pSARL_v2","pSARL_v2z8u69r04","60ace56a83e45642b22d9954","freq_resp","img/green_2bandit_b.png","70","70","test","","","","3","",""
"null","666765","pSARL_v2","pSARL_v2z8u69r04","60ace56a83e45642b22d9954","fixation","img/fixation.png","null","","test","","","","","",""
"849.5999999046326","667622","pSARL_v2","pSARL_v2z8u69r04","60ace56a83e45642b22d9954","reward","img/slot.png","74","","test","","","","","",""
"null","668390","pSARL_v2","pSARL_v2z8u69r04","60ace56a83e45642b22d9954","points","<div class=""verylowPoints""> -7 </div>","null","na","test","","","","3","-7","2"
"536.0999999046326","668930","pSARL_v2","pSARL_v2z8u69r04","60ace56a83e45642b22d9954","freq","img/green_2bandit_b2.png","70","70","test","1","67","67","4","",""
"null","669198","pSARL_v2","pSARL_v2z8u69r04","60ace56a83e45642b22d9954","freq_resp","img/green_2bandit_b.png","70","70","test","","","","4","",""
"null","669352","pSARL_v2","pSARL_v2z8u69r04","60ace56a83e45642b22d9954","fixation","img/fixation.png","null","","test","","","","","",""
"686.8000001907349","670046","pSARL_v2","pSARL_v2z8u69r04","60ace56a83e45642b22d9954","freq","img/green_2bandit_b2.png","70","70","test","1","68","68","4","",""
"null","670163","pSARL_v2","pSARL_v2z8u69r04","60ace56a83e45642b22d9954","freq_resp","img/green_2bandit_b.png","70","70","test","","","","4","",""
"null","670317","pSARL_v2","pSARL_v2z8u69r04","60ace56a83e45642b22d9954","fixation","img/fixation.png","null","","test","","","","","",""
"497","670817","pSARL_v2","pSARL_v2z8u69r04","60ace56a83e45642b22d9954","freq","img/green_2bandit_b2.png","70","70","test","1","69","69","4","",""
"null","671131","pSARL_v2","pSARL_v2z8u69r04","60ace56a83e45642b22d9954","freq_resp","img/green_2bandit_b.png","70","70","test","","","","4","",""
"null","671300","pSARL_v2","pSARL_v2z8u69r04","60ace56a83e45642b22d9954","fixation","img/fixation.png","null","","test","","","","","",""
"673.9000000953674","671978","pSARL_v2","pSARL_v2z8u69r04","60ace56a83e45642b22d9954","freq","img/green_2bandit_b2.png","70","70","test","1","70","70","4","",""
"null","672111","pSARL_v2","pSARL_v2z8u69r04","60ace56a83e45642b22d9954","freq_resp","img/green_2bandit_b.png","70","70","test","","","","4","",""
"null","672266","pSARL_v2","pSARL_v2z8u69r04","60ace56a83e45642b22d9954","fixation","img/fixation.png","null","","test","","","","","",""
"308.59999990463257","672581","pSARL_v2","pSARL_v2z8u69r04","60ace56a83e45642b22d9954","freq","img/green_2bandit_b2.png","70","70","test","1","71","71","4","",""
"null","673077","pSARL_v2","pSARL_v2z8u69r04","60ace56a83e45642b22d9954","freq_resp","img/green_2bandit_b.png","70","70","test","","","","4","",""
"null","673232","pSARL_v2","pSARL_v2z8u69r04","60ace56a83e45642b22d9954","fixation","img/fixation.png","null","","test","","","","","",""
"286.59999990463257","673523","pSARL_v2","pSARL_v2z8u69r04","60ace56a83e45642b22d9954","freq","img/green_2bandit_b2.png","70","70","test","1","72","72","4","",""
"null","674045","pSARL_v2","pSARL_v2z8u69r04","60ace56a83e45642b22d9954","freq_resp","img/green_2bandit_b.png","70","70","test","","","","4","",""
"null","674214","pSARL_v2","pSARL_v2z8u69r04","60ace56a83e45642b22d9954","fixation","img/fixation.png","null","","test","","","","","",""
"295.7000000476837","674515","pSARL_v2","pSARL_v2z8u69r04","60ace56a83e45642b22d9954","freq","img/green_2bandit_b2.png","70","70","test","1","73","73","4","",""
"null","675033","pSARL_v2","pSARL_v2z8u69r04","60ace56a83e45642b22d9954","freq_resp","img/green_2bandit_b.png","70","70","test","","","","4","",""
"null","675191","pSARL_v2","pSARL_v2z8u69r04","60ace56a83e45642b22d9954","fixation","img/fixation.png","null","","test","","","","","",""
"336.69999980926514","675534","pSARL_v2","pSARL_v2z8u69r04","60ace56a83e45642b22d9954","freq","img/green_2bandit_b2.png","70","70","test","1","74","74","4","",""
"null","676013","pSARL_v2","pSARL_v2z8u69r04","60ace56a83e45642b22d9954","freq_resp","img/green_2bandit_b.png","70","70","test","","","","4","",""
"null","676181","pSARL_v2","pSARL_v2z8u69r04","60ace56a83e45642b22d9954","fixation","img/fixation.png","null","","test","","","","","",""
"361","676546","pSARL_v2","pSARL_v2z8u69r04","60ace56a83e45642b22d9954","freq","img/green_2bandit_b2.png","70","70","test","1","75","75","4","",""
"null","676989","pSARL_v2","pSARL_v2z8u69r04","60ace56a83e45642b22d9954","freq_resp","img/green_2bandit_b.png","70","70","test","","","","4","",""
"null","677146","pSARL_v2","pSARL_v2z8u69r04","60ace56a83e45642b22d9954","fixation","img/fixation.png","null","","test","","","","","",""
"386.80000019073486","677537","pSARL_v2","pSARL_v2z8u69r04","60ace56a83e45642b22d9954","infreq","img/orange_2bandit_b2.png","68","68","test","1","76","76","4","",""
"null","677956","pSARL_v2","pSARL_v2z8u69r04","60ace56a83e45642b22d9954","infreq_resp","img/orange_2bandit_b.png","68","68","test","","","","4","",""
"null","678111","pSARL_v2","pSARL_v2z8u69r04","60ace56a83e45642b22d9954","fixation","img/fixation.png","null","","test","","","","","",""
"278.80000019073486","678394","pSARL_v2","pSARL_v2z8u69r04","60ace56a83e45642b22d9954","freq","img/green_2bandit_b2.png","70","70","test","1","77","77","4","",""
"null","678933","pSARL_v2","pSARL_v2z8u69r04","60ace56a83e45642b22d9954","freq_resp","img/green_2bandit_b.png","70","70","test","","","","4","",""
"null","679089","pSARL_v2","pSARL_v2z8u69r04","60ace56a83e45642b22d9954","fixation","img/fixation.png","null","","test","","","","","",""
"283.7999999523163","679377","pSARL_v2","pSARL_v2z8u69r04","60ace56a83e45642b22d9954","freq","img/green_2bandit_b2.png","70","70","test","1","78","78","4","",""
"null","679911","pSARL_v2","pSARL_v2z8u69r04","60ace56a83e45642b22d9954","freq_resp","img/green_2bandit_b.png","70","70","test","","","","4","",""
"null","680068","pSARL_v2","pSARL_v2z8u69r04","60ace56a83e45642b22d9954","fixation","img/fixation.png","null","","test","","","","","",""
"433.90000009536743","680510","pSARL_v2","pSARL_v2z8u69r04","60ace56a83e45642b22d9954","freq","img/green_2bandit_b2.png","70","70","test","1","79","79","4","",""
"null","680890","pSARL_v2","pSARL_v2z8u69r04","60ace56a83e45642b22d9954","freq_resp","img/green_2bandit_b.png","70","70","test","","","","4","",""
"null","681048","pSARL_v2","pSARL_v2z8u69r04","60ace56a83e45642b22d9954","fixation","img/fixation.png","null","","test","","","","","",""
"286.2000000476837","681341","pSARL_v2","pSARL_v2z8u69r04","60ace56a83e45642b22d9954","freq","img/green_2bandit_b2.png","70","70","test","1","80","80","4","",""
"null","681874","pSARL_v2","pSARL_v2z8u69r04","60ace56a83e45642b22d9954","freq_resp","img/green_2bandit_b.png","70","70","test","","","","4","",""
"null","682044","pSARL_v2","pSARL_v2z8u69r04","60ace56a83e45642b22d9954","fixation","img/fixation.png","null","","test","","","","","",""
"282.7999999523163","682335","pSARL_v2","pSARL_v2z8u69r04","60ace56a83e45642b22d9954","freq","img/green_2bandit_b2.png","70","70","test","1","81","81","4","",""
"null","682870","pSARL_v2","pSARL_v2z8u69r04","60ace56a83e45642b22d9954","freq_resp","img/green_2bandit_b.png","70","70","test","","","","4","",""
"null","683042","pSARL_v2","pSARL_v2z8u69r04","60ace56a83e45642b22d9954","fixation","img/fixation.png","null","","test","","","","","",""
"387.7999999523163","683434","pSARL_v2","pSARL_v2z8u69r04","60ace56a83e45642b22d9954","freq","img/green_2bandit_b2.png","70","70","test","1","82","82","4","",""
"null","683850","pSARL_v2","pSARL_v2z8u69r04","60ace56a83e45642b22d9954","freq_resp","img/green_2bandit_b.png","70","70","test","","","","4","",""
"null","684006","pSARL_v2","pSARL_v2z8u69r04","60ace56a83e45642b22d9954","fixation","img/fixation.png","null","","test","","","","","",""
"328.80000019073486","684341","pSARL_v2","pSARL_v2z8u69r04","60ace56a83e45642b22d9954","freq","img/green_2bandit_b2.png","70","70","test","1","83","83","4","",""
"null","684831","pSARL_v2","pSARL_v2z8u69r04","60ace56a83e45642b22d9954","freq_resp","img/green_2bandit_b.png","70","70","test","","","","4","",""
"null","684985","pSARL_v2","pSARL_v2z8u69r04","60ace56a83e45642b22d9954","fixation","img/fixation.png","null","","test","","","","","",""
"397.2999999523163","685388","pSARL_v2","pSARL_v2z8u69r04","60ace56a83e45642b22d9954","freq","img/green_2bandit_b2.png","70","70","test","1","84","84","4","",""
"null","685797","pSARL_v2","pSARL_v2z8u69r04","60ace56a83e45642b22d9954","freq_resp","img/green_2bandit_b.png","70","70","test","","","","4","",""
"null","685966","pSARL_v2","pSARL_v2z8u69r04","60ace56a83e45642b22d9954","fixation","img/fixation.png","null","","test","","","","","",""
"319.7000000476837","686289","pSARL_v2","pSARL_v2z8u69r04","60ace56a83e45642b22d9954","freq","img/green_2bandit_b2.png","70","70","test","1","85","85","4","",""
"null","686784","pSARL_v2","pSARL_v2z8u69r04","60ace56a83e45642b22d9954","freq_resp","img/green_2bandit_b.png","70","70","test","","","","4","",""
"null","686956","pSARL_v2","pSARL_v2z8u69r04","60ace56a83e45642b22d9954","fixation","img/fixation.png","null","","test","","","","","",""
"378.10000014305115","687340","pSARL_v2","pSARL_v2z8u69r04","60ace56a83e45642b22d9954","infreq","img/orange_2bandit_b2.png","68","68","test","1","86","86","4","",""
"null","687782","pSARL_v2","pSARL_v2z8u69r04","60ace56a83e45642b22d9954","infreq_resp","img/orange_2bandit_b.png","68","68","test","","","","4","",""
"null","687954","pSARL_v2","pSARL_v2z8u69r04","60ace56a83e45642b22d9954","fixation","img/fixation.png","null","","test","","","","","",""
"251.59999990463257","688210","pSARL_v2","pSARL_v2z8u69r04","60ace56a83e45642b22d9954","freq","img/green_2bandit_b2.png","70","70","test","1","87","87","4","",""
"null","688774","pSARL_v2","pSARL_v2z8u69r04","60ace56a83e45642b22d9954","freq_resp","img/green_2bandit_b.png","70","70","test","","","","4","",""
"null","688931","pSARL_v2","pSARL_v2z8u69r04","60ace56a83e45642b22d9954","fixation","img/fixation.png","null","","test","","","","","",""
"283.30000019073486","689217","pSARL_v2","pSARL_v2z8u69r04","60ace56a83e45642b22d9954","freq","img/green_2bandit_b2.png","70","70","test","1","88","88","4","",""
"null","689738","pSARL_v2","pSARL_v2z8u69r04","60ace56a83e45642b22d9954","freq_resp","img/green_2bandit_b.png","70","70","test","","","","4","",""
"null","689895","pSARL_v2","pSARL_v2z8u69r04","60ace56a83e45642b22d9954","fixation","img/fixation.png","null","","test","","","","","",""
"407.10000014305115","690306","pSARL_v2","pSARL_v2z8u69r04","60ace56a83e45642b22d9954","reward","img/slot.png","74","","test","","","","","",""
"null","691076","pSARL_v2","pSARL_v2z8u69r04","60ace56a83e45642b22d9954","points","<div class=""verylowPoints""> -3 </div>","null","na","test","","","","4","-3","3"
"282.60000014305115","691363","pSARL_v2","pSARL_v2z8u69r04","60ace56a83e45642b22d9954","freq","img/green_2bandit_b2.png","70","70","test","1","89","89","5","",""
"null","691888","pSARL_v2","pSARL_v2z8u69r04","60ace56a83e45642b22d9954","freq_resp","img/green_2bandit_b.png","70","70","test","","","","5","",""
"null","692055","pSARL_v2","pSARL_v2z8u69r04","60ace56a83e45642b22d9954","fixation","img/fixation.png","null","","test","","","","","",""
"6.199999809265137","692065","pSARL_v2","pSARL_v2z8u69r04","60ace56a83e45642b22d9954","freq","img/green_2bandit_b2.png","70","70","test","1","90","90","5","",""
"null","692869","pSARL_v2","pSARL_v2z8u69r04","60ace56a83e45642b22d9954","freq_resp","img/green_2bandit_b.png","70","70","test","","","","5","",""
"null","693035","pSARL_v2","pSARL_v2z8u69r04","60ace56a83e45642b22d9954","fixation","img/fixation.png","null","","test","","","","","",""
"427","693466","pSARL_v2","pSARL_v2z8u69r04","60ace56a83e45642b22d9954","freq","img/green_2bandit_b2.png","70","70","test","1","91","91","5","",""
"null","693848","pSARL_v2","pSARL_v2z8u69r04","60ace56a83e45642b22d9954","freq_resp","img/green_2bandit_b.png","70","70","test","","","","5","",""
"null","694015","pSARL_v2","pSARL_v2z8u69r04","60ace56a83e45642b22d9954","fixation","img/fixation.png","null","","test","","","","","",""
"311.2999999523163","694335","pSARL_v2","pSARL_v2z8u69r04","60ace56a83e45642b22d9954","freq","img/green_2bandit_b2.png","70","70","test","1","92","92","5","",""
"null","694843","pSARL_v2","pSARL_v2z8u69r04","60ace56a83e45642b22d9954","freq_resp","img/green_2bandit_b.png","70","70","test","","","","5","",""
"null","695014","pSARL_v2","pSARL_v2z8u69r04","60ace56a83e45642b22d9954","fixation","img/fixation.png","null","","test","","","","","",""
"305.7000000476837","695323","pSARL_v2","pSARL_v2z8u69r04","60ace56a83e45642b22d9954","freq","img/green_2bandit_b2.png","70","70","test","1","93","93","5","",""
"null","695821","pSARL_v2","pSARL_v2z8u69r04","60ace56a83e45642b22d9954","freq_resp","img/green_2bandit_b.png","70","70","test","","","","5","",""
"null","695978","pSARL_v2","pSARL_v2z8u69r04","60ace56a83e45642b22d9954","fixation","img/fixation.png","null","","test","","","","","",""
"330.7000000476837","696313","pSARL_v2","pSARL_v2z8u69r04","60ace56a83e45642b22d9954","freq","img/green_2bandit_b2.png","70","70","test","1","94","94","5","",""
"null","696801","pSARL_v2","pSARL_v2z8u69r04","60ace56a83e45642b22d9954","freq_resp","img/green_2bandit_b.png","70","70","test","","","","5","",""
"null","696971","pSARL_v2","pSARL_v2z8u69r04","60ace56a83e45642b22d9954","fixation","img/fixation.png","null","","test","","","","","",""
"243.5","697222","pSARL_v2","pSARL_v2z8u69r04","60ace56a83e45642b22d9954","freq","img/green_2bandit_b2.png","70","70","test","1","95","95","5","",""
"null","697793","pSARL_v2","pSARL_v2z8u69r04","60ace56a83e45642b22d9954","freq_resp","img/green_2bandit_b.png","70","70","test","","","","5","",""
"null","697963","pSARL_v2","pSARL_v2z8u69r04","60ace56a83e45642b22d9954","fixation","img/fixation.png","null","","test","","","","","",""
"371.90000009536743","698344","pSARL_v2","pSARL_v2z8u69r04","60ace56a83e45642b22d9954","freq","img/green_2bandit_b2.png","70","70","test","1","96","96","5","",""
"null","698783","pSARL_v2","pSARL_v2z8u69r04","60ace56a83e45642b22d9954","freq_resp","img/green_2bandit_b.png","70","70","test","","","","5","",""
"null","698940","pSARL_v2","pSARL_v2z8u69r04","60ace56a83e45642b22d9954","fixation","img/fixation.png","null","","test","","","","","",""
"313.90000009536743","699258","pSARL_v2","pSARL_v2z8u69r04","60ace56a83e45642b22d9954","freq","img/green_2bandit_b2.png","70","70","test","1","97","97","5","",""
"null","699762","pSARL_v2","pSARL_v2z8u69r04","60ace56a83e45642b22d9954","freq_resp","img/green_2bandit_b.png","70","70","test","","","","5","",""
"null","699919","pSARL_v2","pSARL_v2z8u69r04","60ace56a83e45642b22d9954","fixation","img/fixation.png","null","","test","","","","","",""
"368","700293","pSARL_v2","pSARL_v2z8u69r04","60ace56a83e45642b22d9954","freq","img/green_2bandit_b2.png","70","70","test","1","98","98","5","",""
"null","700743","pSARL_v2","pSARL_v2z8u69r04","60ace56a83e45642b22d9954","freq_resp","img/green_2bandit_b.png","70","70","test","","","","5","",""
"null","700909","pSARL_v2","pSARL_v2z8u69r04","60ace56a83e45642b22d9954","fixation","img/fixation.png","null","","test","","","","","",""
"321.5","701235","pSARL_v2","pSARL_v2z8u69r04","60ace56a83e45642b22d9954","freq","img/green_2bandit_b2.png","70","70","test","1","99","99","5","",""
"null","701720","pSARL_v2","pSARL_v2z8u69r04","60ace56a83e45642b22d9954","freq_resp","img/green_2bandit_b.png","70","70","test","","","","5","",""
"null","701876","pSARL_v2","pSARL_v2z8u69r04","60ace56a83e45642b22d9954","fixation","img/fixation.png","null","","test","","","","","",""
"273.7000000476837","702153","pSARL_v2","pSARL_v2z8u69r04","60ace56a83e45642b22d9954","freq","img/green_2bandit_b2.png","70","70","test","1","100","100","5","",""
"null","702699","pSARL_v2","pSARL_v2z8u69r04","60ace56a83e45642b22d9954","freq_resp","img/green_2bandit_b.png","70","70","test","","","","5","",""
"null","702867","pSARL_v2","pSARL_v2z8u69r04","60ace56a83e45642b22d9954","fixation","img/fixation.png","null","","test","","","","","",""
"347.39999985694885","703221","pSARL_v2","pSARL_v2z8u69r04","60ace56a83e45642b22d9954","freq","img/green_2bandit_b2.png","70","70","test","1","101","101","5","",""
"null","703691","pSARL_v2","pSARL_v2z8u69r04","60ace56a83e45642b22d9954","freq_resp","img/green_2bandit_b.png","70","70","test","","","","5","",""
"null","703862","pSARL_v2","pSARL_v2z8u69r04","60ace56a83e45642b22d9954","fixation","img/fixation.png","null","","test","","","","","",""
"287.7999999523163","704159","pSARL_v2","pSARL_v2z8u69r04","60ace56a83e45642b22d9954","freq","img/green_2bandit_b2.png","70","70","test","1","102","102","5","",""
"null","704690","pSARL_v2","pSARL_v2z8u69r04","60ace56a83e45642b22d9954","freq_resp","img/green_2bandit_b.png","70","70","test","","","","5","",""
"null","704860","pSARL_v2","pSARL_v2z8u69r04","60ace56a83e45642b22d9954","fixation","img/fixation.png","null","","test","","","","","",""
"410","705273","pSARL_v2","pSARL_v2z8u69r04","60ace56a83e45642b22d9954","freq","img/green_2bandit_b2.png","70","70","test","1","103","103","5","",""
"null","705681","pSARL_v2","pSARL_v2z8u69r04","60ace56a83e45642b22d9954","freq_resp","img/green_2bandit_b.png","70","70","test","","","","5","",""
"null","705839","pSARL_v2","pSARL_v2z8u69r04","60ace56a83e45642b22d9954","fixation","img/fixation.png","null","","test","","","","","",""
"431.7000000476837","706275","pSARL_v2","pSARL_v2z8u69r04","60ace56a83e45642b22d9954","infreq","img/orange_2bandit_b2.png","68","68","test","1","104","104","5","",""
"null","706660","pSARL_v2","pSARL_v2z8u69r04","60ace56a83e45642b22d9954","infreq_resp","img/orange_2bandit_b.png","68","68","test","","","","5","",""
"null","706818","pSARL_v2","pSARL_v2z8u69r04","60ace56a83e45642b22d9954","fixation","img/fixation.png","null","","test","","","","","",""
"379.89999985694885","707202","pSARL_v2","pSARL_v2z8u69r04","60ace56a83e45642b22d9954","infreq","img/orange_2bandit_b2.png","68","68","test","1","105","105","5","",""
"null","707627","pSARL_v2","pSARL_v2z8u69r04","60ace56a83e45642b22d9954","infreq_resp","img/orange_2bandit_b.png","68","68","test","","","","5","",""
"null","707782","pSARL_v2","pSARL_v2z8u69r04","60ace56a83e45642b22d9954","fixation","img/fixation.png","null","","test","","","","","",""
"336.5","708122","pSARL_v2","pSARL_v2z8u69r04","60ace56a83e45642b22d9954","freq","img/green_2bandit_b2.png","68","70","test","0","106","106","5","",""
"null","708597","pSARL_v2","pSARL_v2z8u69r04","60ace56a83e45642b22d9954","freq_resp","img/green_2bandit_b.png","68","70","test","","","","5","",""
"null","708767","pSARL_v2","pSARL_v2z8u69r04","60ace56a83e45642b22d9954","fixation","img/fixation.png","null","","test","","","","","",""
"358.59999990463257","709130","pSARL_v2","pSARL_v2z8u69r04","60ace56a83e45642b22d9954","freq","img/green_2bandit_b2.png","70","70","test","1","107","107","5","",""
"null","709591","pSARL_v2","pSARL_v2z8u69r04","60ace56a83e45642b22d9954","freq_resp","img/green_2bandit_b.png","70","70","test","","","","5","",""
"null","709762","pSARL_v2","pSARL_v2z8u69r04","60ace56a83e45642b22d9954","fixation","img/fixation.png","null","","test","","","","","",""
"484.5","710256","pSARL_v2","pSARL_v2z8u69r04","60ace56a83e45642b22d9954","reward","img/slot.png","74","","test","","","","","",""
"null","711023","pSARL_v2","pSARL_v2z8u69r04","60ace56a83e45642b22d9954","points","<div class=""veryhighPoints""> +1 </div>","null","na","test","","","","5","1","4"
"null","711835","pSARL_v2","pSARL_v2z8u69r04","60ace56a83e45642b22d9954","freq","img/green_2bandit_b2.png","null","70","test","0","108","108","6","",""
"null","712002","pSARL_v2","pSARL_v2z8u69r04","60ace56a83e45642b22d9954","fixation","img/fixation.png","null","","test","","","","","",""
"null","712807","pSARL_v2","pSARL_v2z8u69r04","60ace56a83e45642b22d9954","infreq","img/orange_2bandit_b2.png","null","68","test","0","109","109","6","",""
"null","712968","pSARL_v2","pSARL_v2z8u69r04","60ace56a83e45642b22d9954","fixation","img/fixation.png","null","","test","","","","","",""
"622","713595","pSARL_v2","pSARL_v2z8u69r04","60ace56a83e45642b22d9954","freq","img/green_2bandit_b2.png","70","70","test","1","110","110","6","",""
"null","713793","pSARL_v2","pSARL_v2z8u69r04","60ace56a83e45642b22d9954","freq_resp","img/green_2bandit_b.png","70","70","test","","","","6","",""
"null","713964","pSARL_v2","pSARL_v2z8u69r04","60ace56a83e45642b22d9954","fixation","img/fixation.png","null","","test","","","","","",""
"386.7000000476837","714357","pSARL_v2","pSARL_v2z8u69r04","60ace56a83e45642b22d9954","freq","img/green_2bandit_b2.png","70","70","test","1","111","111","6","",""
"null","714790","pSARL_v2","pSARL_v2z8u69r04","60ace56a83e45642b22d9954","freq_resp","img/green_2bandit_b.png","70","70","test","","","","6","",""
"null","714960","pSARL_v2","pSARL_v2z8u69r04","60ace56a83e45642b22d9954","fixation","img/fixation.png","null","","test","","","","","",""
"139.90000009536743","715106","pSARL_v2","pSARL_v2z8u69r04","60ace56a83e45642b22d9954","freq","img/green_2bandit_b2.png","70","70","test","1","112","112","6","",""
"null","715782","pSARL_v2","pSARL_v2z8u69r04","60ace56a83e45642b22d9954","freq_resp","img/green_2bandit_b.png","70","70","test","","","","6","",""
"null","715938","pSARL_v2","pSARL_v2z8u69r04","60ace56a83e45642b22d9954","fixation","img/fixation.png","null","","test","","","","","",""
"261.59999990463257","716207","pSARL_v2","pSARL_v2z8u69r04","60ace56a83e45642b22d9954","freq","img/green_2bandit_b2.png","70","70","test","1","113","113","6","",""
"null","716761","pSARL_v2","pSARL_v2z8u69r04","60ace56a83e45642b22d9954","freq_resp","img/green_2bandit_b.png","70","70","test","","","","6","",""
"null","716919","pSARL_v2","pSARL_v2z8u69r04","60ace56a83e45642b22d9954","fixation","img/fixation.png","null","","test","","","","","",""
"336.2000000476837","717261","pSARL_v2","pSARL_v2z8u69r04","60ace56a83e45642b22d9954","freq","img/green_2bandit_b2.png","70","70","test","1","114","114","6","",""
"null","717741","pSARL_v2","pSARL_v2z8u69r04","60ace56a83e45642b22d9954","freq_resp","img/green_2bandit_b.png","70","70","test","","","","6","",""
"null","717895","pSARL_v2","pSARL_v2z8u69r04","60ace56a83e45642b22d9954","fixation","img/fixation.png","null","","test","","","","","",""
"399.60000014305115","718298","pSARL_v2","pSARL_v2z8u69r04","60ace56a83e45642b22d9954","freq","img/green_2bandit_b2.png","70","70","test","1","115","115","6","",""
"null","718708","pSARL_v2","pSARL_v2z8u69r04","60ace56a83e45642b22d9954","freq_resp","img/green_2bandit_b.png","70","70","test","","","","6","",""
"null","718879","pSARL_v2","pSARL_v2z8u69r04","60ace56a83e45642b22d9954","fixation","img/fixation.png","null","","test","","","","","",""
"487.09999990463257","719369","pSARL_v2","pSARL_v2z8u69r04","60ace56a83e45642b22d9954","freq","img/green_2bandit_b2.png","70","70","test","1","116","116","6","",""
"null","719701","pSARL_v2","pSARL_v2z8u69r04","60ace56a83e45642b22d9954","freq_resp","img/green_2bandit_b.png","70","70","test","","","","6","",""
"null","719854","pSARL_v2","pSARL_v2z8u69r04","60ace56a83e45642b22d9954","fixation","img/fixation.png","null","","test","","","","","",""
"608.0999999046326","720466","pSARL_v2","pSARL_v2z8u69r04","60ace56a83e45642b22d9954","freq","img/green_2bandit_b2.png","70","70","test","1","117","117","6","",""
"null","720669","pSARL_v2","pSARL_v2z8u69r04","60ace56a83e45642b22d9954","freq_resp","img/green_2bandit_b.png","70","70","test","","","","6","",""
"null","720823","pSARL_v2","pSARL_v2z8u69r04","60ace56a83e45642b22d9954","fixation","img/fixation.png","null","","test","","","","","",""
"438.59999990463257","721266","pSARL_v2","pSARL_v2z8u69r04","60ace56a83e45642b22d9954","freq","img/green_2bandit_b2.png","70","70","test","1","118","118","6","",""
"null","721633","pSARL_v2","pSARL_v2z8u69r04","60ace56a83e45642b22d9954","freq_resp","img/green_2bandit_b.png","70","70","test","","","","6","",""
"null","721787","pSARL_v2","pSARL_v2z8u69r04","60ace56a83e45642b22d9954","fixation","img/fixation.png","null","","test","","","","","",""
"491.2000000476837","722282","pSARL_v2","pSARL_v2z8u69r04","60ace56a83e45642b22d9954","freq","img/green_2bandit_b2.png","70","70","test","1","119","119","6","",""
"null","722598","pSARL_v2","pSARL_v2z8u69r04","60ace56a83e45642b22d9954","freq_resp","img/green_2bandit_b.png","70","70","test","","","","6","",""
"null","722756","pSARL_v2","pSARL_v2z8u69r04","60ace56a83e45642b22d9954","fixation","img/fixation.png","null","","test","","","","","",""
"346.89999985694885","723109","pSARL_v2","pSARL_v2z8u69r04","60ace56a83e45642b22d9954","freq","img/green_2bandit_b2.png","70","70","test","1","120","120","6","",""
"null","723576","pSARL_v2","pSARL_v2z8u69r04","60ace56a83e45642b22d9954","freq_resp","img/green_2bandit_b.png","70","70","test","","","","6","",""
"null","723736","pSARL_v2","pSARL_v2z8u69r04","60ace56a83e45642b22d9954","fixation","img/fixation.png","null","","test","","","","","",""
"391.5","724133","pSARL_v2","pSARL_v2z8u69r04","60ace56a83e45642b22d9954","infreq","img/orange_2bandit_b2.png","68","68","test","1","121","121","6","",""
"null","724556","pSARL_v2","pSARL_v2z8u69r04","60ace56a83e45642b22d9954","infreq_resp","img/orange_2bandit_b.png","68","68","test","","","","6","",""
"null","724715","pSARL_v2","pSARL_v2z8u69r04","60ace56a83e45642b22d9954","fixation","img/fixation.png","null","","test","","","","","",""
"338.60000014305115","725057","pSARL_v2","pSARL_v2z8u69r04","60ace56a83e45642b22d9954","infreq","img/orange_2bandit_b2.png","68","68","test","1","122","122","6","",""
"null","725521","pSARL_v2","pSARL_v2z8u69r04","60ace56a83e45642b22d9954","infreq_resp","img/orange_2bandit_b.png","68","68","test","","","","6","",""
"null","725676","pSARL_v2","pSARL_v2z8u69r04","60ace56a83e45642b22d9954","fixation","img/fixation.png","null","","test","","","","","",""
"378.30000019073486","726060","pSARL_v2","pSARL_v2z8u69r04","60ace56a83e45642b22d9954","freq","img/green_2bandit_b2.png","70","70","test","1","123","123","6","",""
"null","726499","pSARL_v2","pSARL_v2z8u69r04","60ace56a83e45642b22d9954","freq_resp","img/green_2bandit_b.png","70","70","test","","","","6","",""
"null","726654","pSARL_v2","pSARL_v2z8u69r04","60ace56a83e45642b22d9954","fixation","img/fixation.png","null","","test","","","","","",""
"320.90000009536743","726981","pSARL_v2","pSARL_v2z8u69r04","60ace56a83e45642b22d9954","freq","img/green_2bandit_b2.png","70","70","test","1","124","124","6","",""
"null","727464","pSARL_v2","pSARL_v2z8u69r04","60ace56a83e45642b22d9954","freq_resp","img/green_2bandit_b.png","70","70","test","","","","6","",""
"null","727623","pSARL_v2","pSARL_v2z8u69r04","60ace56a83e45642b22d9954","fixation","img/fixation.png","null","","test","","","","","",""
"328.7000000476837","727957","pSARL_v2","pSARL_v2z8u69r04","60ace56a83e45642b22d9954","freq","img/green_2bandit_b2.png","70","70","test","1","125","125","6","",""
"null","728445","pSARL_v2","pSARL_v2z8u69r04","60ace56a83e45642b22d9954","freq_resp","img/green_2bandit_b.png","70","70","test","","","","6","",""
"null","728601","pSARL_v2","pSARL_v2z8u69r04","60ace56a83e45642b22d9954","fixation","img/fixation.png","null","","test","","","","","",""
"317.69999980926514","728927","pSARL_v2","pSARL_v2z8u69r04","60ace56a83e45642b22d9954","freq","img/green_2bandit_b2.png","70","70","test","1","126","126","6","",""
"null","729426","pSARL_v2","pSARL_v2z8u69r04","60ace56a83e45642b22d9954","freq_resp","img/green_2bandit_b.png","70","70","test","","","","6","",""
"null","729596","pSARL_v2","pSARL_v2z8u69r04","60ace56a83e45642b22d9954","fixation","img/fixation.png","null","","test","","","","","",""
"370","729970","pSARL_v2","pSARL_v2z8u69r04","60ace56a83e45642b22d9954","freq","img/green_2bandit_b2.png","70","70","test","1","127","127","6","",""
"null","730413","pSARL_v2","pSARL_v2z8u69r04","60ace56a83e45642b22d9954","freq_resp","img/green_2bandit_b.png","70","70","test","","","","6","",""
"null","730581","pSARL_v2","pSARL_v2z8u69r04","60ace56a83e45642b22d9954","fixation","img/fixation.png","null","","test","","","","","",""
"497.90000009536743","731083","pSARL_v2","pSARL_v2z8u69r04","60ace56a83e45642b22d9954","reward","img/slot.png","74","","test","","","","","",""
"null","731843","pSARL_v2","pSARL_v2z8u69r04","60ace56a83e45642b22d9954","points","<div class=""verylowPoints""> -7 </div>","null","na","test","","","","6","-7","5"
"506.10000014305115","732354","pSARL_v2","pSARL_v2z8u69r04","60ace56a83e45642b22d9954","freq","img/green_2bandit_b2.png","70","70","test","1","128","128","7","",""
"null","732667","pSARL_v2","pSARL_v2z8u69r04","60ace56a83e45642b22d9954","freq_resp","img/green_2bandit_b.png","70","70","test","","","","7","",""
"null","732836","pSARL_v2","pSARL_v2z8u69r04","60ace56a83e45642b22d9954","fixation","img/fixation.png","null","","test","","","","","",""
"225.39999985694885","733065","pSARL_v2","pSARL_v2z8u69r04","60ace56a83e45642b22d9954","freq","img/green_2bandit_b2.png","70","70","test","1","129","129","7","",""
"null","733643","pSARL_v2","pSARL_v2z8u69r04","60ace56a83e45642b22d9954","freq_resp","img/green_2bandit_b.png","70","70","test","","","","7","",""
"null","733799","pSARL_v2","pSARL_v2z8u69r04","60ace56a83e45642b22d9954","fixation","img/fixation.png","null","","test","","","","","",""
"758.5","734560","pSARL_v2","pSARL_v2z8u69r04","60ace56a83e45642b22d9954","freq","img/green_2bandit_b2.png","70","70","test","1","130","130","7","",""
"null","734609","pSARL_v2","pSARL_v2z8u69r04","60ace56a83e45642b22d9954","freq_resp","img/green_2bandit_b.png","70","70","test","","","","7","",""
"null","734767","pSARL_v2","pSARL_v2z8u69r04","60ace56a83e45642b22d9954","fixation","img/fixation.png","null","","test","","","","","",""
"null","735573","pSARL_v2","pSARL_v2z8u69r04","60ace56a83e45642b22d9954","freq","img/green_2bandit_b2.png","null","70","test","0","131","131","7","",""
"null","735732","pSARL_v2","pSARL_v2z8u69r04","60ace56a83e45642b22d9954","fixation","img/fixation.png","null","","test","","","","","",""
"null","736539","pSARL_v2","pSARL_v2z8u69r04","60ace56a83e45642b22d9954","infreq","img/orange_2bandit_b2.png","null","68","test","0","132","132","7","",""
"null","736708","pSARL_v2","pSARL_v2z8u69r04","60ace56a83e45642b22d9954","fixation","img/fixation.png","null","","test","","","","","",""
"379.09999990463257","737093","pSARL_v2","pSARL_v2z8u69r04","60ace56a83e45642b22d9954","freq","img/green_2bandit_b2.png","70","70","test","1","133","133","7","",""
"null","737529","pSARL_v2","pSARL_v2z8u69r04","60ace56a83e45642b22d9954","freq_resp","img/green_2bandit_b.png","70","70","test","","","","7","",""
"null","737684","pSARL_v2","pSARL_v2z8u69r04","60ace56a83e45642b22d9954","fixation","img/fixation.png","null","","test","","","","","",""
"587.1000001430511","738277","pSARL_v2","pSARL_v2z8u69r04","60ace56a83e45642b22d9954","freq","img/green_2bandit_b2.png","70","70","test","1","134","134","7","",""
"null","738500","pSARL_v2","pSARL_v2z8u69r04","60ace56a83e45642b22d9954","freq_resp","img/green_2bandit_b.png","70","70","test","","","","7","",""
"null","738666","pSARL_v2","pSARL_v2z8u69r04","60ace56a83e45642b22d9954","fixation","img/fixation.png","null","","test","","","","","",""
"381.2000000476837","739054","pSARL_v2","pSARL_v2z8u69r04","60ace56a83e45642b22d9954","freq","img/green_2bandit_b2.png","70","70","test","1","135","135","7","",""
"null","739494","pSARL_v2","pSARL_v2z8u69r04","60ace56a83e45642b22d9954","freq_resp","img/green_2bandit_b.png","70","70","test","","","","7","",""
"null","739663","pSARL_v2","pSARL_v2z8u69r04","60ace56a83e45642b22d9954","fixation","img/fixation.png","null","","test","","","","","",""
"383.2999999523163","740049","pSARL_v2","pSARL_v2z8u69r04","60ace56a83e45642b22d9954","infreq","img/orange_2bandit_b2.png","68","68","test","1","136","136","7","",""
"null","740482","pSARL_v2","pSARL_v2z8u69r04","60ace56a83e45642b22d9954","infreq_resp","img/orange_2bandit_b.png","68","68","test","","","","7","",""
"null","740639","pSARL_v2","pSARL_v2z8u69r04","60ace56a83e45642b22d9954","fixation","img/fixation.png","null","","test","","","","","",""
"198.70000004768372","740842","pSARL_v2","pSARL_v2z8u69r04","60ace56a83e45642b22d9954","freq","img/green_2bandit_b2.png","70","70","test","1","137","137","7","",""
"null","741452","pSARL_v2","pSARL_v2z8u69r04","60ace56a83e45642b22d9954","freq_resp","img/green_2bandit_b.png","70","70","test","","","","7","",""
"null","741609","pSARL_v2","pSARL_v2z8u69r04","60ace56a83e45642b22d9954","fixation","img/fixation.png","null","","test","","","","","",""
"205.60000014305115","741819","pSARL_v2","pSARL_v2z8u69r04","60ace56a83e45642b22d9954","freq","img/green_2bandit_b2.png","70","70","test","1","138","138","7","",""
"null","742420","pSARL_v2","pSARL_v2z8u69r04","60ace56a83e45642b22d9954","freq_resp","img/green_2bandit_b.png","70","70","test","","","","7","",""
"null","742589","pSARL_v2","pSARL_v2z8u69r04","60ace56a83e45642b22d9954","fixation","img/fixation.png","null","","test","","","","","",""
"297.90000009536743","742893","pSARL_v2","pSARL_v2z8u69r04","60ace56a83e45642b22d9954","freq","img/green_2bandit_b2.png","70","70","test","1","139","139","7","",""
"null","743403","pSARL_v2","pSARL_v2z8u69r04","60ace56a83e45642b22d9954","freq_resp","img/green_2bandit_b.png","70","70","test","","","","7","",""
"null","743569","pSARL_v2","pSARL_v2z8u69r04","60ace56a83e45642b22d9954","fixation","img/fixation.png","null","","test","","","","","",""
"276.7999999523163","743850","pSARL_v2","pSARL_v2z8u69r04","60ace56a83e45642b22d9954","freq","img/green_2bandit_b2.png","70","70","test","1","140","140","7","",""
"null","744379","pSARL_v2","pSARL_v2z8u69r04","60ace56a83e45642b22d9954","freq_resp","img/green_2bandit_b.png","70","70","test","","","","7","",""
"null","744537","pSARL_v2","pSARL_v2z8u69r04","60ace56a83e45642b22d9954","fixation","img/fixation.png","null","","test","","","","","",""
"284.59999990463257","744829","pSARL_v2","pSARL_v2z8u69r04","60ace56a83e45642b22d9954","freq","img/green_2bandit_b2.png","70","70","test","1","141","141","7","",""
"null","745365","pSARL_v2","pSARL_v2z8u69r04","60ace56a83e45642b22d9954","freq_resp","img/green_2bandit_b.png","70","70","test","","","","7","",""
"null","745536","pSARL_v2","pSARL_v2z8u69r04","60ace56a83e45642b22d9954","fixation","img/fixation.png","null","","test","","","","","",""
"294","745837","pSARL_v2","pSARL_v2z8u69r04","60ace56a83e45642b22d9954","freq","img/green_2bandit_b2.png","70","70","test","1","142","142","7","",""
"null","746360","pSARL_v2","pSARL_v2z8u69r04","60ace56a83e45642b22d9954","freq_resp","img/green_2bandit_b.png","70","70","test","","","","7","",""
"null","746532","pSARL_v2","pSARL_v2z8u69r04","60ace56a83e45642b22d9954","fixation","img/fixation.png","null","","test","","","","","",""
"257.89999985694885","746796","pSARL_v2","pSARL_v2z8u69r04","60ace56a83e45642b22d9954","freq","img/green_2bandit_b2.png","70","70","test","1","143","143","7","",""
"null","747355","pSARL_v2","pSARL_v2z8u69r04","60ace56a83e45642b22d9954","freq_resp","img/green_2bandit_b.png","70","70","test","","","","7","",""
"null","747511","pSARL_v2","pSARL_v2z8u69r04","60ace56a83e45642b22d9954","fixation","img/fixation.png","null","","test","","","","","",""
"327.59999990463257","747844","pSARL_v2","pSARL_v2z8u69r04","60ace56a83e45642b22d9954","freq","img/green_2bandit_b2.png","70","70","test","1","144","144","7","",""
"null","748323","pSARL_v2","pSARL_v2z8u69r04","60ace56a83e45642b22d9954","freq_resp","img/green_2bandit_b.png","70","70","test","","","","7","",""
"null","748493","pSARL_v2","pSARL_v2z8u69r04","60ace56a83e45642b22d9954","fixation","img/fixation.png","null","","test","","","","","",""
"375.89999985694885","748873","pSARL_v2","pSARL_v2z8u69r04","60ace56a83e45642b22d9954","freq","img/green_2bandit_b2.png","70","70","test","1","145","145","7","",""
"null","749314","pSARL_v2","pSARL_v2z8u69r04","60ace56a83e45642b22d9954","freq_resp","img/green_2bandit_b.png","70","70","test","","","","7","",""
"null","749469","pSARL_v2","pSARL_v2z8u69r04","60ace56a83e45642b22d9954","fixation","img/fixation.png","null","","test","","","","","",""
"290.5","749764","pSARL_v2","pSARL_v2z8u69r04","60ace56a83e45642b22d9954","freq","img/green_2bandit_b2.png","70","70","test","1","146","146","7","",""
"null","750276","pSARL_v2","pSARL_v2z8u69r04","60ace56a83e45642b22d9954","freq_resp","img/green_2bandit_b.png","70","70","test","","","","7","",""
"null","750435","pSARL_v2","pSARL_v2z8u69r04","60ace56a83e45642b22d9954","fixation","img/fixation.png","null","","test","","","","","",""
"363.40000009536743","750803","pSARL_v2","pSARL_v2z8u69r04","60ace56a83e45642b22d9954","freq","img/green_2bandit_b2.png","70","70","test","1","147","147","7","",""
"null","751253","pSARL_v2","pSARL_v2z8u69r04","60ace56a83e45642b22d9954","freq_resp","img/green_2bandit_b.png","70","70","test","","","","7","",""
"null","751425","pSARL_v2","pSARL_v2z8u69r04","60ace56a83e45642b22d9954","fixation","img/fixation.png","null","","test","","","","","",""
"340.5","751770","pSARL_v2","pSARL_v2z8u69r04","60ace56a83e45642b22d9954","freq","img/green_2bandit_b2.png","70","70","test","1","148","148","7","",""
"null","752249","pSARL_v2","pSARL_v2z8u69r04","60ace56a83e45642b22d9954","freq_resp","img/green_2bandit_b.png","70","70","test","","","","7","",""
"null","752420","pSARL_v2","pSARL_v2z8u69r04","60ace56a83e45642b22d9954","fixation","img/fixation.png","null","","test","","","","","",""
"467.2000000476837","752894","pSARL_v2","pSARL_v2z8u69r04","60ace56a83e45642b22d9954","reward","img/slot.png","74","","test","","","","","",""
"null","753654","pSARL_v2","pSARL_v2z8u69r04","60ace56a83e45642b22d9954","points","<div class=""verylowPoints""> -6 </div>","null","na","test","","","","7","-6","6"
"471.2000000476837","754129","pSARL_v2","pSARL_v2z8u69r04","60ace56a83e45642b22d9954","freq","img/green_2bandit_b2.png","70","70","test","1","149","149","8","",""
"null","754474","pSARL_v2","pSARL_v2z8u69r04","60ace56a83e45642b22d9954","freq_resp","img/green_2bandit_b.png","70","70","test","","","","8","",""
"null","754631","pSARL_v2","pSARL_v2z8u69r04","60ace56a83e45642b22d9954","fixation","img/fixation.png","null","","test","","","","","",""
"255.19999980926514","754892","pSARL_v2","pSARL_v2z8u69r04","60ace56a83e45642b22d9954","freq","img/green_2bandit_b2.png","70","70","test","1","150","150","8","",""
"null","755453","pSARL_v2","pSARL_v2z8u69r04","60ace56a83e45642b22d9954","freq_resp","img/green_2bandit_b.png","70","70","test","","","","8","",""
"null","755613","pSARL_v2","pSARL_v2z8u69r04","60ace56a83e45642b22d9954","fixation","img/fixation.png","null","","test","","","","","",""
"250.09999990463257","755869","pSARL_v2","pSARL_v2z8u69r04","60ace56a83e45642b22d9954","freq","img/green_2bandit_b2.png","70","70","test","1","151","151","8","",""
"null","756435","pSARL_v2","pSARL_v2z8u69r04","60ace56a83e45642b22d9954","freq_resp","img/green_2bandit_b.png","70","70","test","","","","8","",""
"null","756593","pSARL_v2","pSARL_v2z8u69r04","60ace56a83e45642b22d9954","fixation","img/fixation.png","null","","test","","","","","",""
"252.90000009536743","756855","pSARL_v2","pSARL_v2z8u69r04","60ace56a83e45642b22d9954","freq","img/green_2bandit_b2.png","70","70","test","1","152","152","8","",""
"null","757412","pSARL_v2","pSARL_v2z8u69r04","60ace56a83e45642b22d9954","freq_resp","img/green_2bandit_b.png","70","70","test","","","","8","",""
"null","757568","pSARL_v2","pSARL_v2z8u69r04","60ace56a83e45642b22d9954","fixation","img/fixation.png","null","","test","","","","","",""
"309.7999999523163","757881","pSARL_v2","pSARL_v2z8u69r04","60ace56a83e45642b22d9954","freq","img/green_2bandit_b2.png","70","70","test","1","153","153","8","",""
"null","758376","pSARL_v2","pSARL_v2z8u69r04","60ace56a83e45642b22d9954","freq_resp","img/green_2bandit_b.png","70","70","test","","","","8","",""
"null","758533","pSARL_v2","pSARL_v2z8u69r04","60ace56a83e45642b22d9954","fixation","img/fixation.png","null","","test","","","","","",""
"328.2999999523163","758866","pSARL_v2","pSARL_v2z8u69r04","60ace56a83e45642b22d9954","freq","img/green_2bandit_b2.png","70","70","test","1","154","154","8","",""
"null","759341","pSARL_v2","pSARL_v2z8u69r04","60ace56a83e45642b22d9954","freq_resp","img/green_2bandit_b.png","70","70","test","","","","8","",""
"null","759498","pSARL_v2","pSARL_v2z8u69r04","60ace56a83e45642b22d9954","fixation","img/fixation.png","null","","test","","","","","",""
"355.10000014305115","759857","pSARL_v2","pSARL_v2z8u69r04","60ace56a83e45642b22d9954","freq","img/green_2bandit_b2.png","70","70","test","1","155","155","8","",""
"null","760309","pSARL_v2","pSARL_v2z8u69r04","60ace56a83e45642b22d9954","freq_resp","img/green_2bandit_b.png","70","70","test","","","","8","",""
"null","760479","pSARL_v2","pSARL_v2z8u69r04","60ace56a83e45642b22d9954","fixation","img/fixation.png","null","","test","","","","","",""
"358.69999980926514","760842","pSARL_v2","pSARL_v2z8u69r04","60ace56a83e45642b22d9954","freq","img/green_2bandit_b2.png","70","70","test","1","156","156","8","",""
"null","761303","pSARL_v2","pSARL_v2z8u69r04","60ace56a83e45642b22d9954","freq_resp","img/green_2bandit_b.png","70","70","test","","","","8","",""
"null","761460","pSARL_v2","pSARL_v2z8u69r04","60ace56a83e45642b22d9954","fixation","img/fixation.png","null","","test","","","","","",""
"298.59999990463257","761764","pSARL_v2","pSARL_v2z8u69r04","60ace56a83e45642b22d9954","freq","img/green_2bandit_b2.png","70","70","test","1","157","157","8","",""
"null","762279","pSARL_v2","pSARL_v2z8u69r04","60ace56a83e45642b22d9954","freq_resp","img/green_2bandit_b.png","70","70","test","","","","8","",""
"null","762449","pSARL_v2","pSARL_v2z8u69r04","60ace56a83e45642b22d9954","fixation","img/fixation.png","null","","test","","","","","",""
"412.60000014305115","762868","pSARL_v2","pSARL_v2z8u69r04","60ace56a83e45642b22d9954","infreq","img/orange_2bandit_b2.png","68","68","test","1","158","158","8","",""
"null","763273","pSARL_v2","pSARL_v2z8u69r04","60ace56a83e45642b22d9954","infreq_resp","img/orange_2bandit_b.png","68","68","test","","","","8","",""
"null","763428","pSARL_v2","pSARL_v2z8u69r04","60ace56a83e45642b22d9954","fixation","img/fixation.png","null","","test","","","","","",""
"441.19999980926514","763874","pSARL_v2","pSARL_v2z8u69r04","60ace56a83e45642b22d9954","freq","img/green_2bandit_b2.png","70","70","test","1","159","159","8","",""
"null","764239","pSARL_v2","pSARL_v2z8u69r04","60ace56a83e45642b22d9954","freq_resp","img/green_2bandit_b.png","70","70","test","","","","8","",""
"null","764410","pSARL_v2","pSARL_v2z8u69r04","60ace56a83e45642b22d9954","fixation","img/fixation.png","null","","test","","","","","",""
"338.09999990463257","764753","pSARL_v2","pSARL_v2z8u69r04","60ace56a83e45642b22d9954","freq","img/green_2bandit_b2.png","70","70","test","1","160","160","8","",""
"null","765220","pSARL_v2","pSARL_v2z8u69r04","60ace56a83e45642b22d9954","freq_resp","img/green_2bandit_b.png","70","70","test","","","","8","",""
"null","765379","pSARL_v2","pSARL_v2z8u69r04","60ace56a83e45642b22d9954","fixation","img/fixation.png","null","","test","","","","","",""
"329.60000014305115","765714","pSARL_v2","pSARL_v2z8u69r04","60ace56a83e45642b22d9954","freq","img/green_2bandit_b2.png","70","70","test","1","161","161","8","",""
"null","766203","pSARL_v2","pSARL_v2z8u69r04","60ace56a83e45642b22d9954","freq_resp","img/green_2bandit_b.png","70","70","test","","","","8","",""
"null","766376","pSARL_v2","pSARL_v2z8u69r04","60ace56a83e45642b22d9954","fixation","img/fixation.png","null","","test","","","","","",""
"301.40000009536743","766682","pSARL_v2","pSARL_v2z8u69r04","60ace56a83e45642b22d9954","freq","img/green_2bandit_b2.png","70","70","test","1","162","162","8","",""
"null","767197","pSARL_v2","pSARL_v2z8u69r04","60ace56a83e45642b22d9954","freq_resp","img/green_2bandit_b.png","70","70","test","","","","8","",""
"null","767352","pSARL_v2","pSARL_v2z8u69r04","60ace56a83e45642b22d9954","fixation","img/fixation.png","null","","test","","","","","",""
"302.2999999523163","767661","pSARL_v2","pSARL_v2z8u69r04","60ace56a83e45642b22d9954","freq","img/green_2bandit_b2.png","70","70","test","1","163","163","8","",""
"null","768177","pSARL_v2","pSARL_v2z8u69r04","60ace56a83e45642b22d9954","freq_resp","img/green_2bandit_b.png","70","70","test","","","","8","",""
"null","768334","pSARL_v2","pSARL_v2z8u69r04","60ace56a83e45642b22d9954","fixation","img/fixation.png","null","","test","","","","","",""
"311.90000009536743","768652","pSARL_v2","pSARL_v2z8u69r04","60ace56a83e45642b22d9954","freq","img/green_2bandit_b2.png","70","70","test","1","164","164","8","",""
"null","769153","pSARL_v2","pSARL_v2z8u69r04","60ace56a83e45642b22d9954","freq_resp","img/green_2bandit_b.png","70","70","test","","","","8","",""
"null","769310","pSARL_v2","pSARL_v2z8u69r04","60ace56a83e45642b22d9954","fixation","img/fixation.png","null","","test","","","","","",""
"288.2999999523163","769602","pSARL_v2","pSARL_v2z8u69r04","60ace56a83e45642b22d9954","freq","img/green_2bandit_b2.png","70","70","test","1","165","165","8","",""
"null","770121","pSARL_v2","pSARL_v2z8u69r04","60ace56a83e45642b22d9954","freq_resp","img/green_2bandit_b.png","70","70","test","","","","8","",""
"null","770277","pSARL_v2","pSARL_v2z8u69r04","60ace56a83e45642b22d9954","fixation","img/fixation.png","null","","test","","","","","",""
"312.30000019073486","770594","pSARL_v2","pSARL_v2z8u69r04","60ace56a83e45642b22d9954","freq","img/green_2bandit_b2.png","70","70","test","1","166","166","8","",""
"null","771089","pSARL_v2","pSARL_v2z8u69r04","60ace56a83e45642b22d9954","freq_resp","img/green_2bandit_b.png","70","70","test","","","","8","",""
"null","771261","pSARL_v2","pSARL_v2z8u69r04","60ace56a83e45642b22d9954","fixation","img/fixation.png","null","","test","","","","","",""
"457.2999999523163","771724","pSARL_v2","pSARL_v2z8u69r04","60ace56a83e45642b22d9954","freq","img/green_2bandit_b2.png","70","70","test","1","167","167","8","",""
"null","772086","pSARL_v2","pSARL_v2z8u69r04","60ace56a83e45642b22d9954","freq_resp","img/green_2bandit_b.png","70","70","test","","","","8","",""
"null","772257","pSARL_v2","pSARL_v2z8u69r04","60ace56a83e45642b22d9954","fixation","img/fixation.png","null","","test","","","","","",""
"477.7000000476837","772740","pSARL_v2","pSARL_v2z8u69r04","60ace56a83e45642b22d9954","freq","img/green_2bandit_b2.png","70","70","test","1","168","168","8","",""
"null","773068","pSARL_v2","pSARL_v2z8u69r04","60ace56a83e45642b22d9954","freq_resp","img/green_2bandit_b.png","70","70","test","","","","8","",""
"null","773223","pSARL_v2","pSARL_v2z8u69r04","60ace56a83e45642b22d9954","fixation","img/fixation.png","null","","test","","","","","",""
"334.40000009536743","773561","pSARL_v2","pSARL_v2z8u69r04","60ace56a83e45642b22d9954","freq","img/green_2bandit_b2.png","70","70","test","1","169","169","8","",""
"null","774036","pSARL_v2","pSARL_v2z8u69r04","60ace56a83e45642b22d9954","freq_resp","img/green_2bandit_b.png","70","70","test","","","","8","",""
"null","774193","pSARL_v2","pSARL_v2z8u69r04","60ace56a83e45642b22d9954","fixation","img/fixation.png","null","","test","","","","","",""
"413.09999990463257","774610","pSARL_v2","pSARL_v2z8u69r04","60ace56a83e45642b22d9954","infreq","img/orange_2bandit_b2.png","68","68","test","1","170","170","8","",""
"null","775015","pSARL_v2","pSARL_v2z8u69r04","60ace56a83e45642b22d9954","infreq_resp","img/orange_2bandit_b.png","68","68","test","","","","8","",""
"null","775172","pSARL_v2","pSARL_v2z8u69r04","60ace56a83e45642b22d9954","fixation","img/fixation.png","null","","test","","","","","",""
"321.2999999523163","775498","pSARL_v2","pSARL_v2z8u69r04","60ace56a83e45642b22d9954","freq","img/green_2bandit_b2.png","70","70","test","1","171","171","8","",""
"null","775996","pSARL_v2","pSARL_v2z8u69r04","60ace56a83e45642b22d9954","freq_resp","img/green_2bandit_b.png","70","70","test","","","","8","",""
"null","776169","pSARL_v2","pSARL_v2z8u69r04","60ace56a83e45642b22d9954","fixation","img/fixation.png","null","","test","","","","","",""
"292.89999985694885","776469","pSARL_v2","pSARL_v2z8u69r04","60ace56a83e45642b22d9954","freq","img/green_2bandit_b2.png","70","70","test","1","172","172","8","",""
"null","776993","pSARL_v2","pSARL_v2z8u69r04","60ace56a83e45642b22d9954","freq_resp","img/green_2bandit_b.png","70","70","test","","","","8","",""
"null","777147","pSARL_v2","pSARL_v2z8u69r04","60ace56a83e45642b22d9954","fixation","img/fixation.png","null","","test","","","","","",""
"210.5","777361","pSARL_v2","pSARL_v2z8u69r04","60ace56a83e45642b22d9954","freq","img/green_2bandit_b2.png","70","70","test","1","173","173","8","",""
"null","777972","pSARL_v2","pSARL_v2z8u69r04","60ace56a83e45642b22d9954","freq_resp","img/green_2bandit_b.png","70","70","test","","","","8","",""
"null","778140","pSARL_v2","pSARL_v2z8u69r04","60ace56a83e45642b22d9954","fixation","img/fixation.png","null","","test","","","","","",""
"410.7000000476837","778555","pSARL_v2","pSARL_v2z8u69r04","60ace56a83e45642b22d9954","reward","img/slot.png","74","","test","","","","","",""
"null","779322","pSARL_v2","pSARL_v2z8u69r04","60ace56a83e45642b22d9954","points","<div class=""verylowPoints""> -4 </div>","null","na","test","","","","8","-4","7"
"460.5","779791","pSARL_v2","pSARL_v2z8u69r04","60ace56a83e45642b22d9954","freq","img/green_2bandit_b2.png","70","70","test","1","174","174","9","",""
"null","780152","pSARL_v2","pSARL_v2z8u69r04","60ace56a83e45642b22d9954","freq_resp","img/green_2bandit_b.png","70","70","test","","","","9","",""
"null","780326","pSARL_v2","pSARL_v2z8u69r04","60ace56a83e45642b22d9954","fixation","img/fixation.png","null","","test","","","","","",""
"297.2999999523163","780630","pSARL_v2","pSARL_v2z8u69r04","60ace56a83e45642b22d9954","freq","img/green_2bandit_b2.png","70","70","test","1","175","175","9","",""
"null","781151","pSARL_v2","pSARL_v2z8u69r04","60ace56a83e45642b22d9954","freq_resp","img/green_2bandit_b.png","70","70","test","","","","9","",""
"null","781307","pSARL_v2","pSARL_v2z8u69r04","60ace56a83e45642b22d9954","fixation","img/fixation.png","null","","test","","","","","",""
"474.7999999523163","781786","pSARL_v2","pSARL_v2z8u69r04","60ace56a83e45642b22d9954","infreq","img/orange_2bandit_b2.png","68","68","test","1","176","176","9","",""
"null","782130","pSARL_v2","pSARL_v2z8u69r04","60ace56a83e45642b22d9954","infreq_resp","img/orange_2bandit_b.png","68","68","test","","","","9","",""
"null","782288","pSARL_v2","pSARL_v2z8u69r04","60ace56a83e45642b22d9954","fixation","img/fixation.png","null","","test","","","","","",""
"381.5","782674","pSARL_v2","pSARL_v2z8u69r04","60ace56a83e45642b22d9954","freq","img/green_2bandit_b2.png","70","70","test","1","177","177","9","",""
"null","783110","pSARL_v2","pSARL_v2z8u69r04","60ace56a83e45642b22d9954","freq_resp","img/green_2bandit_b.png","70","70","test","","","","9","",""
"null","783263","pSARL_v2","pSARL_v2z8u69r04","60ace56a83e45642b22d9954","fixation","img/fixation.png","null","","test","","","","","",""
"222.79999995231628","783490","pSARL_v2","pSARL_v2z8u69r04","60ace56a83e45642b22d9954","freq","img/green_2bandit_b2.png","70","70","test","1","178","178","9","",""
"null","784080","pSARL_v2","pSARL_v2z8u69r04","60ace56a83e45642b22d9954","freq_resp","img/green_2bandit_b.png","70","70","test","","","","9","",""
"null","784238","pSARL_v2","pSARL_v2z8u69r04","60ace56a83e45642b22d9954","fixation","img/fixation.png","null","","test","","","","","",""
"320.2000000476837","784568","pSARL_v2","pSARL_v2z8u69r04","60ace56a83e45642b22d9954","freq","img/green_2bandit_b2.png","70","70","test","1","179","179","9","",""
"null","785058","pSARL_v2","pSARL_v2z8u69r04","60ace56a83e45642b22d9954","freq_resp","img/green_2bandit_b.png","70","70","test","","","","9","",""
"null","785214","pSARL_v2","pSARL_v2z8u69r04","60ace56a83e45642b22d9954","fixation","img/fixation.png","null","","test","","","","","",""
"431.5","785649","pSARL_v2","pSARL_v2z8u69r04","60ace56a83e45642b22d9954","infreq","img/orange_2bandit_b2.png","68","68","test","1","180","180","9","",""
"null","786025","pSARL_v2","pSARL_v2z8u69r04","60ace56a83e45642b22d9954","infreq_resp","img/orange_2bandit_b.png","68","68","test","","","","9","",""
"null","786182","pSARL_v2","pSARL_v2z8u69r04","60ace56a83e45642b22d9954","fixation","img/fixation.png","null","","test","","","","","",""
"320.90000009536743","786510","pSARL_v2","pSARL_v2z8u69r04","60ace56a83e45642b22d9954","freq","img/green_2bandit_b2.png","70","70","test","1","181","181","9","",""
"null","787008","pSARL_v2","pSARL_v2z8u69r04","60ace56a83e45642b22d9954","freq_resp","img/green_2bandit_b.png","70","70","test","","","","9","",""
"null","787163","pSARL_v2","pSARL_v2z8u69r04","60ace56a83e45642b22d9954","fixation","img/fixation.png","null","","test","","","","","",""
"578.0999999046326","787744","pSARL_v2","pSARL_v2z8u69r04","60ace56a83e45642b22d9954","freq","img/green_2bandit_b2.png","70","70","test","1","182","182","9","",""
"null","787970","pSARL_v2","pSARL_v2z8u69r04","60ace56a83e45642b22d9954","freq_resp","img/green_2bandit_b.png","70","70","test","","","","9","",""
"null","788127","pSARL_v2","pSARL_v2z8u69r04","60ace56a83e45642b22d9954","fixation","img/fixation.png","null","","test","","","","","",""
"414.7999999523163","788544","pSARL_v2","pSARL_v2z8u69r04","60ace56a83e45642b22d9954","infreq","img/orange_2bandit_b2.png","68","68","test","1","183","183","9","",""
"null","788933","pSARL_v2","pSARL_v2z8u69r04","60ace56a83e45642b22d9954","infreq_resp","img/orange_2bandit_b.png","68","68","test","","","","9","",""
"null","789091","pSARL_v2","pSARL_v2z8u69r04","60ace56a83e45642b22d9954","fixation","img/fixation.png","null","","test","","","","","",""
"364.10000014305115","789461","pSARL_v2","pSARL_v2z8u69r04","60ace56a83e45642b22d9954","freq","img/green_2bandit_b2.png","70","70","test","1","184","184","9","",""
"null","789916","pSARL_v2","pSARL_v2z8u69r04","60ace56a83e45642b22d9954","freq_resp","img/green_2bandit_b.png","70","70","test","","","","9","",""
"null","790087","pSARL_v2","pSARL_v2z8u69r04","60ace56a83e45642b22d9954","fixation","img/fixation.png","null","","test","","","","","",""
"366.90000009536743","790460","pSARL_v2","pSARL_v2z8u69r04","60ace56a83e45642b22d9954","freq","img/green_2bandit_b2.png","70","70","test","1","185","185","9","",""
"null","790898","pSARL_v2","pSARL_v2z8u69r04","60ace56a83e45642b22d9954","freq_resp","img/green_2bandit_b.png","70","70","test","","","","9","",""
"null","791054","pSARL_v2","pSARL_v2z8u69r04","60ace56a83e45642b22d9954","fixation","img/fixation.png","null","","test","","","","","",""
"367.7999999523163","791427","pSARL_v2","pSARL_v2z8u69r04","60ace56a83e45642b22d9954","freq","img/green_2bandit_b2.png","68","70","test","0","186","186","9","",""
"null","791879","pSARL_v2","pSARL_v2z8u69r04","60ace56a83e45642b22d9954","freq_resp","img/green_2bandit_b.png","68","70","test","","","","9","",""
"null","792051","pSARL_v2","pSARL_v2z8u69r04","60ace56a83e45642b22d9954","fixation","img/fixation.png","null","","test","","","","","",""
"236.10000014305115","792295","pSARL_v2","pSARL_v2z8u69r04","60ace56a83e45642b22d9954","freq","img/green_2bandit_b2.png","70","70","test","1","187","187","9","",""
"null","792874","pSARL_v2","pSARL_v2z8u69r04","60ace56a83e45642b22d9954","freq_resp","img/green_2bandit_b.png","70","70","test","","","","9","",""
"null","793031","pSARL_v2","pSARL_v2z8u69r04","60ace56a83e45642b22d9954","fixation","img/fixation.png","null","","test","","","","","",""
"208.5","793246","pSARL_v2","pSARL_v2z8u69r04","60ace56a83e45642b22d9954","freq","img/green_2bandit_b2.png","70","70","test","1","188","188","9","",""
"null","793856","pSARL_v2","pSARL_v2z8u69r04","60ace56a83e45642b22d9954","freq_resp","img/green_2bandit_b.png","70","70","test","","","","9","",""
"null","794026","pSARL_v2","pSARL_v2z8u69r04","60ace56a83e45642b22d9954","fixation","img/fixation.png","null","","test","","","","","",""
"148","794180","pSARL_v2","pSARL_v2z8u69r04","60ace56a83e45642b22d9954","freq","img/green_2bandit_b2.png","70","70","test","1","189","189","9","",""
"null","794847","pSARL_v2","pSARL_v2z8u69r04","60ace56a83e45642b22d9954","freq_resp","img/green_2bandit_b.png","70","70","test","","","","9","",""
"null","795005","pSARL_v2","pSARL_v2z8u69r04","60ace56a83e45642b22d9954","fixation","img/fixation.png","null","","test","","","","","",""
"161.10000014305115","795170","pSARL_v2","pSARL_v2z8u69r04","60ace56a83e45642b22d9954","freq","img/green_2bandit_b2.png","70","70","test","1","190","190","9","",""
"null","795823","pSARL_v2","pSARL_v2z8u69r04","60ace56a83e45642b22d9954","freq_resp","img/green_2bandit_b.png","70","70","test","","","","9","",""
"null","795980","pSARL_v2","pSARL_v2z8u69r04","60ace56a83e45642b22d9954","fixation","img/fixation.png","null","","test","","","","","",""
"307.89999985694885","796294","pSARL_v2","pSARL_v2z8u69r04","60ace56a83e45642b22d9954","freq","img/green_2bandit_b2.png","70","70","test","1","191","191","9","",""
"null","796803","pSARL_v2","pSARL_v2z8u69r04","60ace56a83e45642b22d9954","freq_resp","img/green_2bandit_b.png","70","70","test","","","","9","",""
"null","796958","pSARL_v2","pSARL_v2z8u69r04","60ace56a83e45642b22d9954","fixation","img/fixation.png","null","","test","","","","","",""
"241.29999995231628","797206","pSARL_v2","pSARL_v2z8u69r04","60ace56a83e45642b22d9954","freq","img/green_2bandit_b2.png","70","70","test","1","192","192","9","",""
"null","797769","pSARL_v2","pSARL_v2z8u69r04","60ace56a83e45642b22d9954","freq_resp","img/green_2bandit_b.png","70","70","test","","","","9","",""
"null","797926","pSARL_v2","pSARL_v2z8u69r04","60ace56a83e45642b22d9954","fixation","img/fixation.png","null","","test","","","","","",""
"384.7999999523163","798317","pSARL_v2","pSARL_v2z8u69r04","60ace56a83e45642b22d9954","freq","img/green_2bandit_b2.png","70","70","test","1","193","193","9","",""
"null","798739","pSARL_v2","pSARL_v2z8u69r04","60ace56a83e45642b22d9954","freq_resp","img/green_2bandit_b.png","70","70","test","","","","9","",""
"null","798893","pSARL_v2","pSARL_v2z8u69r04","60ace56a83e45642b22d9954","fixation","img/fixation.png","null","","test","","","","","",""
"481","799378","pSARL_v2","pSARL_v2z8u69r04","60ace56a83e45642b22d9954","freq","img/green_2bandit_b2.png","70","70","test","1","194","194","9","",""
"null","799702","pSARL_v2","pSARL_v2z8u69r04","60ace56a83e45642b22d9954","freq_resp","img/green_2bandit_b.png","70","70","test","","","","9","",""
"null","799858","pSARL_v2","pSARL_v2z8u69r04","60ace56a83e45642b22d9954","fixation","img/fixation.png","null","","test","","","","","",""
"461.5","800325","pSARL_v2","pSARL_v2z8u69r04","60ace56a83e45642b22d9954","freq","img/green_2bandit_b2.png","70","70","test","1","195","195","9","",""
"null","800685","pSARL_v2","pSARL_v2z8u69r04","60ace56a83e45642b22d9954","freq_resp","img/green_2bandit_b.png","70","70","test","","","","9","",""
"null","800853","pSARL_v2","pSARL_v2z8u69r04","60ace56a83e45642b22d9954","fixation","img/fixation.png","null","","test","","","","","",""
"425.5","801283","pSARL_v2","pSARL_v2z8u69r04","60ace56a83e45642b22d9954","freq","img/green_2bandit_b2.png","70","70","test","1","196","196","9","",""
"null","801665","pSARL_v2","pSARL_v2z8u69r04","60ace56a83e45642b22d9954","freq_resp","img/green_2bandit_b.png","70","70","test","","","","9","",""
"null","801837","pSARL_v2","pSARL_v2z8u69r04","60ace56a83e45642b22d9954","fixation","img/fixation.png","null","","test","","","","","",""
"825","802666","pSARL_v2","pSARL_v2z8u69r04","60ace56a83e45642b22d9954","reward","img/slot.png","74","","test","","","","","",""
"null","803434","pSARL_v2","pSARL_v2z8u69r04","60ace56a83e45642b22d9954","points","<div class=""verylowPoints""> -3 </div>","null","na","test","","","","9","-3","8"
"291.59999990463257","803730","pSARL_v2","pSARL_v2z8u69r04","60ace56a83e45642b22d9954","freq","img/green_2bandit_b2.png","70","70","test","1","197","197","10","",""
"null","804246","pSARL_v2","pSARL_v2z8u69r04","60ace56a83e45642b22d9954","freq_resp","img/green_2bandit_b.png","70","70","test","","","","10","",""
"null","804405","pSARL_v2","pSARL_v2z8u69r04","60ace56a83e45642b22d9954","fixation","img/fixation.png","null","","test","","","","","",""
"120.79999995231628","804532","pSARL_v2","pSARL_v2z8u69r04","60ace56a83e45642b22d9954","freq","img/green_2bandit_b2.png","70","70","test","1","198","198","10","",""
"null","805227","pSARL_v2","pSARL_v2z8u69r04","60ace56a83e45642b22d9954","freq_resp","img/green_2bandit_b.png","70","70","test","","","","10","",""
"null","805384","pSARL_v2","pSARL_v2z8u69r04","60ace56a83e45642b22d9954","fixation","img/fixation.png","null","","test","","","","","",""
"104","805492","pSARL_v2","pSARL_v2z8u69r04","60ace56a83e45642b22d9954","freq","img/green_2bandit_b2.png","70","70","test","1","199","199","10","",""
"null","806192","pSARL_v2","pSARL_v2z8u69r04","60ace56a83e45642b22d9954","freq_resp","img/green_2bandit_b.png","70","70","test","","","","10","",""
"null","806365","pSARL_v2","pSARL_v2z8u69r04","60ace56a83e45642b22d9954","fixation","img/fixation.png","null","","test","","","","","",""
"472.39999985694885","806840","pSARL_v2","pSARL_v2z8u69r04","60ace56a83e45642b22d9954","freq","img/green_2bandit_b2.png","70","70","test","1","200","200","10","",""
"null","807176","pSARL_v2","pSARL_v2z8u69r04","60ace56a83e45642b22d9954","freq_resp","img/green_2bandit_b.png","70","70","test","","","","10","",""
"null","807346","pSARL_v2","pSARL_v2z8u69r04","60ace56a83e45642b22d9954","fixation","img/fixation.png","null","","test","","","","","",""
"717.0999999046326","808065","pSARL_v2","pSARL_v2z8u69r04","60ace56a83e45642b22d9954","freq","img/green_2bandit_b2.png","70","70","test","1","201","201","10","",""
"null","808158","pSARL_v2","pSARL_v2z8u69r04","60ace56a83e45642b22d9954","freq_resp","img/green_2bandit_b.png","70","70","test","","","","10","",""
"null","808327","pSARL_v2","pSARL_v2z8u69r04","60ace56a83e45642b22d9954","fixation","img/fixation.png","null","","test","","","","","",""
"null","809143","pSARL_v2","pSARL_v2z8u69r04","60ace56a83e45642b22d9954","freq","img/green_2bandit_b2.png","null","70","test","0","202","202","10","",""
"null","809311","pSARL_v2","pSARL_v2z8u69r04","60ace56a83e45642b22d9954","fixation","img/fixation.png","null","","test","","","","","",""
"543.8999998569489","809860","pSARL_v2","pSARL_v2z8u69r04","60ace56a83e45642b22d9954","freq","img/green_2bandit_b2.png","70","70","test","1","203","203","10","",""
"null","810123","pSARL_v2","pSARL_v2z8u69r04","60ace56a83e45642b22d9954","freq_resp","img/green_2bandit_b.png","70","70","test","","","","10","",""
"null","810277","pSARL_v2","pSARL_v2z8u69r04","60ace56a83e45642b22d9954","fixation","img/fixation.png","null","","test","","","","","",""
"321.59999990463257","810602","pSARL_v2","pSARL_v2z8u69r04","60ace56a83e45642b22d9954","freq","img/green_2bandit_b2.png","70","70","test","1","204","204","10","",""
"null","811100","pSARL_v2","pSARL_v2z8u69r04","60ace56a83e45642b22d9954","freq_resp","img/green_2bandit_b.png","70","70","test","","","","10","",""
"null","811255","pSARL_v2","pSARL_v2z8u69r04","60ace56a83e45642b22d9954","fixation","img/fixation.png","null","","test","","","","","",""
"303.5","811563","pSARL_v2","pSARL_v2z8u69r04","60ace56a83e45642b22d9954","freq","img/green_2bandit_b2.png","70","70","test","1","205","205","10","",""
"null","812067","pSARL_v2","pSARL_v2z8u69r04","60ace56a83e45642b22d9954","freq_resp","img/green_2bandit_b.png","70","70","test","","","","10","",""
"null","812238","pSARL_v2","pSARL_v2z8u69r04","60ace56a83e45642b22d9954","fixation","img/fixation.png","null","","test","","","","","",""
"184.59999990463257","812426","pSARL_v2","pSARL_v2z8u69r04","60ace56a83e45642b22d9954","freq","img/green_2bandit_b2.png","70","70","test","1","206","206","10","",""
"null","813060","pSARL_v2","pSARL_v2z8u69r04","60ace56a83e45642b22d9954","freq_resp","img/green_2bandit_b.png","70","70","test","","","","10","",""
"null","813214","pSARL_v2","pSARL_v2z8u69r04","60ace56a83e45642b22d9954","fixation","img/fixation.png","null","","test","","","","","",""
"289.5","813510","pSARL_v2","pSARL_v2z8u69r04","60ace56a83e45642b22d9954","freq","img/green_2bandit_b2.png","70","70","test","1","207","207","10","",""
"null","814027","pSARL_v2","pSARL_v2z8u69r04","60ace56a83e45642b22d9954","freq_resp","img/green_2bandit_b.png","70","70","test","","","","10","",""
"null","814184","pSARL_v2","pSARL_v2z8u69r04","60ace56a83e45642b22d9954","fixation","img/fixation.png","null","","test","","","","","",""
"342.7000000476837","814529","pSARL_v2","pSARL_v2z8u69r04","60ace56a83e45642b22d9954","freq","img/green_2bandit_b2.png","70","70","test","1","208","208","10","",""
