"rt","time_elapsed","expId","subject","prolificID","trialType","stimulus","key_press","corrresp","phase","corr","trialNum","attentionRunNum","blockNum","points","rlNum"
"20529.89999999106","20534","pSARL_v2","pSARL_v2509hht02","5ecbfc627a51250bfb1f297f","","","","","","","","","","",""
"","23856","pSARL_v2","pSARL_v2509hht02","5ecbfc627a51250bfb1f297f","fullscreen","","","","","","","","","",""
"65722.29999999702","89586","pSARL_v2","pSARL_v2509hht02","5ecbfc627a51250bfb1f297f","","","","","","","","","","",""
"null","90396","pSARL_v2","pSARL_v2509hht02","5ecbfc627a51250bfb1f297f","freqPrac","img/green_2bandit_a2.png","null","70","prac","0","","","","",""
"null","91411","pSARL_v2","pSARL_v2509hht02","5ecbfc627a51250bfb1f297f","feedback","img/tooSlow.png","null","na","prac","","","","","",""
"null","91568","pSARL_v2","pSARL_v2509hht02","5ecbfc627a51250bfb1f297f","fixation","img/fixation.png","null","","prac","","","","","",""
"463.79999999701977","92039","pSARL_v2","pSARL_v2509hht02","5ecbfc627a51250bfb1f297f","infreqPrac","img/orange_2bandit_a2.png","68","68","prac","1","","","","",""
"463.79999999701977","92393","pSARL_v2","pSARL_v2509hht02","5ecbfc627a51250bfb1f297f","infreqPrac_resp","img/orange_2bandit_a.png","68","68","prac","","","","","",""
"null","92558","pSARL_v2","pSARL_v2509hht02","5ecbfc627a51250bfb1f297f","fixation","img/fixation.png","null","","prac","","","","","",""
"404.90000000596046","92969","pSARL_v2","pSARL_v2509hht02","5ecbfc627a51250bfb1f297f","freqPrac","img/green_2bandit_a2.png","70","70","prac","1","","","","",""
"404.90000000596046","93384","pSARL_v2","pSARL_v2509hht02","5ecbfc627a51250bfb1f297f","freqPrac_resp","img/green_2bandit_a.png","70","70","prac","","","","","",""
"null","93554","pSARL_v2","pSARL_v2509hht02","5ecbfc627a51250bfb1f297f","fixation","img/fixation.png","null","","prac","","","","","",""
"398.19999998807907","93959","pSARL_v2","pSARL_v2509hht02","5ecbfc627a51250bfb1f297f","infreqPrac","img/orange_2bandit_a2.png","68","68","prac","1","","","","",""
"398.19999998807907","94379","pSARL_v2","pSARL_v2509hht02","5ecbfc627a51250bfb1f297f","infreqPrac_resp","img/orange_2bandit_a.png","68","68","prac","","","","","",""
"null","94549","pSARL_v2","pSARL_v2509hht02","5ecbfc627a51250bfb1f297f","fixation","img/fixation.png","null","","prac","","","","","",""
"394.6000000089407","94951","pSARL_v2","pSARL_v2509hht02","5ecbfc627a51250bfb1f297f","infreqPrac","img/orange_2bandit_a2.png","68","68","prac","1","","","","",""
"394.6000000089407","95366","pSARL_v2","pSARL_v2509hht02","5ecbfc627a51250bfb1f297f","infreqPrac_resp","img/orange_2bandit_a.png","68","68","prac","","","","","",""
"null","95524","pSARL_v2","pSARL_v2509hht02","5ecbfc627a51250bfb1f297f","fixation","img/fixation.png","null","","prac","","","","","",""
"425.40000000596046","95955","pSARL_v2","pSARL_v2509hht02","5ecbfc627a51250bfb1f297f","infreqPrac","img/orange_2bandit_a2.png","68","68","prac","1","","","","",""
"425.40000000596046","96346","pSARL_v2","pSARL_v2509hht02","5ecbfc627a51250bfb1f297f","infreqPrac_resp","img/orange_2bandit_a.png","68","68","prac","","","","","",""
"null","96506","pSARL_v2","pSARL_v2509hht02","5ecbfc627a51250bfb1f297f","fixation","img/fixation.png","null","","prac","","","","","",""
"483.09999999403954","96996","pSARL_v2","pSARL_v2509hht02","5ecbfc627a51250bfb1f297f","freqPrac","img/green_2bandit_a2.png","70","70","prac","1","","","","",""
"483.09999999403954","97324","pSARL_v2","pSARL_v2509hht02","5ecbfc627a51250bfb1f297f","freqPrac_resp","img/green_2bandit_a.png","70","70","prac","","","","","",""
"null","97489","pSARL_v2","pSARL_v2509hht02","5ecbfc627a51250bfb1f297f","fixation","img/fixation.png","null","","prac","","","","","",""
"411.79999999701977","97907","pSARL_v2","pSARL_v2509hht02","5ecbfc627a51250bfb1f297f","infreqPrac","img/orange_2bandit_a2.png","68","68","prac","1","","","","",""
"411.79999999701977","98314","pSARL_v2","pSARL_v2509hht02","5ecbfc627a51250bfb1f297f","infreqPrac_resp","img/orange_2bandit_a.png","68","68","prac","","","","","",""
"null","98479","pSARL_v2","pSARL_v2509hht02","5ecbfc627a51250bfb1f297f","fixation","img/fixation.png","null","","prac","","","","","",""
"352.1000000089407","98837","pSARL_v2","pSARL_v2509hht02","5ecbfc627a51250bfb1f297f","freqPrac","img/green_2bandit_a2.png","70","70","prac","1","","","","",""
"352.1000000089407","99297","pSARL_v2","pSARL_v2509hht02","5ecbfc627a51250bfb1f297f","freqPrac_resp","img/green_2bandit_a.png","70","70","prac","","","","","",""
"null","99458","pSARL_v2","pSARL_v2509hht02","5ecbfc627a51250bfb1f297f","fixation","img/fixation.png","null","","prac","","","","","",""
"374","99838","pSARL_v2","pSARL_v2509hht02","5ecbfc627a51250bfb1f297f","freqPrac","img/green_2bandit_a2.png","70","70","prac","1","","","","",""
"374","100277","pSARL_v2","pSARL_v2509hht02","5ecbfc627a51250bfb1f297f","freqPrac_resp","img/green_2bandit_a.png","70","70","prac","","","","","",""
"null","100436","pSARL_v2","pSARL_v2509hht02","5ecbfc627a51250bfb1f297f","fixation","img/fixation.png","null","","prac","","","","","",""
"25519.40000000596","125964","pSARL_v2","pSARL_v2509hht02","5ecbfc627a51250bfb1f297f","","","","","prac","","","","","",""
"628","126598","pSARL_v2","pSARL_v2509hht02","5ecbfc627a51250bfb1f297f","rewardPractice","img/slot.png","74","","prac","","","","","",""
"null","127367","pSARL_v2","pSARL_v2509hht02","5ecbfc627a51250bfb1f297f","feedback","<div class=""veryhighPoints""> +15 </div>","null","na","prac","","","","","",""
"null","127534","pSARL_v2","pSARL_v2509hht02","5ecbfc627a51250bfb1f297f","fixation","img/fixation.png","null","","prac","","","","","",""
"13471.40000000596","141011","pSARL_v2","pSARL_v2509hht02","5ecbfc627a51250bfb1f297f","","","","","prac","","","","","",""
"638.3000000119209","141655","pSARL_v2","pSARL_v2509hht02","5ecbfc627a51250bfb1f297f","freq","img/green_2bandit_a2.png","70","70","test","1","1","1","1","",""
"null","141827","pSARL_v2","pSARL_v2509hht02","5ecbfc627a51250bfb1f297f","freq_resp","img/green_2bandit_a.png","70","70","test","","","","1","",""
"null","141989","pSARL_v2","pSARL_v2509hht02","5ecbfc627a51250bfb1f297f","fixation","img/fixation.png","null","","test","","","","","",""
"388","142384","pSARL_v2","pSARL_v2509hht02","5ecbfc627a51250bfb1f297f","freq","img/green_2bandit_a2.png","70","70","test","1","2","2","1","",""
"null","142806","pSARL_v2","pSARL_v2509hht02","5ecbfc627a51250bfb1f297f","freq_resp","img/green_2bandit_a.png","70","70","test","","","","1","",""
"null","142967","pSARL_v2","pSARL_v2509hht02","5ecbfc627a51250bfb1f297f","fixation","img/fixation.png","null","","test","","","","","",""
"337.20000000298023","143311","pSARL_v2","pSARL_v2509hht02","5ecbfc627a51250bfb1f297f","freq","img/green_2bandit_a2.png","70","70","test","1","3","3","1","",""
"null","143781","pSARL_v2","pSARL_v2509hht02","5ecbfc627a51250bfb1f297f","freq_resp","img/green_2bandit_a.png","70","70","test","","","","1","",""
"null","143942","pSARL_v2","pSARL_v2509hht02","5ecbfc627a51250bfb1f297f","fixation","img/fixation.png","null","","test","","","","","",""
"403.8999999910593","144352","pSARL_v2","pSARL_v2509hht02","5ecbfc627a51250bfb1f297f","infreq","img/orange_2bandit_a2.png","68","68","test","1","4","4","1","",""
"null","144757","pSARL_v2","pSARL_v2509hht02","5ecbfc627a51250bfb1f297f","infreq_resp","img/orange_2bandit_a.png","68","68","test","","","","1","",""
"null","144922","pSARL_v2","pSARL_v2509hht02","5ecbfc627a51250bfb1f297f","fixation","img/fixation.png","null","","test","","","","","",""
"406.6000000089407","145334","pSARL_v2","pSARL_v2509hht02","5ecbfc627a51250bfb1f297f","freq","img/green_2bandit_a2.png","70","70","test","1","5","5","1","",""
"null","145742","pSARL_v2","pSARL_v2509hht02","5ecbfc627a51250bfb1f297f","freq_resp","img/green_2bandit_a.png","70","70","test","","","","1","",""
"null","145908","pSARL_v2","pSARL_v2509hht02","5ecbfc627a51250bfb1f297f","fixation","img/fixation.png","null","","test","","","","","",""
"647.6000000089407","146561","pSARL_v2","pSARL_v2509hht02","5ecbfc627a51250bfb1f297f","infreq","img/orange_2bandit_a2.png","70","68","test","0","6","6","1","",""
"null","146722","pSARL_v2","pSARL_v2509hht02","5ecbfc627a51250bfb1f297f","infreq_resp","img/orange_2bandit_a.png","70","68","test","","","","1","",""
"null","146887","pSARL_v2","pSARL_v2509hht02","5ecbfc627a51250bfb1f297f","fixation","img/fixation.png","null","","test","","","","","",""
"671","147565","pSARL_v2","pSARL_v2509hht02","5ecbfc627a51250bfb1f297f","freq","img/green_2bandit_a2.png","68","70","test","0","7","7","1","",""
"null","147708","pSARL_v2","pSARL_v2509hht02","5ecbfc627a51250bfb1f297f","freq_resp","img/green_2bandit_a.png","68","70","test","","","","1","",""
"null","147867","pSARL_v2","pSARL_v2509hht02","5ecbfc627a51250bfb1f297f","fixation","img/fixation.png","null","","test","","","","","",""
"null","148682","pSARL_v2","pSARL_v2509hht02","5ecbfc627a51250bfb1f297f","freq","img/green_2bandit_a2.png","null","70","test","0","8","8","1","",""
"null","148850","pSARL_v2","pSARL_v2509hht02","5ecbfc627a51250bfb1f297f","fixation","img/fixation.png","null","","test","","","","","",""
"511.09999999403954","149365","pSARL_v2","pSARL_v2509hht02","5ecbfc627a51250bfb1f297f","freq","img/green_2bandit_a2.png","70","70","test","1","9","9","1","",""
"null","149672","pSARL_v2","pSARL_v2509hht02","5ecbfc627a51250bfb1f297f","freq_resp","img/green_2bandit_a.png","70","70","test","","","","1","",""
"null","149841","pSARL_v2","pSARL_v2509hht02","5ecbfc627a51250bfb1f297f","fixation","img/fixation.png","null","","test","","","","","",""
"532","150377","pSARL_v2","pSARL_v2509hht02","5ecbfc627a51250bfb1f297f","freq","img/green_2bandit_a2.png","70","70","test","1","10","10","1","",""
"null","150667","pSARL_v2","pSARL_v2509hht02","5ecbfc627a51250bfb1f297f","freq_resp","img/green_2bandit_a.png","70","70","test","","","","1","",""
"null","150827","pSARL_v2","pSARL_v2509hht02","5ecbfc627a51250bfb1f297f","fixation","img/fixation.png","null","","test","","","","","",""
"405.29999999701977","151236","pSARL_v2","pSARL_v2509hht02","5ecbfc627a51250bfb1f297f","freq","img/green_2bandit_a2.png","70","70","test","1","11","11","1","",""
"null","151647","pSARL_v2","pSARL_v2509hht02","5ecbfc627a51250bfb1f297f","freq_resp","img/green_2bandit_a.png","70","70","test","","","","1","",""
"null","151809","pSARL_v2","pSARL_v2509hht02","5ecbfc627a51250bfb1f297f","fixation","img/fixation.png","null","","test","","","","","",""
"407.20000000298023","152220","pSARL_v2","pSARL_v2509hht02","5ecbfc627a51250bfb1f297f","freq","img/green_2bandit_a2.png","70","70","test","1","12","12","1","",""
"null","152627","pSARL_v2","pSARL_v2509hht02","5ecbfc627a51250bfb1f297f","freq_resp","img/green_2bandit_a.png","70","70","test","","","","1","",""
"null","152780","pSARL_v2","pSARL_v2509hht02","5ecbfc627a51250bfb1f297f","fixation","img/fixation.png","null","","test","","","","","",""
"339.5","153125","pSARL_v2","pSARL_v2509hht02","5ecbfc627a51250bfb1f297f","freq","img/green_2bandit_a2.png","70","70","test","1","13","13","1","",""
"null","153607","pSARL_v2","pSARL_v2509hht02","5ecbfc627a51250bfb1f297f","freq_resp","img/green_2bandit_a.png","70","70","test","","","","1","",""
"null","153777","pSARL_v2","pSARL_v2509hht02","5ecbfc627a51250bfb1f297f","fixation","img/fixation.png","null","","test","","","","","",""
"363.5","154146","pSARL_v2","pSARL_v2509hht02","5ecbfc627a51250bfb1f297f","freq","img/green_2bandit_a2.png","70","70","test","1","14","14","1","",""
"null","154597","pSARL_v2","pSARL_v2509hht02","5ecbfc627a51250bfb1f297f","freq_resp","img/green_2bandit_a.png","70","70","test","","","","1","",""
"null","154757","pSARL_v2","pSARL_v2509hht02","5ecbfc627a51250bfb1f297f","fixation","img/fixation.png","null","","test","","","","","",""
"344.5","155108","pSARL_v2","pSARL_v2509hht02","5ecbfc627a51250bfb1f297f","freq","img/green_2bandit_a2.png","70","70","test","1","15","15","1","",""
"null","155582","pSARL_v2","pSARL_v2509hht02","5ecbfc627a51250bfb1f297f","freq_resp","img/green_2bandit_a.png","70","70","test","","","","1","",""
"null","155747","pSARL_v2","pSARL_v2509hht02","5ecbfc627a51250bfb1f297f","fixation","img/fixation.png","null","","test","","","","","",""
"326.90000000596046","156079","pSARL_v2","pSARL_v2509hht02","5ecbfc627a51250bfb1f297f","freq","img/green_2bandit_a2.png","70","70","test","1","16","16","1","",""
"null","156560","pSARL_v2","pSARL_v2509hht02","5ecbfc627a51250bfb1f297f","freq_resp","img/green_2bandit_a.png","70","70","test","","","","1","",""
"null","156725","pSARL_v2","pSARL_v2509hht02","5ecbfc627a51250bfb1f297f","fixation","img/fixation.png","null","","test","","","","","",""
"325.90000000596046","157056","pSARL_v2","pSARL_v2509hht02","5ecbfc627a51250bfb1f297f","freq","img/green_2bandit_a2.png","70","70","test","1","17","17","1","",""
"null","157542","pSARL_v2","pSARL_v2509hht02","5ecbfc627a51250bfb1f297f","freq_resp","img/green_2bandit_a.png","70","70","test","","","","1","",""
"null","157702","pSARL_v2","pSARL_v2509hht02","5ecbfc627a51250bfb1f297f","fixation","img/fixation.png","null","","test","","","","","",""
"354.40000000596046","158062","pSARL_v2","pSARL_v2509hht02","5ecbfc627a51250bfb1f297f","freq","img/green_2bandit_a2.png","70","70","test","1","18","18","1","",""
"null","158527","pSARL_v2","pSARL_v2509hht02","5ecbfc627a51250bfb1f297f","freq_resp","img/green_2bandit_a.png","70","70","test","","","","1","",""
"null","158686","pSARL_v2","pSARL_v2509hht02","5ecbfc627a51250bfb1f297f","fixation","img/fixation.png","null","","test","","","","","",""
"381.5","159072","pSARL_v2","pSARL_v2509hht02","5ecbfc627a51250bfb1f297f","freq","img/green_2bandit_a2.png","70","70","test","1","19","19","1","",""
"null","159501","pSARL_v2","pSARL_v2509hht02","5ecbfc627a51250bfb1f297f","freq_resp","img/green_2bandit_a.png","70","70","test","","","","1","",""
"null","159670","pSARL_v2","pSARL_v2509hht02","5ecbfc627a51250bfb1f297f","fixation","img/fixation.png","null","","test","","","","","",""
"378.69999998807907","160054","pSARL_v2","pSARL_v2509hht02","5ecbfc627a51250bfb1f297f","freq","img/green_2bandit_a2.png","70","70","test","1","20","20","1","",""
"null","160489","pSARL_v2","pSARL_v2509hht02","5ecbfc627a51250bfb1f297f","freq_resp","img/green_2bandit_a.png","70","70","test","","","","1","",""
"null","160657","pSARL_v2","pSARL_v2509hht02","5ecbfc627a51250bfb1f297f","fixation","img/fixation.png","null","","test","","","","","",""
"498.40000000596046","161164","pSARL_v2","pSARL_v2509hht02","5ecbfc627a51250bfb1f297f","reward","img/slot.png","74","","test","","","","","",""
"null","161920","pSARL_v2","pSARL_v2509hht02","5ecbfc627a51250bfb1f297f","points","<div class=""verylowPoints""> -6 </div>","null","na","test","","","","1","-6","0"
"801.5","162728","pSARL_v2","pSARL_v2509hht02","5ecbfc627a51250bfb1f297f","freq","img/green_2bandit_a2.png","70","70","test","1","21","21","2","",""
"null","162897","pSARL_v2","pSARL_v2509hht02","5ecbfc627a51250bfb1f297f","fixation","img/fixation.png","null","","test","","","","","",""
"619.3000000119209","163523","pSARL_v2","pSARL_v2509hht02","5ecbfc627a51250bfb1f297f","freq","img/green_2bandit_a2.png","70","70","test","1","22","22","2","",""
"null","163715","pSARL_v2","pSARL_v2509hht02","5ecbfc627a51250bfb1f297f","freq_resp","img/green_2bandit_a.png","70","70","test","","","","2","",""
"null","163870","pSARL_v2","pSARL_v2509hht02","5ecbfc627a51250bfb1f297f","fixation","img/fixation.png","null","","test","","","","","",""
"352.59999999403954","164228","pSARL_v2","pSARL_v2509hht02","5ecbfc627a51250bfb1f297f","freq","img/green_2bandit_a2.png","70","70","test","1","23","23","2","",""
"null","164684","pSARL_v2","pSARL_v2509hht02","5ecbfc627a51250bfb1f297f","freq_resp","img/green_2bandit_a.png","70","70","test","","","","2","",""
"null","164850","pSARL_v2","pSARL_v2509hht02","5ecbfc627a51250bfb1f297f","fixation","img/fixation.png","null","","test","","","","","",""
"309.59999999403954","165165","pSARL_v2","pSARL_v2509hht02","5ecbfc627a51250bfb1f297f","freq","img/green_2bandit_a2.png","70","70","test","1","24","24","2","",""
"null","165661","pSARL_v2","pSARL_v2509hht02","5ecbfc627a51250bfb1f297f","freq_resp","img/green_2bandit_a.png","70","70","test","","","","2","",""
"null","165821","pSARL_v2","pSARL_v2509hht02","5ecbfc627a51250bfb1f297f","fixation","img/fixation.png","null","","test","","","","","",""
"308.90000000596046","166135","pSARL_v2","pSARL_v2509hht02","5ecbfc627a51250bfb1f297f","freq","img/green_2bandit_a2.png","70","70","test","1","25","25","2","",""
"null","166645","pSARL_v2","pSARL_v2509hht02","5ecbfc627a51250bfb1f297f","freq_resp","img/green_2bandit_a.png","70","70","test","","","","2","",""
"null","166813","pSARL_v2","pSARL_v2509hht02","5ecbfc627a51250bfb1f297f","fixation","img/fixation.png","null","","test","","","","","",""
"298.5","167117","pSARL_v2","pSARL_v2509hht02","5ecbfc627a51250bfb1f297f","freq","img/green_2bandit_a2.png","70","70","test","1","26","26","2","",""
"null","167630","pSARL_v2","pSARL_v2509hht02","5ecbfc627a51250bfb1f297f","freq_resp","img/green_2bandit_a.png","70","70","test","","","","2","",""
"null","167800","pSARL_v2","pSARL_v2509hht02","5ecbfc627a51250bfb1f297f","fixation","img/fixation.png","null","","test","","","","","",""
"321.8999999910593","168129","pSARL_v2","pSARL_v2509hht02","5ecbfc627a51250bfb1f297f","freq","img/green_2bandit_a2.png","70","70","test","1","27","27","2","",""
"null","168626","pSARL_v2","pSARL_v2509hht02","5ecbfc627a51250bfb1f297f","freq_resp","img/green_2bandit_a.png","70","70","test","","","","2","",""
"null","168788","pSARL_v2","pSARL_v2509hht02","5ecbfc627a51250bfb1f297f","fixation","img/fixation.png","null","","test","","","","","",""
"405.70000000298023","169198","pSARL_v2","pSARL_v2509hht02","5ecbfc627a51250bfb1f297f","freq","img/green_2bandit_a2.png","70","70","test","1","28","28","2","",""
"null","169608","pSARL_v2","pSARL_v2509hht02","5ecbfc627a51250bfb1f297f","freq_resp","img/green_2bandit_a.png","70","70","test","","","","2","",""
"null","169768","pSARL_v2","pSARL_v2509hht02","5ecbfc627a51250bfb1f297f","fixation","img/fixation.png","null","","test","","","","","",""
"428.70000000298023","170202","pSARL_v2","pSARL_v2509hht02","5ecbfc627a51250bfb1f297f","freq","img/green_2bandit_a2.png","70","70","test","1","29","29","2","",""
"null","170589","pSARL_v2","pSARL_v2509hht02","5ecbfc627a51250bfb1f297f","freq_resp","img/green_2bandit_a.png","70","70","test","","","","2","",""
"null","170756","pSARL_v2","pSARL_v2509hht02","5ecbfc627a51250bfb1f297f","fixation","img/fixation.png","null","","test","","","","","",""
"378.6000000089407","171140","pSARL_v2","pSARL_v2509hht02","5ecbfc627a51250bfb1f297f","freq","img/green_2bandit_a2.png","70","70","test","1","30","30","2","",""
"null","171577","pSARL_v2","pSARL_v2509hht02","5ecbfc627a51250bfb1f297f","freq_resp","img/green_2bandit_a.png","70","70","test","","","","2","",""
"null","171736","pSARL_v2","pSARL_v2509hht02","5ecbfc627a51250bfb1f297f","fixation","img/fixation.png","null","","test","","","","","",""
"463.59999999403954","172205","pSARL_v2","pSARL_v2509hht02","5ecbfc627a51250bfb1f297f","infreq","img/orange_2bandit_a2.png","68","68","test","1","31","31","2","",""
"null","172561","pSARL_v2","pSARL_v2509hht02","5ecbfc627a51250bfb1f297f","infreq_resp","img/orange_2bandit_a.png","68","68","test","","","","2","",""
"null","172730","pSARL_v2","pSARL_v2509hht02","5ecbfc627a51250bfb1f297f","fixation","img/fixation.png","null","","test","","","","","",""
"450.90000000596046","173187","pSARL_v2","pSARL_v2509hht02","5ecbfc627a51250bfb1f297f","freq","img/green_2bandit_a2.png","70","70","test","1","32","32","2","",""
"null","173556","pSARL_v2","pSARL_v2509hht02","5ecbfc627a51250bfb1f297f","freq_resp","img/green_2bandit_a.png","70","70","test","","","","2","",""
"null","173720","pSARL_v2","pSARL_v2509hht02","5ecbfc627a51250bfb1f297f","fixation","img/fixation.png","null","","test","","","","","",""
"350.29999999701977","174076","pSARL_v2","pSARL_v2509hht02","5ecbfc627a51250bfb1f297f","freq","img/green_2bandit_a2.png","70","70","test","1","33","33","2","",""
"null","174534","pSARL_v2","pSARL_v2509hht02","5ecbfc627a51250bfb1f297f","freq_resp","img/green_2bandit_a.png","70","70","test","","","","2","",""
"null","174699","pSARL_v2","pSARL_v2509hht02","5ecbfc627a51250bfb1f297f","fixation","img/fixation.png","null","","test","","","","","",""
"322","175027","pSARL_v2","pSARL_v2509hht02","5ecbfc627a51250bfb1f297f","freq","img/green_2bandit_a2.png","70","70","test","1","34","34","2","",""
"null","175511","pSARL_v2","pSARL_v2509hht02","5ecbfc627a51250bfb1f297f","freq_resp","img/green_2bandit_a.png","70","70","test","","","","2","",""
"null","175669","pSARL_v2","pSARL_v2509hht02","5ecbfc627a51250bfb1f297f","fixation","img/fixation.png","null","","test","","","","","",""
"414.40000000596046","176089","pSARL_v2","pSARL_v2509hht02","5ecbfc627a51250bfb1f297f","freq","img/green_2bandit_a2.png","70","70","test","1","35","35","2","",""
"null","176496","pSARL_v2","pSARL_v2509hht02","5ecbfc627a51250bfb1f297f","freq_resp","img/green_2bandit_a.png","70","70","test","","","","2","",""
"null","176656","pSARL_v2","pSARL_v2509hht02","5ecbfc627a51250bfb1f297f","fixation","img/fixation.png","null","","test","","","","","",""
"369.20000000298023","177031","pSARL_v2","pSARL_v2509hht02","5ecbfc627a51250bfb1f297f","freq","img/green_2bandit_a2.png","70","70","test","1","36","36","2","",""
"null","177471","pSARL_v2","pSARL_v2509hht02","5ecbfc627a51250bfb1f297f","freq_resp","img/green_2bandit_a.png","70","70","test","","","","2","",""
"null","177630","pSARL_v2","pSARL_v2509hht02","5ecbfc627a51250bfb1f297f","fixation","img/fixation.png","null","","test","","","","","",""
"315.5","177951","pSARL_v2","pSARL_v2509hht02","5ecbfc627a51250bfb1f297f","freq","img/green_2bandit_a2.png","70","70","test","1","37","37","2","",""
"null","178455","pSARL_v2","pSARL_v2509hht02","5ecbfc627a51250bfb1f297f","freq_resp","img/green_2bandit_a.png","70","70","test","","","","2","",""
"null","178613","pSARL_v2","pSARL_v2509hht02","5ecbfc627a51250bfb1f297f","fixation","img/fixation.png","null","","test","","","","","",""
"344.30000001192093","178964","pSARL_v2","pSARL_v2509hht02","5ecbfc627a51250bfb1f297f","freq","img/green_2bandit_a2.png","70","70","test","1","38","38","2","",""
"null","179436","pSARL_v2","pSARL_v2509hht02","5ecbfc627a51250bfb1f297f","freq_resp","img/green_2bandit_a.png","70","70","test","","","","2","",""
"null","179603","pSARL_v2","pSARL_v2509hht02","5ecbfc627a51250bfb1f297f","fixation","img/fixation.png","null","","test","","","","","",""
"357.20000000298023","179966","pSARL_v2","pSARL_v2509hht02","5ecbfc627a51250bfb1f297f","freq","img/green_2bandit_a2.png","70","70","test","1","39","39","2","",""
"null","180427","pSARL_v2","pSARL_v2509hht02","5ecbfc627a51250bfb1f297f","freq_resp","img/green_2bandit_a.png","70","70","test","","","","2","",""
"null","180582","pSARL_v2","pSARL_v2509hht02","5ecbfc627a51250bfb1f297f","fixation","img/fixation.png","null","","test","","","","","",""
"275.29999999701977","180863","pSARL_v2","pSARL_v2509hht02","5ecbfc627a51250bfb1f297f","freq","img/green_2bandit_a2.png","70","70","test","1","40","40","2","",""
"null","181396","pSARL_v2","pSARL_v2509hht02","5ecbfc627a51250bfb1f297f","freq_resp","img/green_2bandit_a.png","70","70","test","","","","2","",""
"null","181556","pSARL_v2","pSARL_v2509hht02","5ecbfc627a51250bfb1f297f","fixation","img/fixation.png","null","","test","","","","","",""
"583.8999999910593","182144","pSARL_v2","pSARL_v2509hht02","5ecbfc627a51250bfb1f297f","infreq","img/orange_2bandit_a2.png","68","68","test","1","41","41","2","",""
"null","182380","pSARL_v2","pSARL_v2509hht02","5ecbfc627a51250bfb1f297f","infreq_resp","img/orange_2bandit_a.png","68","68","test","","","","2","",""
"null","182548","pSARL_v2","pSARL_v2509hht02","5ecbfc627a51250bfb1f297f","fixation","img/fixation.png","null","","test","","","","","",""
"462.1000000089407","183016","pSARL_v2","pSARL_v2509hht02","5ecbfc627a51250bfb1f297f","freq","img/green_2bandit_a2.png","70","70","test","1","42","42","2","",""
"null","183369","pSARL_v2","pSARL_v2509hht02","5ecbfc627a51250bfb1f297f","freq_resp","img/green_2bandit_a.png","70","70","test","","","","2","",""
"null","183536","pSARL_v2","pSARL_v2509hht02","5ecbfc627a51250bfb1f297f","fixation","img/fixation.png","null","","test","","","","","",""
"434.79999999701977","183977","pSARL_v2","pSARL_v2509hht02","5ecbfc627a51250bfb1f297f","reward","img/slot.png","74","","test","","","","","",""
"null","184743","pSARL_v2","pSARL_v2509hht02","5ecbfc627a51250bfb1f297f","points","<div class=""verylowPoints""> -11 </div>","null","na","test","","","","2","-11","1"
"null","185554","pSARL_v2","pSARL_v2509hht02","5ecbfc627a51250bfb1f297f","freq","img/green_2bandit_a2.png","null","70","test","0","43","43","3","",""
"null","185711","pSARL_v2","pSARL_v2509hht02","5ecbfc627a51250bfb1f297f","fixation","img/fixation.png","null","","test","","","","","",""
"334.8999999910593","186052","pSARL_v2","pSARL_v2509hht02","5ecbfc627a51250bfb1f297f","freq","img/green_2bandit_a2.png","70","70","test","1","44","44","3","",""
"null","186524","pSARL_v2","pSARL_v2509hht02","5ecbfc627a51250bfb1f297f","freq_resp","img/green_2bandit_a.png","70","70","test","","","","3","",""
"null","186686","pSARL_v2","pSARL_v2509hht02","5ecbfc627a51250bfb1f297f","fixation","img/fixation.png","null","","test","","","","","",""
"320.90000000596046","187013","pSARL_v2","pSARL_v2509hht02","5ecbfc627a51250bfb1f297f","freq","img/green_2bandit_a2.png","70","70","test","1","45","45","3","",""
"null","187499","pSARL_v2","pSARL_v2509hht02","5ecbfc627a51250bfb1f297f","freq_resp","img/green_2bandit_a.png","70","70","test","","","","3","",""
"null","187656","pSARL_v2","pSARL_v2509hht02","5ecbfc627a51250bfb1f297f","fixation","img/fixation.png","null","","test","","","","","",""
"330.6000000089407","187992","pSARL_v2","pSARL_v2509hht02","5ecbfc627a51250bfb1f297f","freq","img/green_2bandit_a2.png","70","70","test","1","46","46","3","",""
"null","188470","pSARL_v2","pSARL_v2509hht02","5ecbfc627a51250bfb1f297f","freq_resp","img/green_2bandit_a.png","70","70","test","","","","3","",""
"null","188629","pSARL_v2","pSARL_v2509hht02","5ecbfc627a51250bfb1f297f","fixation","img/fixation.png","null","","test","","","","","",""
"318.80000001192093","188954","pSARL_v2","pSARL_v2509hht02","5ecbfc627a51250bfb1f297f","freq","img/green_2bandit_a2.png","70","70","test","1","47","47","3","",""
"null","189450","pSARL_v2","pSARL_v2509hht02","5ecbfc627a51250bfb1f297f","freq_resp","img/green_2bandit_a.png","70","70","test","","","","3","",""
"null","189611","pSARL_v2","pSARL_v2509hht02","5ecbfc627a51250bfb1f297f","fixation","img/fixation.png","null","","test","","","","","",""
"288.20000000298023","189905","pSARL_v2","pSARL_v2509hht02","5ecbfc627a51250bfb1f297f","freq","img/green_2bandit_a2.png","70","70","test","1","48","48","3","",""
"null","190430","pSARL_v2","pSARL_v2509hht02","5ecbfc627a51250bfb1f297f","freq_resp","img/green_2bandit_a.png","70","70","test","","","","3","",""
"null","190591","pSARL_v2","pSARL_v2509hht02","5ecbfc627a51250bfb1f297f","fixation","img/fixation.png","null","","test","","","","","",""
"420.40000000596046","191018","pSARL_v2","pSARL_v2509hht02","5ecbfc627a51250bfb1f297f","infreq","img/orange_2bandit_a2.png","68","68","test","1","49","49","3","",""
"null","191406","pSARL_v2","pSARL_v2509hht02","5ecbfc627a51250bfb1f297f","infreq_resp","img/orange_2bandit_a.png","68","68","test","","","","3","",""
"null","191576","pSARL_v2","pSARL_v2509hht02","5ecbfc627a51250bfb1f297f","fixation","img/fixation.png","null","","test","","","","","",""
"314.79999999701977","191894","pSARL_v2","pSARL_v2509hht02","5ecbfc627a51250bfb1f297f","freq","img/green_2bandit_a2.png","70","70","test","1","50","50","3","",""
"null","192396","pSARL_v2","pSARL_v2509hht02","5ecbfc627a51250bfb1f297f","freq_resp","img/green_2bandit_a.png","70","70","test","","","","3","",""
"null","192566","pSARL_v2","pSARL_v2509hht02","5ecbfc627a51250bfb1f297f","fixation","img/fixation.png","null","","test","","","","","",""
"288.5","192861","pSARL_v2","pSARL_v2509hht02","5ecbfc627a51250bfb1f297f","freq","img/green_2bandit_a2.png","70","70","test","1","51","51","3","",""
"null","193390","pSARL_v2","pSARL_v2509hht02","5ecbfc627a51250bfb1f297f","freq_resp","img/green_2bandit_a.png","70","70","test","","","","3","",""
"null","193551","pSARL_v2","pSARL_v2509hht02","5ecbfc627a51250bfb1f297f","fixation","img/fixation.png","null","","test","","","","","",""
"426.20000000298023","193982","pSARL_v2","pSARL_v2509hht02","5ecbfc627a51250bfb1f297f","freq","img/green_2bandit_a2.png","70","70","test","1","52","52","3","",""
"null","194375","pSARL_v2","pSARL_v2509hht02","5ecbfc627a51250bfb1f297f","freq_resp","img/green_2bandit_a.png","70","70","test","","","","3","",""
"null","194543","pSARL_v2","pSARL_v2509hht02","5ecbfc627a51250bfb1f297f","fixation","img/fixation.png","null","","test","","","","","",""
"331.70000000298023","194879","pSARL_v2","pSARL_v2509hht02","5ecbfc627a51250bfb1f297f","freq","img/green_2bandit_a2.png","70","70","test","1","53","53","3","",""
"null","195360","pSARL_v2","pSARL_v2509hht02","5ecbfc627a51250bfb1f297f","freq_resp","img/green_2bandit_a.png","70","70","test","","","","3","",""
"null","195525","pSARL_v2","pSARL_v2509hht02","5ecbfc627a51250bfb1f297f","fixation","img/fixation.png","null","","test","","","","","",""
"343","195872","pSARL_v2","pSARL_v2509hht02","5ecbfc627a51250bfb1f297f","freq","img/green_2bandit_a2.png","70","70","test","1","54","54","3","",""
"null","196339","pSARL_v2","pSARL_v2509hht02","5ecbfc627a51250bfb1f297f","freq_resp","img/green_2bandit_a.png","70","70","test","","","","3","",""
"null","196506","pSARL_v2","pSARL_v2509hht02","5ecbfc627a51250bfb1f297f","fixation","img/fixation.png","null","","test","","","","","",""
"475.90000000596046","196987","pSARL_v2","pSARL_v2509hht02","5ecbfc627a51250bfb1f297f","infreq","img/orange_2bandit_a2.png","68","68","test","1","55","55","3","",""
"null","197318","pSARL_v2","pSARL_v2509hht02","5ecbfc627a51250bfb1f297f","infreq_resp","img/orange_2bandit_a.png","68","68","test","","","","3","",""
"null","197487","pSARL_v2","pSARL_v2509hht02","5ecbfc627a51250bfb1f297f","fixation","img/fixation.png","null","","test","","","","","",""
"323","197816","pSARL_v2","pSARL_v2509hht02","5ecbfc627a51250bfb1f297f","freq","img/green_2bandit_a2.png","70","70","test","1","56","56","3","",""
"null","198303","pSARL_v2","pSARL_v2509hht02","5ecbfc627a51250bfb1f297f","freq_resp","img/green_2bandit_a.png","70","70","test","","","","3","",""
"null","198471","pSARL_v2","pSARL_v2509hht02","5ecbfc627a51250bfb1f297f","fixation","img/fixation.png","null","","test","","","","","",""
"490.70000000298023","198968","pSARL_v2","pSARL_v2509hht02","5ecbfc627a51250bfb1f297f","freq","img/green_2bandit_a2.png","70","70","test","1","57","57","3","",""
"null","199294","pSARL_v2","pSARL_v2509hht02","5ecbfc627a51250bfb1f297f","freq_resp","img/green_2bandit_a.png","70","70","test","","","","3","",""
"null","199461","pSARL_v2","pSARL_v2509hht02","5ecbfc627a51250bfb1f297f","fixation","img/fixation.png","null","","test","","","","","",""
"361.3999999910593","199829","pSARL_v2","pSARL_v2509hht02","5ecbfc627a51250bfb1f297f","freq","img/green_2bandit_a2.png","70","70","test","1","58","58","3","",""
"null","200283","pSARL_v2","pSARL_v2509hht02","5ecbfc627a51250bfb1f297f","freq_resp","img/green_2bandit_a.png","70","70","test","","","","3","",""
"null","200444","pSARL_v2","pSARL_v2509hht02","5ecbfc627a51250bfb1f297f","fixation","img/fixation.png","null","","test","","","","","",""
"308","200755","pSARL_v2","pSARL_v2509hht02","5ecbfc627a51250bfb1f297f","freq","img/green_2bandit_a2.png","70","70","test","1","59","59","3","",""
"null","201264","pSARL_v2","pSARL_v2509hht02","5ecbfc627a51250bfb1f297f","freq_resp","img/green_2bandit_a.png","70","70","test","","","","3","",""
"null","201426","pSARL_v2","pSARL_v2509hht02","5ecbfc627a51250bfb1f297f","fixation","img/fixation.png","null","","test","","","","","",""
"287.5","201718","pSARL_v2","pSARL_v2509hht02","5ecbfc627a51250bfb1f297f","freq","img/green_2bandit_a2.png","70","70","test","1","60","60","3","",""
"null","202241","pSARL_v2","pSARL_v2509hht02","5ecbfc627a51250bfb1f297f","freq_resp","img/green_2bandit_a.png","70","70","test","","","","3","",""
"null","202410","pSARL_v2","pSARL_v2509hht02","5ecbfc627a51250bfb1f297f","fixation","img/fixation.png","null","","test","","","","","",""
"284.3999999910593","202701","pSARL_v2","pSARL_v2509hht02","5ecbfc627a51250bfb1f297f","freq","img/green_2bandit_a2.png","70","70","test","1","61","61","3","",""
"null","203226","pSARL_v2","pSARL_v2509hht02","5ecbfc627a51250bfb1f297f","freq_resp","img/green_2bandit_a.png","70","70","test","","","","3","",""
"null","203390","pSARL_v2","pSARL_v2509hht02","5ecbfc627a51250bfb1f297f","fixation","img/fixation.png","null","","test","","","","","",""
"267.09999999403954","203663","pSARL_v2","pSARL_v2509hht02","5ecbfc627a51250bfb1f297f","freq","img/green_2bandit_a2.png","70","70","test","1","62","62","3","",""
"null","204206","pSARL_v2","pSARL_v2509hht02","5ecbfc627a51250bfb1f297f","freq_resp","img/green_2bandit_a.png","70","70","test","","","","3","",""
"null","204375","pSARL_v2","pSARL_v2509hht02","5ecbfc627a51250bfb1f297f","fixation","img/fixation.png","null","","test","","","","","",""
"271.20000000298023","204653","pSARL_v2","pSARL_v2509hht02","5ecbfc627a51250bfb1f297f","freq","img/green_2bandit_a2.png","70","70","test","1","63","63","3","",""
"null","205193","pSARL_v2","pSARL_v2509hht02","5ecbfc627a51250bfb1f297f","freq_resp","img/green_2bandit_a.png","70","70","test","","","","3","",""
"null","205361","pSARL_v2","pSARL_v2509hht02","5ecbfc627a51250bfb1f297f","fixation","img/fixation.png","null","","test","","","","","",""
"308.09999999403954","205677","pSARL_v2","pSARL_v2509hht02","5ecbfc627a51250bfb1f297f","freq","img/green_2bandit_a2.png","70","70","test","1","64","64","3","",""
"null","206185","pSARL_v2","pSARL_v2509hht02","5ecbfc627a51250bfb1f297f","freq_resp","img/green_2bandit_a.png","70","70","test","","","","3","",""
"null","206351","pSARL_v2","pSARL_v2509hht02","5ecbfc627a51250bfb1f297f","fixation","img/fixation.png","null","","test","","","","","",""
"359.09999999403954","206717","pSARL_v2","pSARL_v2509hht02","5ecbfc627a51250bfb1f297f","reward","img/slot.png","74","","test","","","","","",""
"null","207486","pSARL_v2","pSARL_v2509hht02","5ecbfc627a51250bfb1f297f","points","<div class=""verylowPoints""> -7 </div>","null","na","test","","","","3","-7","2"
"406.3999999910593","207896","pSARL_v2","pSARL_v2509hht02","5ecbfc627a51250bfb1f297f","freq","img/green_2bandit_a2.png","70","70","test","1","65","65","4","",""
"null","208303","pSARL_v2","pSARL_v2509hht02","5ecbfc627a51250bfb1f297f","freq_resp","img/green_2bandit_a.png","70","70","test","","","","4","",""
"null","208460","pSARL_v2","pSARL_v2509hht02","5ecbfc627a51250bfb1f297f","fixation","img/fixation.png","null","","test","","","","","",""
"279","208745","pSARL_v2","pSARL_v2509hht02","5ecbfc627a51250bfb1f297f","freq","img/green_2bandit_a2.png","70","70","test","1","66","66","4","",""
"null","209284","pSARL_v2","pSARL_v2509hht02","5ecbfc627a51250bfb1f297f","freq_resp","img/green_2bandit_a.png","70","70","test","","","","4","",""
"null","209450","pSARL_v2","pSARL_v2509hht02","5ecbfc627a51250bfb1f297f","fixation","img/fixation.png","null","","test","","","","","",""
"280.40000000596046","209737","pSARL_v2","pSARL_v2509hht02","5ecbfc627a51250bfb1f297f","freq","img/green_2bandit_a2.png","70","70","test","1","67","67","4","",""
"null","210263","pSARL_v2","pSARL_v2509hht02","5ecbfc627a51250bfb1f297f","freq_resp","img/green_2bandit_a.png","70","70","test","","","","4","",""
"null","210430","pSARL_v2","pSARL_v2509hht02","5ecbfc627a51250bfb1f297f","fixation","img/fixation.png","null","","test","","","","","",""
"312.90000000596046","210749","pSARL_v2","pSARL_v2509hht02","5ecbfc627a51250bfb1f297f","freq","img/green_2bandit_a2.png","70","70","test","1","68","68","4","",""
"null","211245","pSARL_v2","pSARL_v2509hht02","5ecbfc627a51250bfb1f297f","freq_resp","img/green_2bandit_a.png","70","70","test","","","","4","",""
"null","211418","pSARL_v2","pSARL_v2509hht02","5ecbfc627a51250bfb1f297f","fixation","img/fixation.png","null","","test","","","","","",""
"327.40000000596046","211751","pSARL_v2","pSARL_v2509hht02","5ecbfc627a51250bfb1f297f","freq","img/green_2bandit_a2.png","70","70","test","1","69","69","4","",""
"null","212231","pSARL_v2","pSARL_v2509hht02","5ecbfc627a51250bfb1f297f","freq_resp","img/green_2bandit_a.png","70","70","test","","","","4","",""
"null","212400","pSARL_v2","pSARL_v2509hht02","5ecbfc627a51250bfb1f297f","fixation","img/fixation.png","null","","test","","","","","",""
"317.70000000298023","212725","pSARL_v2","pSARL_v2509hht02","5ecbfc627a51250bfb1f297f","freq","img/green_2bandit_a2.png","70","70","test","1","70","70","4","",""
"null","213225","pSARL_v2","pSARL_v2509hht02","5ecbfc627a51250bfb1f297f","freq_resp","img/green_2bandit_a.png","70","70","test","","","","4","",""
"null","213396","pSARL_v2","pSARL_v2509hht02","5ecbfc627a51250bfb1f297f","fixation","img/fixation.png","null","","test","","","","","",""
"333.3999999910593","213736","pSARL_v2","pSARL_v2509hht02","5ecbfc627a51250bfb1f297f","freq","img/green_2bandit_a2.png","70","70","test","1","71","71","4","",""
"null","214220","pSARL_v2","pSARL_v2509hht02","5ecbfc627a51250bfb1f297f","freq_resp","img/green_2bandit_a.png","70","70","test","","","","4","",""
"null","214381","pSARL_v2","pSARL_v2509hht02","5ecbfc627a51250bfb1f297f","fixation","img/fixation.png","null","","test","","","","","",""
"358.70000000298023","214746","pSARL_v2","pSARL_v2509hht02","5ecbfc627a51250bfb1f297f","freq","img/green_2bandit_a2.png","70","70","test","1","72","72","4","",""
"null","215200","pSARL_v2","pSARL_v2509hht02","5ecbfc627a51250bfb1f297f","freq_resp","img/green_2bandit_a.png","70","70","test","","","","4","",""
"null","215359","pSARL_v2","pSARL_v2509hht02","5ecbfc627a51250bfb1f297f","fixation","img/fixation.png","null","","test","","","","","",""
"301.29999999701977","215666","pSARL_v2","pSARL_v2509hht02","5ecbfc627a51250bfb1f297f","freq","img/green_2bandit_a2.png","70","70","test","1","73","73","4","",""
"null","216181","pSARL_v2","pSARL_v2509hht02","5ecbfc627a51250bfb1f297f","freq_resp","img/green_2bandit_a.png","70","70","test","","","","4","",""
"null","216352","pSARL_v2","pSARL_v2509hht02","5ecbfc627a51250bfb1f297f","fixation","img/fixation.png","null","","test","","","","","",""
"319.79999999701977","216678","pSARL_v2","pSARL_v2509hht02","5ecbfc627a51250bfb1f297f","freq","img/green_2bandit_a2.png","70","70","test","1","74","74","4","",""
"null","217164","pSARL_v2","pSARL_v2509hht02","5ecbfc627a51250bfb1f297f","freq_resp","img/green_2bandit_a.png","70","70","test","","","","4","",""
"null","217319","pSARL_v2","pSARL_v2509hht02","5ecbfc627a51250bfb1f297f","fixation","img/fixation.png","null","","test","","","","","",""
"544.4000000059605","217869","pSARL_v2","pSARL_v2509hht02","5ecbfc627a51250bfb1f297f","infreq","img/orange_2bandit_a2.png","68","68","test","1","75","75","4","",""
"null","218140","pSARL_v2","pSARL_v2509hht02","5ecbfc627a51250bfb1f297f","infreq_resp","img/orange_2bandit_a.png","68","68","test","","","","4","",""
"null","218308","pSARL_v2","pSARL_v2509hht02","5ecbfc627a51250bfb1f297f","fixation","img/fixation.png","null","","test","","","","","",""
"362.5","218677","pSARL_v2","pSARL_v2509hht02","5ecbfc627a51250bfb1f297f","freq","img/green_2bandit_a2.png","70","70","test","1","76","76","4","",""
"null","219120","pSARL_v2","pSARL_v2509hht02","5ecbfc627a51250bfb1f297f","freq_resp","img/green_2bandit_a.png","70","70","test","","","","4","",""
"null","219283","pSARL_v2","pSARL_v2509hht02","5ecbfc627a51250bfb1f297f","fixation","img/fixation.png","null","","test","","","","","",""
"418.09999999403954","219707","pSARL_v2","pSARL_v2509hht02","5ecbfc627a51250bfb1f297f","freq","img/green_2bandit_a2.png","70","70","test","1","77","77","4","",""
"null","220106","pSARL_v2","pSARL_v2509hht02","5ecbfc627a51250bfb1f297f","freq_resp","img/green_2bandit_a.png","70","70","test","","","","4","",""
"null","220276","pSARL_v2","pSARL_v2509hht02","5ecbfc627a51250bfb1f297f","fixation","img/fixation.png","null","","test","","","","","",""
"294.90000000596046","220577","pSARL_v2","pSARL_v2509hht02","5ecbfc627a51250bfb1f297f","freq","img/green_2bandit_a2.png","70","70","test","1","78","78","4","",""
"null","221090","pSARL_v2","pSARL_v2509hht02","5ecbfc627a51250bfb1f297f","freq_resp","img/green_2bandit_a.png","70","70","test","","","","4","",""
"null","221251","pSARL_v2","pSARL_v2509hht02","5ecbfc627a51250bfb1f297f","fixation","img/fixation.png","null","","test","","","","","",""
"422.90000000596046","221680","pSARL_v2","pSARL_v2509hht02","5ecbfc627a51250bfb1f297f","infreq","img/orange_2bandit_a2.png","68","68","test","1","79","79","4","",""
"null","222065","pSARL_v2","pSARL_v2509hht02","5ecbfc627a51250bfb1f297f","infreq_resp","img/orange_2bandit_a.png","68","68","test","","","","4","",""
"null","222225","pSARL_v2","pSARL_v2509hht02","5ecbfc627a51250bfb1f297f","fixation","img/fixation.png","null","","test","","","","","",""
"273.59999999403954","222505","pSARL_v2","pSARL_v2509hht02","5ecbfc627a51250bfb1f297f","freq","img/green_2bandit_a2.png","70","70","test","1","80","80","4","",""
"null","223040","pSARL_v2","pSARL_v2509hht02","5ecbfc627a51250bfb1f297f","freq_resp","img/green_2bandit_a.png","70","70","test","","","","4","",""
"null","223200","pSARL_v2","pSARL_v2509hht02","5ecbfc627a51250bfb1f297f","fixation","img/fixation.png","null","","test","","","","","",""
"292","223498","pSARL_v2","pSARL_v2509hht02","5ecbfc627a51250bfb1f297f","freq","img/green_2bandit_a2.png","70","70","test","1","81","81","4","",""
"null","224023","pSARL_v2","pSARL_v2509hht02","5ecbfc627a51250bfb1f297f","freq_resp","img/green_2bandit_a.png","70","70","test","","","","4","",""
"null","224178","pSARL_v2","pSARL_v2509hht02","5ecbfc627a51250bfb1f297f","fixation","img/fixation.png","null","","test","","","","","",""
"296.09999999403954","224480","pSARL_v2","pSARL_v2509hht02","5ecbfc627a51250bfb1f297f","freq","img/green_2bandit_a2.png","70","70","test","1","82","82","4","",""
"null","225000","pSARL_v2","pSARL_v2509hht02","5ecbfc627a51250bfb1f297f","freq_resp","img/green_2bandit_a.png","70","70","test","","","","4","",""
"null","225167","pSARL_v2","pSARL_v2509hht02","5ecbfc627a51250bfb1f297f","fixation","img/fixation.png","null","","test","","","","","",""
"328","225501","pSARL_v2","pSARL_v2509hht02","5ecbfc627a51250bfb1f297f","freq","img/green_2bandit_a2.png","70","70","test","1","83","83","4","",""
"null","225982","pSARL_v2","pSARL_v2509hht02","5ecbfc627a51250bfb1f297f","freq_resp","img/green_2bandit_a.png","70","70","test","","","","4","",""
"null","226140","pSARL_v2","pSARL_v2509hht02","5ecbfc627a51250bfb1f297f","fixation","img/fixation.png","null","","test","","","","","",""
"247.1000000089407","226393","pSARL_v2","pSARL_v2509hht02","5ecbfc627a51250bfb1f297f","freq","img/green_2bandit_a2.png","70","70","test","1","84","84","4","",""
"null","226967","pSARL_v2","pSARL_v2509hht02","5ecbfc627a51250bfb1f297f","freq_resp","img/green_2bandit_a.png","70","70","test","","","","4","",""
"null","227126","pSARL_v2","pSARL_v2509hht02","5ecbfc627a51250bfb1f297f","fixation","img/fixation.png","null","","test","","","","","",""
"303.79999999701977","227435","pSARL_v2","pSARL_v2509hht02","5ecbfc627a51250bfb1f297f","freq","img/green_2bandit_a2.png","70","70","test","1","85","85","4","",""
"null","227940","pSARL_v2","pSARL_v2509hht02","5ecbfc627a51250bfb1f297f","freq_resp","img/green_2bandit_a.png","70","70","test","","","","4","",""
"null","228109","pSARL_v2","pSARL_v2509hht02","5ecbfc627a51250bfb1f297f","fixation","img/fixation.png","null","","test","","","","","",""
"380.5","228494","pSARL_v2","pSARL_v2509hht02","5ecbfc627a51250bfb1f297f","freq","img/green_2bandit_a2.png","70","70","test","1","86","86","4","",""
"null","228924","pSARL_v2","pSARL_v2509hht02","5ecbfc627a51250bfb1f297f","freq_resp","img/green_2bandit_a.png","70","70","test","","","","4","",""
"null","229087","pSARL_v2","pSARL_v2509hht02","5ecbfc627a51250bfb1f297f","fixation","img/fixation.png","null","","test","","","","","",""
"312","229404","pSARL_v2","pSARL_v2509hht02","5ecbfc627a51250bfb1f297f","freq","img/green_2bandit_a2.png","70","70","test","1","87","87","4","",""
"null","229902","pSARL_v2","pSARL_v2509hht02","5ecbfc627a51250bfb1f297f","freq_resp","img/green_2bandit_a.png","70","70","test","","","","4","",""
"null","230062","pSARL_v2","pSARL_v2509hht02","5ecbfc627a51250bfb1f297f","fixation","img/fixation.png","null","","test","","","","","",""
"350.70000000298023","230419","pSARL_v2","pSARL_v2509hht02","5ecbfc627a51250bfb1f297f","freq","img/green_2bandit_a2.png","70","70","test","1","88","88","4","",""
"null","230879","pSARL_v2","pSARL_v2509hht02","5ecbfc627a51250bfb1f297f","freq_resp","img/green_2bandit_a.png","70","70","test","","","","4","",""
"null","231039","pSARL_v2","pSARL_v2509hht02","5ecbfc627a51250bfb1f297f","fixation","img/fixation.png","null","","test","","","","","",""
"364.09999999403954","231409","pSARL_v2","pSARL_v2509hht02","5ecbfc627a51250bfb1f297f","reward","img/slot.png","74","","test","","","","","",""
"null","232169","pSARL_v2","pSARL_v2509hht02","5ecbfc627a51250bfb1f297f","points","<div class=""verylowPoints""> -3 </div>","null","na","test","","","","4","-3","3"
"418.8999999910593","232594","pSARL_v2","pSARL_v2509hht02","5ecbfc627a51250bfb1f297f","freq","img/green_2bandit_a2.png","70","70","test","1","89","89","5","",""
"null","232996","pSARL_v2","pSARL_v2509hht02","5ecbfc627a51250bfb1f297f","freq_resp","img/green_2bandit_a.png","70","70","test","","","","5","",""
"null","233166","pSARL_v2","pSARL_v2509hht02","5ecbfc627a51250bfb1f297f","fixation","img/fixation.png","null","","test","","","","","",""
"290.79999999701977","233464","pSARL_v2","pSARL_v2509hht02","5ecbfc627a51250bfb1f297f","freq","img/green_2bandit_a2.png","70","70","test","1","90","90","5","",""
"null","233992","pSARL_v2","pSARL_v2509hht02","5ecbfc627a51250bfb1f297f","freq_resp","img/green_2bandit_a.png","70","70","test","","","","5","",""
"null","234161","pSARL_v2","pSARL_v2509hht02","5ecbfc627a51250bfb1f297f","fixation","img/fixation.png","null","","test","","","","","",""
"267.80000001192093","234435","pSARL_v2","pSARL_v2509hht02","5ecbfc627a51250bfb1f297f","freq","img/green_2bandit_a2.png","70","70","test","1","91","91","5","",""
"null","234986","pSARL_v2","pSARL_v2509hht02","5ecbfc627a51250bfb1f297f","freq_resp","img/green_2bandit_a.png","70","70","test","","","","5","",""
"null","235146","pSARL_v2","pSARL_v2509hht02","5ecbfc627a51250bfb1f297f","fixation","img/fixation.png","null","","test","","","","","",""
"304.59999999403954","235457","pSARL_v2","pSARL_v2509hht02","5ecbfc627a51250bfb1f297f","freq","img/green_2bandit_a2.png","70","70","test","1","92","92","5","",""
"null","235961","pSARL_v2","pSARL_v2509hht02","5ecbfc627a51250bfb1f297f","freq_resp","img/green_2bandit_a.png","70","70","test","","","","5","",""
"null","236130","pSARL_v2","pSARL_v2509hht02","5ecbfc627a51250bfb1f297f","fixation","img/fixation.png","null","","test","","","","","",""
"291.20000000298023","236427","pSARL_v2","pSARL_v2509hht02","5ecbfc627a51250bfb1f297f","freq","img/green_2bandit_a2.png","70","70","test","1","93","93","5","",""
"null","236947","pSARL_v2","pSARL_v2509hht02","5ecbfc627a51250bfb1f297f","freq_resp","img/green_2bandit_a.png","70","70","test","","","","5","",""
"null","237117","pSARL_v2","pSARL_v2509hht02","5ecbfc627a51250bfb1f297f","fixation","img/fixation.png","null","","test","","","","","",""
"294.6000000089407","237417","pSARL_v2","pSARL_v2509hht02","5ecbfc627a51250bfb1f297f","freq","img/green_2bandit_a2.png","70","70","test","1","94","94","5","",""
"null","237942","pSARL_v2","pSARL_v2509hht02","5ecbfc627a51250bfb1f297f","freq_resp","img/green_2bandit_a.png","70","70","test","","","","5","",""
"null","238107","pSARL_v2","pSARL_v2509hht02","5ecbfc627a51250bfb1f297f","fixation","img/fixation.png","null","","test","","","","","",""
"257.59999999403954","238371","pSARL_v2","pSARL_v2509hht02","5ecbfc627a51250bfb1f297f","freq","img/green_2bandit_a2.png","70","70","test","1","95","95","5","",""
"null","238927","pSARL_v2","pSARL_v2509hht02","5ecbfc627a51250bfb1f297f","freq_resp","img/green_2bandit_a.png","70","70","test","","","","5","",""
"null","239087","pSARL_v2","pSARL_v2509hht02","5ecbfc627a51250bfb1f297f","fixation","img/fixation.png","null","","test","","","","","",""
"309.5","239402","pSARL_v2","pSARL_v2509hht02","5ecbfc627a51250bfb1f297f","freq","img/green_2bandit_a2.png","70","70","test","1","96","96","5","",""
"null","239911","pSARL_v2","pSARL_v2509hht02","5ecbfc627a51250bfb1f297f","freq_resp","img/green_2bandit_a.png","70","70","test","","","","5","",""
"null","240079","pSARL_v2","pSARL_v2509hht02","5ecbfc627a51250bfb1f297f","fixation","img/fixation.png","null","","test","","","","","",""
"287.40000000596046","240372","pSARL_v2","pSARL_v2509hht02","5ecbfc627a51250bfb1f297f","freq","img/green_2bandit_a2.png","70","70","test","1","97","97","5","",""
"null","240908","pSARL_v2","pSARL_v2509hht02","5ecbfc627a51250bfb1f297f","freq_resp","img/green_2bandit_a.png","70","70","test","","","","5","",""
"null","241066","pSARL_v2","pSARL_v2509hht02","5ecbfc627a51250bfb1f297f","fixation","img/fixation.png","null","","test","","","","","",""
"281.59999999403954","241354","pSARL_v2","pSARL_v2509hht02","5ecbfc627a51250bfb1f297f","freq","img/green_2bandit_a2.png","70","70","test","1","98","98","5","",""
"null","241890","pSARL_v2","pSARL_v2509hht02","5ecbfc627a51250bfb1f297f","freq_resp","img/green_2bandit_a.png","70","70","test","","","","5","",""
"null","242056","pSARL_v2","pSARL_v2509hht02","5ecbfc627a51250bfb1f297f","fixation","img/fixation.png","null","","test","","","","","",""
"322.70000000298023","242385","pSARL_v2","pSARL_v2509hht02","5ecbfc627a51250bfb1f297f","infreq","img/orange_2bandit_a2.png","70","68","test","0","99","99","5","",""
"null","242877","pSARL_v2","pSARL_v2509hht02","5ecbfc627a51250bfb1f297f","infreq_resp","img/orange_2bandit_a.png","70","68","test","","","","5","",""
"null","243036","pSARL_v2","pSARL_v2509hht02","5ecbfc627a51250bfb1f297f","fixation","img/fixation.png","null","","test","","","","","",""
"469.70000000298023","243512","pSARL_v2","pSARL_v2509hht02","5ecbfc627a51250bfb1f297f","infreq","img/orange_2bandit_a2.png","68","68","test","1","100","100","5","",""
"null","243861","pSARL_v2","pSARL_v2509hht02","5ecbfc627a51250bfb1f297f","infreq_resp","img/orange_2bandit_a.png","68","68","test","","","","5","",""
"null","244021","pSARL_v2","pSARL_v2509hht02","5ecbfc627a51250bfb1f297f","fixation","img/fixation.png","null","","test","","","","","",""
"377","244403","pSARL_v2","pSARL_v2509hht02","5ecbfc627a51250bfb1f297f","freq","img/green_2bandit_a2.png","70","70","test","1","101","101","5","",""
"null","244836","pSARL_v2","pSARL_v2509hht02","5ecbfc627a51250bfb1f297f","freq_resp","img/green_2bandit_a.png","70","70","test","","","","5","",""
"null","245006","pSARL_v2","pSARL_v2509hht02","5ecbfc627a51250bfb1f297f","fixation","img/fixation.png","null","","test","","","","","",""
"360.90000000596046","245375","pSARL_v2","pSARL_v2509hht02","5ecbfc627a51250bfb1f297f","freq","img/green_2bandit_a2.png","70","70","test","1","102","102","5","",""
"null","245827","pSARL_v2","pSARL_v2509hht02","5ecbfc627a51250bfb1f297f","freq_resp","img/green_2bandit_a.png","70","70","test","","","","5","",""
"null","245996","pSARL_v2","pSARL_v2509hht02","5ecbfc627a51250bfb1f297f","fixation","img/fixation.png","null","","test","","","","","",""
"319.79999999701977","246322","pSARL_v2","pSARL_v2509hht02","5ecbfc627a51250bfb1f297f","freq","img/green_2bandit_a2.png","70","70","test","1","103","103","5","",""
"null","246809","pSARL_v2","pSARL_v2509hht02","5ecbfc627a51250bfb1f297f","freq_resp","img/green_2bandit_a.png","70","70","test","","","","5","",""
"null","246976","pSARL_v2","pSARL_v2509hht02","5ecbfc627a51250bfb1f297f","fixation","img/fixation.png","null","","test","","","","","",""
"270.59999999403954","247253","pSARL_v2","pSARL_v2509hht02","5ecbfc627a51250bfb1f297f","freq","img/green_2bandit_a2.png","70","70","test","1","104","104","5","",""
"null","247790","pSARL_v2","pSARL_v2509hht02","5ecbfc627a51250bfb1f297f","freq_resp","img/green_2bandit_a.png","70","70","test","","","","5","",""
"null","247951","pSARL_v2","pSARL_v2509hht02","5ecbfc627a51250bfb1f297f","fixation","img/fixation.png","null","","test","","","","","",""
"317.40000000596046","248272","pSARL_v2","pSARL_v2509hht02","5ecbfc627a51250bfb1f297f","freq","img/green_2bandit_a2.png","70","70","test","1","105","105","5","",""
"null","248767","pSARL_v2","pSARL_v2509hht02","5ecbfc627a51250bfb1f297f","freq_resp","img/green_2bandit_a.png","70","70","test","","","","5","",""
"null","248927","pSARL_v2","pSARL_v2509hht02","5ecbfc627a51250bfb1f297f","fixation","img/fixation.png","null","","test","","","","","",""
"314.5","249247","pSARL_v2","pSARL_v2509hht02","5ecbfc627a51250bfb1f297f","freq","img/green_2bandit_a2.png","70","70","test","1","106","106","5","",""
"null","249750","pSARL_v2","pSARL_v2509hht02","5ecbfc627a51250bfb1f297f","freq_resp","img/green_2bandit_a.png","70","70","test","","","","5","",""
"null","249914","pSARL_v2","pSARL_v2509hht02","5ecbfc627a51250bfb1f297f","fixation","img/fixation.png","null","","test","","","","","",""
"277.40000000596046","250197","pSARL_v2","pSARL_v2509hht02","5ecbfc627a51250bfb1f297f","freq","img/green_2bandit_a2.png","70","70","test","1","107","107","5","",""
"null","250737","pSARL_v2","pSARL_v2509hht02","5ecbfc627a51250bfb1f297f","freq_resp","img/green_2bandit_a.png","70","70","test","","","","5","",""
"null","250897","pSARL_v2","pSARL_v2509hht02","5ecbfc627a51250bfb1f297f","fixation","img/fixation.png","null","","test","","","","","",""
"296.09999999403954","251199","pSARL_v2","pSARL_v2509hht02","5ecbfc627a51250bfb1f297f","freq","img/green_2bandit_a2.png","70","70","test","1","108","108","5","",""
"null","251721","pSARL_v2","pSARL_v2509hht02","5ecbfc627a51250bfb1f297f","freq_resp","img/green_2bandit_a.png","70","70","test","","","","5","",""
"null","251881","pSARL_v2","pSARL_v2509hht02","5ecbfc627a51250bfb1f297f","fixation","img/fixation.png","null","","test","","","","","",""
"302.20000000298023","252186","pSARL_v2","pSARL_v2509hht02","5ecbfc627a51250bfb1f297f","freq","img/green_2bandit_a2.png","70","70","test","1","109","109","5","",""
"null","252697","pSARL_v2","pSARL_v2509hht02","5ecbfc627a51250bfb1f297f","freq_resp","img/green_2bandit_a.png","70","70","test","","","","5","",""
"null","252862","pSARL_v2","pSARL_v2509hht02","5ecbfc627a51250bfb1f297f","fixation","img/fixation.png","null","","test","","","","","",""
"304.29999999701977","253172","pSARL_v2","pSARL_v2509hht02","5ecbfc627a51250bfb1f297f","freq","img/green_2bandit_a2.png","70","70","test","1","110","110","5","",""
"null","253682","pSARL_v2","pSARL_v2509hht02","5ecbfc627a51250bfb1f297f","freq_resp","img/green_2bandit_a.png","70","70","test","","","","5","",""
"null","253842","pSARL_v2","pSARL_v2509hht02","5ecbfc627a51250bfb1f297f","fixation","img/fixation.png","null","","test","","","","","",""
"325.29999999701977","254173","pSARL_v2","pSARL_v2509hht02","5ecbfc627a51250bfb1f297f","freq","img/green_2bandit_a2.png","70","70","test","1","111","111","5","",""
"null","254657","pSARL_v2","pSARL_v2509hht02","5ecbfc627a51250bfb1f297f","freq_resp","img/green_2bandit_a.png","70","70","test","","","","5","",""
"null","254827","pSARL_v2","pSARL_v2509hht02","5ecbfc627a51250bfb1f297f","fixation","img/fixation.png","null","","test","","","","","",""
"341.5","255175","pSARL_v2","pSARL_v2509hht02","5ecbfc627a51250bfb1f297f","reward","img/slot.png","74","","test","","","","","",""
"null","255932","pSARL_v2","pSARL_v2509hht02","5ecbfc627a51250bfb1f297f","points","<div class=""veryhighPoints""> +1 </div>","null","na","test","","","","5","1","4"
"549.0999999940395","256487","pSARL_v2","pSARL_v2509hht02","5ecbfc627a51250bfb1f297f","freq","img/green_2bandit_a2.png","70","70","test","1","112","112","6","",""
"null","256747","pSARL_v2","pSARL_v2509hht02","5ecbfc627a51250bfb1f297f","freq_resp","img/green_2bandit_a.png","70","70","test","","","","6","",""
"null","256907","pSARL_v2","pSARL_v2509hht02","5ecbfc627a51250bfb1f297f","fixation","img/fixation.png","null","","test","","","","","",""
"309.79999999701977","257221","pSARL_v2","pSARL_v2509hht02","5ecbfc627a51250bfb1f297f","freq","img/green_2bandit_a2.png","70","70","test","1","113","113","6","",""
"null","257726","pSARL_v2","pSARL_v2509hht02","5ecbfc627a51250bfb1f297f","freq_resp","img/green_2bandit_a.png","70","70","test","","","","6","",""
"null","257887","pSARL_v2","pSARL_v2509hht02","5ecbfc627a51250bfb1f297f","fixation","img/fixation.png","null","","test","","","","","",""
"283.79999999701977","258177","pSARL_v2","pSARL_v2509hht02","5ecbfc627a51250bfb1f297f","freq","img/green_2bandit_a2.png","70","70","test","1","114","114","6","",""
"null","258701","pSARL_v2","pSARL_v2509hht02","5ecbfc627a51250bfb1f297f","freq_resp","img/green_2bandit_a.png","70","70","test","","","","6","",""
"null","258866","pSARL_v2","pSARL_v2509hht02","5ecbfc627a51250bfb1f297f","fixation","img/fixation.png","null","","test","","","","","",""
"355.90000000596046","259227","pSARL_v2","pSARL_v2509hht02","5ecbfc627a51250bfb1f297f","freq","img/green_2bandit_a2.png","70","70","test","1","115","115","6","",""
"null","259680","pSARL_v2","pSARL_v2509hht02","5ecbfc627a51250bfb1f297f","freq_resp","img/green_2bandit_a.png","70","70","test","","","","6","",""
"null","259841","pSARL_v2","pSARL_v2509hht02","5ecbfc627a51250bfb1f297f","fixation","img/fixation.png","null","","test","","","","","",""
"422.90000000596046","260270","pSARL_v2","pSARL_v2509hht02","5ecbfc627a51250bfb1f297f","infreq","img/orange_2bandit_a2.png","68","68","test","1","116","116","6","",""
"null","260657","pSARL_v2","pSARL_v2509hht02","5ecbfc627a51250bfb1f297f","infreq_resp","img/orange_2bandit_a.png","68","68","test","","","","6","",""
"null","260815","pSARL_v2","pSARL_v2509hht02","5ecbfc627a51250bfb1f297f","fixation","img/fixation.png","null","","test","","","","","",""
"349.09999999403954","261171","pSARL_v2","pSARL_v2509hht02","5ecbfc627a51250bfb1f297f","freq","img/green_2bandit_a2.png","70","70","test","1","117","117","6","",""
"null","261641","pSARL_v2","pSARL_v2509hht02","5ecbfc627a51250bfb1f297f","freq_resp","img/green_2bandit_a.png","70","70","test","","","","6","",""
"null","261801","pSARL_v2","pSARL_v2509hht02","5ecbfc627a51250bfb1f297f","fixation","img/fixation.png","null","","test","","","","","",""
"522.1999999880791","262330","pSARL_v2","pSARL_v2509hht02","5ecbfc627a51250bfb1f297f","freq","img/green_2bandit_a2.png","70","70","test","1","118","118","6","",""
"null","262619","pSARL_v2","pSARL_v2509hht02","5ecbfc627a51250bfb1f297f","freq_resp","img/green_2bandit_a.png","70","70","test","","","","6","",""
"null","262784","pSARL_v2","pSARL_v2509hht02","5ecbfc627a51250bfb1f297f","fixation","img/fixation.png","null","","test","","","","","",""
"359.70000000298023","263151","pSARL_v2","pSARL_v2509hht02","5ecbfc627a51250bfb1f297f","freq","img/green_2bandit_a2.png","70","70","test","1","119","119","6","",""
"null","263611","pSARL_v2","pSARL_v2509hht02","5ecbfc627a51250bfb1f297f","freq_resp","img/green_2bandit_a.png","70","70","test","","","","6","",""
"null","263776","pSARL_v2","pSARL_v2509hht02","5ecbfc627a51250bfb1f297f","fixation","img/fixation.png","null","","test","","","","","",""
"359.90000000596046","264143","pSARL_v2","pSARL_v2509hht02","5ecbfc627a51250bfb1f297f","freq","img/green_2bandit_a2.png","70","70","test","1","120","120","6","",""
"null","264590","pSARL_v2","pSARL_v2509hht02","5ecbfc627a51250bfb1f297f","freq_resp","img/green_2bandit_a.png","70","70","test","","","","6","",""
"null","264751","pSARL_v2","pSARL_v2509hht02","5ecbfc627a51250bfb1f297f","fixation","img/fixation.png","null","","test","","","","","",""
"304.59999999403954","265061","pSARL_v2","pSARL_v2509hht02","5ecbfc627a51250bfb1f297f","freq","img/green_2bandit_a2.png","70","70","test","1","121","121","6","",""
"null","265564","pSARL_v2","pSARL_v2509hht02","5ecbfc627a51250bfb1f297f","freq_resp","img/green_2bandit_a.png","70","70","test","","","","6","",""
"null","265725","pSARL_v2","pSARL_v2509hht02","5ecbfc627a51250bfb1f297f","fixation","img/fixation.png","null","","test","","","","","",""
"412.90000000596046","266144","pSARL_v2","pSARL_v2509hht02","5ecbfc627a51250bfb1f297f","infreq","img/orange_2bandit_a2.png","68","68","test","1","122","122","6","",""
"null","266539","pSARL_v2","pSARL_v2509hht02","5ecbfc627a51250bfb1f297f","infreq_resp","img/orange_2bandit_a.png","68","68","test","","","","6","",""
"null","266705","pSARL_v2","pSARL_v2509hht02","5ecbfc627a51250bfb1f297f","fixation","img/fixation.png","null","","test","","","","","",""
"465.1000000089407","267174","pSARL_v2","pSARL_v2509hht02","5ecbfc627a51250bfb1f297f","freq","img/green_2bandit_a2.png","70","70","test","1","123","123","6","",""
"null","267517","pSARL_v2","pSARL_v2509hht02","5ecbfc627a51250bfb1f297f","freq_resp","img/green_2bandit_a.png","70","70","test","","","","6","",""
"null","267677","pSARL_v2","pSARL_v2509hht02","5ecbfc627a51250bfb1f297f","fixation","img/fixation.png","null","","test","","","","","",""
"567.1999999880791","268250","pSARL_v2","pSARL_v2509hht02","5ecbfc627a51250bfb1f297f","infreq","img/orange_2bandit_a2.png","68","68","test","1","124","124","6","",""
"null","268497","pSARL_v2","pSARL_v2509hht02","5ecbfc627a51250bfb1f297f","infreq_resp","img/orange_2bandit_a.png","68","68","test","","","","6","",""
"null","268658","pSARL_v2","pSARL_v2509hht02","5ecbfc627a51250bfb1f297f","fixation","img/fixation.png","null","","test","","","","","",""
"340.69999998807907","269003","pSARL_v2","pSARL_v2509hht02","5ecbfc627a51250bfb1f297f","freq","img/green_2bandit_a2.png","70","70","test","1","125","125","6","",""
"null","269472","pSARL_v2","pSARL_v2509hht02","5ecbfc627a51250bfb1f297f","freq_resp","img/green_2bandit_a.png","70","70","test","","","","6","",""
"null","269642","pSARL_v2","pSARL_v2509hht02","5ecbfc627a51250bfb1f297f","fixation","img/fixation.png","null","","test","","","","","",""
"298.70000000298023","269947","pSARL_v2","pSARL_v2509hht02","5ecbfc627a51250bfb1f297f","freq","img/green_2bandit_a2.png","70","70","test","1","126","126","6","",""
"null","270466","pSARL_v2","pSARL_v2509hht02","5ecbfc627a51250bfb1f297f","freq_resp","img/green_2bandit_a.png","70","70","test","","","","6","",""
"null","270637","pSARL_v2","pSARL_v2509hht02","5ecbfc627a51250bfb1f297f","fixation","img/fixation.png","null","","test","","","","","",""
"285.59999999403954","270928","pSARL_v2","pSARL_v2509hht02","5ecbfc627a51250bfb1f297f","freq","img/green_2bandit_a2.png","70","70","test","1","127","127","6","",""
"null","271452","pSARL_v2","pSARL_v2509hht02","5ecbfc627a51250bfb1f297f","freq_resp","img/green_2bandit_a.png","70","70","test","","","","6","",""
"null","271611","pSARL_v2","pSARL_v2509hht02","5ecbfc627a51250bfb1f297f","fixation","img/fixation.png","null","","test","","","","","",""
"291.90000000596046","271911","pSARL_v2","pSARL_v2509hht02","5ecbfc627a51250bfb1f297f","freq","img/green_2bandit_a2.png","70","70","test","1","128","128","6","",""
"null","272437","pSARL_v2","pSARL_v2509hht02","5ecbfc627a51250bfb1f297f","freq_resp","img/green_2bandit_a.png","70","70","test","","","","6","",""
"null","272601","pSARL_v2","pSARL_v2509hht02","5ecbfc627a51250bfb1f297f","fixation","img/fixation.png","null","","test","","","","","",""
"324.20000000298023","272931","pSARL_v2","pSARL_v2509hht02","5ecbfc627a51250bfb1f297f","freq","img/green_2bandit_a2.png","70","70","test","1","129","129","6","",""
"null","273426","pSARL_v2","pSARL_v2509hht02","5ecbfc627a51250bfb1f297f","freq_resp","img/green_2bandit_a.png","70","70","test","","","","6","",""
"null","273590","pSARL_v2","pSARL_v2509hht02","5ecbfc627a51250bfb1f297f","fixation","img/fixation.png","null","","test","","","","","",""
"276.40000000596046","273872","pSARL_v2","pSARL_v2509hht02","5ecbfc627a51250bfb1f297f","freq","img/green_2bandit_a2.png","70","70","test","1","130","130","6","",""
"null","274406","pSARL_v2","pSARL_v2509hht02","5ecbfc627a51250bfb1f297f","freq_resp","img/green_2bandit_a.png","70","70","test","","","","6","",""
"null","274576","pSARL_v2","pSARL_v2509hht02","5ecbfc627a51250bfb1f297f","fixation","img/fixation.png","null","","test","","","","","",""
"311.29999999701977","274891","pSARL_v2","pSARL_v2509hht02","5ecbfc627a51250bfb1f297f","freq","img/green_2bandit_a2.png","70","70","test","1","131","131","6","",""
"null","275396","pSARL_v2","pSARL_v2509hht02","5ecbfc627a51250bfb1f297f","freq_resp","img/green_2bandit_a.png","70","70","test","","","","6","",""
"null","275561","pSARL_v2","pSARL_v2509hht02","5ecbfc627a51250bfb1f297f","fixation","img/fixation.png","null","","test","","","","","",""
"328.79999999701977","275896","pSARL_v2","pSARL_v2509hht02","5ecbfc627a51250bfb1f297f","freq","img/green_2bandit_a2.png","70","70","test","1","132","132","6","",""
"null","276386","pSARL_v2","pSARL_v2509hht02","5ecbfc627a51250bfb1f297f","freq_resp","img/green_2bandit_a.png","70","70","test","","","","6","",""
"null","276550","pSARL_v2","pSARL_v2509hht02","5ecbfc627a51250bfb1f297f","fixation","img/fixation.png","null","","test","","","","","",""
"290.59999999403954","276847","pSARL_v2","pSARL_v2509hht02","5ecbfc627a51250bfb1f297f","freq","img/green_2bandit_a2.png","70","70","test","1","133","133","6","",""
"null","277372","pSARL_v2","pSARL_v2509hht02","5ecbfc627a51250bfb1f297f","freq_resp","img/green_2bandit_a.png","70","70","test","","","","6","",""
"null","277532","pSARL_v2","pSARL_v2509hht02","5ecbfc627a51250bfb1f297f","fixation","img/fixation.png","null","","test","","","","","",""
"329.5","277867","pSARL_v2","pSARL_v2509hht02","5ecbfc627a51250bfb1f297f","reward","img/slot.png","74","","test","","","","","",""
"null","278625","pSARL_v2","pSARL_v2509hht02","5ecbfc627a51250bfb1f297f","points","<div class=""verylowPoints""> -7 </div>","null","na","test","","","","6","-7","5"
"371.90000000596046","279002","pSARL_v2","pSARL_v2509hht02","5ecbfc627a51250bfb1f297f","freq","img/green_2bandit_a2.png","70","70","test","1","134","134","7","",""
"null","279437","pSARL_v2","pSARL_v2509hht02","5ecbfc627a51250bfb1f297f","freq_resp","img/green_2bandit_a.png","70","70","test","","","","7","",""
"null","279602","pSARL_v2","pSARL_v2509hht02","5ecbfc627a51250bfb1f297f","fixation","img/fixation.png","null","","test","","","","","",""
"274.70000000298023","279882","pSARL_v2","pSARL_v2509hht02","5ecbfc627a51250bfb1f297f","freq","img/green_2bandit_a2.png","70","70","test","1","135","135","7","",""
"null","280427","pSARL_v2","pSARL_v2509hht02","5ecbfc627a51250bfb1f297f","freq_resp","img/green_2bandit_a.png","70","70","test","","","","7","",""
"null","280592","pSARL_v2","pSARL_v2509hht02","5ecbfc627a51250bfb1f297f","fixation","img/fixation.png","null","","test","","","","","",""
"231.09999999403954","280830","pSARL_v2","pSARL_v2509hht02","5ecbfc627a51250bfb1f297f","freq","img/green_2bandit_a2.png","70","70","test","1","136","136","7","",""
"null","281406","pSARL_v2","pSARL_v2509hht02","5ecbfc627a51250bfb1f297f","freq_resp","img/green_2bandit_a.png","70","70","test","","","","7","",""
"null","281566","pSARL_v2","pSARL_v2509hht02","5ecbfc627a51250bfb1f297f","fixation","img/fixation.png","null","","test","","","","","",""
"502.1000000089407","282075","pSARL_v2","pSARL_v2509hht02","5ecbfc627a51250bfb1f297f","freq","img/green_2bandit_a2.png","70","70","test","1","137","137","7","",""
"null","282387","pSARL_v2","pSARL_v2509hht02","5ecbfc627a51250bfb1f297f","freq_resp","img/green_2bandit_a.png","70","70","test","","","","7","",""
"null","282547","pSARL_v2","pSARL_v2509hht02","5ecbfc627a51250bfb1f297f","fixation","img/fixation.png","null","","test","","","","","",""
"274.79999999701977","282825","pSARL_v2","pSARL_v2509hht02","5ecbfc627a51250bfb1f297f","freq","img/green_2bandit_a2.png","70","70","test","1","138","138","7","",""
"null","283361","pSARL_v2","pSARL_v2509hht02","5ecbfc627a51250bfb1f297f","freq_resp","img/green_2bandit_a.png","70","70","test","","","","7","",""
"null","283532","pSARL_v2","pSARL_v2509hht02","5ecbfc627a51250bfb1f297f","fixation","img/fixation.png","null","","test","","","","","",""
"300.79999999701977","283840","pSARL_v2","pSARL_v2509hht02","5ecbfc627a51250bfb1f297f","freq","img/green_2bandit_a2.png","70","70","test","1","139","139","7","",""
"null","284356","pSARL_v2","pSARL_v2509hht02","5ecbfc627a51250bfb1f297f","freq_resp","img/green_2bandit_a.png","70","70","test","","","","7","",""
"null","284517","pSARL_v2","pSARL_v2509hht02","5ecbfc627a51250bfb1f297f","fixation","img/fixation.png","null","","test","","","","","",""
"285.20000000298023","284807","pSARL_v2","pSARL_v2509hht02","5ecbfc627a51250bfb1f297f","freq","img/green_2bandit_a2.png","70","70","test","1","140","140","7","",""
"null","285336","pSARL_v2","pSARL_v2509hht02","5ecbfc627a51250bfb1f297f","freq_resp","img/green_2bandit_a.png","70","70","test","","","","7","",""
"null","285497","pSARL_v2","pSARL_v2509hht02","5ecbfc627a51250bfb1f297f","fixation","img/fixation.png","null","","test","","","","","",""
"279.30000001192093","285782","pSARL_v2","pSARL_v2509hht02","5ecbfc627a51250bfb1f297f","freq","img/green_2bandit_a2.png","70","70","test","1","141","141","7","",""
"null","286317","pSARL_v2","pSARL_v2509hht02","5ecbfc627a51250bfb1f297f","freq_resp","img/green_2bandit_a.png","70","70","test","","","","7","",""
"null","286487","pSARL_v2","pSARL_v2509hht02","5ecbfc627a51250bfb1f297f","fixation","img/fixation.png","null","","test","","","","","",""
"279.90000000596046","286771","pSARL_v2","pSARL_v2509hht02","5ecbfc627a51250bfb1f297f","freq","img/green_2bandit_a2.png","70","70","test","1","142","142","7","",""
"null","287307","pSARL_v2","pSARL_v2509hht02","5ecbfc627a51250bfb1f297f","freq_resp","img/green_2bandit_a.png","70","70","test","","","","7","",""
"null","287476","pSARL_v2","pSARL_v2509hht02","5ecbfc627a51250bfb1f297f","fixation","img/fixation.png","null","","test","","","","","",""
"288.30000001192093","287770","pSARL_v2","pSARL_v2509hht02","5ecbfc627a51250bfb1f297f","freq","img/green_2bandit_a2.png","70","70","test","1","143","143","7","",""
"null","288290","pSARL_v2","pSARL_v2509hht02","5ecbfc627a51250bfb1f297f","freq_resp","img/green_2bandit_a.png","70","70","test","","","","7","",""
"null","288457","pSARL_v2","pSARL_v2509hht02","5ecbfc627a51250bfb1f297f","fixation","img/fixation.png","null","","test","","","","","",""
"309.6000000089407","288771","pSARL_v2","pSARL_v2509hht02","5ecbfc627a51250bfb1f297f","freq","img/green_2bandit_a2.png","70","70","test","1","144","144","7","",""
"null","289274","pSARL_v2","pSARL_v2509hht02","5ecbfc627a51250bfb1f297f","freq_resp","img/green_2bandit_a.png","70","70","test","","","","7","",""
"null","289445","pSARL_v2","pSARL_v2509hht02","5ecbfc627a51250bfb1f297f","fixation","img/fixation.png","null","","test","","","","","",""
"271.5","289723","pSARL_v2","pSARL_v2509hht02","5ecbfc627a51250bfb1f297f","freq","img/green_2bandit_a2.png","70","70","test","1","145","145","7","",""
"null","290270","pSARL_v2","pSARL_v2509hht02","5ecbfc627a51250bfb1f297f","freq_resp","img/green_2bandit_a.png","70","70","test","","","","7","",""
"null","290426","pSARL_v2","pSARL_v2509hht02","5ecbfc627a51250bfb1f297f","fixation","img/fixation.png","null","","test","","","","","",""
"272.90000000596046","290705","pSARL_v2","pSARL_v2509hht02","5ecbfc627a51250bfb1f297f","freq","img/green_2bandit_a2.png","70","70","test","1","146","146","7","",""
"null","291247","pSARL_v2","pSARL_v2509hht02","5ecbfc627a51250bfb1f297f","freq_resp","img/green_2bandit_a.png","70","70","test","","","","7","",""
"null","291417","pSARL_v2","pSARL_v2509hht02","5ecbfc627a51250bfb1f297f","fixation","img/fixation.png","null","","test","","","","","",""
"342","291763","pSARL_v2","pSARL_v2509hht02","5ecbfc627a51250bfb1f297f","freq","img/green_2bandit_a2.png","70","70","test","1","147","147","7","",""
"null","292226","pSARL_v2","pSARL_v2509hht02","5ecbfc627a51250bfb1f297f","freq_resp","img/green_2bandit_a.png","70","70","test","","","","7","",""
"null","292392","pSARL_v2","pSARL_v2509hht02","5ecbfc627a51250bfb1f297f","fixation","img/fixation.png","null","","test","","","","","",""
"307.6000000089407","292706","pSARL_v2","pSARL_v2509hht02","5ecbfc627a51250bfb1f297f","freq","img/green_2bandit_a2.png","70","70","test","1","148","148","7","",""
"null","293216","pSARL_v2","pSARL_v2509hht02","5ecbfc627a51250bfb1f297f","freq_resp","img/green_2bandit_a.png","70","70","test","","","","7","",""
"null","293382","pSARL_v2","pSARL_v2509hht02","5ecbfc627a51250bfb1f297f","fixation","img/fixation.png","null","","test","","","","","",""
"393.09999999403954","293781","pSARL_v2","pSARL_v2509hht02","5ecbfc627a51250bfb1f297f","infreq","img/orange_2bandit_a2.png","68","68","test","1","149","149","7","",""
"null","294197","pSARL_v2","pSARL_v2509hht02","5ecbfc627a51250bfb1f297f","infreq_resp","img/orange_2bandit_a.png","68","68","test","","","","7","",""
"null","294357","pSARL_v2","pSARL_v2509hht02","5ecbfc627a51250bfb1f297f","fixation","img/fixation.png","null","","test","","","","","",""
"266.09999999403954","294631","pSARL_v2","pSARL_v2509hht02","5ecbfc627a51250bfb1f297f","infreq","img/orange_2bandit_a2.png","70","68","test","0","150","150","7","",""
"null","295177","pSARL_v2","pSARL_v2509hht02","5ecbfc627a51250bfb1f297f","infreq_resp","img/orange_2bandit_a.png","70","68","test","","","","7","",""
"null","295342","pSARL_v2","pSARL_v2509hht02","5ecbfc627a51250bfb1f297f","fixation","img/fixation.png","null","","test","","","","","",""
"365.6000000089407","295714","pSARL_v2","pSARL_v2509hht02","5ecbfc627a51250bfb1f297f","freq","img/green_2bandit_a2.png","70","70","test","1","151","151","7","",""
"null","296162","pSARL_v2","pSARL_v2509hht02","5ecbfc627a51250bfb1f297f","freq_resp","img/green_2bandit_a.png","70","70","test","","","","7","",""
"null","296333","pSARL_v2","pSARL_v2509hht02","5ecbfc627a51250bfb1f297f","fixation","img/fixation.png","null","","test","","","","","",""
"285.8999999910593","296625","pSARL_v2","pSARL_v2509hht02","5ecbfc627a51250bfb1f297f","freq","img/green_2bandit_a2.png","70","70","test","1","152","152","7","",""
"null","297152","pSARL_v2","pSARL_v2509hht02","5ecbfc627a51250bfb1f297f","freq_resp","img/green_2bandit_a.png","70","70","test","","","","7","",""
"null","297323","pSARL_v2","pSARL_v2509hht02","5ecbfc627a51250bfb1f297f","fixation","img/fixation.png","null","","test","","","","","",""
"252.79999999701977","297582","pSARL_v2","pSARL_v2509hht02","5ecbfc627a51250bfb1f297f","freq","img/green_2bandit_a2.png","70","70","test","1","153","153","7","",""
"null","298142","pSARL_v2","pSARL_v2509hht02","5ecbfc627a51250bfb1f297f","freq_resp","img/green_2bandit_a.png","70","70","test","","","","7","",""
"null","298302","pSARL_v2","pSARL_v2509hht02","5ecbfc627a51250bfb1f297f","fixation","img/fixation.png","null","","test","","","","","",""
"336.90000000596046","298643","pSARL_v2","pSARL_v2509hht02","5ecbfc627a51250bfb1f297f","freq","img/green_2bandit_a2.png","70","70","test","1","154","154","7","",""
"null","299122","pSARL_v2","pSARL_v2509hht02","5ecbfc627a51250bfb1f297f","freq_resp","img/green_2bandit_a.png","70","70","test","","","","7","",""
"null","299280","pSARL_v2","pSARL_v2509hht02","5ecbfc627a51250bfb1f297f","fixation","img/fixation.png","null","","test","","","","","",""
"279","299564","pSARL_v2","pSARL_v2509hht02","5ecbfc627a51250bfb1f297f","freq","img/green_2bandit_a2.png","70","70","test","1","155","155","7","",""
"null","300094","pSARL_v2","pSARL_v2509hht02","5ecbfc627a51250bfb1f297f","freq_resp","img/green_2bandit_a.png","70","70","test","","","","7","",""
"null","300260","pSARL_v2","pSARL_v2509hht02","5ecbfc627a51250bfb1f297f","fixation","img/fixation.png","null","","test","","","","","",""
"319.20000000298023","300585","pSARL_v2","pSARL_v2509hht02","5ecbfc627a51250bfb1f297f","freq","img/green_2bandit_a2.png","70","70","test","1","156","156","7","",""
"null","301082","pSARL_v2","pSARL_v2509hht02","5ecbfc627a51250bfb1f297f","freq_resp","img/green_2bandit_a.png","70","70","test","","","","7","",""
"null","301252","pSARL_v2","pSARL_v2509hht02","5ecbfc627a51250bfb1f297f","fixation","img/fixation.png","null","","test","","","","","",""
"288.09999999403954","301547","pSARL_v2","pSARL_v2509hht02","5ecbfc627a51250bfb1f297f","freq","img/green_2bandit_a2.png","70","70","test","1","157","157","7","",""
"null","302072","pSARL_v2","pSARL_v2509hht02","5ecbfc627a51250bfb1f297f","freq_resp","img/green_2bandit_a.png","70","70","test","","","","7","",""
"null","302233","pSARL_v2","pSARL_v2509hht02","5ecbfc627a51250bfb1f297f","fixation","img/fixation.png","null","","test","","","","","",""
"382.30000001192093","302621","pSARL_v2","pSARL_v2509hht02","5ecbfc627a51250bfb1f297f","reward","img/slot.png","74","","test","","","","","",""
"null","303382","pSARL_v2","pSARL_v2509hht02","5ecbfc627a51250bfb1f297f","points","<div class=""verylowPoints""> -6 </div>","null","na","test","","","","7","-6","6"
"337","303725","pSARL_v2","pSARL_v2509hht02","5ecbfc627a51250bfb1f297f","freq","img/green_2bandit_a2.png","70","70","test","1","158","158","8","",""
"null","304206","pSARL_v2","pSARL_v2509hht02","5ecbfc627a51250bfb1f297f","freq_resp","img/green_2bandit_a.png","70","70","test","","","","8","",""
"null","304375","pSARL_v2","pSARL_v2509hht02","5ecbfc627a51250bfb1f297f","fixation","img/fixation.png","null","","test","","","","","",""
"290.59999999403954","304672","pSARL_v2","pSARL_v2509hht02","5ecbfc627a51250bfb1f297f","freq","img/green_2bandit_a2.png","70","70","test","1","159","159","8","",""
"null","305203","pSARL_v2","pSARL_v2509hht02","5ecbfc627a51250bfb1f297f","freq_resp","img/green_2bandit_a.png","70","70","test","","","","8","",""
"null","305367","pSARL_v2","pSARL_v2509hht02","5ecbfc627a51250bfb1f297f","fixation","img/fixation.png","null","","test","","","","","",""
"309.70000000298023","305683","pSARL_v2","pSARL_v2509hht02","5ecbfc627a51250bfb1f297f","freq","img/green_2bandit_a2.png","70","70","test","1","160","160","8","",""
"null","306192","pSARL_v2","pSARL_v2509hht02","5ecbfc627a51250bfb1f297f","freq_resp","img/green_2bandit_a.png","70","70","test","","","","8","",""
"null","306362","pSARL_v2","pSARL_v2509hht02","5ecbfc627a51250bfb1f297f","fixation","img/fixation.png","null","","test","","","","","",""
"274.5","306642","pSARL_v2","pSARL_v2509hht02","5ecbfc627a51250bfb1f297f","freq","img/green_2bandit_a2.png","70","70","test","1","161","161","8","",""
"null","307180","pSARL_v2","pSARL_v2509hht02","5ecbfc627a51250bfb1f297f","freq_resp","img/green_2bandit_a.png","70","70","test","","","","8","",""
"null","307337","pSARL_v2","pSARL_v2509hht02","5ecbfc627a51250bfb1f297f","fixation","img/fixation.png","null","","test","","","","","",""
"391.8999999910593","307735","pSARL_v2","pSARL_v2509hht02","5ecbfc627a51250bfb1f297f","infreq","img/orange_2bandit_a2.png","68","68","test","1","162","162","8","",""
"null","308154","pSARL_v2","pSARL_v2509hht02","5ecbfc627a51250bfb1f297f","infreq_resp","img/orange_2bandit_a.png","68","68","test","","","","8","",""
"null","308312","pSARL_v2","pSARL_v2509hht02","5ecbfc627a51250bfb1f297f","fixation","img/fixation.png","null","","test","","","","","",""
"471.6000000089407","308787","pSARL_v2","pSARL_v2509hht02","5ecbfc627a51250bfb1f297f","freq","img/green_2bandit_a2.png","70","70","test","1","163","163","8","",""
"null","309123","pSARL_v2","pSARL_v2509hht02","5ecbfc627a51250bfb1f297f","freq_resp","img/green_2bandit_a.png","70","70","test","","","","8","",""
"null","309292","pSARL_v2","pSARL_v2509hht02","5ecbfc627a51250bfb1f297f","fixation","img/fixation.png","null","","test","","","","","",""
"299.3999999910593","309598","pSARL_v2","pSARL_v2509hht02","5ecbfc627a51250bfb1f297f","freq","img/green_2bandit_a2.png","70","70","test","1","164","164","8","",""
"null","310113","pSARL_v2","pSARL_v2509hht02","5ecbfc627a51250bfb1f297f","freq_resp","img/green_2bandit_a.png","70","70","test","","","","8","",""
"null","310272","pSARL_v2","pSARL_v2509hht02","5ecbfc627a51250bfb1f297f","fixation","img/fixation.png","null","","test","","","","","",""
"370.1000000089407","310651","pSARL_v2","pSARL_v2509hht02","5ecbfc627a51250bfb1f297f","freq","img/green_2bandit_a2.png","70","70","test","1","165","165","8","",""
"null","311086","pSARL_v2","pSARL_v2509hht02","5ecbfc627a51250bfb1f297f","freq_resp","img/green_2bandit_a.png","70","70","test","","","","8","",""
"null","311257","pSARL_v2","pSARL_v2509hht02","5ecbfc627a51250bfb1f297f","fixation","img/fixation.png","null","","test","","","","","",""
"274.20000000298023","311534","pSARL_v2","pSARL_v2509hht02","5ecbfc627a51250bfb1f297f","freq","img/green_2bandit_a2.png","70","70","test","1","166","166","8","",""
"null","312067","pSARL_v2","pSARL_v2509hht02","5ecbfc627a51250bfb1f297f","freq_resp","img/green_2bandit_a.png","70","70","test","","","","8","",""
"null","312225","pSARL_v2","pSARL_v2509hht02","5ecbfc627a51250bfb1f297f","fixation","img/fixation.png","null","","test","","","","","",""
"348.09999999403954","312579","pSARL_v2","pSARL_v2509hht02","5ecbfc627a51250bfb1f297f","freq","img/green_2bandit_a2.png","70","70","test","1","167","167","8","",""
"null","313036","pSARL_v2","pSARL_v2509hht02","5ecbfc627a51250bfb1f297f","freq_resp","img/green_2bandit_a.png","70","70","test","","","","8","",""
"null","313208","pSARL_v2","pSARL_v2509hht02","5ecbfc627a51250bfb1f297f","fixation","img/fixation.png","null","","test","","","","","",""
"315.5","313530","pSARL_v2","pSARL_v2509hht02","5ecbfc627a51250bfb1f297f","freq","img/green_2bandit_a2.png","70","70","test","1","168","168","8","",""
"null","314022","pSARL_v2","pSARL_v2509hht02","5ecbfc627a51250bfb1f297f","freq_resp","img/green_2bandit_a.png","70","70","test","","","","8","",""
"null","314180","pSARL_v2","pSARL_v2509hht02","5ecbfc627a51250bfb1f297f","fixation","img/fixation.png","null","","test","","","","","",""
"305.79999999701977","314492","pSARL_v2","pSARL_v2509hht02","5ecbfc627a51250bfb1f297f","freq","img/green_2bandit_a2.png","70","70","test","1","169","169","8","",""
"null","315002","pSARL_v2","pSARL_v2509hht02","5ecbfc627a51250bfb1f297f","freq_resp","img/green_2bandit_a.png","70","70","test","","","","8","",""
"null","315172","pSARL_v2","pSARL_v2509hht02","5ecbfc627a51250bfb1f297f","fixation","img/fixation.png","null","","test","","","","","",""
"304.79999999701977","315483","pSARL_v2","pSARL_v2509hht02","5ecbfc627a51250bfb1f297f","freq","img/green_2bandit_a2.png","70","70","test","1","170","170","8","",""
"null","315992","pSARL_v2","pSARL_v2509hht02","5ecbfc627a51250bfb1f297f","freq_resp","img/green_2bandit_a.png","70","70","test","","","","8","",""
"null","316157","pSARL_v2","pSARL_v2509hht02","5ecbfc627a51250bfb1f297f","fixation","img/fixation.png","null","","test","","","","","",""
"382.40000000596046","316545","pSARL_v2","pSARL_v2509hht02","5ecbfc627a51250bfb1f297f","infreq","img/orange_2bandit_a2.png","68","68","test","1","171","171","8","",""
"null","316973","pSARL_v2","pSARL_v2509hht02","5ecbfc627a51250bfb1f297f","infreq_resp","img/orange_2bandit_a.png","68","68","test","","","","8","",""
"null","317142","pSARL_v2","pSARL_v2509hht02","5ecbfc627a51250bfb1f297f","fixation","img/fixation.png","null","","test","","","","","",""
"358","317506","pSARL_v2","pSARL_v2509hht02","5ecbfc627a51250bfb1f297f","freq","img/green_2bandit_a2.png","70","70","test","1","172","172","8","",""
"null","317957","pSARL_v2","pSARL_v2509hht02","5ecbfc627a51250bfb1f297f","freq_resp","img/green_2bandit_a.png","70","70","test","","","","8","",""
"null","318117","pSARL_v2","pSARL_v2509hht02","5ecbfc627a51250bfb1f297f","fixation","img/fixation.png","null","","test","","","","","",""
"333.20000000298023","318457","pSARL_v2","pSARL_v2509hht02","5ecbfc627a51250bfb1f297f","freq","img/green_2bandit_a2.png","70","70","test","1","173","173","8","",""
"null","318937","pSARL_v2","pSARL_v2509hht02","5ecbfc627a51250bfb1f297f","freq_resp","img/green_2bandit_a.png","70","70","test","","","","8","",""
"null","319107","pSARL_v2","pSARL_v2509hht02","5ecbfc627a51250bfb1f297f","fixation","img/fixation.png","null","","test","","","","","",""
"282.59999999403954","319395","pSARL_v2","pSARL_v2509hht02","5ecbfc627a51250bfb1f297f","freq","img/green_2bandit_a2.png","70","70","test","1","174","174","8","",""
"null","319922","pSARL_v2","pSARL_v2509hht02","5ecbfc627a51250bfb1f297f","freq_resp","img/green_2bandit_a.png","70","70","test","","","","8","",""
"null","320087","pSARL_v2","pSARL_v2509hht02","5ecbfc627a51250bfb1f297f","fixation","img/fixation.png","null","","test","","","","","",""
"357.29999999701977","320448","pSARL_v2","pSARL_v2509hht02","5ecbfc627a51250bfb1f297f","freq","img/green_2bandit_a2.png","70","70","test","1","175","175","8","",""
"null","320904","pSARL_v2","pSARL_v2509hht02","5ecbfc627a51250bfb1f297f","freq_resp","img/green_2bandit_a.png","70","70","test","","","","8","",""
"null","321066","pSARL_v2","pSARL_v2509hht02","5ecbfc627a51250bfb1f297f","fixation","img/fixation.png","null","","test","","","","","",""
"276.40000000596046","321349","pSARL_v2","pSARL_v2509hht02","5ecbfc627a51250bfb1f297f","freq","img/green_2bandit_a2.png","70","70","test","1","176","176","8","",""
"null","321887","pSARL_v2","pSARL_v2509hht02","5ecbfc627a51250bfb1f297f","freq_resp","img/green_2bandit_a.png","70","70","test","","","","8","",""
"null","322046","pSARL_v2","pSARL_v2509hht02","5ecbfc627a51250bfb1f297f","fixation","img/fixation.png","null","","test","","","","","",""
"308.40000000596046","322360","pSARL_v2","pSARL_v2509hht02","5ecbfc627a51250bfb1f297f","freq","img/green_2bandit_a2.png","70","70","test","1","177","177","8","",""
"null","322862","pSARL_v2","pSARL_v2509hht02","5ecbfc627a51250bfb1f297f","freq_resp","img/green_2bandit_a.png","70","70","test","","","","8","",""
"null","323032","pSARL_v2","pSARL_v2509hht02","5ecbfc627a51250bfb1f297f","fixation","img/fixation.png","null","","test","","","","","",""
"282.6000000089407","323322","pSARL_v2","pSARL_v2509hht02","5ecbfc627a51250bfb1f297f","freq","img/green_2bandit_a2.png","70","70","test","1","178","178","8","",""
"null","323858","pSARL_v2","pSARL_v2509hht02","5ecbfc627a51250bfb1f297f","freq_resp","img/green_2bandit_a.png","70","70","test","","","","8","",""
"null","324028","pSARL_v2","pSARL_v2509hht02","5ecbfc627a51250bfb1f297f","fixation","img/fixation.png","null","","test","","","","","",""
"290.70000000298023","324325","pSARL_v2","pSARL_v2509hht02","5ecbfc627a51250bfb1f297f","freq","img/green_2bandit_a2.png","70","70","test","1","179","179","8","",""
"null","324853","pSARL_v2","pSARL_v2509hht02","5ecbfc627a51250bfb1f297f","freq_resp","img/green_2bandit_a.png","70","70","test","","","","8","",""
"null","325019","pSARL_v2","pSARL_v2509hht02","5ecbfc627a51250bfb1f297f","fixation","img/fixation.png","null","","test","","","","","",""
"269.40000000596046","325294","pSARL_v2","pSARL_v2509hht02","5ecbfc627a51250bfb1f297f","freq","img/green_2bandit_a2.png","70","70","test","1","180","180","8","",""
"null","325842","pSARL_v2","pSARL_v2509hht02","5ecbfc627a51250bfb1f297f","freq_resp","img/green_2bandit_a.png","70","70","test","","","","8","",""
"null","326007","pSARL_v2","pSARL_v2509hht02","5ecbfc627a51250bfb1f297f","fixation","img/fixation.png","null","","test","","","","","",""
"282.40000000596046","326294","pSARL_v2","pSARL_v2509hht02","5ecbfc627a51250bfb1f297f","freq","img/green_2bandit_a2.png","70","70","test","1","181","181","8","",""
"null","326822","pSARL_v2","pSARL_v2509hht02","5ecbfc627a51250bfb1f297f","freq_resp","img/green_2bandit_a.png","70","70","test","","","","8","",""
"null","326984","pSARL_v2","pSARL_v2509hht02","5ecbfc627a51250bfb1f297f","fixation","img/fixation.png","null","","test","","","","","",""
"287.09999999403954","327279","pSARL_v2","pSARL_v2509hht02","5ecbfc627a51250bfb1f297f","freq","img/green_2bandit_a2.png","70","70","test","1","182","182","8","",""
"null","327802","pSARL_v2","pSARL_v2509hht02","5ecbfc627a51250bfb1f297f","freq_resp","img/green_2bandit_a.png","70","70","test","","","","8","",""
"null","327972","pSARL_v2","pSARL_v2509hht02","5ecbfc627a51250bfb1f297f","fixation","img/fixation.png","null","","test","","","","","",""
"279.20000000298023","328256","pSARL_v2","pSARL_v2509hht02","5ecbfc627a51250bfb1f297f","freq","img/green_2bandit_a2.png","70","70","test","1","183","183","8","",""
"null","328779","pSARL_v2","pSARL_v2509hht02","5ecbfc627a51250bfb1f297f","freq_resp","img/green_2bandit_a.png","70","70","test","","","","8","",""
"null","328946","pSARL_v2","pSARL_v2509hht02","5ecbfc627a51250bfb1f297f","fixation","img/fixation.png","null","","test","","","","","",""
"319.5","329268","pSARL_v2","pSARL_v2509hht02","5ecbfc627a51250bfb1f297f","reward","img/slot.png","74","","test","","","","","",""
"null","330036","pSARL_v2","pSARL_v2509hht02","5ecbfc627a51250bfb1f297f","points","<div class=""verylowPoints""> -4 </div>","null","na","test","","","","8","-4","7"
"334.70000000298023","330374","pSARL_v2","pSARL_v2509hht02","5ecbfc627a51250bfb1f297f","freq","img/green_2bandit_a2.png","70","70","test","1","184","184","9","",""
"null","330845","pSARL_v2","pSARL_v2509hht02","5ecbfc627a51250bfb1f297f","freq_resp","img/green_2bandit_a.png","70","70","test","","","","9","",""
"null","331012","pSARL_v2","pSARL_v2509hht02","5ecbfc627a51250bfb1f297f","fixation","img/fixation.png","null","","test","","","","","",""
"368.6000000089407","331385","pSARL_v2","pSARL_v2509hht02","5ecbfc627a51250bfb1f297f","freq","img/green_2bandit_a2.png","70","70","test","1","185","185","9","",""
"null","331823","pSARL_v2","pSARL_v2509hht02","5ecbfc627a51250bfb1f297f","freq_resp","img/green_2bandit_a.png","70","70","test","","","","9","",""
"null","331993","pSARL_v2","pSARL_v2509hht02","5ecbfc627a51250bfb1f297f","fixation","img/fixation.png","null","","test","","","","","",""
"298.6000000089407","332299","pSARL_v2","pSARL_v2509hht02","5ecbfc627a51250bfb1f297f","freq","img/green_2bandit_a2.png","70","70","test","1","186","186","9","",""
"null","332810","pSARL_v2","pSARL_v2509hht02","5ecbfc627a51250bfb1f297f","freq_resp","img/green_2bandit_a.png","70","70","test","","","","9","",""
"null","332972","pSARL_v2","pSARL_v2509hht02","5ecbfc627a51250bfb1f297f","fixation","img/fixation.png","null","","test","","","","","",""
"309.5","333285","pSARL_v2","pSARL_v2509hht02","5ecbfc627a51250bfb1f297f","freq","img/green_2bandit_a2.png","70","70","test","1","187","187","9","",""
"null","333792","pSARL_v2","pSARL_v2509hht02","5ecbfc627a51250bfb1f297f","freq_resp","img/green_2bandit_a.png","70","70","test","","","","9","",""
"null","333952","pSARL_v2","pSARL_v2509hht02","5ecbfc627a51250bfb1f297f","fixation","img/fixation.png","null","","test","","","","","",""
"395.20000000298023","334353","pSARL_v2","pSARL_v2509hht02","5ecbfc627a51250bfb1f297f","infreq","img/orange_2bandit_a2.png","68","68","test","1","188","188","9","",""
"null","334775","pSARL_v2","pSARL_v2509hht02","5ecbfc627a51250bfb1f297f","infreq_resp","img/orange_2bandit_a.png","68","68","test","","","","9","",""
"null","334937","pSARL_v2","pSARL_v2509hht02","5ecbfc627a51250bfb1f297f","fixation","img/fixation.png","null","","test","","","","","",""
"298.20000000298023","335242","pSARL_v2","pSARL_v2509hht02","5ecbfc627a51250bfb1f297f","freq","img/green_2bandit_a2.png","70","70","test","1","189","189","9","",""
"null","335763","pSARL_v2","pSARL_v2509hht02","5ecbfc627a51250bfb1f297f","freq_resp","img/green_2bandit_a.png","70","70","test","","","","9","",""
"null","335932","pSARL_v2","pSARL_v2509hht02","5ecbfc627a51250bfb1f297f","fixation","img/fixation.png","null","","test","","","","","",""
"386.5","336326","pSARL_v2","pSARL_v2509hht02","5ecbfc627a51250bfb1f297f","infreq","img/orange_2bandit_a2.png","68","68","test","1","190","190","9","",""
"null","336746","pSARL_v2","pSARL_v2509hht02","5ecbfc627a51250bfb1f297f","infreq_resp","img/orange_2bandit_a.png","68","68","test","","","","9","",""
"null","336907","pSARL_v2","pSARL_v2509hht02","5ecbfc627a51250bfb1f297f","fixation","img/fixation.png","null","","test","","","","","",""
"330.8999999910593","337244","pSARL_v2","pSARL_v2509hht02","5ecbfc627a51250bfb1f297f","freq","img/green_2bandit_a2.png","70","70","test","1","191","191","9","",""
"null","337721","pSARL_v2","pSARL_v2509hht02","5ecbfc627a51250bfb1f297f","freq_resp","img/green_2bandit_a.png","70","70","test","","","","9","",""
"null","337887","pSARL_v2","pSARL_v2509hht02","5ecbfc627a51250bfb1f297f","fixation","img/fixation.png","null","","test","","","","","",""
"372.29999999701977","338263","pSARL_v2","pSARL_v2509hht02","5ecbfc627a51250bfb1f297f","freq","img/green_2bandit_a2.png","70","70","test","1","192","192","9","",""
"null","338706","pSARL_v2","pSARL_v2509hht02","5ecbfc627a51250bfb1f297f","freq_resp","img/green_2bandit_a.png","70","70","test","","","","9","",""
"null","338872","pSARL_v2","pSARL_v2509hht02","5ecbfc627a51250bfb1f297f","fixation","img/fixation.png","null","","test","","","","","",""
"306.3999999910593","339185","pSARL_v2","pSARL_v2509hht02","5ecbfc627a51250bfb1f297f","freq","img/green_2bandit_a2.png","70","70","test","1","193","193","9","",""
"null","339697","pSARL_v2","pSARL_v2509hht02","5ecbfc627a51250bfb1f297f","freq_resp","img/green_2bandit_a.png","70","70","test","","","","9","",""
"null","339863","pSARL_v2","pSARL_v2509hht02","5ecbfc627a51250bfb1f297f","fixation","img/fixation.png","null","","test","","","","","",""
"472","340341","pSARL_v2","pSARL_v2509hht02","5ecbfc627a51250bfb1f297f","freq","img/green_2bandit_a2.png","70","70","test","1","194","194","9","",""
"null","340687","pSARL_v2","pSARL_v2509hht02","5ecbfc627a51250bfb1f297f","freq_resp","img/green_2bandit_a.png","70","70","test","","","","9","",""
"null","340857","pSARL_v2","pSARL_v2509hht02","5ecbfc627a51250bfb1f297f","fixation","img/fixation.png","null","","test","","","","","",""
"302.1000000089407","341168","pSARL_v2","pSARL_v2509hht02","5ecbfc627a51250bfb1f297f","freq","img/green_2bandit_a2.png","70","70","test","1","195","195","9","",""
"null","341672","pSARL_v2","pSARL_v2509hht02","5ecbfc627a51250bfb1f297f","freq_resp","img/green_2bandit_a.png","70","70","test","","","","9","",""
"null","341837","pSARL_v2","pSARL_v2509hht02","5ecbfc627a51250bfb1f297f","fixation","img/fixation.png","null","","test","","","","","",""
"315.20000000298023","342159","pSARL_v2","pSARL_v2509hht02","5ecbfc627a51250bfb1f297f","freq","img/green_2bandit_a2.png","70","70","test","1","196","196","9","",""
"null","342652","pSARL_v2","pSARL_v2509hht02","5ecbfc627a51250bfb1f297f","freq_resp","img/green_2bandit_a.png","70","70","test","","","","9","",""
"null","342822","pSARL_v2","pSARL_v2509hht02","5ecbfc627a51250bfb1f297f","fixation","img/fixation.png","null","","test","","","","","",""
"320","343150","pSARL_v2","pSARL_v2509hht02","5ecbfc627a51250bfb1f297f","freq","img/green_2bandit_a2.png","70","70","test","1","197","197","9","",""
"null","343643","pSARL_v2","pSARL_v2509hht02","5ecbfc627a51250bfb1f297f","freq_resp","img/green_2bandit_a.png","70","70","test","","","","9","",""
"null","343804","pSARL_v2","pSARL_v2509hht02","5ecbfc627a51250bfb1f297f","fixation","img/fixation.png","null","","test","","","","","",""
"299.09999999403954","344110","pSARL_v2","pSARL_v2509hht02","5ecbfc627a51250bfb1f297f","freq","img/green_2bandit_a2.png","70","70","test","1","198","198","9","",""
"null","344617","pSARL_v2","pSARL_v2509hht02","5ecbfc627a51250bfb1f297f","freq_resp","img/green_2bandit_a.png","70","70","test","","","","9","",""
"null","344784","pSARL_v2","pSARL_v2509hht02","5ecbfc627a51250bfb1f297f","fixation","img/fixation.png","null","","test","","","","","",""
"302","345092","pSARL_v2","pSARL_v2509hht02","5ecbfc627a51250bfb1f297f","freq","img/green_2bandit_a2.png","70","70","test","1","199","199","9","",""
"null","345602","pSARL_v2","pSARL_v2509hht02","5ecbfc627a51250bfb1f297f","freq_resp","img/green_2bandit_a.png","70","70","test","","","","9","",""
"null","345762","pSARL_v2","pSARL_v2509hht02","5ecbfc627a51250bfb1f297f","fixation","img/fixation.png","null","","test","","","","","",""
"304","346073","pSARL_v2","pSARL_v2509hht02","5ecbfc627a51250bfb1f297f","freq","img/green_2bandit_a2.png","70","70","test","1","200","200","9","",""
"null","346586","pSARL_v2","pSARL_v2509hht02","5ecbfc627a51250bfb1f297f","freq_resp","img/green_2bandit_a.png","70","70","test","","","","9","",""
"null","346754","pSARL_v2","pSARL_v2509hht02","5ecbfc627a51250bfb1f297f","fixation","img/fixation.png","null","","test","","","","","",""
"313.5","347073","pSARL_v2","pSARL_v2509hht02","5ecbfc627a51250bfb1f297f","freq","img/green_2bandit_a2.png","70","70","test","1","201","201","9","",""
"null","347567","pSARL_v2","pSARL_v2509hht02","5ecbfc627a51250bfb1f297f","freq_resp","img/green_2bandit_a.png","70","70","test","","","","9","",""
"null","347726","pSARL_v2","pSARL_v2509hht02","5ecbfc627a51250bfb1f297f","fixation","img/fixation.png","null","","test","","","","","",""
"271.29999999701977","348004","pSARL_v2","pSARL_v2509hht02","5ecbfc627a51250bfb1f297f","freq","img/green_2bandit_a2.png","70","70","test","1","202","202","9","",""
"null","348553","pSARL_v2","pSARL_v2509hht02","5ecbfc627a51250bfb1f297f","freq_resp","img/green_2bandit_a.png","70","70","test","","","","9","",""
"null","348717","pSARL_v2","pSARL_v2509hht02","5ecbfc627a51250bfb1f297f","fixation","img/fixation.png","null","","test","","","","","",""
"301.8999999910593","349025","pSARL_v2","pSARL_v2509hht02","5ecbfc627a51250bfb1f297f","freq","img/green_2bandit_a2.png","70","70","test","1","203","203","9","",""
"null","349537","pSARL_v2","pSARL_v2509hht02","5ecbfc627a51250bfb1f297f","freq_resp","img/green_2bandit_a.png","70","70","test","","","","9","",""
"null","349693","pSARL_v2","pSARL_v2509hht02","5ecbfc627a51250bfb1f297f","fixation","img/fixation.png","null","","test","","","","","",""
"510.6000000089407","350209","pSARL_v2","pSARL_v2509hht02","5ecbfc627a51250bfb1f297f","infreq","img/orange_2bandit_a2.png","68","68","test","1","204","204","9","",""
"null","350511","pSARL_v2","pSARL_v2509hht02","5ecbfc627a51250bfb1f297f","infreq_resp","img/orange_2bandit_a.png","68","68","test","","","","9","",""
"null","350672","pSARL_v2","pSARL_v2509hht02","5ecbfc627a51250bfb1f297f","fixation","img/fixation.png","null","","test","","","","","",""
"601.7000000029802","351278","pSARL_v2","pSARL_v2509hht02","5ecbfc627a51250bfb1f297f","freq","img/green_2bandit_a2.png","70","70","test","1","205","205","9","",""
"null","351483","pSARL_v2","pSARL_v2509hht02","5ecbfc627a51250bfb1f297f","freq_resp","img/green_2bandit_a.png","70","70","test","","","","9","",""
"null","351644","pSARL_v2","pSARL_v2509hht02","5ecbfc627a51250bfb1f297f","fixation","img/fixation.png","null","","test","","","","","",""
"368.6000000089407","352019","pSARL_v2","pSARL_v2509hht02","5ecbfc627a51250bfb1f297f","freq","img/green_2bandit_a2.png","70","70","test","1","206","206","9","",""
"null","352467","pSARL_v2","pSARL_v2509hht02","5ecbfc627a51250bfb1f297f","freq_resp","img/green_2bandit_a.png","70","70","test","","","","9","",""
"null","352635","pSARL_v2","pSARL_v2509hht02","5ecbfc627a51250bfb1f297f","fixation","img/fixation.png","null","","test","","","","","",""
"411.29999999701977","353053","pSARL_v2","pSARL_v2509hht02","5ecbfc627a51250bfb1f297f","reward","img/slot.png","74","","test","","","","","",""
"null","353813","pSARL_v2","pSARL_v2509hht02","5ecbfc627a51250bfb1f297f","points","<div class=""verylowPoints""> -3 </div>","null","na","test","","","","9","-3","8"
