"rt","time_elapsed","expId","subject","prolificID","trialType","stimulus","key_press","corrresp","phase","corr","trialNum","attentionRunNum","blockNum","points","rlNum"
"79767.29999995232","79775","pSARL_v2","pSARL_v25461g5zh","56259489ed6e5a0005c80fde","","","","","","","","","","",""
"","81877","pSARL_v2","pSARL_v25461g5zh","56259489ed6e5a0005c80fde","fullscreen","","","","","","","","","",""
"82422.5","164304","pSARL_v2","pSARL_v25461g5zh","56259489ed6e5a0005c80fde","","","","","","","","","","",""
"723","165035","pSARL_v2","pSARL_v25461g5zh","56259489ed6e5a0005c80fde","freqPrac","img/green_2bandit_b2.png","70","70","prac","1","","","","",""
"723","165126","pSARL_v2","pSARL_v25461g5zh","56259489ed6e5a0005c80fde","freqPrac_resp","img/green_2bandit_b.png","70","70","prac","","","","","",""
"null","165285","pSARL_v2","pSARL_v25461g5zh","56259489ed6e5a0005c80fde","fixation","img/fixation.png","null","","prac","","","","","",""
"553.9000000357628","165845","pSARL_v2","pSARL_v25461g5zh","56259489ed6e5a0005c80fde","infreqPrac","img/orange_2bandit_b2.png","68","68","prac","1","","","","",""
"553.9000000357628","166099","pSARL_v2","pSARL_v25461g5zh","56259489ed6e5a0005c80fde","infreqPrac_resp","img/orange_2bandit_b.png","68","68","prac","","","","","",""
"null","166268","pSARL_v2","pSARL_v25461g5zh","56259489ed6e5a0005c80fde","fixation","img/fixation.png","null","","prac","","","","","",""
"506.60000002384186","166779","pSARL_v2","pSARL_v25461g5zh","56259489ed6e5a0005c80fde","freqPrac","img/green_2bandit_b2.png","70","70","prac","1","","","","",""
"506.60000002384186","167087","pSARL_v2","pSARL_v25461g5zh","56259489ed6e5a0005c80fde","freqPrac_resp","img/green_2bandit_b.png","70","70","prac","","","","","",""
"null","167241","pSARL_v2","pSARL_v25461g5zh","56259489ed6e5a0005c80fde","fixation","img/fixation.png","null","","prac","","","","","",""
"416.10000002384186","167661","pSARL_v2","pSARL_v25461g5zh","56259489ed6e5a0005c80fde","infreqPrac","img/orange_2bandit_b2.png","68","68","prac","1","","","","",""
"416.10000002384186","168061","pSARL_v2","pSARL_v25461g5zh","56259489ed6e5a0005c80fde","infreqPrac_resp","img/orange_2bandit_b.png","68","68","prac","","","","","",""
"null","168231","pSARL_v2","pSARL_v25461g5zh","56259489ed6e5a0005c80fde","fixation","img/fixation.png","null","","prac","","","","","",""
"432.5","168667","pSARL_v2","pSARL_v25461g5zh","56259489ed6e5a0005c80fde","infreqPrac","img/orange_2bandit_b2.png","68","68","prac","1","","","","",""
"432.5","169039","pSARL_v2","pSARL_v25461g5zh","56259489ed6e5a0005c80fde","infreqPrac_resp","img/orange_2bandit_b.png","68","68","prac","","","","","",""
"null","169208","pSARL_v2","pSARL_v25461g5zh","56259489ed6e5a0005c80fde","fixation","img/fixation.png","null","","prac","","","","","",""
"366","169578","pSARL_v2","pSARL_v25461g5zh","56259489ed6e5a0005c80fde","infreqPrac","img/orange_2bandit_b2.png","68","68","prac","1","","","","",""
"366","170031","pSARL_v2","pSARL_v25461g5zh","56259489ed6e5a0005c80fde","infreqPrac_resp","img/orange_2bandit_b.png","68","68","prac","","","","","",""
"null","170200","pSARL_v2","pSARL_v25461g5zh","56259489ed6e5a0005c80fde","fixation","img/fixation.png","null","","prac","","","","","",""
"495.80000001192093","170700","pSARL_v2","pSARL_v25461g5zh","56259489ed6e5a0005c80fde","freqPrac","img/green_2bandit_b2.png","70","70","prac","1","","","","",""
"495.80000001192093","171013","pSARL_v2","pSARL_v25461g5zh","56259489ed6e5a0005c80fde","freqPrac_resp","img/green_2bandit_b.png","70","70","prac","","","","","",""
"null","171181","pSARL_v2","pSARL_v25461g5zh","56259489ed6e5a0005c80fde","fixation","img/fixation.png","null","","prac","","","","","",""
"445.10000002384186","171629","pSARL_v2","pSARL_v25461g5zh","56259489ed6e5a0005c80fde","infreqPrac","img/orange_2bandit_b2.png","68","68","prac","1","","","","",""
"445.10000002384186","172001","pSARL_v2","pSARL_v25461g5zh","56259489ed6e5a0005c80fde","infreqPrac_resp","img/orange_2bandit_b.png","68","68","prac","","","","","",""
"null","172157","pSARL_v2","pSARL_v25461g5zh","56259489ed6e5a0005c80fde","fixation","img/fixation.png","null","","prac","","","","","",""
"358.10000002384186","172519","pSARL_v2","pSARL_v25461g5zh","56259489ed6e5a0005c80fde","freqPrac","img/green_2bandit_b2.png","68","70","prac","0","","","","",""
"358.10000002384186","172978","pSARL_v2","pSARL_v25461g5zh","56259489ed6e5a0005c80fde","freqPrac_resp","img/green_2bandit_b.png","68","70","prac","","","","","",""
"null","173989","pSARL_v2","pSARL_v25461g5zh","56259489ed6e5a0005c80fde","feedback","img/wrongKey.png","null","na","prac","","","","","",""
"null","174155","pSARL_v2","pSARL_v25461g5zh","56259489ed6e5a0005c80fde","fixation","img/fixation.png","null","","prac","","","","","",""
"712.1999999880791","174871","pSARL_v2","pSARL_v25461g5zh","56259489ed6e5a0005c80fde","freqPrac","img/green_2bandit_b2.png","70","70","prac","1","","","","",""
"712.1999999880791","174976","pSARL_v2","pSARL_v25461g5zh","56259489ed6e5a0005c80fde","freqPrac_resp","img/green_2bandit_b.png","70","70","prac","","","","","",""
"null","175145","pSARL_v2","pSARL_v25461g5zh","56259489ed6e5a0005c80fde","fixation","img/fixation.png","null","","prac","","","","","",""
"16314.300000011921","191463","pSARL_v2","pSARL_v25461g5zh","56259489ed6e5a0005c80fde","","","","","prac","","","","","",""
"650.3999999761581","192117","pSARL_v2","pSARL_v25461g5zh","56259489ed6e5a0005c80fde","rewardPractice","img/slot.png","74","","prac","","","","","",""
"null","192880","pSARL_v2","pSARL_v25461g5zh","56259489ed6e5a0005c80fde","feedback","<div class=""veryhighPoints""> +15 </div>","null","na","prac","","","","","",""
"null","193049","pSARL_v2","pSARL_v25461g5zh","56259489ed6e5a0005c80fde","fixation","img/fixation.png","null","","prac","","","","","",""
"17386.5","210439","pSARL_v2","pSARL_v25461g5zh","56259489ed6e5a0005c80fde","","","","","prac","","","","","",""
"445","210887","pSARL_v2","pSARL_v25461g5zh","56259489ed6e5a0005c80fde","freq","img/green_2bandit_b2.png","70","70","test","1","1","1","1","",""
"null","211249","pSARL_v2","pSARL_v25461g5zh","56259489ed6e5a0005c80fde","freq_resp","img/green_2bandit_b.png","70","70","test","","","","1","",""
"null","211418","pSARL_v2","pSARL_v25461g5zh","56259489ed6e5a0005c80fde","fixation","img/fixation.png","null","","test","","","","","",""
"575","211997","pSARL_v2","pSARL_v25461g5zh","56259489ed6e5a0005c80fde","infreq","img/orange_2bandit_b2.png","68","68","test","1","2","2","1","",""
"null","212228","pSARL_v2","pSARL_v25461g5zh","56259489ed6e5a0005c80fde","infreq_resp","img/orange_2bandit_b.png","68","68","test","","","","1","",""
"null","212384","pSARL_v2","pSARL_v25461g5zh","56259489ed6e5a0005c80fde","fixation","img/fixation.png","null","","test","","","","","",""
"455.5","212844","pSARL_v2","pSARL_v25461g5zh","56259489ed6e5a0005c80fde","freq","img/green_2bandit_b2.png","70","70","test","1","3","3","1","",""
"null","213202","pSARL_v2","pSARL_v25461g5zh","56259489ed6e5a0005c80fde","freq_resp","img/green_2bandit_b.png","70","70","test","","","","1","",""
"null","213356","pSARL_v2","pSARL_v25461g5zh","56259489ed6e5a0005c80fde","fixation","img/fixation.png","null","","test","","","","","",""
"392","213751","pSARL_v2","pSARL_v25461g5zh","56259489ed6e5a0005c80fde","freq","img/green_2bandit_b2.png","70","70","test","1","4","4","1","",""
"null","214173","pSARL_v2","pSARL_v25461g5zh","56259489ed6e5a0005c80fde","freq_resp","img/green_2bandit_b.png","70","70","test","","","","1","",""
"null","214328","pSARL_v2","pSARL_v25461g5zh","56259489ed6e5a0005c80fde","fixation","img/fixation.png","null","","test","","","","","",""
"631.5","214963","pSARL_v2","pSARL_v25461g5zh","56259489ed6e5a0005c80fde","freq","img/green_2bandit_b2.png","70","70","test","1","5","5","1","",""
"null","215148","pSARL_v2","pSARL_v25461g5zh","56259489ed6e5a0005c80fde","freq_resp","img/green_2bandit_b.png","70","70","test","","","","1","",""
"null","215305","pSARL_v2","pSARL_v25461g5zh","56259489ed6e5a0005c80fde","fixation","img/fixation.png","null","","test","","","","","",""
"527.8000000119209","215836","pSARL_v2","pSARL_v25461g5zh","56259489ed6e5a0005c80fde","freq","img/green_2bandit_b2.png","70","70","test","1","6","6","1","",""
"null","216126","pSARL_v2","pSARL_v25461g5zh","56259489ed6e5a0005c80fde","freq_resp","img/green_2bandit_b.png","70","70","test","","","","1","",""
"null","216295","pSARL_v2","pSARL_v25461g5zh","56259489ed6e5a0005c80fde","fixation","img/fixation.png","null","","test","","","","","",""
"495.30000001192093","216794","pSARL_v2","pSARL_v25461g5zh","56259489ed6e5a0005c80fde","freq","img/green_2bandit_b2.png","70","70","test","1","7","7","1","",""
"null","217103","pSARL_v2","pSARL_v25461g5zh","56259489ed6e5a0005c80fde","freq_resp","img/green_2bandit_b.png","70","70","test","","","","1","",""
"null","217257","pSARL_v2","pSARL_v25461g5zh","56259489ed6e5a0005c80fde","fixation","img/fixation.png","null","","test","","","","","",""
"427.5999999642372","217689","pSARL_v2","pSARL_v25461g5zh","56259489ed6e5a0005c80fde","freq","img/green_2bandit_b2.png","70","70","test","1","8","8","1","",""
"null","218078","pSARL_v2","pSARL_v25461g5zh","56259489ed6e5a0005c80fde","freq_resp","img/green_2bandit_b.png","70","70","test","","","","1","",""
"null","218249","pSARL_v2","pSARL_v25461g5zh","56259489ed6e5a0005c80fde","fixation","img/fixation.png","null","","test","","","","","",""
"420.19999998807907","218673","pSARL_v2","pSARL_v25461g5zh","56259489ed6e5a0005c80fde","freq","img/green_2bandit_b2.png","70","70","test","1","9","9","1","",""
"null","219056","pSARL_v2","pSARL_v25461g5zh","56259489ed6e5a0005c80fde","freq_resp","img/green_2bandit_b.png","70","70","test","","","","1","",""
"null","219213","pSARL_v2","pSARL_v25461g5zh","56259489ed6e5a0005c80fde","fixation","img/fixation.png","null","","test","","","","","",""
"408.69999998807907","219626","pSARL_v2","pSARL_v25461g5zh","56259489ed6e5a0005c80fde","freq","img/green_2bandit_b2.png","70","70","test","1","10","10","1","",""
"null","220033","pSARL_v2","pSARL_v25461g5zh","56259489ed6e5a0005c80fde","freq_resp","img/green_2bandit_b.png","70","70","test","","","","1","",""
"null","220203","pSARL_v2","pSARL_v25461g5zh","56259489ed6e5a0005c80fde","fixation","img/fixation.png","null","","test","","","","","",""
"462.39999997615814","220668","pSARL_v2","pSARL_v25461g5zh","56259489ed6e5a0005c80fde","infreq","img/orange_2bandit_b2.png","68","68","test","1","11","11","1","",""
"null","221023","pSARL_v2","pSARL_v25461g5zh","56259489ed6e5a0005c80fde","infreq_resp","img/orange_2bandit_b.png","68","68","test","","","","1","",""
"null","221178","pSARL_v2","pSARL_v25461g5zh","56259489ed6e5a0005c80fde","fixation","img/fixation.png","null","","test","","","","","",""
"481.9000000357628","221664","pSARL_v2","pSARL_v25461g5zh","56259489ed6e5a0005c80fde","freq","img/green_2bandit_b2.png","70","70","test","1","12","12","1","",""
"null","222001","pSARL_v2","pSARL_v25461g5zh","56259489ed6e5a0005c80fde","freq_resp","img/green_2bandit_b.png","70","70","test","","","","1","",""
"null","222170","pSARL_v2","pSARL_v25461g5zh","56259489ed6e5a0005c80fde","fixation","img/fixation.png","null","","test","","","","","",""
"385.19999998807907","222558","pSARL_v2","pSARL_v25461g5zh","56259489ed6e5a0005c80fde","freq","img/green_2bandit_b2.png","70","70","test","1","13","13","1","",""
"null","222987","pSARL_v2","pSARL_v25461g5zh","56259489ed6e5a0005c80fde","freq_resp","img/green_2bandit_b.png","70","70","test","","","","1","",""
"null","223156","pSARL_v2","pSARL_v25461g5zh","56259489ed6e5a0005c80fde","fixation","img/fixation.png","null","","test","","","","","",""
"370.60000002384186","223530","pSARL_v2","pSARL_v25461g5zh","56259489ed6e5a0005c80fde","freq","img/green_2bandit_b2.png","70","70","test","1","14","14","1","",""
"null","223976","pSARL_v2","pSARL_v25461g5zh","56259489ed6e5a0005c80fde","freq_resp","img/green_2bandit_b.png","70","70","test","","","","1","",""
"null","224143","pSARL_v2","pSARL_v25461g5zh","56259489ed6e5a0005c80fde","fixation","img/fixation.png","null","","test","","","","","",""
"439.5","224587","pSARL_v2","pSARL_v25461g5zh","56259489ed6e5a0005c80fde","freq","img/green_2bandit_b2.png","70","70","test","1","15","15","1","",""
"null","224960","pSARL_v2","pSARL_v25461g5zh","56259489ed6e5a0005c80fde","freq_resp","img/green_2bandit_b.png","70","70","test","","","","1","",""
"null","225116","pSARL_v2","pSARL_v25461g5zh","56259489ed6e5a0005c80fde","fixation","img/fixation.png","null","","test","","","","","",""
"371.7000000476837","225491","pSARL_v2","pSARL_v25461g5zh","56259489ed6e5a0005c80fde","freq","img/green_2bandit_b2.png","70","70","test","1","16","16","1","",""
"null","225924","pSARL_v2","pSARL_v25461g5zh","56259489ed6e5a0005c80fde","freq_resp","img/green_2bandit_b.png","70","70","test","","","","1","",""
"null","226093","pSARL_v2","pSARL_v25461g5zh","56259489ed6e5a0005c80fde","fixation","img/fixation.png","null","","test","","","","","",""
"339.19999998807907","226439","pSARL_v2","pSARL_v25461g5zh","56259489ed6e5a0005c80fde","freq","img/green_2bandit_b2.png","70","70","test","1","17","17","1","",""
"null","226915","pSARL_v2","pSARL_v25461g5zh","56259489ed6e5a0005c80fde","freq_resp","img/green_2bandit_b.png","70","70","test","","","","1","",""
"null","227070","pSARL_v2","pSARL_v25461g5zh","56259489ed6e5a0005c80fde","fixation","img/fixation.png","null","","test","","","","","",""
"464.80000001192093","227538","pSARL_v2","pSARL_v25461g5zh","56259489ed6e5a0005c80fde","freq","img/green_2bandit_b2.png","70","70","test","1","18","18","1","",""
"null","227889","pSARL_v2","pSARL_v25461g5zh","56259489ed6e5a0005c80fde","freq_resp","img/green_2bandit_b.png","70","70","test","","","","1","",""
"null","228046","pSARL_v2","pSARL_v25461g5zh","56259489ed6e5a0005c80fde","fixation","img/fixation.png","null","","test","","","","","",""
"363.7999999523163","228414","pSARL_v2","pSARL_v25461g5zh","56259489ed6e5a0005c80fde","freq","img/green_2bandit_b2.png","70","70","test","1","19","19","1","",""
"null","228855","pSARL_v2","pSARL_v25461g5zh","56259489ed6e5a0005c80fde","freq_resp","img/green_2bandit_b.png","70","70","test","","","","1","",""
"null","229023","pSARL_v2","pSARL_v25461g5zh","56259489ed6e5a0005c80fde","fixation","img/fixation.png","null","","test","","","","","",""
"387.0999999642372","229414","pSARL_v2","pSARL_v25461g5zh","56259489ed6e5a0005c80fde","freq","img/green_2bandit_b2.png","70","70","test","1","20","20","1","",""
"null","229841","pSARL_v2","pSARL_v25461g5zh","56259489ed6e5a0005c80fde","freq_resp","img/green_2bandit_b.png","70","70","test","","","","1","",""
"null","229996","pSARL_v2","pSARL_v25461g5zh","56259489ed6e5a0005c80fde","fixation","img/fixation.png","null","","test","","","","","",""
"365","230365","pSARL_v2","pSARL_v25461g5zh","56259489ed6e5a0005c80fde","freq","img/green_2bandit_b2.png","70","70","test","1","21","21","1","",""
"null","230818","pSARL_v2","pSARL_v25461g5zh","56259489ed6e5a0005c80fde","freq_resp","img/green_2bandit_b.png","70","70","test","","","","1","",""
"null","230988","pSARL_v2","pSARL_v25461g5zh","56259489ed6e5a0005c80fde","fixation","img/fixation.png","null","","test","","","","","",""
"333.80000001192093","231325","pSARL_v2","pSARL_v25461g5zh","56259489ed6e5a0005c80fde","freq","img/green_2bandit_b2.png","70","70","test","1","22","22","1","",""
"null","231796","pSARL_v2","pSARL_v25461g5zh","56259489ed6e5a0005c80fde","freq_resp","img/green_2bandit_b.png","70","70","test","","","","1","",""
"null","231953","pSARL_v2","pSARL_v25461g5zh","56259489ed6e5a0005c80fde","fixation","img/fixation.png","null","","test","","","","","",""
"327.60000002384186","232284","pSARL_v2","pSARL_v25461g5zh","56259489ed6e5a0005c80fde","freq","img/green_2bandit_b2.png","70","70","test","1","23","23","1","",""
"null","232775","pSARL_v2","pSARL_v25461g5zh","56259489ed6e5a0005c80fde","freq_resp","img/green_2bandit_b.png","70","70","test","","","","1","",""
"null","232930","pSARL_v2","pSARL_v25461g5zh","56259489ed6e5a0005c80fde","fixation","img/fixation.png","null","","test","","","","","",""
"295.39999997615814","233229","pSARL_v2","pSARL_v25461g5zh","56259489ed6e5a0005c80fde","freq","img/green_2bandit_b2.png","70","70","test","1","24","24","1","",""
"null","233751","pSARL_v2","pSARL_v25461g5zh","56259489ed6e5a0005c80fde","freq_resp","img/green_2bandit_b.png","70","70","test","","","","1","",""
"null","233908","pSARL_v2","pSARL_v25461g5zh","56259489ed6e5a0005c80fde","fixation","img/fixation.png","null","","test","","","","","",""
"310.39999997615814","234222","pSARL_v2","pSARL_v25461g5zh","56259489ed6e5a0005c80fde","freq","img/green_2bandit_b2.png","70","70","test","1","25","25","1","",""
"null","234727","pSARL_v2","pSARL_v25461g5zh","56259489ed6e5a0005c80fde","freq_resp","img/green_2bandit_b.png","70","70","test","","","","1","",""
"null","234896","pSARL_v2","pSARL_v25461g5zh","56259489ed6e5a0005c80fde","fixation","img/fixation.png","null","","test","","","","","",""
"299.60000002384186","235200","pSARL_v2","pSARL_v25461g5zh","56259489ed6e5a0005c80fde","freq","img/green_2bandit_b2.png","70","70","test","1","26","26","1","",""
"null","235715","pSARL_v2","pSARL_v25461g5zh","56259489ed6e5a0005c80fde","freq_resp","img/green_2bandit_b.png","70","70","test","","","","1","",""
"null","235871","pSARL_v2","pSARL_v25461g5zh","56259489ed6e5a0005c80fde","fixation","img/fixation.png","null","","test","","","","","",""
"1144.300000011921","237020","pSARL_v2","pSARL_v25461g5zh","56259489ed6e5a0005c80fde","reward","img/slot.png","74","","test","","","","","",""
"null","237777","pSARL_v2","pSARL_v25461g5zh","56259489ed6e5a0005c80fde","points","<div class=""verylowPoints""> -6 </div>","null","na","test","","","","1","-6","0"
"587.5","238368","pSARL_v2","pSARL_v25461g5zh","56259489ed6e5a0005c80fde","freq","img/green_2bandit_b2.png","70","70","test","1","27","27","2","",""
"null","238599","pSARL_v2","pSARL_v25461g5zh","56259489ed6e5a0005c80fde","freq_resp","img/green_2bandit_b.png","70","70","test","","","","2","",""
"null","238755","pSARL_v2","pSARL_v25461g5zh","56259489ed6e5a0005c80fde","fixation","img/fixation.png","null","","test","","","","","",""
"422.60000002384186","239180","pSARL_v2","pSARL_v25461g5zh","56259489ed6e5a0005c80fde","freq","img/green_2bandit_b2.png","70","70","test","1","28","28","2","",""
"null","239564","pSARL_v2","pSARL_v25461g5zh","56259489ed6e5a0005c80fde","freq_resp","img/green_2bandit_b.png","70","70","test","","","","2","",""
"null","239732","pSARL_v2","pSARL_v25461g5zh","56259489ed6e5a0005c80fde","fixation","img/fixation.png","null","","test","","","","","",""
"473.10000002384186","240208","pSARL_v2","pSARL_v25461g5zh","56259489ed6e5a0005c80fde","infreq","img/orange_2bandit_b2.png","68","68","test","1","29","29","2","",""
"null","240540","pSARL_v2","pSARL_v25461g5zh","56259489ed6e5a0005c80fde","infreq_resp","img/orange_2bandit_b.png","68","68","test","","","","2","",""
"null","240709","pSARL_v2","pSARL_v25461g5zh","56259489ed6e5a0005c80fde","fixation","img/fixation.png","null","","test","","","","","",""
"401.9000000357628","241114","pSARL_v2","pSARL_v25461g5zh","56259489ed6e5a0005c80fde","freq","img/green_2bandit_b2.png","70","70","test","1","30","30","2","",""
"null","241530","pSARL_v2","pSARL_v25461g5zh","56259489ed6e5a0005c80fde","freq_resp","img/green_2bandit_b.png","70","70","test","","","","2","",""
"null","241697","pSARL_v2","pSARL_v25461g5zh","56259489ed6e5a0005c80fde","fixation","img/fixation.png","null","","test","","","","","",""
"359.89999997615814","242061","pSARL_v2","pSARL_v25461g5zh","56259489ed6e5a0005c80fde","freq","img/green_2bandit_b2.png","70","70","test","1","31","31","2","",""
"null","242517","pSARL_v2","pSARL_v25461g5zh","56259489ed6e5a0005c80fde","freq_resp","img/green_2bandit_b.png","70","70","test","","","","2","",""
"null","242686","pSARL_v2","pSARL_v25461g5zh","56259489ed6e5a0005c80fde","fixation","img/fixation.png","null","","test","","","","","",""
"436.80000001192093","243128","pSARL_v2","pSARL_v25461g5zh","56259489ed6e5a0005c80fde","freq","img/green_2bandit_b2.png","70","70","test","1","32","32","2","",""
"null","243497","pSARL_v2","pSARL_v25461g5zh","56259489ed6e5a0005c80fde","freq_resp","img/green_2bandit_b.png","70","70","test","","","","2","",""
"null","243651","pSARL_v2","pSARL_v25461g5zh","56259489ed6e5a0005c80fde","fixation","img/fixation.png","null","","test","","","","","",""
"418.9000000357628","244073","pSARL_v2","pSARL_v25461g5zh","56259489ed6e5a0005c80fde","freq","img/green_2bandit_b2.png","70","70","test","1","33","33","2","",""
"null","244472","pSARL_v2","pSARL_v25461g5zh","56259489ed6e5a0005c80fde","freq_resp","img/green_2bandit_b.png","70","70","test","","","","2","",""
"null","244627","pSARL_v2","pSARL_v25461g5zh","56259489ed6e5a0005c80fde","fixation","img/fixation.png","null","","test","","","","","",""
"442.19999998807907","245073","pSARL_v2","pSARL_v25461g5zh","56259489ed6e5a0005c80fde","freq","img/green_2bandit_b2.png","70","70","test","1","34","34","2","",""
"null","245445","pSARL_v2","pSARL_v25461g5zh","56259489ed6e5a0005c80fde","freq_resp","img/green_2bandit_b.png","70","70","test","","","","2","",""
"null","245615","pSARL_v2","pSARL_v25461g5zh","56259489ed6e5a0005c80fde","fixation","img/fixation.png","null","","test","","","","","",""
"493.19999998807907","246112","pSARL_v2","pSARL_v25461g5zh","56259489ed6e5a0005c80fde","freq","img/green_2bandit_b2.png","70","70","test","1","35","35","2","",""
"null","246426","pSARL_v2","pSARL_v25461g5zh","56259489ed6e5a0005c80fde","freq_resp","img/green_2bandit_b.png","70","70","test","","","","2","",""
"null","246592","pSARL_v2","pSARL_v25461g5zh","56259489ed6e5a0005c80fde","fixation","img/fixation.png","null","","test","","","","","",""
"475.39999997615814","247072","pSARL_v2","pSARL_v25461g5zh","56259489ed6e5a0005c80fde","freq","img/green_2bandit_b2.png","70","70","test","1","36","36","2","",""
"null","247412","pSARL_v2","pSARL_v25461g5zh","56259489ed6e5a0005c80fde","freq_resp","img/green_2bandit_b.png","70","70","test","","","","2","",""
"null","247581","pSARL_v2","pSARL_v25461g5zh","56259489ed6e5a0005c80fde","fixation","img/fixation.png","null","","test","","","","","",""
"414.60000002384186","247999","pSARL_v2","pSARL_v25461g5zh","56259489ed6e5a0005c80fde","freq","img/green_2bandit_b2.png","70","70","test","1","37","37","2","",""
"null","248398","pSARL_v2","pSARL_v25461g5zh","56259489ed6e5a0005c80fde","freq_resp","img/green_2bandit_b.png","70","70","test","","","","2","",""
"null","248566","pSARL_v2","pSARL_v25461g5zh","56259489ed6e5a0005c80fde","fixation","img/fixation.png","null","","test","","","","","",""
"417.4000000357628","248988","pSARL_v2","pSARL_v25461g5zh","56259489ed6e5a0005c80fde","freq","img/green_2bandit_b2.png","70","70","test","1","38","38","2","",""
"null","249387","pSARL_v2","pSARL_v25461g5zh","56259489ed6e5a0005c80fde","freq_resp","img/green_2bandit_b.png","70","70","test","","","","2","",""
"null","249556","pSARL_v2","pSARL_v25461g5zh","56259489ed6e5a0005c80fde","fixation","img/fixation.png","null","","test","","","","","",""
"546","250106","pSARL_v2","pSARL_v25461g5zh","56259489ed6e5a0005c80fde","infreq","img/orange_2bandit_b2.png","68","68","test","1","39","39","2","",""
"null","250376","pSARL_v2","pSARL_v25461g5zh","56259489ed6e5a0005c80fde","infreq_resp","img/orange_2bandit_b.png","68","68","test","","","","2","",""
"null","250543","pSARL_v2","pSARL_v25461g5zh","56259489ed6e5a0005c80fde","fixation","img/fixation.png","null","","test","","","","","",""
"399.5","250946","pSARL_v2","pSARL_v25461g5zh","56259489ed6e5a0005c80fde","freq","img/green_2bandit_b2.png","70","70","test","1","40","40","2","",""
"null","251361","pSARL_v2","pSARL_v25461g5zh","56259489ed6e5a0005c80fde","freq_resp","img/green_2bandit_b.png","70","70","test","","","","2","",""
"null","251531","pSARL_v2","pSARL_v25461g5zh","56259489ed6e5a0005c80fde","fixation","img/fixation.png","null","","test","","","","","",""
"387.4000000357628","251922","pSARL_v2","pSARL_v25461g5zh","56259489ed6e5a0005c80fde","freq","img/green_2bandit_b2.png","70","70","test","1","41","41","2","",""
"null","252339","pSARL_v2","pSARL_v25461g5zh","56259489ed6e5a0005c80fde","freq_resp","img/green_2bandit_b.png","70","70","test","","","","2","",""
"null","252508","pSARL_v2","pSARL_v25461g5zh","56259489ed6e5a0005c80fde","fixation","img/fixation.png","null","","test","","","","","",""
"363.60000002384186","252877","pSARL_v2","pSARL_v25461g5zh","56259489ed6e5a0005c80fde","freq","img/green_2bandit_b2.png","70","70","test","1","42","42","2","",""
"null","253317","pSARL_v2","pSARL_v25461g5zh","56259489ed6e5a0005c80fde","freq_resp","img/green_2bandit_b.png","70","70","test","","","","2","",""
"null","253473","pSARL_v2","pSARL_v25461g5zh","56259489ed6e5a0005c80fde","fixation","img/fixation.png","null","","test","","","","","",""
"303.19999998807907","253780","pSARL_v2","pSARL_v25461g5zh","56259489ed6e5a0005c80fde","freq","img/green_2bandit_b2.png","70","70","test","1","43","43","2","",""
"null","254281","pSARL_v2","pSARL_v25461g5zh","56259489ed6e5a0005c80fde","freq_resp","img/green_2bandit_b.png","70","70","test","","","","2","",""
"null","254439","pSARL_v2","pSARL_v25461g5zh","56259489ed6e5a0005c80fde","fixation","img/fixation.png","null","","test","","","","","",""
"338.10000002384186","254781","pSARL_v2","pSARL_v25461g5zh","56259489ed6e5a0005c80fde","freq","img/green_2bandit_b2.png","70","70","test","1","44","44","2","",""
"null","255248","pSARL_v2","pSARL_v25461g5zh","56259489ed6e5a0005c80fde","freq_resp","img/green_2bandit_b.png","70","70","test","","","","2","",""
"null","255404","pSARL_v2","pSARL_v25461g5zh","56259489ed6e5a0005c80fde","fixation","img/fixation.png","null","","test","","","","","",""
"301.19999998807907","255709","pSARL_v2","pSARL_v25461g5zh","56259489ed6e5a0005c80fde","freq","img/green_2bandit_b2.png","70","70","test","1","45","45","2","",""
"null","256222","pSARL_v2","pSARL_v25461g5zh","56259489ed6e5a0005c80fde","freq_resp","img/green_2bandit_b.png","70","70","test","","","","2","",""
"null","256380","pSARL_v2","pSARL_v25461g5zh","56259489ed6e5a0005c80fde","fixation","img/fixation.png","null","","test","","","","","",""
"1016.6000000238419","257400","pSARL_v2","pSARL_v25461g5zh","56259489ed6e5a0005c80fde","reward","img/slot.png","74","","test","","","","","",""
"null","258155","pSARL_v2","pSARL_v25461g5zh","56259489ed6e5a0005c80fde","points","<div class=""verylowPoints""> -11 </div>","null","na","test","","","","2","-11","1"
"494.30000001192093","258653","pSARL_v2","pSARL_v25461g5zh","56259489ed6e5a0005c80fde","freq","img/green_2bandit_b2.png","70","70","test","1","46","46","3","",""
"null","258974","pSARL_v2","pSARL_v25461g5zh","56259489ed6e5a0005c80fde","freq_resp","img/green_2bandit_b.png","70","70","test","","","","3","",""
"null","259141","pSARL_v2","pSARL_v25461g5zh","56259489ed6e5a0005c80fde","fixation","img/fixation.png","null","","test","","","","","",""
"370.80000001192093","259516","pSARL_v2","pSARL_v25461g5zh","56259489ed6e5a0005c80fde","freq","img/green_2bandit_b2.png","70","70","test","1","47","47","3","",""
"null","259961","pSARL_v2","pSARL_v25461g5zh","56259489ed6e5a0005c80fde","freq_resp","img/green_2bandit_b.png","70","70","test","","","","3","",""
"null","260131","pSARL_v2","pSARL_v25461g5zh","56259489ed6e5a0005c80fde","fixation","img/fixation.png","null","","test","","","","","",""
"450.39999997615814","260585","pSARL_v2","pSARL_v25461g5zh","56259489ed6e5a0005c80fde","freq","img/green_2bandit_b2.png","70","70","test","1","48","48","3","",""
"null","260940","pSARL_v2","pSARL_v25461g5zh","56259489ed6e5a0005c80fde","freq_resp","img/green_2bandit_b.png","70","70","test","","","","3","",""
"null","261095","pSARL_v2","pSARL_v25461g5zh","56259489ed6e5a0005c80fde","fixation","img/fixation.png","null","","test","","","","","",""
"388.4000000357628","261487","pSARL_v2","pSARL_v25461g5zh","56259489ed6e5a0005c80fde","freq","img/green_2bandit_b2.png","70","70","test","1","49","49","3","",""
"null","261902","pSARL_v2","pSARL_v25461g5zh","56259489ed6e5a0005c80fde","freq_resp","img/green_2bandit_b.png","70","70","test","","","","3","",""
"null","262072","pSARL_v2","pSARL_v25461g5zh","56259489ed6e5a0005c80fde","fixation","img/fixation.png","null","","test","","","","","",""
"336.5","262412","pSARL_v2","pSARL_v25461g5zh","56259489ed6e5a0005c80fde","freq","img/green_2bandit_b2.png","70","70","test","1","50","50","3","",""
"null","262890","pSARL_v2","pSARL_v25461g5zh","56259489ed6e5a0005c80fde","freq_resp","img/green_2bandit_b.png","70","70","test","","","","3","",""
"null","263046","pSARL_v2","pSARL_v25461g5zh","56259489ed6e5a0005c80fde","fixation","img/fixation.png","null","","test","","","","","",""
"344","263394","pSARL_v2","pSARL_v25461g5zh","56259489ed6e5a0005c80fde","freq","img/green_2bandit_b2.png","70","70","test","1","51","51","3","",""
"null","263867","pSARL_v2","pSARL_v25461g5zh","56259489ed6e5a0005c80fde","freq_resp","img/green_2bandit_b.png","70","70","test","","","","3","",""
"null","264035","pSARL_v2","pSARL_v25461g5zh","56259489ed6e5a0005c80fde","fixation","img/fixation.png","null","","test","","","","","",""
"285.60000002384186","264325","pSARL_v2","pSARL_v25461g5zh","56259489ed6e5a0005c80fde","freq","img/green_2bandit_b2.png","70","70","test","1","52","52","3","",""
"null","264854","pSARL_v2","pSARL_v25461g5zh","56259489ed6e5a0005c80fde","freq_resp","img/green_2bandit_b.png","70","70","test","","","","3","",""
"null","265009","pSARL_v2","pSARL_v25461g5zh","56259489ed6e5a0005c80fde","fixation","img/fixation.png","null","","test","","","","","",""
"294.30000001192093","265307","pSARL_v2","pSARL_v25461g5zh","56259489ed6e5a0005c80fde","freq","img/green_2bandit_b2.png","70","70","test","1","53","53","3","",""
"null","265830","pSARL_v2","pSARL_v25461g5zh","56259489ed6e5a0005c80fde","freq_resp","img/green_2bandit_b.png","70","70","test","","","","3","",""
"null","265998","pSARL_v2","pSARL_v25461g5zh","56259489ed6e5a0005c80fde","fixation","img/fixation.png","null","","test","","","","","",""
"326","266327","pSARL_v2","pSARL_v25461g5zh","56259489ed6e5a0005c80fde","freq","img/green_2bandit_b2.png","70","70","test","1","54","54","3","",""
"null","266816","pSARL_v2","pSARL_v25461g5zh","56259489ed6e5a0005c80fde","freq_resp","img/green_2bandit_b.png","70","70","test","","","","3","",""
"null","266971","pSARL_v2","pSARL_v25461g5zh","56259489ed6e5a0005c80fde","fixation","img/fixation.png","null","","test","","","","","",""
"308.39999997615814","267283","pSARL_v2","pSARL_v25461g5zh","56259489ed6e5a0005c80fde","freq","img/green_2bandit_b2.png","70","70","test","1","55","55","3","",""
"null","267785","pSARL_v2","pSARL_v25461g5zh","56259489ed6e5a0005c80fde","freq_resp","img/green_2bandit_b.png","70","70","test","","","","3","",""
"null","267940","pSARL_v2","pSARL_v25461g5zh","56259489ed6e5a0005c80fde","fixation","img/fixation.png","null","","test","","","","","",""
"577.5","268521","pSARL_v2","pSARL_v25461g5zh","56259489ed6e5a0005c80fde","infreq","img/orange_2bandit_b2.png","68","68","test","1","56","56","3","",""
"null","268760","pSARL_v2","pSARL_v25461g5zh","56259489ed6e5a0005c80fde","infreq_resp","img/orange_2bandit_b.png","68","68","test","","","","3","",""
"null","268915","pSARL_v2","pSARL_v25461g5zh","56259489ed6e5a0005c80fde","fixation","img/fixation.png","null","","test","","","","","",""
"395.9000000357628","269314","pSARL_v2","pSARL_v25461g5zh","56259489ed6e5a0005c80fde","freq","img/green_2bandit_b2.png","70","70","test","1","57","57","3","",""
"null","269723","pSARL_v2","pSARL_v25461g5zh","56259489ed6e5a0005c80fde","freq_resp","img/green_2bandit_b.png","70","70","test","","","","3","",""
"null","269880","pSARL_v2","pSARL_v25461g5zh","56259489ed6e5a0005c80fde","fixation","img/fixation.png","null","","test","","","","","",""
"297.0999999642372","270181","pSARL_v2","pSARL_v25461g5zh","56259489ed6e5a0005c80fde","freq","img/green_2bandit_b2.png","70","70","test","1","58","58","3","",""
"null","270689","pSARL_v2","pSARL_v25461g5zh","56259489ed6e5a0005c80fde","freq_resp","img/green_2bandit_b.png","70","70","test","","","","3","",""
"null","270843","pSARL_v2","pSARL_v25461g5zh","56259489ed6e5a0005c80fde","fixation","img/fixation.png","null","","test","","","","","",""
"309.69999998807907","271156","pSARL_v2","pSARL_v25461g5zh","56259489ed6e5a0005c80fde","freq","img/green_2bandit_b2.png","70","70","test","1","59","59","3","",""
"null","271659","pSARL_v2","pSARL_v25461g5zh","56259489ed6e5a0005c80fde","freq_resp","img/green_2bandit_b.png","70","70","test","","","","3","",""
"null","271827","pSARL_v2","pSARL_v25461g5zh","56259489ed6e5a0005c80fde","fixation","img/fixation.png","null","","test","","","","","",""
"278.5","272110","pSARL_v2","pSARL_v25461g5zh","56259489ed6e5a0005c80fde","freq","img/green_2bandit_b2.png","70","70","test","1","60","60","3","",""
"null","272639","pSARL_v2","pSARL_v25461g5zh","56259489ed6e5a0005c80fde","freq_resp","img/green_2bandit_b.png","70","70","test","","","","3","",""
"null","272808","pSARL_v2","pSARL_v25461g5zh","56259489ed6e5a0005c80fde","fixation","img/fixation.png","null","","test","","","","","",""
"476.39999997615814","273288","pSARL_v2","pSARL_v25461g5zh","56259489ed6e5a0005c80fde","infreq","img/orange_2bandit_b2.png","68","68","test","1","61","61","3","",""
"null","273627","pSARL_v2","pSARL_v25461g5zh","56259489ed6e5a0005c80fde","infreq_resp","img/orange_2bandit_b.png","68","68","test","","","","3","",""
"null","273795","pSARL_v2","pSARL_v25461g5zh","56259489ed6e5a0005c80fde","fixation","img/fixation.png","null","","test","","","","","",""
"341.80000001192093","274141","pSARL_v2","pSARL_v25461g5zh","56259489ed6e5a0005c80fde","freq","img/green_2bandit_b2.png","70","70","test","1","62","62","3","",""
"null","274610","pSARL_v2","pSARL_v25461g5zh","56259489ed6e5a0005c80fde","freq_resp","img/green_2bandit_b.png","70","70","test","","","","3","",""
"null","274764","pSARL_v2","pSARL_v25461g5zh","56259489ed6e5a0005c80fde","fixation","img/fixation.png","null","","test","","","","","",""
"343.80000001192093","275112","pSARL_v2","pSARL_v25461g5zh","56259489ed6e5a0005c80fde","freq","img/green_2bandit_b2.png","70","70","test","1","63","63","3","",""
"null","275579","pSARL_v2","pSARL_v25461g5zh","56259489ed6e5a0005c80fde","freq_resp","img/green_2bandit_b.png","70","70","test","","","","3","",""
"null","275748","pSARL_v2","pSARL_v25461g5zh","56259489ed6e5a0005c80fde","fixation","img/fixation.png","null","","test","","","","","",""
"277.5","276029","pSARL_v2","pSARL_v25461g5zh","56259489ed6e5a0005c80fde","freq","img/green_2bandit_b2.png","70","70","test","1","64","64","3","",""
"null","276561","pSARL_v2","pSARL_v25461g5zh","56259489ed6e5a0005c80fde","freq_resp","img/green_2bandit_b.png","70","70","test","","","","3","",""
"null","276728","pSARL_v2","pSARL_v25461g5zh","56259489ed6e5a0005c80fde","fixation","img/fixation.png","null","","test","","","","","",""
"304.80000001192093","277037","pSARL_v2","pSARL_v25461g5zh","56259489ed6e5a0005c80fde","freq","img/green_2bandit_b2.png","70","70","test","1","65","65","3","",""
"null","277548","pSARL_v2","pSARL_v25461g5zh","56259489ed6e5a0005c80fde","freq_resp","img/green_2bandit_b.png","70","70","test","","","","3","",""
"null","277703","pSARL_v2","pSARL_v25461g5zh","56259489ed6e5a0005c80fde","fixation","img/fixation.png","null","","test","","","","","",""
"291.30000001192093","277998","pSARL_v2","pSARL_v25461g5zh","56259489ed6e5a0005c80fde","freq","img/green_2bandit_b2.png","70","70","test","1","66","66","3","",""
"null","278524","pSARL_v2","pSARL_v25461g5zh","56259489ed6e5a0005c80fde","freq_resp","img/green_2bandit_b.png","70","70","test","","","","3","",""
"null","278693","pSARL_v2","pSARL_v25461g5zh","56259489ed6e5a0005c80fde","fixation","img/fixation.png","null","","test","","","","","",""
"294.5","278991","pSARL_v2","pSARL_v25461g5zh","56259489ed6e5a0005c80fde","freq","img/green_2bandit_b2.png","70","70","test","1","67","67","3","",""
"null","279515","pSARL_v2","pSARL_v25461g5zh","56259489ed6e5a0005c80fde","freq_resp","img/green_2bandit_b.png","70","70","test","","","","3","",""
"null","279683","pSARL_v2","pSARL_v25461g5zh","56259489ed6e5a0005c80fde","fixation","img/fixation.png","null","","test","","","","","",""
"295.89999997615814","279982","pSARL_v2","pSARL_v25461g5zh","56259489ed6e5a0005c80fde","freq","img/green_2bandit_b2.png","70","70","test","1","68","68","3","",""
"null","280499","pSARL_v2","pSARL_v25461g5zh","56259489ed6e5a0005c80fde","freq_resp","img/green_2bandit_b.png","70","70","test","","","","3","",""
"null","280667","pSARL_v2","pSARL_v25461g5zh","56259489ed6e5a0005c80fde","fixation","img/fixation.png","null","","test","","","","","",""
"480.10000002384186","281152","pSARL_v2","pSARL_v25461g5zh","56259489ed6e5a0005c80fde","infreq","img/orange_2bandit_b2.png","68","68","test","1","69","69","3","",""
"null","281480","pSARL_v2","pSARL_v25461g5zh","56259489ed6e5a0005c80fde","infreq_resp","img/orange_2bandit_b.png","68","68","test","","","","3","",""
"null","281648","pSARL_v2","pSARL_v25461g5zh","56259489ed6e5a0005c80fde","fixation","img/fixation.png","null","","test","","","","","",""
"398.0999999642372","282050","pSARL_v2","pSARL_v25461g5zh","56259489ed6e5a0005c80fde","freq","img/green_2bandit_b2.png","70","70","test","1","70","70","3","",""
"null","282458","pSARL_v2","pSARL_v25461g5zh","56259489ed6e5a0005c80fde","freq_resp","img/green_2bandit_b.png","70","70","test","","","","3","",""
"null","282626","pSARL_v2","pSARL_v25461g5zh","56259489ed6e5a0005c80fde","fixation","img/fixation.png","null","","test","","","","","",""
"1099.1000000238419","283728","pSARL_v2","pSARL_v25461g5zh","56259489ed6e5a0005c80fde","reward","img/slot.png","74","","test","","","","","",""
"null","284493","pSARL_v2","pSARL_v25461g5zh","56259489ed6e5a0005c80fde","points","<div class=""verylowPoints""> -7 </div>","null","na","test","","","","3","-7","2"
"452.19999998807907","284949","pSARL_v2","pSARL_v25461g5zh","56259489ed6e5a0005c80fde","freq","img/green_2bandit_b2.png","70","70","test","1","71","71","4","",""
"null","285312","pSARL_v2","pSARL_v25461g5zh","56259489ed6e5a0005c80fde","freq_resp","img/green_2bandit_b.png","70","70","test","","","","4","",""
"null","285466","pSARL_v2","pSARL_v25461g5zh","56259489ed6e5a0005c80fde","fixation","img/fixation.png","null","","test","","","","","",""
"358.10000002384186","285828","pSARL_v2","pSARL_v25461g5zh","56259489ed6e5a0005c80fde","freq","img/green_2bandit_b2.png","70","70","test","1","72","72","4","",""
"null","286283","pSARL_v2","pSARL_v25461g5zh","56259489ed6e5a0005c80fde","freq_resp","img/green_2bandit_b.png","70","70","test","","","","4","",""
"null","286439","pSARL_v2","pSARL_v25461g5zh","56259489ed6e5a0005c80fde","fixation","img/fixation.png","null","","test","","","","","",""
"299.30000001192093","286743","pSARL_v2","pSARL_v25461g5zh","56259489ed6e5a0005c80fde","freq","img/green_2bandit_b2.png","70","70","test","1","73","73","4","",""
"null","287260","pSARL_v2","pSARL_v25461g5zh","56259489ed6e5a0005c80fde","freq_resp","img/green_2bandit_b.png","70","70","test","","","","4","",""
"null","287430","pSARL_v2","pSARL_v25461g5zh","56259489ed6e5a0005c80fde","fixation","img/fixation.png","null","","test","","","","","",""
"297.2999999523163","287730","pSARL_v2","pSARL_v25461g5zh","56259489ed6e5a0005c80fde","freq","img/green_2bandit_b2.png","70","70","test","1","74","74","4","",""
"null","288237","pSARL_v2","pSARL_v25461g5zh","56259489ed6e5a0005c80fde","freq_resp","img/green_2bandit_b.png","70","70","test","","","","4","",""
"null","288408","pSARL_v2","pSARL_v25461g5zh","56259489ed6e5a0005c80fde","fixation","img/fixation.png","null","","test","","","","","",""
"309.10000002384186","288720","pSARL_v2","pSARL_v25461g5zh","56259489ed6e5a0005c80fde","freq","img/green_2bandit_b2.png","70","70","test","1","75","75","4","",""
"null","289229","pSARL_v2","pSARL_v25461g5zh","56259489ed6e5a0005c80fde","freq_resp","img/green_2bandit_b.png","70","70","test","","","","4","",""
"null","289399","pSARL_v2","pSARL_v25461g5zh","56259489ed6e5a0005c80fde","fixation","img/fixation.png","null","","test","","","","","",""
"294.69999998807907","289697","pSARL_v2","pSARL_v25461g5zh","56259489ed6e5a0005c80fde","freq","img/green_2bandit_b2.png","70","70","test","1","76","76","4","",""
"null","290213","pSARL_v2","pSARL_v25461g5zh","56259489ed6e5a0005c80fde","freq_resp","img/green_2bandit_b.png","70","70","test","","","","4","",""
"null","290368","pSARL_v2","pSARL_v25461g5zh","56259489ed6e5a0005c80fde","fixation","img/fixation.png","null","","test","","","","","",""
"676.6000000238419","291048","pSARL_v2","pSARL_v25461g5zh","56259489ed6e5a0005c80fde","freq","img/green_2bandit_b2.png","70","70","test","1","77","77","4","",""
"null","291179","pSARL_v2","pSARL_v25461g5zh","56259489ed6e5a0005c80fde","freq_resp","img/green_2bandit_b.png","70","70","test","","","","4","",""
"null","291333","pSARL_v2","pSARL_v25461g5zh","56259489ed6e5a0005c80fde","fixation","img/fixation.png","null","","test","","","","","",""
"596.9000000357628","291934","pSARL_v2","pSARL_v25461g5zh","56259489ed6e5a0005c80fde","infreq","img/orange_2bandit_b2.png","68","68","test","1","78","78","4","",""
"null","292151","pSARL_v2","pSARL_v25461g5zh","56259489ed6e5a0005c80fde","infreq_resp","img/orange_2bandit_b.png","68","68","test","","","","4","",""
"null","292306","pSARL_v2","pSARL_v25461g5zh","56259489ed6e5a0005c80fde","fixation","img/fixation.png","null","","test","","","","","",""
"522.9000000357628","292833","pSARL_v2","pSARL_v25461g5zh","56259489ed6e5a0005c80fde","freq","img/green_2bandit_b2.png","70","70","test","1","79","79","4","",""
"null","293115","pSARL_v2","pSARL_v25461g5zh","56259489ed6e5a0005c80fde","freq_resp","img/green_2bandit_b.png","70","70","test","","","","4","",""
"null","293283","pSARL_v2","pSARL_v25461g5zh","56259489ed6e5a0005c80fde","fixation","img/fixation.png","null","","test","","","","","",""
"544","293830","pSARL_v2","pSARL_v25461g5zh","56259489ed6e5a0005c80fde","infreq","img/orange_2bandit_b2.png","68","68","test","1","80","80","4","",""
"null","294091","pSARL_v2","pSARL_v25461g5zh","56259489ed6e5a0005c80fde","infreq_resp","img/orange_2bandit_b.png","68","68","test","","","","4","",""
"null","294247","pSARL_v2","pSARL_v25461g5zh","56259489ed6e5a0005c80fde","fixation","img/fixation.png","null","","test","","","","","",""
"395.5","294647","pSARL_v2","pSARL_v25461g5zh","56259489ed6e5a0005c80fde","freq","img/green_2bandit_b2.png","70","70","test","1","81","81","4","",""
"null","295066","pSARL_v2","pSARL_v25461g5zh","56259489ed6e5a0005c80fde","freq_resp","img/green_2bandit_b.png","70","70","test","","","","4","",""
"null","295222","pSARL_v2","pSARL_v25461g5zh","56259489ed6e5a0005c80fde","fixation","img/fixation.png","null","","test","","","","","",""
"299.80000001192093","295527","pSARL_v2","pSARL_v25461g5zh","56259489ed6e5a0005c80fde","freq","img/green_2bandit_b2.png","70","70","test","1","82","82","4","",""
"null","296041","pSARL_v2","pSARL_v25461g5zh","56259489ed6e5a0005c80fde","freq_resp","img/green_2bandit_b.png","70","70","test","","","","4","",""
"null","296196","pSARL_v2","pSARL_v25461g5zh","56259489ed6e5a0005c80fde","fixation","img/fixation.png","null","","test","","","","","",""
"330.30000001192093","296531","pSARL_v2","pSARL_v25461g5zh","56259489ed6e5a0005c80fde","freq","img/green_2bandit_b2.png","70","70","test","1","83","83","4","",""
"null","297018","pSARL_v2","pSARL_v25461g5zh","56259489ed6e5a0005c80fde","freq_resp","img/green_2bandit_b.png","70","70","test","","","","4","",""
"null","297188","pSARL_v2","pSARL_v25461g5zh","56259489ed6e5a0005c80fde","fixation","img/fixation.png","null","","test","","","","","",""
"272.4000000357628","297464","pSARL_v2","pSARL_v25461g5zh","56259489ed6e5a0005c80fde","freq","img/green_2bandit_b2.png","70","70","test","1","84","84","4","",""
"null","298005","pSARL_v2","pSARL_v25461g5zh","56259489ed6e5a0005c80fde","freq_resp","img/green_2bandit_b.png","70","70","test","","","","4","",""
"null","298173","pSARL_v2","pSARL_v25461g5zh","56259489ed6e5a0005c80fde","fixation","img/fixation.png","null","","test","","","","","",""
"299.5999999642372","298478","pSARL_v2","pSARL_v25461g5zh","56259489ed6e5a0005c80fde","freq","img/green_2bandit_b2.png","70","70","test","1","85","85","4","",""
"null","298991","pSARL_v2","pSARL_v25461g5zh","56259489ed6e5a0005c80fde","freq_resp","img/green_2bandit_b.png","70","70","test","","","","4","",""
"null","299145","pSARL_v2","pSARL_v25461g5zh","56259489ed6e5a0005c80fde","fixation","img/fixation.png","null","","test","","","","","",""
"314.5999999642372","299467","pSARL_v2","pSARL_v25461g5zh","56259489ed6e5a0005c80fde","freq","img/green_2bandit_b2.png","70","70","test","1","86","86","4","",""
"null","299959","pSARL_v2","pSARL_v25461g5zh","56259489ed6e5a0005c80fde","freq_resp","img/green_2bandit_b.png","70","70","test","","","","4","",""
"null","300129","pSARL_v2","pSARL_v25461g5zh","56259489ed6e5a0005c80fde","fixation","img/fixation.png","null","","test","","","","","",""
"308.69999998807907","300441","pSARL_v2","pSARL_v25461g5zh","56259489ed6e5a0005c80fde","freq","img/green_2bandit_b2.png","70","70","test","1","87","87","4","",""
"null","300940","pSARL_v2","pSARL_v25461g5zh","56259489ed6e5a0005c80fde","freq_resp","img/green_2bandit_b.png","70","70","test","","","","4","",""
"null","301111","pSARL_v2","pSARL_v25461g5zh","56259489ed6e5a0005c80fde","fixation","img/fixation.png","null","","test","","","","","",""
"299.89999997615814","301416","pSARL_v2","pSARL_v25461g5zh","56259489ed6e5a0005c80fde","freq","img/green_2bandit_b2.png","70","70","test","1","88","88","4","",""
"null","301923","pSARL_v2","pSARL_v25461g5zh","56259489ed6e5a0005c80fde","freq_resp","img/green_2bandit_b.png","70","70","test","","","","4","",""
"null","302079","pSARL_v2","pSARL_v25461g5zh","56259489ed6e5a0005c80fde","fixation","img/fixation.png","null","","test","","","","","",""
"292.0999999642372","302375","pSARL_v2","pSARL_v25461g5zh","56259489ed6e5a0005c80fde","freq","img/green_2bandit_b2.png","70","70","test","1","89","89","4","",""
"null","302898","pSARL_v2","pSARL_v25461g5zh","56259489ed6e5a0005c80fde","freq_resp","img/green_2bandit_b.png","70","70","test","","","","4","",""
"null","303054","pSARL_v2","pSARL_v25461g5zh","56259489ed6e5a0005c80fde","fixation","img/fixation.png","null","","test","","","","","",""
"1226.300000011921","304284","pSARL_v2","pSARL_v25461g5zh","56259489ed6e5a0005c80fde","reward","img/slot.png","74","","test","","","","","",""
"null","305040","pSARL_v2","pSARL_v25461g5zh","56259489ed6e5a0005c80fde","points","<div class=""verylowPoints""> -3 </div>","null","na","test","","","","4","-3","3"
"412.30000001192093","305456","pSARL_v2","pSARL_v25461g5zh","56259489ed6e5a0005c80fde","freq","img/green_2bandit_b2.png","70","70","test","1","90","90","5","",""
"null","305864","pSARL_v2","pSARL_v25461g5zh","56259489ed6e5a0005c80fde","freq_resp","img/green_2bandit_b.png","70","70","test","","","","5","",""
"null","306021","pSARL_v2","pSARL_v25461g5zh","56259489ed6e5a0005c80fde","fixation","img/fixation.png","null","","test","","","","","",""
"335.7000000476837","306360","pSARL_v2","pSARL_v25461g5zh","56259489ed6e5a0005c80fde","freq","img/green_2bandit_b2.png","70","70","test","1","91","91","5","",""
"null","306843","pSARL_v2","pSARL_v25461g5zh","56259489ed6e5a0005c80fde","freq_resp","img/green_2bandit_b.png","70","70","test","","","","5","",""
"null","307000","pSARL_v2","pSARL_v25461g5zh","56259489ed6e5a0005c80fde","fixation","img/fixation.png","null","","test","","","","","",""
"324.69999998807907","307328","pSARL_v2","pSARL_v25461g5zh","56259489ed6e5a0005c80fde","freq","img/green_2bandit_b2.png","70","70","test","1","92","92","5","",""
"null","307815","pSARL_v2","pSARL_v25461g5zh","56259489ed6e5a0005c80fde","freq_resp","img/green_2bandit_b.png","70","70","test","","","","5","",""
"null","307969","pSARL_v2","pSARL_v25461g5zh","56259489ed6e5a0005c80fde","fixation","img/fixation.png","null","","test","","","","","",""
"495.5999999642372","308469","pSARL_v2","pSARL_v25461g5zh","56259489ed6e5a0005c80fde","infreq","img/orange_2bandit_b2.png","68","68","test","1","93","93","5","",""
"null","308784","pSARL_v2","pSARL_v25461g5zh","56259489ed6e5a0005c80fde","infreq_resp","img/orange_2bandit_b.png","68","68","test","","","","5","",""
"null","308952","pSARL_v2","pSARL_v25461g5zh","56259489ed6e5a0005c80fde","fixation","img/fixation.png","null","","test","","","","","",""
"397.5","309353","pSARL_v2","pSARL_v25461g5zh","56259489ed6e5a0005c80fde","freq","img/green_2bandit_b2.png","70","70","test","1","94","94","5","",""
"null","309774","pSARL_v2","pSARL_v25461g5zh","56259489ed6e5a0005c80fde","freq_resp","img/green_2bandit_b.png","70","70","test","","","","5","",""
"null","309928","pSARL_v2","pSARL_v25461g5zh","56259489ed6e5a0005c80fde","fixation","img/fixation.png","null","","test","","","","","",""
"304.5","310237","pSARL_v2","pSARL_v25461g5zh","56259489ed6e5a0005c80fde","freq","img/green_2bandit_b2.png","70","70","test","1","95","95","5","",""
"null","310748","pSARL_v2","pSARL_v25461g5zh","56259489ed6e5a0005c80fde","freq_resp","img/green_2bandit_b.png","70","70","test","","","","5","",""
"null","310903","pSARL_v2","pSARL_v25461g5zh","56259489ed6e5a0005c80fde","fixation","img/fixation.png","null","","test","","","","","",""
"329.10000002384186","311236","pSARL_v2","pSARL_v25461g5zh","56259489ed6e5a0005c80fde","freq","img/green_2bandit_b2.png","70","70","test","1","96","96","5","",""
"null","311713","pSARL_v2","pSARL_v25461g5zh","56259489ed6e5a0005c80fde","freq_resp","img/green_2bandit_b.png","70","70","test","","","","5","",""
"null","311868","pSARL_v2","pSARL_v25461g5zh","56259489ed6e5a0005c80fde","fixation","img/fixation.png","null","","test","","","","","",""
"309.30000001192093","312181","pSARL_v2","pSARL_v25461g5zh","56259489ed6e5a0005c80fde","freq","img/green_2bandit_b2.png","70","70","test","1","97","97","5","",""
"null","312690","pSARL_v2","pSARL_v25461g5zh","56259489ed6e5a0005c80fde","freq_resp","img/green_2bandit_b.png","70","70","test","","","","5","",""
"null","312858","pSARL_v2","pSARL_v25461g5zh","56259489ed6e5a0005c80fde","fixation","img/fixation.png","null","","test","","","","","",""
"308.60000002384186","313171","pSARL_v2","pSARL_v25461g5zh","56259489ed6e5a0005c80fde","freq","img/green_2bandit_b2.png","70","70","test","1","98","98","5","",""
"null","313677","pSARL_v2","pSARL_v25461g5zh","56259489ed6e5a0005c80fde","freq_resp","img/green_2bandit_b.png","70","70","test","","","","5","",""
"null","313833","pSARL_v2","pSARL_v25461g5zh","56259489ed6e5a0005c80fde","fixation","img/fixation.png","null","","test","","","","","",""
"303.30000001192093","314140","pSARL_v2","pSARL_v25461g5zh","56259489ed6e5a0005c80fde","freq","img/green_2bandit_b2.png","70","70","test","1","99","99","5","",""
"null","314655","pSARL_v2","pSARL_v25461g5zh","56259489ed6e5a0005c80fde","freq_resp","img/green_2bandit_b.png","70","70","test","","","","5","",""
"null","314824","pSARL_v2","pSARL_v25461g5zh","56259489ed6e5a0005c80fde","fixation","img/fixation.png","null","","test","","","","","",""
"274.4000000357628","315102","pSARL_v2","pSARL_v25461g5zh","56259489ed6e5a0005c80fde","freq","img/green_2bandit_b2.png","70","70","test","1","100","100","5","",""
"null","315633","pSARL_v2","pSARL_v25461g5zh","56259489ed6e5a0005c80fde","freq_resp","img/green_2bandit_b.png","70","70","test","","","","5","",""
"null","315788","pSARL_v2","pSARL_v25461g5zh","56259489ed6e5a0005c80fde","fixation","img/fixation.png","null","","test","","","","","",""
"281","316073","pSARL_v2","pSARL_v25461g5zh","56259489ed6e5a0005c80fde","freq","img/green_2bandit_b2.png","70","70","test","1","101","101","5","",""
"null","316610","pSARL_v2","pSARL_v25461g5zh","56259489ed6e5a0005c80fde","freq_resp","img/green_2bandit_b.png","70","70","test","","","","5","",""
"null","316765","pSARL_v2","pSARL_v25461g5zh","56259489ed6e5a0005c80fde","fixation","img/fixation.png","null","","test","","","","","",""
"293.5999999642372","317062","pSARL_v2","pSARL_v25461g5zh","56259489ed6e5a0005c80fde","freq","img/green_2bandit_b2.png","70","70","test","1","102","102","5","",""
"null","317582","pSARL_v2","pSARL_v25461g5zh","56259489ed6e5a0005c80fde","freq_resp","img/green_2bandit_b.png","70","70","test","","","","5","",""
"null","317751","pSARL_v2","pSARL_v25461g5zh","56259489ed6e5a0005c80fde","fixation","img/fixation.png","null","","test","","","","","",""
"279","318034","pSARL_v2","pSARL_v25461g5zh","56259489ed6e5a0005c80fde","freq","img/green_2bandit_b2.png","70","70","test","1","103","103","5","",""
"null","318573","pSARL_v2","pSARL_v25461g5zh","56259489ed6e5a0005c80fde","freq_resp","img/green_2bandit_b.png","70","70","test","","","","5","",""
"null","318727","pSARL_v2","pSARL_v25461g5zh","56259489ed6e5a0005c80fde","fixation","img/fixation.png","null","","test","","","","","",""
"292.0999999642372","319023","pSARL_v2","pSARL_v25461g5zh","56259489ed6e5a0005c80fde","freq","img/green_2bandit_b2.png","70","70","test","1","104","104","5","",""
"null","319546","pSARL_v2","pSARL_v25461g5zh","56259489ed6e5a0005c80fde","freq_resp","img/green_2bandit_b.png","70","70","test","","","","5","",""
"null","319715","pSARL_v2","pSARL_v25461g5zh","56259489ed6e5a0005c80fde","fixation","img/fixation.png","null","","test","","","","","",""
"282.7999999523163","320002","pSARL_v2","pSARL_v25461g5zh","56259489ed6e5a0005c80fde","freq","img/green_2bandit_b2.png","70","70","test","1","105","105","5","",""
"null","320535","pSARL_v2","pSARL_v25461g5zh","56259489ed6e5a0005c80fde","freq_resp","img/green_2bandit_b.png","70","70","test","","","","5","",""
"null","320703","pSARL_v2","pSARL_v25461g5zh","56259489ed6e5a0005c80fde","fixation","img/fixation.png","null","","test","","","","","",""
"265.39999997615814","320972","pSARL_v2","pSARL_v25461g5zh","56259489ed6e5a0005c80fde","freq","img/green_2bandit_b2.png","70","70","test","1","106","106","5","",""
"null","321512","pSARL_v2","pSARL_v25461g5zh","56259489ed6e5a0005c80fde","freq_resp","img/green_2bandit_b.png","70","70","test","","","","5","",""
"null","321681","pSARL_v2","pSARL_v25461g5zh","56259489ed6e5a0005c80fde","fixation","img/fixation.png","null","","test","","","","","",""
"260.89999997615814","321946","pSARL_v2","pSARL_v25461g5zh","56259489ed6e5a0005c80fde","freq","img/green_2bandit_b2.png","70","70","test","1","107","107","5","",""
"null","322503","pSARL_v2","pSARL_v25461g5zh","56259489ed6e5a0005c80fde","freq_resp","img/green_2bandit_b.png","70","70","test","","","","5","",""
"null","322657","pSARL_v2","pSARL_v25461g5zh","56259489ed6e5a0005c80fde","fixation","img/fixation.png","null","","test","","","","","",""
"292.69999998807907","322953","pSARL_v2","pSARL_v25461g5zh","56259489ed6e5a0005c80fde","freq","img/green_2bandit_b2.png","70","70","test","1","108","108","5","",""
"null","323479","pSARL_v2","pSARL_v25461g5zh","56259489ed6e5a0005c80fde","freq_resp","img/green_2bandit_b.png","70","70","test","","","","5","",""
"null","323646","pSARL_v2","pSARL_v25461g5zh","56259489ed6e5a0005c80fde","fixation","img/fixation.png","null","","test","","","","","",""
"581.3000000119209","324232","pSARL_v2","pSARL_v25461g5zh","56259489ed6e5a0005c80fde","infreq","img/orange_2bandit_b2.png","68","68","test","1","109","109","5","",""
"null","324468","pSARL_v2","pSARL_v25461g5zh","56259489ed6e5a0005c80fde","infreq_resp","img/orange_2bandit_b.png","68","68","test","","","","5","",""
"null","324623","pSARL_v2","pSARL_v25461g5zh","56259489ed6e5a0005c80fde","fixation","img/fixation.png","null","","test","","","","","",""
"408.7999999523163","325036","pSARL_v2","pSARL_v25461g5zh","56259489ed6e5a0005c80fde","freq","img/green_2bandit_b2.png","70","70","test","1","110","110","5","",""
"null","325444","pSARL_v2","pSARL_v25461g5zh","56259489ed6e5a0005c80fde","freq_resp","img/green_2bandit_b.png","70","70","test","","","","5","",""
"null","325600","pSARL_v2","pSARL_v25461g5zh","56259489ed6e5a0005c80fde","fixation","img/fixation.png","null","","test","","","","","",""
"263.7000000476837","325868","pSARL_v2","pSARL_v25461g5zh","56259489ed6e5a0005c80fde","freq","img/green_2bandit_b2.png","70","70","test","1","111","111","5","",""
"null","326420","pSARL_v2","pSARL_v25461g5zh","56259489ed6e5a0005c80fde","freq_resp","img/green_2bandit_b.png","70","70","test","","","","5","",""
"null","326591","pSARL_v2","pSARL_v25461g5zh","56259489ed6e5a0005c80fde","fixation","img/fixation.png","null","","test","","","","","",""
"298.89999997615814","326896","pSARL_v2","pSARL_v25461g5zh","56259489ed6e5a0005c80fde","freq","img/green_2bandit_b2.png","70","70","test","1","112","112","5","",""
"null","327412","pSARL_v2","pSARL_v25461g5zh","56259489ed6e5a0005c80fde","freq_resp","img/green_2bandit_b.png","70","70","test","","","","5","",""
"null","327579","pSARL_v2","pSARL_v25461g5zh","56259489ed6e5a0005c80fde","fixation","img/fixation.png","null","","test","","","","","",""
"268.89999997615814","327855","pSARL_v2","pSARL_v25461g5zh","56259489ed6e5a0005c80fde","freq","img/green_2bandit_b2.png","70","70","test","1","113","113","5","",""
"null","328396","pSARL_v2","pSARL_v25461g5zh","56259489ed6e5a0005c80fde","freq_resp","img/green_2bandit_b.png","70","70","test","","","","5","",""
"null","328567","pSARL_v2","pSARL_v25461g5zh","56259489ed6e5a0005c80fde","fixation","img/fixation.png","null","","test","","","","","",""
"261.30000001192093","328833","pSARL_v2","pSARL_v25461g5zh","56259489ed6e5a0005c80fde","freq","img/green_2bandit_b2.png","70","70","test","1","114","114","5","",""
"null","329390","pSARL_v2","pSARL_v25461g5zh","56259489ed6e5a0005c80fde","freq_resp","img/green_2bandit_b.png","70","70","test","","","","5","",""
"null","329559","pSARL_v2","pSARL_v25461g5zh","56259489ed6e5a0005c80fde","fixation","img/fixation.png","null","","test","","","","","",""
"330.80000001192093","329893","pSARL_v2","pSARL_v25461g5zh","56259489ed6e5a0005c80fde","freq","img/green_2bandit_b2.png","70","70","test","1","115","115","5","",""
"null","330379","pSARL_v2","pSARL_v25461g5zh","56259489ed6e5a0005c80fde","freq_resp","img/green_2bandit_b.png","70","70","test","","","","5","",""
"null","330545","pSARL_v2","pSARL_v25461g5zh","56259489ed6e5a0005c80fde","fixation","img/fixation.png","null","","test","","","","","",""
"879.1000000238419","331429","pSARL_v2","pSARL_v25461g5zh","56259489ed6e5a0005c80fde","reward","img/slot.png","74","","test","","","","","",""
"null","332188","pSARL_v2","pSARL_v25461g5zh","56259489ed6e5a0005c80fde","points","<div class=""veryhighPoints""> +1 </div>","null","na","test","","","","5","1","4"
"417.5","332609","pSARL_v2","pSARL_v25461g5zh","56259489ed6e5a0005c80fde","freq","img/green_2bandit_b2.png","70","70","test","1","116","116","6","",""
"null","333009","pSARL_v2","pSARL_v25461g5zh","56259489ed6e5a0005c80fde","freq_resp","img/green_2bandit_b.png","70","70","test","","","","6","",""
"null","333165","pSARL_v2","pSARL_v25461g5zh","56259489ed6e5a0005c80fde","fixation","img/fixation.png","null","","test","","","","","",""
"294.30000001192093","333464","pSARL_v2","pSARL_v25461g5zh","56259489ed6e5a0005c80fde","freq","img/green_2bandit_b2.png","70","70","test","1","117","117","6","",""
"null","333982","pSARL_v2","pSARL_v25461g5zh","56259489ed6e5a0005c80fde","freq_resp","img/green_2bandit_b.png","70","70","test","","","","6","",""
"null","334136","pSARL_v2","pSARL_v25461g5zh","56259489ed6e5a0005c80fde","fixation","img/fixation.png","null","","test","","","","","",""
"284.80000001192093","334426","pSARL_v2","pSARL_v25461g5zh","56259489ed6e5a0005c80fde","freq","img/green_2bandit_b2.png","70","70","test","1","118","118","6","",""
"null","334952","pSARL_v2","pSARL_v25461g5zh","56259489ed6e5a0005c80fde","freq_resp","img/green_2bandit_b.png","70","70","test","","","","6","",""
"null","335108","pSARL_v2","pSARL_v25461g5zh","56259489ed6e5a0005c80fde","fixation","img/fixation.png","null","","test","","","","","",""
"549.5","335662","pSARL_v2","pSARL_v25461g5zh","56259489ed6e5a0005c80fde","infreq","img/orange_2bandit_b2.png","68","68","test","1","119","119","6","",""
"null","335922","pSARL_v2","pSARL_v25461g5zh","56259489ed6e5a0005c80fde","infreq_resp","img/orange_2bandit_b.png","68","68","test","","","","6","",""
"null","336077","pSARL_v2","pSARL_v25461g5zh","56259489ed6e5a0005c80fde","fixation","img/fixation.png","null","","test","","","","","",""
"420.30000001192093","336501","pSARL_v2","pSARL_v25461g5zh","56259489ed6e5a0005c80fde","freq","img/green_2bandit_b2.png","70","70","test","1","120","120","6","",""
"null","336892","pSARL_v2","pSARL_v25461g5zh","56259489ed6e5a0005c80fde","freq_resp","img/green_2bandit_b.png","70","70","test","","","","6","",""
"null","337047","pSARL_v2","pSARL_v25461g5zh","56259489ed6e5a0005c80fde","fixation","img/fixation.png","null","","test","","","","","",""
"311.2000000476837","337364","pSARL_v2","pSARL_v25461g5zh","56259489ed6e5a0005c80fde","freq","img/green_2bandit_b2.png","70","70","test","1","121","121","6","",""
"null","337867","pSARL_v2","pSARL_v25461g5zh","56259489ed6e5a0005c80fde","freq_resp","img/green_2bandit_b.png","70","70","test","","","","6","",""
"null","338022","pSARL_v2","pSARL_v25461g5zh","56259489ed6e5a0005c80fde","fixation","img/fixation.png","null","","test","","","","","",""
"307","338333","pSARL_v2","pSARL_v25461g5zh","56259489ed6e5a0005c80fde","freq","img/green_2bandit_b2.png","70","70","test","1","122","122","6","",""
"null","338837","pSARL_v2","pSARL_v25461g5zh","56259489ed6e5a0005c80fde","freq_resp","img/green_2bandit_b.png","70","70","test","","","","6","",""
"null","339006","pSARL_v2","pSARL_v25461g5zh","56259489ed6e5a0005c80fde","fixation","img/fixation.png","null","","test","","","","","",""
"331.2000000476837","339341","pSARL_v2","pSARL_v25461g5zh","56259489ed6e5a0005c80fde","freq","img/green_2bandit_b2.png","70","70","test","1","123","123","6","",""
"null","339822","pSARL_v2","pSARL_v25461g5zh","56259489ed6e5a0005c80fde","freq_resp","img/green_2bandit_b.png","70","70","test","","","","6","",""
"null","339992","pSARL_v2","pSARL_v25461g5zh","56259489ed6e5a0005c80fde","fixation","img/fixation.png","null","","test","","","","","",""
"332.89999997615814","340328","pSARL_v2","pSARL_v25461g5zh","56259489ed6e5a0005c80fde","freq","img/green_2bandit_b2.png","70","70","test","1","124","124","6","",""
"null","340813","pSARL_v2","pSARL_v25461g5zh","56259489ed6e5a0005c80fde","freq_resp","img/green_2bandit_b.png","70","70","test","","","","6","",""
"null","340980","pSARL_v2","pSARL_v25461g5zh","56259489ed6e5a0005c80fde","fixation","img/fixation.png","null","","test","","","","","",""
"348.2000000476837","341333","pSARL_v2","pSARL_v25461g5zh","56259489ed6e5a0005c80fde","freq","img/green_2bandit_b2.png","70","70","test","1","125","125","6","",""
"null","341797","pSARL_v2","pSARL_v25461g5zh","56259489ed6e5a0005c80fde","freq_resp","img/green_2bandit_b.png","70","70","test","","","","6","",""
"null","341951","pSARL_v2","pSARL_v25461g5zh","56259489ed6e5a0005c80fde","fixation","img/fixation.png","null","","test","","","","","",""
"317.69999998807907","342273","pSARL_v2","pSARL_v25461g5zh","56259489ed6e5a0005c80fde","freq","img/green_2bandit_b2.png","70","70","test","1","126","126","6","",""
"null","342770","pSARL_v2","pSARL_v25461g5zh","56259489ed6e5a0005c80fde","freq_resp","img/green_2bandit_b.png","70","70","test","","","","6","",""
"null","342924","pSARL_v2","pSARL_v25461g5zh","56259489ed6e5a0005c80fde","fixation","img/fixation.png","null","","test","","","","","",""
"339.60000002384186","343267","pSARL_v2","pSARL_v25461g5zh","56259489ed6e5a0005c80fde","freq","img/green_2bandit_b2.png","70","70","test","1","127","127","6","",""
"null","343745","pSARL_v2","pSARL_v25461g5zh","56259489ed6e5a0005c80fde","freq_resp","img/green_2bandit_b.png","70","70","test","","","","6","",""
"null","343902","pSARL_v2","pSARL_v25461g5zh","56259489ed6e5a0005c80fde","fixation","img/fixation.png","null","","test","","","","","",""
"536.6999999880791","344443","pSARL_v2","pSARL_v25461g5zh","56259489ed6e5a0005c80fde","infreq","img/orange_2bandit_b2.png","68","68","test","1","128","128","6","",""
"null","344719","pSARL_v2","pSARL_v25461g5zh","56259489ed6e5a0005c80fde","infreq_resp","img/orange_2bandit_b.png","68","68","test","","","","6","",""
"null","344888","pSARL_v2","pSARL_v25461g5zh","56259489ed6e5a0005c80fde","fixation","img/fixation.png","null","","test","","","","","",""
"312.69999998807907","345204","pSARL_v2","pSARL_v25461g5zh","56259489ed6e5a0005c80fde","freq","img/green_2bandit_b2.png","70","70","test","1","129","129","6","",""
"null","345708","pSARL_v2","pSARL_v25461g5zh","56259489ed6e5a0005c80fde","freq_resp","img/green_2bandit_b.png","70","70","test","","","","6","",""
"null","345863","pSARL_v2","pSARL_v25461g5zh","56259489ed6e5a0005c80fde","fixation","img/fixation.png","null","","test","","","","","",""
"300.19999998807907","346168","pSARL_v2","pSARL_v25461g5zh","56259489ed6e5a0005c80fde","freq","img/green_2bandit_b2.png","70","70","test","1","130","130","6","",""
"null","346687","pSARL_v2","pSARL_v25461g5zh","56259489ed6e5a0005c80fde","freq_resp","img/green_2bandit_b.png","70","70","test","","","","6","",""
"null","346855","pSARL_v2","pSARL_v25461g5zh","56259489ed6e5a0005c80fde","fixation","img/fixation.png","null","","test","","","","","",""
"277.10000002384186","347136","pSARL_v2","pSARL_v25461g5zh","56259489ed6e5a0005c80fde","freq","img/green_2bandit_b2.png","70","70","test","1","131","131","6","",""
"null","347670","pSARL_v2","pSARL_v25461g5zh","56259489ed6e5a0005c80fde","freq_resp","img/green_2bandit_b.png","70","70","test","","","","6","",""
"null","347824","pSARL_v2","pSARL_v25461g5zh","56259489ed6e5a0005c80fde","fixation","img/fixation.png","null","","test","","","","","",""
"275.69999998807907","348104","pSARL_v2","pSARL_v25461g5zh","56259489ed6e5a0005c80fde","freq","img/green_2bandit_b2.png","70","70","test","1","132","132","6","",""
"null","348643","pSARL_v2","pSARL_v25461g5zh","56259489ed6e5a0005c80fde","freq_resp","img/green_2bandit_b.png","70","70","test","","","","6","",""
"null","348798","pSARL_v2","pSARL_v25461g5zh","56259489ed6e5a0005c80fde","fixation","img/fixation.png","null","","test","","","","","",""
"283.60000002384186","349085","pSARL_v2","pSARL_v25461g5zh","56259489ed6e5a0005c80fde","freq","img/green_2bandit_b2.png","70","70","test","1","133","133","6","",""
"null","349618","pSARL_v2","pSARL_v25461g5zh","56259489ed6e5a0005c80fde","freq_resp","img/green_2bandit_b.png","70","70","test","","","","6","",""
"null","349773","pSARL_v2","pSARL_v25461g5zh","56259489ed6e5a0005c80fde","fixation","img/fixation.png","null","","test","","","","","",""
"286.69999998807907","350064","pSARL_v2","pSARL_v25461g5zh","56259489ed6e5a0005c80fde","freq","img/green_2bandit_b2.png","70","70","test","1","134","134","6","",""
"null","350596","pSARL_v2","pSARL_v25461g5zh","56259489ed6e5a0005c80fde","freq_resp","img/green_2bandit_b.png","70","70","test","","","","6","",""
"null","350765","pSARL_v2","pSARL_v25461g5zh","56259489ed6e5a0005c80fde","fixation","img/fixation.png","null","","test","","","","","",""
"272","351042","pSARL_v2","pSARL_v25461g5zh","56259489ed6e5a0005c80fde","freq","img/green_2bandit_b2.png","70","70","test","1","135","135","6","",""
"null","351588","pSARL_v2","pSARL_v25461g5zh","56259489ed6e5a0005c80fde","freq_resp","img/green_2bandit_b.png","70","70","test","","","","6","",""
"null","351757","pSARL_v2","pSARL_v25461g5zh","56259489ed6e5a0005c80fde","fixation","img/fixation.png","null","","test","","","","","",""
"836","352597","pSARL_v2","pSARL_v25461g5zh","56259489ed6e5a0005c80fde","reward","img/slot.png","74","","test","","","","","",""
"null","353363","pSARL_v2","pSARL_v25461g5zh","56259489ed6e5a0005c80fde","points","<div class=""verylowPoints""> -7 </div>","null","na","test","","","","6","-7","5"
"363.10000002384186","353730","pSARL_v2","pSARL_v25461g5zh","56259489ed6e5a0005c80fde","freq","img/green_2bandit_b2.png","70","70","test","1","136","136","7","",""
"null","354178","pSARL_v2","pSARL_v25461g5zh","56259489ed6e5a0005c80fde","freq_resp","img/green_2bandit_b.png","70","70","test","","","","7","",""
"null","354347","pSARL_v2","pSARL_v25461g5zh","56259489ed6e5a0005c80fde","fixation","img/fixation.png","null","","test","","","","","",""
"311.10000002384186","354662","pSARL_v2","pSARL_v25461g5zh","56259489ed6e5a0005c80fde","freq","img/green_2bandit_b2.png","70","70","test","1","137","137","7","",""
"null","355157","pSARL_v2","pSARL_v25461g5zh","56259489ed6e5a0005c80fde","freq_resp","img/green_2bandit_b.png","70","70","test","","","","7","",""
"null","355313","pSARL_v2","pSARL_v25461g5zh","56259489ed6e5a0005c80fde","fixation","img/fixation.png","null","","test","","","","","",""
"290.10000002384186","355607","pSARL_v2","pSARL_v25461g5zh","56259489ed6e5a0005c80fde","freq","img/green_2bandit_b2.png","70","70","test","1","138","138","7","",""
"null","356132","pSARL_v2","pSARL_v25461g5zh","56259489ed6e5a0005c80fde","freq_resp","img/green_2bandit_b.png","70","70","test","","","","7","",""
"null","356302","pSARL_v2","pSARL_v25461g5zh","56259489ed6e5a0005c80fde","fixation","img/fixation.png","null","","test","","","","","",""
"302.19999998807907","356607","pSARL_v2","pSARL_v25461g5zh","56259489ed6e5a0005c80fde","freq","img/green_2bandit_b2.png","70","70","test","1","139","139","7","",""
"null","357121","pSARL_v2","pSARL_v25461g5zh","56259489ed6e5a0005c80fde","freq_resp","img/green_2bandit_b.png","70","70","test","","","","7","",""
"null","357277","pSARL_v2","pSARL_v25461g5zh","56259489ed6e5a0005c80fde","fixation","img/fixation.png","null","","test","","","","","",""
"295.7000000476837","357576","pSARL_v2","pSARL_v25461g5zh","56259489ed6e5a0005c80fde","freq","img/green_2bandit_b2.png","70","70","test","1","140","140","7","",""
"null","358097","pSARL_v2","pSARL_v25461g5zh","56259489ed6e5a0005c80fde","freq_resp","img/green_2bandit_b.png","70","70","test","","","","7","",""
"null","358254","pSARL_v2","pSARL_v25461g5zh","56259489ed6e5a0005c80fde","fixation","img/fixation.png","null","","test","","","","","",""
"290.10000002384186","358548","pSARL_v2","pSARL_v25461g5zh","56259489ed6e5a0005c80fde","freq","img/green_2bandit_b2.png","70","70","test","1","141","141","7","",""
"null","359075","pSARL_v2","pSARL_v25461g5zh","56259489ed6e5a0005c80fde","freq_resp","img/green_2bandit_b.png","70","70","test","","","","7","",""
"null","359244","pSARL_v2","pSARL_v25461g5zh","56259489ed6e5a0005c80fde","fixation","img/fixation.png","null","","test","","","","","",""
"311.39999997615814","359561","pSARL_v2","pSARL_v25461g5zh","56259489ed6e5a0005c80fde","freq","img/green_2bandit_b2.png","70","70","test","1","142","142","7","",""
"null","360067","pSARL_v2","pSARL_v25461g5zh","56259489ed6e5a0005c80fde","freq_resp","img/green_2bandit_b.png","70","70","test","","","","7","",""
"null","360222","pSARL_v2","pSARL_v25461g5zh","56259489ed6e5a0005c80fde","fixation","img/fixation.png","null","","test","","","","","",""
"296.0999999642372","360522","pSARL_v2","pSARL_v25461g5zh","56259489ed6e5a0005c80fde","freq","img/green_2bandit_b2.png","70","70","test","1","143","143","7","",""
"null","361040","pSARL_v2","pSARL_v25461g5zh","56259489ed6e5a0005c80fde","freq_resp","img/green_2bandit_b.png","70","70","test","","","","7","",""
"null","361209","pSARL_v2","pSARL_v25461g5zh","56259489ed6e5a0005c80fde","fixation","img/fixation.png","null","","test","","","","","",""
"300.80000001192093","361514","pSARL_v2","pSARL_v25461g5zh","56259489ed6e5a0005c80fde","freq","img/green_2bandit_b2.png","70","70","test","1","144","144","7","",""
"null","362028","pSARL_v2","pSARL_v25461g5zh","56259489ed6e5a0005c80fde","freq_resp","img/green_2bandit_b.png","70","70","test","","","","7","",""
"null","362183","pSARL_v2","pSARL_v25461g5zh","56259489ed6e5a0005c80fde","fixation","img/fixation.png","null","","test","","","","","",""
"295.4000000357628","362482","pSARL_v2","pSARL_v25461g5zh","56259489ed6e5a0005c80fde","freq","img/green_2bandit_b2.png","70","70","test","1","145","145","7","",""
"null","363004","pSARL_v2","pSARL_v25461g5zh","56259489ed6e5a0005c80fde","freq_resp","img/green_2bandit_b.png","70","70","test","","","","7","",""
"null","363171","pSARL_v2","pSARL_v25461g5zh","56259489ed6e5a0005c80fde","fixation","img/fixation.png","null","","test","","","","","",""
"273.30000001192093","363449","pSARL_v2","pSARL_v25461g5zh","56259489ed6e5a0005c80fde","freq","img/green_2bandit_b2.png","70","70","test","1","146","146","7","",""
"null","363991","pSARL_v2","pSARL_v25461g5zh","56259489ed6e5a0005c80fde","freq_resp","img/green_2bandit_b.png","70","70","test","","","","7","",""
"null","364149","pSARL_v2","pSARL_v25461g5zh","56259489ed6e5a0005c80fde","fixation","img/fixation.png","null","","test","","","","","",""
"297.5","364453","pSARL_v2","pSARL_v25461g5zh","56259489ed6e5a0005c80fde","freq","img/green_2bandit_b2.png","70","70","test","1","147","147","7","",""
"null","364958","pSARL_v2","pSARL_v25461g5zh","56259489ed6e5a0005c80fde","freq_resp","img/green_2bandit_b.png","70","70","test","","","","7","",""
"null","365114","pSARL_v2","pSARL_v25461g5zh","56259489ed6e5a0005c80fde","fixation","img/fixation.png","null","","test","","","","","",""
"274.80000001192093","365393","pSARL_v2","pSARL_v25461g5zh","56259489ed6e5a0005c80fde","freq","img/green_2bandit_b2.png","70","70","test","1","148","148","7","",""
"null","365934","pSARL_v2","pSARL_v25461g5zh","56259489ed6e5a0005c80fde","freq_resp","img/green_2bandit_b.png","70","70","test","","","","7","",""
"null","366103","pSARL_v2","pSARL_v25461g5zh","56259489ed6e5a0005c80fde","fixation","img/fixation.png","null","","test","","","","","",""
"297.4000000357628","366405","pSARL_v2","pSARL_v25461g5zh","56259489ed6e5a0005c80fde","freq","img/green_2bandit_b2.png","70","70","test","1","149","149","7","",""
"null","366919","pSARL_v2","pSARL_v25461g5zh","56259489ed6e5a0005c80fde","freq_resp","img/green_2bandit_b.png","70","70","test","","","","7","",""
"null","367088","pSARL_v2","pSARL_v25461g5zh","56259489ed6e5a0005c80fde","fixation","img/fixation.png","null","","test","","","","","",""
"588.1999999880791","367680","pSARL_v2","pSARL_v25461g5zh","56259489ed6e5a0005c80fde","infreq","img/orange_2bandit_b2.png","68","68","test","1","150","150","7","",""
"null","367906","pSARL_v2","pSARL_v25461g5zh","56259489ed6e5a0005c80fde","infreq_resp","img/orange_2bandit_b.png","68","68","test","","","","7","",""
"null","368075","pSARL_v2","pSARL_v25461g5zh","56259489ed6e5a0005c80fde","fixation","img/fixation.png","null","","test","","","","","",""
"354.10000002384186","368434","pSARL_v2","pSARL_v25461g5zh","56259489ed6e5a0005c80fde","freq","img/green_2bandit_b2.png","70","70","test","1","151","151","7","",""
"null","368895","pSARL_v2","pSARL_v25461g5zh","56259489ed6e5a0005c80fde","freq_resp","img/green_2bandit_b.png","70","70","test","","","","7","",""
"null","369051","pSARL_v2","pSARL_v25461g5zh","56259489ed6e5a0005c80fde","fixation","img/fixation.png","null","","test","","","","","",""
"284","369338","pSARL_v2","pSARL_v25461g5zh","56259489ed6e5a0005c80fde","freq","img/green_2bandit_b2.png","70","70","test","1","152","152","7","",""
"null","369866","pSARL_v2","pSARL_v25461g5zh","56259489ed6e5a0005c80fde","freq_resp","img/green_2bandit_b.png","70","70","test","","","","7","",""
"null","370023","pSARL_v2","pSARL_v25461g5zh","56259489ed6e5a0005c80fde","fixation","img/fixation.png","null","","test","","","","","",""
"299.89999997615814","370326","pSARL_v2","pSARL_v25461g5zh","56259489ed6e5a0005c80fde","freq","img/green_2bandit_b2.png","70","70","test","1","153","153","7","",""
"null","370840","pSARL_v2","pSARL_v25461g5zh","56259489ed6e5a0005c80fde","freq_resp","img/green_2bandit_b.png","70","70","test","","","","7","",""
"null","371010","pSARL_v2","pSARL_v25461g5zh","56259489ed6e5a0005c80fde","fixation","img/fixation.png","null","","test","","","","","",""
"283.89999997615814","371299","pSARL_v2","pSARL_v25461g5zh","56259489ed6e5a0005c80fde","freq","img/green_2bandit_b2.png","70","70","test","1","154","154","7","",""
"null","371829","pSARL_v2","pSARL_v25461g5zh","56259489ed6e5a0005c80fde","freq_resp","img/green_2bandit_b.png","70","70","test","","","","7","",""
"null","371985","pSARL_v2","pSARL_v25461g5zh","56259489ed6e5a0005c80fde","fixation","img/fixation.png","null","","test","","","","","",""
"262.30000001192093","372252","pSARL_v2","pSARL_v25461g5zh","56259489ed6e5a0005c80fde","freq","img/green_2bandit_b2.png","70","70","test","1","155","155","7","",""
"null","372808","pSARL_v2","pSARL_v25461g5zh","56259489ed6e5a0005c80fde","freq_resp","img/green_2bandit_b.png","70","70","test","","","","7","",""
"null","372963","pSARL_v2","pSARL_v25461g5zh","56259489ed6e5a0005c80fde","fixation","img/fixation.png","null","","test","","","","","",""
"298.5","373265","pSARL_v2","pSARL_v25461g5zh","56259489ed6e5a0005c80fde","freq","img/green_2bandit_b2.png","70","70","test","1","156","156","7","",""
"null","373782","pSARL_v2","pSARL_v25461g5zh","56259489ed6e5a0005c80fde","freq_resp","img/green_2bandit_b.png","70","70","test","","","","7","",""
"null","373939","pSARL_v2","pSARL_v25461g5zh","56259489ed6e5a0005c80fde","fixation","img/fixation.png","null","","test","","","","","",""
"530.8000000119209","374473","pSARL_v2","pSARL_v25461g5zh","56259489ed6e5a0005c80fde","infreq","img/orange_2bandit_b2.png","68","68","test","1","157","157","7","",""
"null","374762","pSARL_v2","pSARL_v25461g5zh","56259489ed6e5a0005c80fde","infreq_resp","img/orange_2bandit_b.png","68","68","test","","","","7","",""
"null","374918","pSARL_v2","pSARL_v25461g5zh","56259489ed6e5a0005c80fde","fixation","img/fixation.png","null","","test","","","","","",""
"372.69999998807907","375295","pSARL_v2","pSARL_v25461g5zh","56259489ed6e5a0005c80fde","freq","img/green_2bandit_b2.png","70","70","test","1","158","158","7","",""
"null","375742","pSARL_v2","pSARL_v25461g5zh","56259489ed6e5a0005c80fde","freq_resp","img/green_2bandit_b.png","70","70","test","","","","7","",""
"null","375910","pSARL_v2","pSARL_v25461g5zh","56259489ed6e5a0005c80fde","fixation","img/fixation.png","null","","test","","","","","",""
"269.69999998807907","376185","pSARL_v2","pSARL_v25461g5zh","56259489ed6e5a0005c80fde","freq","img/green_2bandit_b2.png","70","70","test","1","159","159","7","",""
"null","376734","pSARL_v2","pSARL_v25461g5zh","56259489ed6e5a0005c80fde","freq_resp","img/green_2bandit_b.png","70","70","test","","","","7","",""
"null","376889","pSARL_v2","pSARL_v25461g5zh","56259489ed6e5a0005c80fde","fixation","img/fixation.png","null","","test","","","","","",""
"884.1999999880791","377778","pSARL_v2","pSARL_v25461g5zh","56259489ed6e5a0005c80fde","reward","img/slot.png","74","","test","","","","","",""
"null","378543","pSARL_v2","pSARL_v25461g5zh","56259489ed6e5a0005c80fde","points","<div class=""verylowPoints""> -6 </div>","null","na","test","","","","7","-6","6"
"352.30000001192093","378899","pSARL_v2","pSARL_v25461g5zh","56259489ed6e5a0005c80fde","freq","img/green_2bandit_b2.png","70","70","test","1","160","160","8","",""
"null","379366","pSARL_v2","pSARL_v25461g5zh","56259489ed6e5a0005c80fde","freq_resp","img/green_2bandit_b.png","70","70","test","","","","8","",""
"null","379519","pSARL_v2","pSARL_v25461g5zh","56259489ed6e5a0005c80fde","fixation","img/fixation.png","null","","test","","","","","",""
"300.30000001192093","379823","pSARL_v2","pSARL_v25461g5zh","56259489ed6e5a0005c80fde","freq","img/green_2bandit_b2.png","70","70","test","1","161","161","8","",""
"null","380341","pSARL_v2","pSARL_v25461g5zh","56259489ed6e5a0005c80fde","freq_resp","img/green_2bandit_b.png","70","70","test","","","","8","",""
"null","380509","pSARL_v2","pSARL_v25461g5zh","56259489ed6e5a0005c80fde","fixation","img/fixation.png","null","","test","","","","","",""
"510.80000001192093","381023","pSARL_v2","pSARL_v25461g5zh","56259489ed6e5a0005c80fde","infreq","img/orange_2bandit_b2.png","68","68","test","1","162","162","8","",""
"null","381329","pSARL_v2","pSARL_v25461g5zh","56259489ed6e5a0005c80fde","infreq_resp","img/orange_2bandit_b.png","68","68","test","","","","8","",""
"null","381485","pSARL_v2","pSARL_v25461g5zh","56259489ed6e5a0005c80fde","fixation","img/fixation.png","null","","test","","","","","",""
"296.9000000357628","381787","pSARL_v2","pSARL_v25461g5zh","56259489ed6e5a0005c80fde","freq","img/green_2bandit_b2.png","70","70","test","1","163","163","8","",""
"null","382302","pSARL_v2","pSARL_v25461g5zh","56259489ed6e5a0005c80fde","freq_resp","img/green_2bandit_b.png","70","70","test","","","","8","",""
"null","382457","pSARL_v2","pSARL_v25461g5zh","56259489ed6e5a0005c80fde","fixation","img/fixation.png","null","","test","","","","","",""
"62.299999952316284","382523","pSARL_v2","pSARL_v25461g5zh","56259489ed6e5a0005c80fde","freq","img/green_2bandit_b2.png","70","70","test","1","164","164","8","",""
"null","383275","pSARL_v2","pSARL_v25461g5zh","56259489ed6e5a0005c80fde","freq_resp","img/green_2bandit_b.png","70","70","test","","","","8","",""
"null","383448","pSARL_v2","pSARL_v25461g5zh","56259489ed6e5a0005c80fde","fixation","img/fixation.png","null","","test","","","","","",""
"281.4000000357628","383734","pSARL_v2","pSARL_v25461g5zh","56259489ed6e5a0005c80fde","freq","img/green_2bandit_b2.png","70","70","test","1","165","165","8","",""
"null","384268","pSARL_v2","pSARL_v25461g5zh","56259489ed6e5a0005c80fde","freq_resp","img/green_2bandit_b.png","70","70","test","","","","8","",""
"null","384436","pSARL_v2","pSARL_v25461g5zh","56259489ed6e5a0005c80fde","fixation","img/fixation.png","null","","test","","","","","",""
"307.89999997615814","384747","pSARL_v2","pSARL_v25461g5zh","56259489ed6e5a0005c80fde","freq","img/green_2bandit_b2.png","70","70","test","1","166","166","8","",""
"null","385256","pSARL_v2","pSARL_v25461g5zh","56259489ed6e5a0005c80fde","freq_resp","img/green_2bandit_b.png","70","70","test","","","","8","",""
"null","385426","pSARL_v2","pSARL_v25461g5zh","56259489ed6e5a0005c80fde","fixation","img/fixation.png","null","","test","","","","","",""
"504.60000002384186","385935","pSARL_v2","pSARL_v25461g5zh","56259489ed6e5a0005c80fde","infreq","img/orange_2bandit_b2.png","68","68","test","1","167","167","8","",""
"null","386249","pSARL_v2","pSARL_v25461g5zh","56259489ed6e5a0005c80fde","infreq_resp","img/orange_2bandit_b.png","68","68","test","","","","8","",""
"null","386419","pSARL_v2","pSARL_v25461g5zh","56259489ed6e5a0005c80fde","fixation","img/fixation.png","null","","test","","","","","",""
"389.4000000357628","386812","pSARL_v2","pSARL_v25461g5zh","56259489ed6e5a0005c80fde","infreq","img/orange_2bandit_b2.png","68","68","test","1","168","168","8","",""
"null","387244","pSARL_v2","pSARL_v25461g5zh","56259489ed6e5a0005c80fde","infreq_resp","img/orange_2bandit_b.png","68","68","test","","","","8","",""
"null","387410","pSARL_v2","pSARL_v25461g5zh","56259489ed6e5a0005c80fde","fixation","img/fixation.png","null","","test","","","","","",""
"401","387815","pSARL_v2","pSARL_v25461g5zh","56259489ed6e5a0005c80fde","freq","img/green_2bandit_b2.png","70","70","test","1","169","169","8","",""
"null","388230","pSARL_v2","pSARL_v25461g5zh","56259489ed6e5a0005c80fde","freq_resp","img/green_2bandit_b.png","70","70","test","","","","8","",""
"null","388398","pSARL_v2","pSARL_v25461g5zh","56259489ed6e5a0005c80fde","fixation","img/fixation.png","null","","test","","","","","",""
"297.39999997615814","388699","pSARL_v2","pSARL_v25461g5zh","56259489ed6e5a0005c80fde","freq","img/green_2bandit_b2.png","70","70","test","1","170","170","8","",""
"null","389217","pSARL_v2","pSARL_v25461g5zh","56259489ed6e5a0005c80fde","freq_resp","img/green_2bandit_b.png","70","70","test","","","","8","",""
"null","389375","pSARL_v2","pSARL_v25461g5zh","56259489ed6e5a0005c80fde","fixation","img/fixation.png","null","","test","","","","","",""
"305.5","389684","pSARL_v2","pSARL_v25461g5zh","56259489ed6e5a0005c80fde","freq","img/green_2bandit_b2.png","70","70","test","1","171","171","8","",""
"null","390197","pSARL_v2","pSARL_v25461g5zh","56259489ed6e5a0005c80fde","freq_resp","img/green_2bandit_b.png","70","70","test","","","","8","",""
"null","390365","pSARL_v2","pSARL_v25461g5zh","56259489ed6e5a0005c80fde","fixation","img/fixation.png","null","","test","","","","","",""
"317.10000002384186","390687","pSARL_v2","pSARL_v25461g5zh","56259489ed6e5a0005c80fde","freq","img/green_2bandit_b2.png","70","70","test","1","172","172","8","",""
"null","391175","pSARL_v2","pSARL_v25461g5zh","56259489ed6e5a0005c80fde","freq_resp","img/green_2bandit_b.png","70","70","test","","","","8","",""
"null","391332","pSARL_v2","pSARL_v25461g5zh","56259489ed6e5a0005c80fde","fixation","img/fixation.png","null","","test","","","","","",""
"314","391650","pSARL_v2","pSARL_v25461g5zh","56259489ed6e5a0005c80fde","freq","img/green_2bandit_b2.png","70","70","test","1","173","173","8","",""
"null","392156","pSARL_v2","pSARL_v25461g5zh","56259489ed6e5a0005c80fde","freq_resp","img/green_2bandit_b.png","70","70","test","","","","8","",""
"null","392325","pSARL_v2","pSARL_v25461g5zh","56259489ed6e5a0005c80fde","fixation","img/fixation.png","null","","test","","","","","",""
"319.60000002384186","392649","pSARL_v2","pSARL_v25461g5zh","56259489ed6e5a0005c80fde","freq","img/green_2bandit_b2.png","70","70","test","1","174","174","8","",""
"null","393146","pSARL_v2","pSARL_v25461g5zh","56259489ed6e5a0005c80fde","freq_resp","img/green_2bandit_b.png","70","70","test","","","","8","",""
"null","393314","pSARL_v2","pSARL_v25461g5zh","56259489ed6e5a0005c80fde","fixation","img/fixation.png","null","","test","","","","","",""
"296.9000000357628","393614","pSARL_v2","pSARL_v25461g5zh","56259489ed6e5a0005c80fde","freq","img/green_2bandit_b2.png","70","70","test","1","175","175","8","",""
"null","394134","pSARL_v2","pSARL_v25461g5zh","56259489ed6e5a0005c80fde","freq_resp","img/green_2bandit_b.png","70","70","test","","","","8","",""
"null","394289","pSARL_v2","pSARL_v25461g5zh","56259489ed6e5a0005c80fde","fixation","img/fixation.png","null","","test","","","","","",""
"298.9000000357628","394591","pSARL_v2","pSARL_v25461g5zh","56259489ed6e5a0005c80fde","freq","img/green_2bandit_b2.png","70","70","test","1","176","176","8","",""
"null","395108","pSARL_v2","pSARL_v25461g5zh","56259489ed6e5a0005c80fde","freq_resp","img/green_2bandit_b.png","70","70","test","","","","8","",""
"null","395263","pSARL_v2","pSARL_v25461g5zh","56259489ed6e5a0005c80fde","fixation","img/fixation.png","null","","test","","","","","",""
"310","395577","pSARL_v2","pSARL_v25461g5zh","56259489ed6e5a0005c80fde","freq","img/green_2bandit_b2.png","70","70","test","1","177","177","8","",""
"null","396082","pSARL_v2","pSARL_v25461g5zh","56259489ed6e5a0005c80fde","freq_resp","img/green_2bandit_b.png","70","70","test","","","","8","",""
"null","396251","pSARL_v2","pSARL_v25461g5zh","56259489ed6e5a0005c80fde","fixation","img/fixation.png","null","","test","","","","","",""
"310.39999997615814","396567","pSARL_v2","pSARL_v25461g5zh","56259489ed6e5a0005c80fde","freq","img/green_2bandit_b2.png","70","70","test","1","178","178","8","",""
"null","397074","pSARL_v2","pSARL_v25461g5zh","56259489ed6e5a0005c80fde","freq_resp","img/green_2bandit_b.png","70","70","test","","","","8","",""
"null","397244","pSARL_v2","pSARL_v25461g5zh","56259489ed6e5a0005c80fde","fixation","img/fixation.png","null","","test","","","","","",""
"311.19999998807907","397559","pSARL_v2","pSARL_v25461g5zh","56259489ed6e5a0005c80fde","freq","img/green_2bandit_b2.png","70","70","test","1","179","179","8","",""
"null","398065","pSARL_v2","pSARL_v25461g5zh","56259489ed6e5a0005c80fde","freq_resp","img/green_2bandit_b.png","70","70","test","","","","8","",""
"null","398234","pSARL_v2","pSARL_v25461g5zh","56259489ed6e5a0005c80fde","fixation","img/fixation.png","null","","test","","","","","",""
"307.7999999523163","398546","pSARL_v2","pSARL_v25461g5zh","56259489ed6e5a0005c80fde","freq","img/green_2bandit_b2.png","70","70","test","1","180","180","8","",""
"null","399051","pSARL_v2","pSARL_v25461g5zh","56259489ed6e5a0005c80fde","freq_resp","img/green_2bandit_b.png","70","70","test","","","","8","",""
"null","399209","pSARL_v2","pSARL_v25461g5zh","56259489ed6e5a0005c80fde","fixation","img/fixation.png","null","","test","","","","","",""
"284.9000000357628","399498","pSARL_v2","pSARL_v25461g5zh","56259489ed6e5a0005c80fde","freq","img/green_2bandit_b2.png","70","70","test","1","181","181","8","",""
"null","400029","pSARL_v2","pSARL_v25461g5zh","56259489ed6e5a0005c80fde","freq_resp","img/green_2bandit_b.png","70","70","test","","","","8","",""
"null","400186","pSARL_v2","pSARL_v25461g5zh","56259489ed6e5a0005c80fde","fixation","img/fixation.png","null","","test","","","","","",""
"297.19999998807907","400488","pSARL_v2","pSARL_v25461g5zh","56259489ed6e5a0005c80fde","freq","img/green_2bandit_b2.png","70","70","test","1","182","182","8","",""
"null","401007","pSARL_v2","pSARL_v25461g5zh","56259489ed6e5a0005c80fde","freq_resp","img/green_2bandit_b.png","70","70","test","","","","8","",""
"null","401176","pSARL_v2","pSARL_v25461g5zh","56259489ed6e5a0005c80fde","fixation","img/fixation.png","null","","test","","","","","",""
"902.6000000238419","402082","pSARL_v2","pSARL_v25461g5zh","56259489ed6e5a0005c80fde","reward","img/slot.png","74","","test","","","","","",""
"null","402849","pSARL_v2","pSARL_v25461g5zh","56259489ed6e5a0005c80fde","points","<div class=""verylowPoints""> -4 </div>","null","na","test","","","","8","-4","7"
"367.5999999642372","403220","pSARL_v2","pSARL_v25461g5zh","56259489ed6e5a0005c80fde","freq","img/green_2bandit_b2.png","70","70","test","1","183","183","9","",""
"null","403658","pSARL_v2","pSARL_v25461g5zh","56259489ed6e5a0005c80fde","freq_resp","img/green_2bandit_b.png","70","70","test","","","","9","",""
"null","403813","pSARL_v2","pSARL_v25461g5zh","56259489ed6e5a0005c80fde","fixation","img/fixation.png","null","","test","","","","","",""
"321.80000001192093","404139","pSARL_v2","pSARL_v25461g5zh","56259489ed6e5a0005c80fde","freq","img/green_2bandit_b2.png","70","70","test","1","184","184","9","",""
"null","404620","pSARL_v2","pSARL_v25461g5zh","56259489ed6e5a0005c80fde","freq_resp","img/green_2bandit_b.png","70","70","test","","","","9","",""
"null","404777","pSARL_v2","pSARL_v25461g5zh","56259489ed6e5a0005c80fde","fixation","img/fixation.png","null","","test","","","","","",""
"323.69999998807907","405105","pSARL_v2","pSARL_v25461g5zh","56259489ed6e5a0005c80fde","freq","img/green_2bandit_b2.png","70","70","test","1","185","185","9","",""
"null","405597","pSARL_v2","pSARL_v25461g5zh","56259489ed6e5a0005c80fde","freq_resp","img/green_2bandit_b.png","70","70","test","","","","9","",""
"null","405766","pSARL_v2","pSARL_v25461g5zh","56259489ed6e5a0005c80fde","fixation","img/fixation.png","null","","test","","","","","",""
"338.0999999642372","406107","pSARL_v2","pSARL_v25461g5zh","56259489ed6e5a0005c80fde","freq","img/green_2bandit_b2.png","70","70","test","1","186","186","9","",""
"null","406583","pSARL_v2","pSARL_v25461g5zh","56259489ed6e5a0005c80fde","freq_resp","img/green_2bandit_b.png","70","70","test","","","","9","",""
"null","406738","pSARL_v2","pSARL_v25461g5zh","56259489ed6e5a0005c80fde","fixation","img/fixation.png","null","","test","","","","","",""
"315.80000001192093","407058","pSARL_v2","pSARL_v25461g5zh","56259489ed6e5a0005c80fde","freq","img/green_2bandit_b2.png","70","70","test","1","187","187","9","",""
"null","407553","pSARL_v2","pSARL_v25461g5zh","56259489ed6e5a0005c80fde","freq_resp","img/green_2bandit_b.png","70","70","test","","","","9","",""
"null","407709","pSARL_v2","pSARL_v25461g5zh","56259489ed6e5a0005c80fde","fixation","img/fixation.png","null","","test","","","","","",""
"572.6999999880791","408286","pSARL_v2","pSARL_v25461g5zh","56259489ed6e5a0005c80fde","infreq","img/orange_2bandit_b2.png","68","68","test","1","188","188","9","",""
"null","408528","pSARL_v2","pSARL_v25461g5zh","56259489ed6e5a0005c80fde","infreq_resp","img/orange_2bandit_b.png","68","68","test","","","","9","",""
"null","408684","pSARL_v2","pSARL_v25461g5zh","56259489ed6e5a0005c80fde","fixation","img/fixation.png","null","","test","","","","","",""
"410.69999998807907","409099","pSARL_v2","pSARL_v25461g5zh","56259489ed6e5a0005c80fde","freq","img/green_2bandit_b2.png","70","70","test","1","189","189","9","",""
"null","409499","pSARL_v2","pSARL_v25461g5zh","56259489ed6e5a0005c80fde","freq_resp","img/green_2bandit_b.png","70","70","test","","","","9","",""
"null","409656","pSARL_v2","pSARL_v25461g5zh","56259489ed6e5a0005c80fde","fixation","img/fixation.png","null","","test","","","","","",""
"352.10000002384186","410012","pSARL_v2","pSARL_v25461g5zh","56259489ed6e5a0005c80fde","freq","img/green_2bandit_b2.png","70","70","test","1","190","190","9","",""
"null","410477","pSARL_v2","pSARL_v25461g5zh","56259489ed6e5a0005c80fde","freq_resp","img/green_2bandit_b.png","70","70","test","","","","9","",""
"null","410647","pSARL_v2","pSARL_v25461g5zh","56259489ed6e5a0005c80fde","fixation","img/fixation.png","null","","test","","","","","",""
"300.80000001192093","410951","pSARL_v2","pSARL_v25461g5zh","56259489ed6e5a0005c80fde","freq","img/green_2bandit_b2.png","70","70","test","1","191","191","9","",""
"null","411470","pSARL_v2","pSARL_v25461g5zh","56259489ed6e5a0005c80fde","freq_resp","img/green_2bandit_b.png","70","70","test","","","","9","",""
"null","411625","pSARL_v2","pSARL_v25461g5zh","56259489ed6e5a0005c80fde","fixation","img/fixation.png","null","","test","","","","","",""
"293.30000001192093","411922","pSARL_v2","pSARL_v25461g5zh","56259489ed6e5a0005c80fde","freq","img/green_2bandit_b2.png","70","70","test","1","192","192","9","",""
"null","412444","pSARL_v2","pSARL_v25461g5zh","56259489ed6e5a0005c80fde","freq_resp","img/green_2bandit_b.png","70","70","test","","","","9","",""
"null","412614","pSARL_v2","pSARL_v25461g5zh","56259489ed6e5a0005c80fde","fixation","img/fixation.png","null","","test","","","","","",""
"278.0999999642372","412896","pSARL_v2","pSARL_v25461g5zh","56259489ed6e5a0005c80fde","freq","img/green_2bandit_b2.png","70","70","test","1","193","193","9","",""
"null","413434","pSARL_v2","pSARL_v25461g5zh","56259489ed6e5a0005c80fde","freq_resp","img/green_2bandit_b.png","70","70","test","","","","9","",""
"null","413589","pSARL_v2","pSARL_v25461g5zh","56259489ed6e5a0005c80fde","fixation","img/fixation.png","null","","test","","","","","",""
"291.39999997615814","413884","pSARL_v2","pSARL_v25461g5zh","56259489ed6e5a0005c80fde","freq","img/green_2bandit_b2.png","70","70","test","1","194","194","9","",""
"null","414414","pSARL_v2","pSARL_v25461g5zh","56259489ed6e5a0005c80fde","freq_resp","img/green_2bandit_b.png","70","70","test","","","","9","",""
"null","414580","pSARL_v2","pSARL_v25461g5zh","56259489ed6e5a0005c80fde","fixation","img/fixation.png","null","","test","","","","","",""
"277.4000000357628","414862","pSARL_v2","pSARL_v25461g5zh","56259489ed6e5a0005c80fde","freq","img/green_2bandit_b2.png","70","70","test","1","195","195","9","",""
"null","415401","pSARL_v2","pSARL_v25461g5zh","56259489ed6e5a0005c80fde","freq_resp","img/green_2bandit_b.png","70","70","test","","","","9","",""
"null","415571","pSARL_v2","pSARL_v25461g5zh","56259489ed6e5a0005c80fde","fixation","img/fixation.png","null","","test","","","","","",""
"319.80000001192093","415895","pSARL_v2","pSARL_v25461g5zh","56259489ed6e5a0005c80fde","freq","img/green_2bandit_b2.png","70","70","test","1","196","196","9","",""
"null","416391","pSARL_v2","pSARL_v25461g5zh","56259489ed6e5a0005c80fde","freq_resp","img/green_2bandit_b.png","70","70","test","","","","9","",""
"null","416552","pSARL_v2","pSARL_v25461g5zh","56259489ed6e5a0005c80fde","fixation","img/fixation.png","null","","test","","","","","",""
"306.19999998807907","416863","pSARL_v2","pSARL_v25461g5zh","56259489ed6e5a0005c80fde","freq","img/green_2bandit_b2.png","70","70","test","1","197","197","9","",""
"null","417366","pSARL_v2","pSARL_v25461g5zh","56259489ed6e5a0005c80fde","freq_resp","img/green_2bandit_b.png","70","70","test","","","","9","",""
"null","417533","pSARL_v2","pSARL_v25461g5zh","56259489ed6e5a0005c80fde","fixation","img/fixation.png","null","","test","","","","","",""
"279.5999999642372","417816","pSARL_v2","pSARL_v25461g5zh","56259489ed6e5a0005c80fde","freq","img/green_2bandit_b2.png","70","70","test","1","198","198","9","",""
"null","418351","pSARL_v2","pSARL_v25461g5zh","56259489ed6e5a0005c80fde","freq_resp","img/green_2bandit_b.png","70","70","test","","","","9","",""
"null","418511","pSARL_v2","pSARL_v25461g5zh","56259489ed6e5a0005c80fde","fixation","img/fixation.png","null","","test","","","","","",""
"538","419053","pSARL_v2","pSARL_v25461g5zh","56259489ed6e5a0005c80fde","infreq","img/orange_2bandit_b2.png","68","68","test","1","199","199","9","",""
"null","419328","pSARL_v2","pSARL_v25461g5zh","56259489ed6e5a0005c80fde","infreq_resp","img/orange_2bandit_b.png","68","68","test","","","","9","",""
"null","419486","pSARL_v2","pSARL_v25461g5zh","56259489ed6e5a0005c80fde","fixation","img/fixation.png","null","","test","","","","","",""
"412.69999998807907","419902","pSARL_v2","pSARL_v25461g5zh","56259489ed6e5a0005c80fde","freq","img/green_2bandit_b2.png","70","70","test","1","200","200","9","",""
"null","420307","pSARL_v2","pSARL_v25461g5zh","56259489ed6e5a0005c80fde","freq_resp","img/green_2bandit_b.png","70","70","test","","","","9","",""
"null","420464","pSARL_v2","pSARL_v25461g5zh","56259489ed6e5a0005c80fde","fixation","img/fixation.png","null","","test","","","","","",""
"309.5","420778","pSARL_v2","pSARL_v25461g5zh","56259489ed6e5a0005c80fde","freq","img/green_2bandit_b2.png","70","70","test","1","201","201","9","",""
"null","421281","pSARL_v2","pSARL_v25461g5zh","56259489ed6e5a0005c80fde","freq_resp","img/green_2bandit_b.png","70","70","test","","","","9","",""
"null","421454","pSARL_v2","pSARL_v25461g5zh","56259489ed6e5a0005c80fde","fixation","img/fixation.png","null","","test","","","","","",""
"306.2999999523163","421764","pSARL_v2","pSARL_v25461g5zh","56259489ed6e5a0005c80fde","freq","img/green_2bandit_b2.png","70","70","test","1","202","202","9","",""
"null","422274","pSARL_v2","pSARL_v25461g5zh","56259489ed6e5a0005c80fde","freq_resp","img/green_2bandit_b.png","70","70","test","","","","9","",""
"null","422444","pSARL_v2","pSARL_v25461g5zh","56259489ed6e5a0005c80fde","fixation","img/fixation.png","null","","test","","","","","",""
"914.8000000119209","423364","pSARL_v2","pSARL_v25461g5zh","56259489ed6e5a0005c80fde","reward","img/slot.png","74","","test","","","","","",""
"null","424130","pSARL_v2","pSARL_v25461g5zh","56259489ed6e5a0005c80fde","points","<div class=""verylowPoints""> -3 </div>","null","na","test","","","","9","-3","8"
"353.7000000476837","424488","pSARL_v2","pSARL_v25461g5zh","56259489ed6e5a0005c80fde","freq","img/green_2bandit_b2.png","70","70","test","1","203","203","10","",""
"null","424944","pSARL_v2","pSARL_v25461g5zh","56259489ed6e5a0005c80fde","freq_resp","img/green_2bandit_b.png","70","70","test","","","","10","",""
"null","425101","pSARL_v2","pSARL_v25461g5zh","56259489ed6e5a0005c80fde","fixation","img/fixation.png","null","","test","","","","","",""
"296.4000000357628","425404","pSARL_v2","pSARL_v25461g5zh","56259489ed6e5a0005c80fde","freq","img/green_2bandit_b2.png","70","70","test","1","204","204","10","",""
"null","425913","pSARL_v2","pSARL_v25461g5zh","56259489ed6e5a0005c80fde","freq_resp","img/green_2bandit_b.png","70","70","test","","","","10","",""
"null","426081","pSARL_v2","pSARL_v25461g5zh","56259489ed6e5a0005c80fde","fixation","img/fixation.png","null","","test","","","","","",""
"322.30000001192093","426407","pSARL_v2","pSARL_v25461g5zh","56259489ed6e5a0005c80fde","freq","img/green_2bandit_b2.png","70","70","test","1","205","205","10","",""
"null","426900","pSARL_v2","pSARL_v25461g5zh","56259489ed6e5a0005c80fde","freq_resp","img/green_2bandit_b.png","70","70","test","","","","10","",""
