"rt","time_elapsed","expId","subject","prolificID","trialType","stimulus","key_press","corrresp","phase","corr","trialNum","attentionRunNum","blockNum","points","rlNum"
"5985.899999991059","5995","pSARL_v2","pSARL_v22c3r60w7","60a7d7b70d3cf8f48a8a490d","","","","","","","","","","",""
"","8824","pSARL_v2","pSARL_v22c3r60w7","60a7d7b70d3cf8f48a8a490d","fullscreen","","","","","","","","","",""
"77705.59999999404","86537","pSARL_v2","pSARL_v22c3r60w7","60a7d7b70d3cf8f48a8a490d","","","","","","","","","","",""
"null","87346","pSARL_v2","pSARL_v22c3r60w7","60a7d7b70d3cf8f48a8a490d","freqPrac","img/green_2bandit_b2.png","null","70","prac","0","","","","",""
"null","88353","pSARL_v2","pSARL_v22c3r60w7","60a7d7b70d3cf8f48a8a490d","feedback","img/tooSlow.png","null","na","prac","","","","","",""
"null","88510","pSARL_v2","pSARL_v22c3r60w7","60a7d7b70d3cf8f48a8a490d","fixation","img/fixation.png","null","","prac","","","","","",""
"null","89318","pSARL_v2","pSARL_v22c3r60w7","60a7d7b70d3cf8f48a8a490d","infreqPrac","img/orange_2bandit_b2.png","null","68","prac","0","","","","",""
"null","90321","pSARL_v2","pSARL_v22c3r60w7","60a7d7b70d3cf8f48a8a490d","feedback","img/tooSlow.png","null","na","prac","","","","","",""
"null","90478","pSARL_v2","pSARL_v22c3r60w7","60a7d7b70d3cf8f48a8a490d","fixation","img/fixation.png","null","","prac","","","","","",""
"451.29999999701977","90936","pSARL_v2","pSARL_v22c3r60w7","60a7d7b70d3cf8f48a8a490d","freqPrac","img/green_2bandit_b2.png","68","70","prac","0","","","","",""
"451.29999999701977","91291","pSARL_v2","pSARL_v22c3r60w7","60a7d7b70d3cf8f48a8a490d","freqPrac_resp","img/green_2bandit_b.png","68","70","prac","","","","","",""
"null","92298","pSARL_v2","pSARL_v22c3r60w7","60a7d7b70d3cf8f48a8a490d","feedback","img/wrongKey.png","null","na","prac","","","","","",""
"null","92455","pSARL_v2","pSARL_v22c3r60w7","60a7d7b70d3cf8f48a8a490d","fixation","img/fixation.png","null","","prac","","","","","",""
"423.8999999910593","92886","pSARL_v2","pSARL_v22c3r60w7","60a7d7b70d3cf8f48a8a490d","infreqPrac","img/orange_2bandit_b2.png","68","68","prac","1","","","","",""
"423.8999999910593","93268","pSARL_v2","pSARL_v22c3r60w7","60a7d7b70d3cf8f48a8a490d","infreqPrac_resp","img/orange_2bandit_b.png","68","68","prac","","","","","",""
"null","93426","pSARL_v2","pSARL_v22c3r60w7","60a7d7b70d3cf8f48a8a490d","fixation","img/fixation.png","null","","prac","","","","","",""
"574.5","94007","pSARL_v2","pSARL_v22c3r60w7","60a7d7b70d3cf8f48a8a490d","infreqPrac","img/orange_2bandit_b2.png","68","68","prac","1","","","","",""
"574.5","94238","pSARL_v2","pSARL_v22c3r60w7","60a7d7b70d3cf8f48a8a490d","infreqPrac_resp","img/orange_2bandit_b.png","68","68","prac","","","","","",""
"null","94396","pSARL_v2","pSARL_v22c3r60w7","60a7d7b70d3cf8f48a8a490d","fixation","img/fixation.png","null","","prac","","","","","",""
"358","94761","pSARL_v2","pSARL_v22c3r60w7","60a7d7b70d3cf8f48a8a490d","infreqPrac","img/orange_2bandit_b2.png","68","68","prac","1","","","","",""
"358","95210","pSARL_v2","pSARL_v22c3r60w7","60a7d7b70d3cf8f48a8a490d","infreqPrac_resp","img/orange_2bandit_b.png","68","68","prac","","","","","",""
"null","95366","pSARL_v2","pSARL_v22c3r60w7","60a7d7b70d3cf8f48a8a490d","fixation","img/fixation.png","null","","prac","","","","","",""
"500.6000000089407","95873","pSARL_v2","pSARL_v22c3r60w7","60a7d7b70d3cf8f48a8a490d","freqPrac","img/green_2bandit_b2.png","70","70","prac","1","","","","",""
"500.6000000089407","96178","pSARL_v2","pSARL_v22c3r60w7","60a7d7b70d3cf8f48a8a490d","freqPrac_resp","img/green_2bandit_b.png","70","70","prac","","","","","",""
"null","96336","pSARL_v2","pSARL_v22c3r60w7","60a7d7b70d3cf8f48a8a490d","fixation","img/fixation.png","null","","prac","","","","","",""
"641.9000000059605","96982","pSARL_v2","pSARL_v22c3r60w7","60a7d7b70d3cf8f48a8a490d","infreqPrac","img/orange_2bandit_b2.png","68","68","prac","1","","","","",""
"641.9000000059605","97146","pSARL_v2","pSARL_v22c3r60w7","60a7d7b70d3cf8f48a8a490d","infreqPrac_resp","img/orange_2bandit_b.png","68","68","prac","","","","","",""
"null","97303","pSARL_v2","pSARL_v22c3r60w7","60a7d7b70d3cf8f48a8a490d","fixation","img/fixation.png","null","","prac","","","","","",""
"609.4000000059605","97919","pSARL_v2","pSARL_v22c3r60w7","60a7d7b70d3cf8f48a8a490d","freqPrac","img/green_2bandit_b2.png","70","70","prac","1","","","","",""
"609.4000000059605","98115","pSARL_v2","pSARL_v22c3r60w7","60a7d7b70d3cf8f48a8a490d","freqPrac_resp","img/green_2bandit_b.png","70","70","prac","","","","","",""
"null","98272","pSARL_v2","pSARL_v22c3r60w7","60a7d7b70d3cf8f48a8a490d","fixation","img/fixation.png","null","","prac","","","","","",""
"441.20000000298023","98720","pSARL_v2","pSARL_v22c3r60w7","60a7d7b70d3cf8f48a8a490d","freqPrac","img/green_2bandit_b2.png","70","70","prac","1","","","","",""
"441.20000000298023","99086","pSARL_v2","pSARL_v22c3r60w7","60a7d7b70d3cf8f48a8a490d","freqPrac_resp","img/green_2bandit_b.png","70","70","prac","","","","","",""
"null","99243","pSARL_v2","pSARL_v22c3r60w7","60a7d7b70d3cf8f48a8a490d","fixation","img/fixation.png","null","","prac","","","","","",""
"21880.20000000298","121131","pSARL_v2","pSARL_v22c3r60w7","60a7d7b70d3cf8f48a8a490d","","","","","prac","","","","","",""
"1245.2999999970198","122384","pSARL_v2","pSARL_v22c3r60w7","60a7d7b70d3cf8f48a8a490d","rewardPractice","img/slot.png","74","","prac","","","","","",""
"null","123140","pSARL_v2","pSARL_v22c3r60w7","60a7d7b70d3cf8f48a8a490d","feedback","<div class=""veryhighPoints""> +15 </div>","null","na","prac","","","","","",""
"null","123299","pSARL_v2","pSARL_v22c3r60w7","60a7d7b70d3cf8f48a8a490d","fixation","img/fixation.png","null","","prac","","","","","",""
"6667.699999988079","129971","pSARL_v2","pSARL_v22c3r60w7","60a7d7b70d3cf8f48a8a490d","","","","","prac","","","","","",""
"null","130778","pSARL_v2","pSARL_v22c3r60w7","60a7d7b70d3cf8f48a8a490d","freq","img/green_2bandit_b2.png","null","70","test","0","1","1","1","",""
"null","130935","pSARL_v2","pSARL_v22c3r60w7","60a7d7b70d3cf8f48a8a490d","fixation","img/fixation.png","null","","test","","","","","",""
"120.79999999701977","131064","pSARL_v2","pSARL_v22c3r60w7","60a7d7b70d3cf8f48a8a490d","freq","img/green_2bandit_b2.png","70","70","test","1","2","2","1","",""
"null","131752","pSARL_v2","pSARL_v22c3r60w7","60a7d7b70d3cf8f48a8a490d","freq_resp","img/green_2bandit_b.png","70","70","test","","","","1","",""
"null","131910","pSARL_v2","pSARL_v22c3r60w7","60a7d7b70d3cf8f48a8a490d","fixation","img/fixation.png","null","","test","","","","","",""
"587.3999999910593","132505","pSARL_v2","pSARL_v22c3r60w7","60a7d7b70d3cf8f48a8a490d","infreq","img/orange_2bandit_b2.png","68","68","test","1","3","3","1","",""
"null","132725","pSARL_v2","pSARL_v22c3r60w7","60a7d7b70d3cf8f48a8a490d","infreq_resp","img/orange_2bandit_b.png","68","68","test","","","","1","",""
"null","132880","pSARL_v2","pSARL_v22c3r60w7","60a7d7b70d3cf8f48a8a490d","fixation","img/fixation.png","null","","test","","","","","",""
"485.09999999403954","133374","pSARL_v2","pSARL_v22c3r60w7","60a7d7b70d3cf8f48a8a490d","freq","img/green_2bandit_b2.png","70","70","test","1","4","4","1","",""
"null","133696","pSARL_v2","pSARL_v22c3r60w7","60a7d7b70d3cf8f48a8a490d","freq_resp","img/green_2bandit_b.png","70","70","test","","","","1","",""
"null","133854","pSARL_v2","pSARL_v22c3r60w7","60a7d7b70d3cf8f48a8a490d","fixation","img/fixation.png","null","","test","","","","","",""
"412.90000000596046","134278","pSARL_v2","pSARL_v22c3r60w7","60a7d7b70d3cf8f48a8a490d","freq","img/green_2bandit_b2.png","70","70","test","1","5","5","1","",""
"null","134673","pSARL_v2","pSARL_v22c3r60w7","60a7d7b70d3cf8f48a8a490d","freq_resp","img/green_2bandit_b.png","70","70","test","","","","1","",""
"null","134827","pSARL_v2","pSARL_v22c3r60w7","60a7d7b70d3cf8f48a8a490d","fixation","img/fixation.png","null","","test","","","","","",""
"470","135304","pSARL_v2","pSARL_v22c3r60w7","60a7d7b70d3cf8f48a8a490d","freq","img/green_2bandit_b2.png","70","70","test","1","6","6","1","",""
"null","135642","pSARL_v2","pSARL_v22c3r60w7","60a7d7b70d3cf8f48a8a490d","freq_resp","img/green_2bandit_b.png","70","70","test","","","","1","",""
"null","135796","pSARL_v2","pSARL_v22c3r60w7","60a7d7b70d3cf8f48a8a490d","fixation","img/fixation.png","null","","test","","","","","",""
"385.79999999701977","136188","pSARL_v2","pSARL_v22c3r60w7","60a7d7b70d3cf8f48a8a490d","freq","img/green_2bandit_b2.png","70","70","test","1","7","7","1","",""
"null","136609","pSARL_v2","pSARL_v22c3r60w7","60a7d7b70d3cf8f48a8a490d","freq_resp","img/green_2bandit_b.png","70","70","test","","","","1","",""
"null","136766","pSARL_v2","pSARL_v22c3r60w7","60a7d7b70d3cf8f48a8a490d","fixation","img/fixation.png","null","","test","","","","","",""
"394.79999999701977","137167","pSARL_v2","pSARL_v22c3r60w7","60a7d7b70d3cf8f48a8a490d","freq","img/green_2bandit_b2.png","70","70","test","1","8","8","1","",""
"null","137580","pSARL_v2","pSARL_v22c3r60w7","60a7d7b70d3cf8f48a8a490d","freq_resp","img/green_2bandit_b.png","70","70","test","","","","1","",""
"null","137737","pSARL_v2","pSARL_v22c3r60w7","60a7d7b70d3cf8f48a8a490d","fixation","img/fixation.png","null","","test","","","","","",""
"317.40000000596046","138062","pSARL_v2","pSARL_v22c3r60w7","60a7d7b70d3cf8f48a8a490d","freq","img/green_2bandit_b2.png","70","70","test","1","9","9","1","",""
"null","138551","pSARL_v2","pSARL_v22c3r60w7","60a7d7b70d3cf8f48a8a490d","freq_resp","img/green_2bandit_b.png","70","70","test","","","","1","",""
"null","138707","pSARL_v2","pSARL_v22c3r60w7","60a7d7b70d3cf8f48a8a490d","fixation","img/fixation.png","null","","test","","","","","",""
"308.30000001192093","139022","pSARL_v2","pSARL_v22c3r60w7","60a7d7b70d3cf8f48a8a490d","freq","img/green_2bandit_b2.png","70","70","test","1","10","10","1","",""
"null","139521","pSARL_v2","pSARL_v22c3r60w7","60a7d7b70d3cf8f48a8a490d","freq_resp","img/green_2bandit_b.png","70","70","test","","","","1","",""
"null","139678","pSARL_v2","pSARL_v22c3r60w7","60a7d7b70d3cf8f48a8a490d","fixation","img/fixation.png","null","","test","","","","","",""
"326","140012","pSARL_v2","pSARL_v22c3r60w7","60a7d7b70d3cf8f48a8a490d","freq","img/green_2bandit_b2.png","70","70","test","1","11","11","1","",""
"null","140492","pSARL_v2","pSARL_v22c3r60w7","60a7d7b70d3cf8f48a8a490d","freq_resp","img/green_2bandit_b.png","70","70","test","","","","1","",""
"null","140649","pSARL_v2","pSARL_v22c3r60w7","60a7d7b70d3cf8f48a8a490d","fixation","img/fixation.png","null","","test","","","","","",""
"353.59999999403954","141010","pSARL_v2","pSARL_v22c3r60w7","60a7d7b70d3cf8f48a8a490d","freq","img/green_2bandit_b2.png","70","70","test","1","12","12","1","",""
"null","141460","pSARL_v2","pSARL_v22c3r60w7","60a7d7b70d3cf8f48a8a490d","freq_resp","img/green_2bandit_b.png","70","70","test","","","","1","",""
"null","141616","pSARL_v2","pSARL_v22c3r60w7","60a7d7b70d3cf8f48a8a490d","fixation","img/fixation.png","null","","test","","","","","",""
"414.29999999701977","142037","pSARL_v2","pSARL_v22c3r60w7","60a7d7b70d3cf8f48a8a490d","infreq","img/orange_2bandit_b2.png","68","68","test","1","13","13","1","",""
"null","142429","pSARL_v2","pSARL_v22c3r60w7","60a7d7b70d3cf8f48a8a490d","infreq_resp","img/orange_2bandit_b.png","68","68","test","","","","1","",""
"null","142586","pSARL_v2","pSARL_v22c3r60w7","60a7d7b70d3cf8f48a8a490d","fixation","img/fixation.png","null","","test","","","","","",""
"431.8999999910593","143021","pSARL_v2","pSARL_v22c3r60w7","60a7d7b70d3cf8f48a8a490d","freq","img/green_2bandit_b2.png","70","70","test","1","14","14","1","",""
"null","143398","pSARL_v2","pSARL_v22c3r60w7","60a7d7b70d3cf8f48a8a490d","freq_resp","img/green_2bandit_b.png","70","70","test","","","","1","",""
"null","143556","pSARL_v2","pSARL_v22c3r60w7","60a7d7b70d3cf8f48a8a490d","fixation","img/fixation.png","null","","test","","","","","",""
"367","143930","pSARL_v2","pSARL_v22c3r60w7","60a7d7b70d3cf8f48a8a490d","freq","img/green_2bandit_b2.png","70","70","test","1","15","15","1","",""
"null","144370","pSARL_v2","pSARL_v22c3r60w7","60a7d7b70d3cf8f48a8a490d","freq_resp","img/green_2bandit_b.png","70","70","test","","","","1","",""
"null","144525","pSARL_v2","pSARL_v22c3r60w7","60a7d7b70d3cf8f48a8a490d","fixation","img/fixation.png","null","","test","","","","","",""
"331.3999999910593","144864","pSARL_v2","pSARL_v22c3r60w7","60a7d7b70d3cf8f48a8a490d","freq","img/green_2bandit_b2.png","70","70","test","1","16","16","1","",""
"null","145340","pSARL_v2","pSARL_v22c3r60w7","60a7d7b70d3cf8f48a8a490d","freq_resp","img/green_2bandit_b.png","70","70","test","","","","1","",""
"null","145496","pSARL_v2","pSARL_v22c3r60w7","60a7d7b70d3cf8f48a8a490d","fixation","img/fixation.png","null","","test","","","","","",""
"339.79999999701977","145844","pSARL_v2","pSARL_v22c3r60w7","60a7d7b70d3cf8f48a8a490d","freq","img/green_2bandit_b2.png","70","70","test","1","17","17","1","",""
"null","146313","pSARL_v2","pSARL_v22c3r60w7","60a7d7b70d3cf8f48a8a490d","freq_resp","img/green_2bandit_b.png","70","70","test","","","","1","",""
"null","146470","pSARL_v2","pSARL_v22c3r60w7","60a7d7b70d3cf8f48a8a490d","fixation","img/fixation.png","null","","test","","","","","",""
"298.29999999701977","146777","pSARL_v2","pSARL_v22c3r60w7","60a7d7b70d3cf8f48a8a490d","freq","img/green_2bandit_b2.png","70","70","test","1","18","18","1","",""
"null","147286","pSARL_v2","pSARL_v22c3r60w7","60a7d7b70d3cf8f48a8a490d","freq_resp","img/green_2bandit_b.png","70","70","test","","","","1","",""
"null","147442","pSARL_v2","pSARL_v22c3r60w7","60a7d7b70d3cf8f48a8a490d","fixation","img/fixation.png","null","","test","","","","","",""
"389.5","147835","pSARL_v2","pSARL_v22c3r60w7","60a7d7b70d3cf8f48a8a490d","freq","img/green_2bandit_b2.png","70","70","test","1","19","19","1","",""
"null","148252","pSARL_v2","pSARL_v22c3r60w7","60a7d7b70d3cf8f48a8a490d","freq_resp","img/green_2bandit_b.png","70","70","test","","","","1","",""
"null","148405","pSARL_v2","pSARL_v22c3r60w7","60a7d7b70d3cf8f48a8a490d","fixation","img/fixation.png","null","","test","","","","","",""
"1615.2999999970198","150026","pSARL_v2","pSARL_v22c3r60w7","60a7d7b70d3cf8f48a8a490d","reward","img/slot.png","74","","test","","","","","",""
"null","150782","pSARL_v2","pSARL_v22c3r60w7","60a7d7b70d3cf8f48a8a490d","points","<div class=""verylowPoints""> -6 </div>","null","na","test","","","","1","-6","0"
"null","151587","pSARL_v2","pSARL_v22c3r60w7","60a7d7b70d3cf8f48a8a490d","freq","img/green_2bandit_b2.png","null","70","test","0","20","20","2","",""
"null","151740","pSARL_v2","pSARL_v22c3r60w7","60a7d7b70d3cf8f48a8a490d","fixation","img/fixation.png","null","","test","","","","","",""
"437.3999999910593","152185","pSARL_v2","pSARL_v22c3r60w7","60a7d7b70d3cf8f48a8a490d","freq","img/green_2bandit_b2.png","70","70","test","1","21","21","2","",""
"null","152554","pSARL_v2","pSARL_v22c3r60w7","60a7d7b70d3cf8f48a8a490d","freq_resp","img/green_2bandit_b.png","70","70","test","","","","2","",""
"null","152713","pSARL_v2","pSARL_v22c3r60w7","60a7d7b70d3cf8f48a8a490d","fixation","img/fixation.png","null","","test","","","","","",""
"189.29999999701977","152911","pSARL_v2","pSARL_v22c3r60w7","60a7d7b70d3cf8f48a8a490d","freq","img/green_2bandit_b2.png","70","70","test","1","22","22","2","",""
"null","153528","pSARL_v2","pSARL_v22c3r60w7","60a7d7b70d3cf8f48a8a490d","freq_resp","img/green_2bandit_b.png","70","70","test","","","","2","",""
"null","153686","pSARL_v2","pSARL_v22c3r60w7","60a7d7b70d3cf8f48a8a490d","fixation","img/fixation.png","null","","test","","","","","",""
"111.69999998807907","153806","pSARL_v2","pSARL_v22c3r60w7","60a7d7b70d3cf8f48a8a490d","freq","img/green_2bandit_b2.png","70","70","test","1","23","23","2","",""
"null","154501","pSARL_v2","pSARL_v22c3r60w7","60a7d7b70d3cf8f48a8a490d","freq_resp","img/green_2bandit_b.png","70","70","test","","","","2","",""
"null","154658","pSARL_v2","pSARL_v22c3r60w7","60a7d7b70d3cf8f48a8a490d","fixation","img/fixation.png","null","","test","","","","","",""
"130.70000000298023","154798","pSARL_v2","pSARL_v22c3r60w7","60a7d7b70d3cf8f48a8a490d","freq","img/green_2bandit_b2.png","70","70","test","1","24","24","2","",""
"null","155475","pSARL_v2","pSARL_v22c3r60w7","60a7d7b70d3cf8f48a8a490d","freq_resp","img/green_2bandit_b.png","70","70","test","","","","2","",""
"null","155634","pSARL_v2","pSARL_v22c3r60w7","60a7d7b70d3cf8f48a8a490d","fixation","img/fixation.png","null","","test","","","","","",""
"189.70000000298023","155831","pSARL_v2","pSARL_v22c3r60w7","60a7d7b70d3cf8f48a8a490d","freq","img/green_2bandit_b2.png","70","70","test","1","25","25","2","",""
"null","156450","pSARL_v2","pSARL_v22c3r60w7","60a7d7b70d3cf8f48a8a490d","freq_resp","img/green_2bandit_b.png","70","70","test","","","","2","",""
"null","156607","pSARL_v2","pSARL_v22c3r60w7","60a7d7b70d3cf8f48a8a490d","fixation","img/fixation.png","null","","test","","","","","",""
"272.19999998807907","156887","pSARL_v2","pSARL_v22c3r60w7","60a7d7b70d3cf8f48a8a490d","freq","img/green_2bandit_b2.png","70","70","test","1","26","26","2","",""
"null","157420","pSARL_v2","pSARL_v22c3r60w7","60a7d7b70d3cf8f48a8a490d","freq_resp","img/green_2bandit_b.png","70","70","test","","","","2","",""
"null","157577","pSARL_v2","pSARL_v22c3r60w7","60a7d7b70d3cf8f48a8a490d","fixation","img/fixation.png","null","","test","","","","","",""
"339","157923","pSARL_v2","pSARL_v22c3r60w7","60a7d7b70d3cf8f48a8a490d","freq","img/green_2bandit_b2.png","70","70","test","1","27","27","2","",""
"null","158390","pSARL_v2","pSARL_v22c3r60w7","60a7d7b70d3cf8f48a8a490d","freq_resp","img/green_2bandit_b.png","70","70","test","","","","2","",""
"null","158547","pSARL_v2","pSARL_v22c3r60w7","60a7d7b70d3cf8f48a8a490d","fixation","img/fixation.png","null","","test","","","","","",""
"320.79999999701977","158875","pSARL_v2","pSARL_v22c3r60w7","60a7d7b70d3cf8f48a8a490d","freq","img/green_2bandit_b2.png","70","70","test","1","28","28","2","",""
"null","159360","pSARL_v2","pSARL_v22c3r60w7","60a7d7b70d3cf8f48a8a490d","freq_resp","img/green_2bandit_b.png","70","70","test","","","","2","",""
"null","159517","pSARL_v2","pSARL_v22c3r60w7","60a7d7b70d3cf8f48a8a490d","fixation","img/fixation.png","null","","test","","","","","",""
"312","159836","pSARL_v2","pSARL_v22c3r60w7","60a7d7b70d3cf8f48a8a490d","freq","img/green_2bandit_b2.png","70","70","test","1","29","29","2","",""
"null","160331","pSARL_v2","pSARL_v22c3r60w7","60a7d7b70d3cf8f48a8a490d","freq_resp","img/green_2bandit_b.png","70","70","test","","","","2","",""
"null","160490","pSARL_v2","pSARL_v22c3r60w7","60a7d7b70d3cf8f48a8a490d","fixation","img/fixation.png","null","","test","","","","","",""
"337.59999999403954","160835","pSARL_v2","pSARL_v22c3r60w7","60a7d7b70d3cf8f48a8a490d","freq","img/green_2bandit_b2.png","70","70","test","1","30","30","2","",""
"null","161303","pSARL_v2","pSARL_v22c3r60w7","60a7d7b70d3cf8f48a8a490d","freq_resp","img/green_2bandit_b.png","70","70","test","","","","2","",""
"null","161460","pSARL_v2","pSARL_v22c3r60w7","60a7d7b70d3cf8f48a8a490d","fixation","img/fixation.png","null","","test","","","","","",""
"336.79999999701977","161804","pSARL_v2","pSARL_v22c3r60w7","60a7d7b70d3cf8f48a8a490d","freq","img/green_2bandit_b2.png","70","70","test","1","31","31","2","",""
"null","162275","pSARL_v2","pSARL_v22c3r60w7","60a7d7b70d3cf8f48a8a490d","freq_resp","img/green_2bandit_b.png","70","70","test","","","","2","",""
"null","162432","pSARL_v2","pSARL_v22c3r60w7","60a7d7b70d3cf8f48a8a490d","fixation","img/fixation.png","null","","test","","","","","",""
"308.29999999701977","162748","pSARL_v2","pSARL_v22c3r60w7","60a7d7b70d3cf8f48a8a490d","freq","img/green_2bandit_b2.png","70","70","test","1","32","32","2","",""
"null","163245","pSARL_v2","pSARL_v22c3r60w7","60a7d7b70d3cf8f48a8a490d","freq_resp","img/green_2bandit_b.png","70","70","test","","","","2","",""
"null","163403","pSARL_v2","pSARL_v22c3r60w7","60a7d7b70d3cf8f48a8a490d","fixation","img/fixation.png","null","","test","","","","","",""
"477.1000000089407","163887","pSARL_v2","pSARL_v22c3r60w7","60a7d7b70d3cf8f48a8a490d","infreq","img/orange_2bandit_b2.png","68","68","test","1","33","33","2","",""
"null","164215","pSARL_v2","pSARL_v22c3r60w7","60a7d7b70d3cf8f48a8a490d","infreq_resp","img/orange_2bandit_b.png","68","68","test","","","","2","",""
"null","164372","pSARL_v2","pSARL_v22c3r60w7","60a7d7b70d3cf8f48a8a490d","fixation","img/fixation.png","null","","test","","","","","",""
"394.09999999403954","164774","pSARL_v2","pSARL_v22c3r60w7","60a7d7b70d3cf8f48a8a490d","freq","img/green_2bandit_b2.png","70","70","test","1","34","34","2","",""
"null","165185","pSARL_v2","pSARL_v22c3r60w7","60a7d7b70d3cf8f48a8a490d","freq_resp","img/green_2bandit_b.png","70","70","test","","","","2","",""
"null","165343","pSARL_v2","pSARL_v22c3r60w7","60a7d7b70d3cf8f48a8a490d","fixation","img/fixation.png","null","","test","","","","","",""
"119.40000000596046","165471","pSARL_v2","pSARL_v22c3r60w7","60a7d7b70d3cf8f48a8a490d","freq","img/green_2bandit_b2.png","70","70","test","1","35","35","2","",""
"null","166159","pSARL_v2","pSARL_v22c3r60w7","60a7d7b70d3cf8f48a8a490d","freq_resp","img/green_2bandit_b.png","70","70","test","","","","2","",""
"null","166316","pSARL_v2","pSARL_v22c3r60w7","60a7d7b70d3cf8f48a8a490d","fixation","img/fixation.png","null","","test","","","","","",""
"239.29999999701977","166564","pSARL_v2","pSARL_v22c3r60w7","60a7d7b70d3cf8f48a8a490d","freq","img/green_2bandit_b2.png","70","70","test","1","36","36","2","",""
"null","167132","pSARL_v2","pSARL_v22c3r60w7","60a7d7b70d3cf8f48a8a490d","freq_resp","img/green_2bandit_b.png","70","70","test","","","","2","",""
"null","167288","pSARL_v2","pSARL_v22c3r60w7","60a7d7b70d3cf8f48a8a490d","fixation","img/fixation.png","null","","test","","","","","",""
"276.5","167571","pSARL_v2","pSARL_v22c3r60w7","60a7d7b70d3cf8f48a8a490d","freq","img/green_2bandit_b2.png","70","70","test","1","37","37","2","",""
"null","168102","pSARL_v2","pSARL_v22c3r60w7","60a7d7b70d3cf8f48a8a490d","freq_resp","img/green_2bandit_b.png","70","70","test","","","","2","",""
"null","168260","pSARL_v2","pSARL_v22c3r60w7","60a7d7b70d3cf8f48a8a490d","fixation","img/fixation.png","null","","test","","","","","",""
"375.59999999403954","168643","pSARL_v2","pSARL_v22c3r60w7","60a7d7b70d3cf8f48a8a490d","infreq","img/orange_2bandit_b2.png","68","68","test","1","38","38","2","",""
"null","169075","pSARL_v2","pSARL_v22c3r60w7","60a7d7b70d3cf8f48a8a490d","infreq_resp","img/orange_2bandit_b.png","68","68","test","","","","2","",""
"null","169232","pSARL_v2","pSARL_v22c3r60w7","60a7d7b70d3cf8f48a8a490d","fixation","img/fixation.png","null","","test","","","","","",""
"366.6000000089407","169605","pSARL_v2","pSARL_v22c3r60w7","60a7d7b70d3cf8f48a8a490d","freq","img/green_2bandit_b2.png","70","70","test","1","39","39","2","",""
"null","170045","pSARL_v2","pSARL_v22c3r60w7","60a7d7b70d3cf8f48a8a490d","freq_resp","img/green_2bandit_b.png","70","70","test","","","","2","",""
"null","170202","pSARL_v2","pSARL_v22c3r60w7","60a7d7b70d3cf8f48a8a490d","fixation","img/fixation.png","null","","test","","","","","",""
"320.29999999701977","170529","pSARL_v2","pSARL_v22c3r60w7","60a7d7b70d3cf8f48a8a490d","freq","img/green_2bandit_b2.png","70","70","test","1","40","40","2","",""
"null","171011","pSARL_v2","pSARL_v22c3r60w7","60a7d7b70d3cf8f48a8a490d","freq_resp","img/green_2bandit_b.png","70","70","test","","","","2","",""
"null","171167","pSARL_v2","pSARL_v22c3r60w7","60a7d7b70d3cf8f48a8a490d","fixation","img/fixation.png","null","","test","","","","","",""
"315.19999998807907","171490","pSARL_v2","pSARL_v22c3r60w7","60a7d7b70d3cf8f48a8a490d","freq","img/green_2bandit_b2.png","70","70","test","1","41","41","2","",""
"null","171982","pSARL_v2","pSARL_v22c3r60w7","60a7d7b70d3cf8f48a8a490d","freq_resp","img/green_2bandit_b.png","70","70","test","","","","2","",""
"null","172139","pSARL_v2","pSARL_v22c3r60w7","60a7d7b70d3cf8f48a8a490d","fixation","img/fixation.png","null","","test","","","","","",""
"390","172535","pSARL_v2","pSARL_v22c3r60w7","60a7d7b70d3cf8f48a8a490d","freq","img/green_2bandit_b2.png","70","70","test","1","42","42","2","",""
"null","172953","pSARL_v2","pSARL_v22c3r60w7","60a7d7b70d3cf8f48a8a490d","freq_resp","img/green_2bandit_b.png","70","70","test","","","","2","",""
"null","173109","pSARL_v2","pSARL_v22c3r60w7","60a7d7b70d3cf8f48a8a490d","fixation","img/fixation.png","null","","test","","","","","",""
"361.29999999701977","173478","pSARL_v2","pSARL_v22c3r60w7","60a7d7b70d3cf8f48a8a490d","freq","img/green_2bandit_b2.png","70","70","test","1","43","43","2","",""
"null","173924","pSARL_v2","pSARL_v22c3r60w7","60a7d7b70d3cf8f48a8a490d","freq_resp","img/green_2bandit_b.png","70","70","test","","","","2","",""
"null","174082","pSARL_v2","pSARL_v22c3r60w7","60a7d7b70d3cf8f48a8a490d","fixation","img/fixation.png","null","","test","","","","","",""
"311.79999999701977","174402","pSARL_v2","pSARL_v22c3r60w7","60a7d7b70d3cf8f48a8a490d","freq","img/green_2bandit_b2.png","70","70","test","1","44","44","2","",""
"null","174897","pSARL_v2","pSARL_v22c3r60w7","60a7d7b70d3cf8f48a8a490d","freq_resp","img/green_2bandit_b.png","70","70","test","","","","2","",""
"null","175054","pSARL_v2","pSARL_v22c3r60w7","60a7d7b70d3cf8f48a8a490d","fixation","img/fixation.png","null","","test","","","","","",""
"339.6000000089407","175400","pSARL_v2","pSARL_v22c3r60w7","60a7d7b70d3cf8f48a8a490d","freq","img/green_2bandit_b2.png","70","70","test","1","45","45","2","",""
"null","175868","pSARL_v2","pSARL_v22c3r60w7","60a7d7b70d3cf8f48a8a490d","freq_resp","img/green_2bandit_b.png","70","70","test","","","","2","",""
"null","176027","pSARL_v2","pSARL_v22c3r60w7","60a7d7b70d3cf8f48a8a490d","fixation","img/fixation.png","null","","test","","","","","",""
"1411","177445","pSARL_v2","pSARL_v22c3r60w7","60a7d7b70d3cf8f48a8a490d","reward","img/slot.png","74","","test","","","","","",""
"null","178202","pSARL_v2","pSARL_v22c3r60w7","60a7d7b70d3cf8f48a8a490d","points","<div class=""verylowPoints""> -11 </div>","null","na","test","","","","2","-11","1"
"490.40000000596046","178700","pSARL_v2","pSARL_v22c3r60w7","60a7d7b70d3cf8f48a8a490d","freq","img/green_2bandit_b2.png","70","70","test","1","46","46","3","",""
"null","179018","pSARL_v2","pSARL_v22c3r60w7","60a7d7b70d3cf8f48a8a490d","freq_resp","img/green_2bandit_b.png","70","70","test","","","","3","",""
"null","179176","pSARL_v2","pSARL_v22c3r60w7","60a7d7b70d3cf8f48a8a490d","fixation","img/fixation.png","null","","test","","","","","",""
"231.3999999910593","179418","pSARL_v2","pSARL_v22c3r60w7","60a7d7b70d3cf8f48a8a490d","freq","img/green_2bandit_b2.png","70","70","test","1","47","47","3","",""
"null","179993","pSARL_v2","pSARL_v22c3r60w7","60a7d7b70d3cf8f48a8a490d","freq_resp","img/green_2bandit_b.png","70","70","test","","","","3","",""
"null","180150","pSARL_v2","pSARL_v22c3r60w7","60a7d7b70d3cf8f48a8a490d","fixation","img/fixation.png","null","","test","","","","","",""
"48.79999999701977","180203","pSARL_v2","pSARL_v22c3r60w7","60a7d7b70d3cf8f48a8a490d","freq","img/green_2bandit_b2.png","70","70","test","1","48","48","3","",""
"null","180961","pSARL_v2","pSARL_v22c3r60w7","60a7d7b70d3cf8f48a8a490d","freq_resp","img/green_2bandit_b.png","70","70","test","","","","3","",""
"null","181119","pSARL_v2","pSARL_v22c3r60w7","60a7d7b70d3cf8f48a8a490d","fixation","img/fixation.png","null","","test","","","","","",""
"173.29999999701977","181300","pSARL_v2","pSARL_v22c3r60w7","60a7d7b70d3cf8f48a8a490d","freq","img/green_2bandit_b2.png","70","70","test","1","49","49","3","",""
"null","181934","pSARL_v2","pSARL_v22c3r60w7","60a7d7b70d3cf8f48a8a490d","freq_resp","img/green_2bandit_b.png","70","70","test","","","","3","",""
"null","182090","pSARL_v2","pSARL_v22c3r60w7","60a7d7b70d3cf8f48a8a490d","fixation","img/fixation.png","null","","test","","","","","",""
"163.70000000298023","182262","pSARL_v2","pSARL_v22c3r60w7","60a7d7b70d3cf8f48a8a490d","freq","img/green_2bandit_b2.png","70","70","test","1","50","50","3","",""
"null","182903","pSARL_v2","pSARL_v22c3r60w7","60a7d7b70d3cf8f48a8a490d","freq_resp","img/green_2bandit_b.png","70","70","test","","","","3","",""
"null","183059","pSARL_v2","pSARL_v22c3r60w7","60a7d7b70d3cf8f48a8a490d","fixation","img/fixation.png","null","","test","","","","","",""
"81.20000000298023","183147","pSARL_v2","pSARL_v22c3r60w7","60a7d7b70d3cf8f48a8a490d","infreq","img/orange_2bandit_b2.png","70","68","test","0","51","51","3","",""
"null","183873","pSARL_v2","pSARL_v22c3r60w7","60a7d7b70d3cf8f48a8a490d","infreq_resp","img/orange_2bandit_b.png","70","68","test","","","","3","",""
"null","184026","pSARL_v2","pSARL_v22c3r60w7","60a7d7b70d3cf8f48a8a490d","fixation","img/fixation.png","null","","test","","","","","",""
"724.5999999940395","184756","pSARL_v2","pSARL_v22c3r60w7","60a7d7b70d3cf8f48a8a490d","freq","img/green_2bandit_b2.png","70","70","test","1","52","52","3","",""
"null","184838","pSARL_v2","pSARL_v22c3r60w7","60a7d7b70d3cf8f48a8a490d","freq_resp","img/green_2bandit_b.png","70","70","test","","","","3","",""
"null","184995","pSARL_v2","pSARL_v22c3r60w7","60a7d7b70d3cf8f48a8a490d","fixation","img/fixation.png","null","","test","","","","","",""
"545.3999999910593","185544","pSARL_v2","pSARL_v22c3r60w7","60a7d7b70d3cf8f48a8a490d","freq","img/green_2bandit_b2.png","70","70","test","1","53","53","3","",""
"null","185804","pSARL_v2","pSARL_v22c3r60w7","60a7d7b70d3cf8f48a8a490d","freq_resp","img/green_2bandit_b.png","70","70","test","","","","3","",""
"null","185961","pSARL_v2","pSARL_v22c3r60w7","60a7d7b70d3cf8f48a8a490d","fixation","img/fixation.png","null","","test","","","","","",""
"447.90000000596046","186417","pSARL_v2","pSARL_v22c3r60w7","60a7d7b70d3cf8f48a8a490d","freq","img/green_2bandit_b2.png","70","70","test","1","54","54","3","",""
"null","186780","pSARL_v2","pSARL_v22c3r60w7","60a7d7b70d3cf8f48a8a490d","freq_resp","img/green_2bandit_b.png","70","70","test","","","","3","",""
"null","186936","pSARL_v2","pSARL_v22c3r60w7","60a7d7b70d3cf8f48a8a490d","fixation","img/fixation.png","null","","test","","","","","",""
"349.40000000596046","187292","pSARL_v2","pSARL_v22c3r60w7","60a7d7b70d3cf8f48a8a490d","freq","img/green_2bandit_b2.png","70","70","test","1","55","55","3","",""
"null","187749","pSARL_v2","pSARL_v22c3r60w7","60a7d7b70d3cf8f48a8a490d","freq_resp","img/green_2bandit_b.png","70","70","test","","","","3","",""
"null","187905","pSARL_v2","pSARL_v22c3r60w7","60a7d7b70d3cf8f48a8a490d","fixation","img/fixation.png","null","","test","","","","","",""
"568.3999999910593","188480","pSARL_v2","pSARL_v22c3r60w7","60a7d7b70d3cf8f48a8a490d","freq","img/green_2bandit_b2.png","70","70","test","1","56","56","3","",""
"null","188717","pSARL_v2","pSARL_v22c3r60w7","60a7d7b70d3cf8f48a8a490d","freq_resp","img/green_2bandit_b.png","70","70","test","","","","3","",""
"null","188875","pSARL_v2","pSARL_v22c3r60w7","60a7d7b70d3cf8f48a8a490d","fixation","img/fixation.png","null","","test","","","","","",""
"482.70000000298023","189365","pSARL_v2","pSARL_v22c3r60w7","60a7d7b70d3cf8f48a8a490d","freq","img/green_2bandit_b2.png","70","70","test","1","57","57","3","",""
"null","189688","pSARL_v2","pSARL_v22c3r60w7","60a7d7b70d3cf8f48a8a490d","freq_resp","img/green_2bandit_b.png","70","70","test","","","","3","",""
"null","189845","pSARL_v2","pSARL_v22c3r60w7","60a7d7b70d3cf8f48a8a490d","fixation","img/fixation.png","null","","test","","","","","",""
"491.20000000298023","190340","pSARL_v2","pSARL_v22c3r60w7","60a7d7b70d3cf8f48a8a490d","freq","img/green_2bandit_b2.png","70","70","test","1","58","58","3","",""
"null","190654","pSARL_v2","pSARL_v22c3r60w7","60a7d7b70d3cf8f48a8a490d","freq_resp","img/green_2bandit_b.png","70","70","test","","","","3","",""
"null","190811","pSARL_v2","pSARL_v22c3r60w7","60a7d7b70d3cf8f48a8a490d","fixation","img/fixation.png","null","","test","","","","","",""
"449.59999999403954","191268","pSARL_v2","pSARL_v22c3r60w7","60a7d7b70d3cf8f48a8a490d","freq","img/green_2bandit_b2.png","70","70","test","1","59","59","3","",""
"null","191625","pSARL_v2","pSARL_v22c3r60w7","60a7d7b70d3cf8f48a8a490d","freq_resp","img/green_2bandit_b.png","70","70","test","","","","3","",""
"null","191784","pSARL_v2","pSARL_v22c3r60w7","60a7d7b70d3cf8f48a8a490d","fixation","img/fixation.png","null","","test","","","","","",""
"436.3999999910593","192228","pSARL_v2","pSARL_v22c3r60w7","60a7d7b70d3cf8f48a8a490d","freq","img/green_2bandit_b2.png","70","70","test","1","60","60","3","",""
"null","192600","pSARL_v2","pSARL_v22c3r60w7","60a7d7b70d3cf8f48a8a490d","freq_resp","img/green_2bandit_b.png","70","70","test","","","","3","",""
"null","192760","pSARL_v2","pSARL_v22c3r60w7","60a7d7b70d3cf8f48a8a490d","fixation","img/fixation.png","null","","test","","","","","",""
"462.3999999910593","193230","pSARL_v2","pSARL_v22c3r60w7","60a7d7b70d3cf8f48a8a490d","infreq","img/orange_2bandit_b2.png","68","68","test","1","61","61","3","",""
"null","193571","pSARL_v2","pSARL_v22c3r60w7","60a7d7b70d3cf8f48a8a490d","infreq_resp","img/orange_2bandit_b.png","68","68","test","","","","3","",""
"null","193728","pSARL_v2","pSARL_v22c3r60w7","60a7d7b70d3cf8f48a8a490d","fixation","img/fixation.png","null","","test","","","","","",""
"785","194519","pSARL_v2","pSARL_v22c3r60w7","60a7d7b70d3cf8f48a8a490d","freq","img/green_2bandit_b2.png","70","70","test","1","62","62","3","",""
"null","194539","pSARL_v2","pSARL_v22c3r60w7","60a7d7b70d3cf8f48a8a490d","freq_resp","img/green_2bandit_b.png","70","70","test","","","","3","",""
"null","194698","pSARL_v2","pSARL_v22c3r60w7","60a7d7b70d3cf8f48a8a490d","fixation","img/fixation.png","null","","test","","","","","",""
"577.6999999880791","195283","pSARL_v2","pSARL_v22c3r60w7","60a7d7b70d3cf8f48a8a490d","freq","img/green_2bandit_b2.png","70","70","test","1","63","63","3","",""
"null","195513","pSARL_v2","pSARL_v22c3r60w7","60a7d7b70d3cf8f48a8a490d","freq_resp","img/green_2bandit_b.png","70","70","test","","","","3","",""
"null","195671","pSARL_v2","pSARL_v22c3r60w7","60a7d7b70d3cf8f48a8a490d","fixation","img/fixation.png","null","","test","","","","","",""
"404.80000001192093","196083","pSARL_v2","pSARL_v22c3r60w7","60a7d7b70d3cf8f48a8a490d","freq","img/green_2bandit_b2.png","70","70","test","1","64","64","3","",""
"null","196487","pSARL_v2","pSARL_v22c3r60w7","60a7d7b70d3cf8f48a8a490d","freq_resp","img/green_2bandit_b.png","70","70","test","","","","3","",""
"null","196646","pSARL_v2","pSARL_v22c3r60w7","60a7d7b70d3cf8f48a8a490d","fixation","img/fixation.png","null","","test","","","","","",""
"353.20000000298023","197007","pSARL_v2","pSARL_v22c3r60w7","60a7d7b70d3cf8f48a8a490d","freq","img/green_2bandit_b2.png","70","70","test","1","65","65","3","",""
"null","197461","pSARL_v2","pSARL_v22c3r60w7","60a7d7b70d3cf8f48a8a490d","freq_resp","img/green_2bandit_b.png","70","70","test","","","","3","",""
"null","197619","pSARL_v2","pSARL_v22c3r60w7","60a7d7b70d3cf8f48a8a490d","fixation","img/fixation.png","null","","test","","","","","",""
"332.79999999701977","197959","pSARL_v2","pSARL_v22c3r60w7","60a7d7b70d3cf8f48a8a490d","freq","img/green_2bandit_b2.png","70","70","test","1","66","66","3","",""
"null","198434","pSARL_v2","pSARL_v22c3r60w7","60a7d7b70d3cf8f48a8a490d","freq_resp","img/green_2bandit_b.png","70","70","test","","","","3","",""
"null","198592","pSARL_v2","pSARL_v22c3r60w7","60a7d7b70d3cf8f48a8a490d","fixation","img/fixation.png","null","","test","","","","","",""
"1177.7999999970198","199776","pSARL_v2","pSARL_v22c3r60w7","60a7d7b70d3cf8f48a8a490d","reward","img/slot.png","74","","test","","","","","",""
"null","200534","pSARL_v2","pSARL_v22c3r60w7","60a7d7b70d3cf8f48a8a490d","points","<div class=""verylowPoints""> -7 </div>","null","na","test","","","","3","-7","2"
"null","201343","pSARL_v2","pSARL_v22c3r60w7","60a7d7b70d3cf8f48a8a490d","freq","img/green_2bandit_b2.png","null","70","test","0","67","67","4","",""
"null","201502","pSARL_v2","pSARL_v22c3r60w7","60a7d7b70d3cf8f48a8a490d","fixation","img/fixation.png","null","","test","","","","","",""
"341.09999999403954","201851","pSARL_v2","pSARL_v22c3r60w7","60a7d7b70d3cf8f48a8a490d","freq","img/green_2bandit_b2.png","70","70","test","1","68","68","4","",""
"null","202317","pSARL_v2","pSARL_v22c3r60w7","60a7d7b70d3cf8f48a8a490d","freq_resp","img/green_2bandit_b.png","70","70","test","","","","4","",""
"null","202474","pSARL_v2","pSARL_v22c3r60w7","60a7d7b70d3cf8f48a8a490d","fixation","img/fixation.png","null","","test","","","","","",""
"527.5","203009","pSARL_v2","pSARL_v22c3r60w7","60a7d7b70d3cf8f48a8a490d","freq","img/green_2bandit_b2.png","70","70","test","1","69","69","4","",""
"null","203290","pSARL_v2","pSARL_v22c3r60w7","60a7d7b70d3cf8f48a8a490d","freq_resp","img/green_2bandit_b.png","70","70","test","","","","4","",""
"null","203449","pSARL_v2","pSARL_v22c3r60w7","60a7d7b70d3cf8f48a8a490d","fixation","img/fixation.png","null","","test","","","","","",""
"466.09999999403954","203923","pSARL_v2","pSARL_v22c3r60w7","60a7d7b70d3cf8f48a8a490d","freq","img/green_2bandit_b2.png","70","70","test","1","70","70","4","",""
"null","204265","pSARL_v2","pSARL_v22c3r60w7","60a7d7b70d3cf8f48a8a490d","freq_resp","img/green_2bandit_b.png","70","70","test","","","","4","",""
"null","204425","pSARL_v2","pSARL_v22c3r60w7","60a7d7b70d3cf8f48a8a490d","fixation","img/fixation.png","null","","test","","","","","",""
"405.30000001192093","204838","pSARL_v2","pSARL_v22c3r60w7","60a7d7b70d3cf8f48a8a490d","freq","img/green_2bandit_b2.png","70","70","test","1","71","71","4","",""
"null","205238","pSARL_v2","pSARL_v22c3r60w7","60a7d7b70d3cf8f48a8a490d","freq_resp","img/green_2bandit_b.png","70","70","test","","","","4","",""
"null","205396","pSARL_v2","pSARL_v22c3r60w7","60a7d7b70d3cf8f48a8a490d","fixation","img/fixation.png","null","","test","","","","","",""
"367.69999998807907","205773","pSARL_v2","pSARL_v22c3r60w7","60a7d7b70d3cf8f48a8a490d","freq","img/green_2bandit_b2.png","70","70","test","1","72","72","4","",""
"null","206212","pSARL_v2","pSARL_v22c3r60w7","60a7d7b70d3cf8f48a8a490d","freq_resp","img/green_2bandit_b.png","70","70","test","","","","4","",""
"null","206369","pSARL_v2","pSARL_v22c3r60w7","60a7d7b70d3cf8f48a8a490d","fixation","img/fixation.png","null","","test","","","","","",""
"431.29999999701977","206807","pSARL_v2","pSARL_v22c3r60w7","60a7d7b70d3cf8f48a8a490d","freq","img/green_2bandit_b2.png","70","70","test","1","73","73","4","",""
"null","207182","pSARL_v2","pSARL_v22c3r60w7","60a7d7b70d3cf8f48a8a490d","freq_resp","img/green_2bandit_b.png","70","70","test","","","","4","",""
"null","207339","pSARL_v2","pSARL_v22c3r60w7","60a7d7b70d3cf8f48a8a490d","fixation","img/fixation.png","null","","test","","","","","",""
"364.80000001192093","207711","pSARL_v2","pSARL_v22c3r60w7","60a7d7b70d3cf8f48a8a490d","freq","img/green_2bandit_b2.png","70","70","test","1","74","74","4","",""
"null","208153","pSARL_v2","pSARL_v22c3r60w7","60a7d7b70d3cf8f48a8a490d","freq_resp","img/green_2bandit_b.png","70","70","test","","","","4","",""
"null","208312","pSARL_v2","pSARL_v22c3r60w7","60a7d7b70d3cf8f48a8a490d","fixation","img/fixation.png","null","","test","","","","","",""
"296.90000000596046","208617","pSARL_v2","pSARL_v22c3r60w7","60a7d7b70d3cf8f48a8a490d","freq","img/green_2bandit_b2.png","70","70","test","1","75","75","4","",""
"null","209127","pSARL_v2","pSARL_v22c3r60w7","60a7d7b70d3cf8f48a8a490d","freq_resp","img/green_2bandit_b.png","70","70","test","","","","4","",""
"null","209286","pSARL_v2","pSARL_v22c3r60w7","60a7d7b70d3cf8f48a8a490d","fixation","img/fixation.png","null","","test","","","","","",""
"567.8999999910593","209860","pSARL_v2","pSARL_v22c3r60w7","60a7d7b70d3cf8f48a8a490d","infreq","img/orange_2bandit_b2.png","68","68","test","1","76","76","4","",""
"null","210101","pSARL_v2","pSARL_v22c3r60w7","60a7d7b70d3cf8f48a8a490d","infreq_resp","img/orange_2bandit_b.png","68","68","test","","","","4","",""
"null","210261","pSARL_v2","pSARL_v22c3r60w7","60a7d7b70d3cf8f48a8a490d","fixation","img/fixation.png","null","","test","","","","","",""
"478.09999999403954","210746","pSARL_v2","pSARL_v22c3r60w7","60a7d7b70d3cf8f48a8a490d","freq","img/green_2bandit_b2.png","70","70","test","1","77","77","4","",""
"null","211074","pSARL_v2","pSARL_v22c3r60w7","60a7d7b70d3cf8f48a8a490d","freq_resp","img/green_2bandit_b.png","70","70","test","","","","4","",""
"null","211232","pSARL_v2","pSARL_v22c3r60w7","60a7d7b70d3cf8f48a8a490d","fixation","img/fixation.png","null","","test","","","","","",""
"346.8999999910593","211586","pSARL_v2","pSARL_v22c3r60w7","60a7d7b70d3cf8f48a8a490d","infreq","img/orange_2bandit_b2.png","70","68","test","0","78","78","4","",""
"null","212046","pSARL_v2","pSARL_v22c3r60w7","60a7d7b70d3cf8f48a8a490d","infreq_resp","img/orange_2bandit_b.png","70","68","test","","","","4","",""
"null","212203","pSARL_v2","pSARL_v22c3r60w7","60a7d7b70d3cf8f48a8a490d","fixation","img/fixation.png","null","","test","","","","","",""
"431","212640","pSARL_v2","pSARL_v22c3r60w7","60a7d7b70d3cf8f48a8a490d","freq","img/green_2bandit_b2.png","70","70","test","1","79","79","4","",""
"null","213016","pSARL_v2","pSARL_v22c3r60w7","60a7d7b70d3cf8f48a8a490d","freq_resp","img/green_2bandit_b.png","70","70","test","","","","4","",""
"null","213173","pSARL_v2","pSARL_v22c3r60w7","60a7d7b70d3cf8f48a8a490d","fixation","img/fixation.png","null","","test","","","","","",""
"393.3999999910593","213573","pSARL_v2","pSARL_v22c3r60w7","60a7d7b70d3cf8f48a8a490d","freq","img/green_2bandit_b2.png","70","70","test","1","80","80","4","",""
"null","213986","pSARL_v2","pSARL_v22c3r60w7","60a7d7b70d3cf8f48a8a490d","freq_resp","img/green_2bandit_b.png","70","70","test","","","","4","",""
"null","214144","pSARL_v2","pSARL_v22c3r60w7","60a7d7b70d3cf8f48a8a490d","fixation","img/fixation.png","null","","test","","","","","",""
"290.40000000596046","214442","pSARL_v2","pSARL_v22c3r60w7","60a7d7b70d3cf8f48a8a490d","freq","img/green_2bandit_b2.png","70","70","test","1","81","81","4","",""
"null","214957","pSARL_v2","pSARL_v22c3r60w7","60a7d7b70d3cf8f48a8a490d","freq_resp","img/green_2bandit_b.png","70","70","test","","","","4","",""
"null","215114","pSARL_v2","pSARL_v22c3r60w7","60a7d7b70d3cf8f48a8a490d","fixation","img/fixation.png","null","","test","","","","","",""
"310.40000000596046","215431","pSARL_v2","pSARL_v22c3r60w7","60a7d7b70d3cf8f48a8a490d","freq","img/green_2bandit_b2.png","70","70","test","1","82","82","4","",""
"null","215927","pSARL_v2","pSARL_v22c3r60w7","60a7d7b70d3cf8f48a8a490d","freq_resp","img/green_2bandit_b.png","70","70","test","","","","4","",""
"null","216084","pSARL_v2","pSARL_v22c3r60w7","60a7d7b70d3cf8f48a8a490d","fixation","img/fixation.png","null","","test","","","","","",""
"281.40000000596046","216374","pSARL_v2","pSARL_v22c3r60w7","60a7d7b70d3cf8f48a8a490d","freq","img/green_2bandit_b2.png","70","70","test","1","83","83","4","",""
"null","216901","pSARL_v2","pSARL_v22c3r60w7","60a7d7b70d3cf8f48a8a490d","freq_resp","img/green_2bandit_b.png","70","70","test","","","","4","",""
"null","217060","pSARL_v2","pSARL_v22c3r60w7","60a7d7b70d3cf8f48a8a490d","fixation","img/fixation.png","null","","test","","","","","",""
"408.79999999701977","217476","pSARL_v2","pSARL_v22c3r60w7","60a7d7b70d3cf8f48a8a490d","freq","img/green_2bandit_b2.png","70","70","test","1","84","84","4","",""
"null","217874","pSARL_v2","pSARL_v22c3r60w7","60a7d7b70d3cf8f48a8a490d","freq_resp","img/green_2bandit_b.png","70","70","test","","","","4","",""
"null","218030","pSARL_v2","pSARL_v22c3r60w7","60a7d7b70d3cf8f48a8a490d","fixation","img/fixation.png","null","","test","","","","","",""
"524.2000000029802","218560","pSARL_v2","pSARL_v22c3r60w7","60a7d7b70d3cf8f48a8a490d","freq","img/green_2bandit_b2.png","70","70","test","1","85","85","4","",""
"null","218842","pSARL_v2","pSARL_v22c3r60w7","60a7d7b70d3cf8f48a8a490d","freq_resp","img/green_2bandit_b.png","70","70","test","","","","4","",""
"null","218999","pSARL_v2","pSARL_v22c3r60w7","60a7d7b70d3cf8f48a8a490d","fixation","img/fixation.png","null","","test","","","","","",""
"326.6000000089407","219332","pSARL_v2","pSARL_v22c3r60w7","60a7d7b70d3cf8f48a8a490d","freq","img/green_2bandit_b2.png","70","70","test","1","86","86","4","",""
"null","219812","pSARL_v2","pSARL_v22c3r60w7","60a7d7b70d3cf8f48a8a490d","freq_resp","img/green_2bandit_b.png","70","70","test","","","","4","",""
"null","219970","pSARL_v2","pSARL_v22c3r60w7","60a7d7b70d3cf8f48a8a490d","fixation","img/fixation.png","null","","test","","","","","",""
"344","220321","pSARL_v2","pSARL_v22c3r60w7","60a7d7b70d3cf8f48a8a490d","infreq","img/orange_2bandit_b2.png","68","68","test","1","87","87","4","",""
"null","220784","pSARL_v2","pSARL_v22c3r60w7","60a7d7b70d3cf8f48a8a490d","infreq_resp","img/orange_2bandit_b.png","68","68","test","","","","4","",""
"null","220942","pSARL_v2","pSARL_v22c3r60w7","60a7d7b70d3cf8f48a8a490d","fixation","img/fixation.png","null","","test","","","","","",""
"522","221471","pSARL_v2","pSARL_v22c3r60w7","60a7d7b70d3cf8f48a8a490d","freq","img/green_2bandit_b2.png","70","70","test","1","88","88","4","",""
"null","221758","pSARL_v2","pSARL_v22c3r60w7","60a7d7b70d3cf8f48a8a490d","freq_resp","img/green_2bandit_b.png","70","70","test","","","","4","",""
"null","221917","pSARL_v2","pSARL_v22c3r60w7","60a7d7b70d3cf8f48a8a490d","fixation","img/fixation.png","null","","test","","","","","",""
"471.70000000298023","222396","pSARL_v2","pSARL_v22c3r60w7","60a7d7b70d3cf8f48a8a490d","freq","img/green_2bandit_b2.png","70","70","test","1","89","89","4","",""
"null","222732","pSARL_v2","pSARL_v22c3r60w7","60a7d7b70d3cf8f48a8a490d","freq_resp","img/green_2bandit_b.png","70","70","test","","","","4","",""
"null","222896","pSARL_v2","pSARL_v22c3r60w7","60a7d7b70d3cf8f48a8a490d","fixation","img/fixation.png","null","","test","","","","","",""
"653.5","223556","pSARL_v2","pSARL_v22c3r60w7","60a7d7b70d3cf8f48a8a490d","reward","img/slot.png","74","","test","","","","","",""
"null","224312","pSARL_v2","pSARL_v22c3r60w7","60a7d7b70d3cf8f48a8a490d","points","<div class=""verylowPoints""> -3 </div>","null","na","test","","","","4","-3","3"
"274.70000000298023","224594","pSARL_v2","pSARL_v22c3r60w7","60a7d7b70d3cf8f48a8a490d","freq","img/green_2bandit_b2.png","70","70","test","1","90","90","5","",""
"null","225126","pSARL_v2","pSARL_v22c3r60w7","60a7d7b70d3cf8f48a8a490d","freq_resp","img/green_2bandit_b.png","70","70","test","","","","5","",""
"null","225285","pSARL_v2","pSARL_v22c3r60w7","60a7d7b70d3cf8f48a8a490d","fixation","img/fixation.png","null","","test","","","","","",""
"317.5","225610","pSARL_v2","pSARL_v22c3r60w7","60a7d7b70d3cf8f48a8a490d","freq","img/green_2bandit_b2.png","70","70","test","1","91","91","5","",""
"null","226098","pSARL_v2","pSARL_v22c3r60w7","60a7d7b70d3cf8f48a8a490d","freq_resp","img/green_2bandit_b.png","70","70","test","","","","5","",""
"null","226255","pSARL_v2","pSARL_v22c3r60w7","60a7d7b70d3cf8f48a8a490d","fixation","img/fixation.png","null","","test","","","","","",""
"319.40000000596046","226582","pSARL_v2","pSARL_v22c3r60w7","60a7d7b70d3cf8f48a8a490d","freq","img/green_2bandit_b2.png","70","70","test","1","92","92","5","",""
"null","227069","pSARL_v2","pSARL_v22c3r60w7","60a7d7b70d3cf8f48a8a490d","freq_resp","img/green_2bandit_b.png","70","70","test","","","","5","",""
"null","227226","pSARL_v2","pSARL_v22c3r60w7","60a7d7b70d3cf8f48a8a490d","fixation","img/fixation.png","null","","test","","","","","",""
"262.8999999910593","227497","pSARL_v2","pSARL_v22c3r60w7","60a7d7b70d3cf8f48a8a490d","freq","img/green_2bandit_b2.png","70","70","test","1","93","93","5","",""
"null","228042","pSARL_v2","pSARL_v22c3r60w7","60a7d7b70d3cf8f48a8a490d","freq_resp","img/green_2bandit_b.png","70","70","test","","","","5","",""
"null","228198","pSARL_v2","pSARL_v22c3r60w7","60a7d7b70d3cf8f48a8a490d","fixation","img/fixation.png","null","","test","","","","","",""
"261.1000000089407","228467","pSARL_v2","pSARL_v22c3r60w7","60a7d7b70d3cf8f48a8a490d","freq","img/green_2bandit_b2.png","70","70","test","1","94","94","5","",""
"null","229014","pSARL_v2","pSARL_v22c3r60w7","60a7d7b70d3cf8f48a8a490d","freq_resp","img/green_2bandit_b.png","70","70","test","","","","5","",""
"null","229173","pSARL_v2","pSARL_v22c3r60w7","60a7d7b70d3cf8f48a8a490d","fixation","img/fixation.png","null","","test","","","","","",""
"258.79999999701977","229439","pSARL_v2","pSARL_v22c3r60w7","60a7d7b70d3cf8f48a8a490d","freq","img/green_2bandit_b2.png","70","70","test","1","95","95","5","",""
"null","229989","pSARL_v2","pSARL_v22c3r60w7","60a7d7b70d3cf8f48a8a490d","freq_resp","img/green_2bandit_b.png","70","70","test","","","","5","",""
"null","230148","pSARL_v2","pSARL_v22c3r60w7","60a7d7b70d3cf8f48a8a490d","fixation","img/fixation.png","null","","test","","","","","",""
"235.09999999403954","230391","pSARL_v2","pSARL_v22c3r60w7","60a7d7b70d3cf8f48a8a490d","freq","img/green_2bandit_b2.png","70","70","test","1","96","96","5","",""
"null","230963","pSARL_v2","pSARL_v22c3r60w7","60a7d7b70d3cf8f48a8a490d","freq_resp","img/green_2bandit_b.png","70","70","test","","","","5","",""
"null","231121","pSARL_v2","pSARL_v22c3r60w7","60a7d7b70d3cf8f48a8a490d","fixation","img/fixation.png","null","","test","","","","","",""
"334.79999999701977","231464","pSARL_v2","pSARL_v22c3r60w7","60a7d7b70d3cf8f48a8a490d","freq","img/green_2bandit_b2.png","70","70","test","1","97","97","5","",""
"null","231937","pSARL_v2","pSARL_v22c3r60w7","60a7d7b70d3cf8f48a8a490d","freq_resp","img/green_2bandit_b.png","70","70","test","","","","5","",""
"null","232090","pSARL_v2","pSARL_v22c3r60w7","60a7d7b70d3cf8f48a8a490d","fixation","img/fixation.png","null","","test","","","","","",""
"273","232370","pSARL_v2","pSARL_v22c3r60w7","60a7d7b70d3cf8f48a8a490d","freq","img/green_2bandit_b2.png","70","70","test","1","98","98","5","",""
"null","232905","pSARL_v2","pSARL_v22c3r60w7","60a7d7b70d3cf8f48a8a490d","freq_resp","img/green_2bandit_b.png","70","70","test","","","","5","",""
"null","233061","pSARL_v2","pSARL_v22c3r60w7","60a7d7b70d3cf8f48a8a490d","fixation","img/fixation.png","null","","test","","","","","",""
"443.5","233510","pSARL_v2","pSARL_v22c3r60w7","60a7d7b70d3cf8f48a8a490d","freq","img/green_2bandit_b2.png","70","70","test","1","99","99","5","",""
"null","233875","pSARL_v2","pSARL_v22c3r60w7","60a7d7b70d3cf8f48a8a490d","freq_resp","img/green_2bandit_b.png","70","70","test","","","","5","",""
"null","234029","pSARL_v2","pSARL_v22c3r60w7","60a7d7b70d3cf8f48a8a490d","fixation","img/fixation.png","null","","test","","","","","",""
"314.1000000089407","234350","pSARL_v2","pSARL_v22c3r60w7","60a7d7b70d3cf8f48a8a490d","freq","img/green_2bandit_b2.png","70","70","test","1","100","100","5","",""
"null","234841","pSARL_v2","pSARL_v22c3r60w7","60a7d7b70d3cf8f48a8a490d","freq_resp","img/green_2bandit_b.png","70","70","test","","","","5","",""
"null","234995","pSARL_v2","pSARL_v22c3r60w7","60a7d7b70d3cf8f48a8a490d","fixation","img/fixation.png","null","","test","","","","","",""
"452.5","235453","pSARL_v2","pSARL_v22c3r60w7","60a7d7b70d3cf8f48a8a490d","freq","img/green_2bandit_b2.png","70","70","test","1","101","101","5","",""
"null","235809","pSARL_v2","pSARL_v22c3r60w7","60a7d7b70d3cf8f48a8a490d","freq_resp","img/green_2bandit_b.png","70","70","test","","","","5","",""
"null","235968","pSARL_v2","pSARL_v22c3r60w7","60a7d7b70d3cf8f48a8a490d","fixation","img/fixation.png","null","","test","","","","","",""
"491.20000000298023","236470","pSARL_v2","pSARL_v22c3r60w7","60a7d7b70d3cf8f48a8a490d","infreq","img/orange_2bandit_b2.png","68","68","test","1","102","102","5","",""
"null","236788","pSARL_v2","pSARL_v22c3r60w7","60a7d7b70d3cf8f48a8a490d","infreq_resp","img/orange_2bandit_b.png","68","68","test","","","","5","",""
"null","236946","pSARL_v2","pSARL_v22c3r60w7","60a7d7b70d3cf8f48a8a490d","fixation","img/fixation.png","null","","test","","","","","",""
"411","237364","pSARL_v2","pSARL_v22c3r60w7","60a7d7b70d3cf8f48a8a490d","freq","img/green_2bandit_b2.png","70","70","test","1","103","103","5","",""
"null","237761","pSARL_v2","pSARL_v22c3r60w7","60a7d7b70d3cf8f48a8a490d","freq_resp","img/green_2bandit_b.png","70","70","test","","","","5","",""
"null","237919","pSARL_v2","pSARL_v22c3r60w7","60a7d7b70d3cf8f48a8a490d","fixation","img/fixation.png","null","","test","","","","","",""
"270.70000000298023","238196","pSARL_v2","pSARL_v22c3r60w7","60a7d7b70d3cf8f48a8a490d","freq","img/green_2bandit_b2.png","70","70","test","1","104","104","5","",""
"null","238730","pSARL_v2","pSARL_v22c3r60w7","60a7d7b70d3cf8f48a8a490d","freq_resp","img/green_2bandit_b.png","70","70","test","","","","5","",""
"null","238888","pSARL_v2","pSARL_v22c3r60w7","60a7d7b70d3cf8f48a8a490d","fixation","img/fixation.png","null","","test","","","","","",""
"373.5","239270","pSARL_v2","pSARL_v22c3r60w7","60a7d7b70d3cf8f48a8a490d","freq","img/green_2bandit_b2.png","70","70","test","1","105","105","5","",""
"null","239703","pSARL_v2","pSARL_v22c3r60w7","60a7d7b70d3cf8f48a8a490d","freq_resp","img/green_2bandit_b.png","70","70","test","","","","5","",""
"null","239860","pSARL_v2","pSARL_v22c3r60w7","60a7d7b70d3cf8f48a8a490d","fixation","img/fixation.png","null","","test","","","","","",""
"363.6000000089407","240229","pSARL_v2","pSARL_v22c3r60w7","60a7d7b70d3cf8f48a8a490d","freq","img/green_2bandit_b2.png","70","70","test","1","106","106","5","",""
"null","240671","pSARL_v2","pSARL_v22c3r60w7","60a7d7b70d3cf8f48a8a490d","freq_resp","img/green_2bandit_b.png","70","70","test","","","","5","",""
"null","240828","pSARL_v2","pSARL_v22c3r60w7","60a7d7b70d3cf8f48a8a490d","fixation","img/fixation.png","null","","test","","","","","",""
"462.5","241296","pSARL_v2","pSARL_v22c3r60w7","60a7d7b70d3cf8f48a8a490d","freq","img/green_2bandit_b2.png","70","70","test","1","107","107","5","",""
"null","241641","pSARL_v2","pSARL_v22c3r60w7","60a7d7b70d3cf8f48a8a490d","freq_resp","img/green_2bandit_b.png","70","70","test","","","","5","",""
"null","241800","pSARL_v2","pSARL_v22c3r60w7","60a7d7b70d3cf8f48a8a490d","fixation","img/fixation.png","null","","test","","","","","",""
"395","242202","pSARL_v2","pSARL_v22c3r60w7","60a7d7b70d3cf8f48a8a490d","freq","img/green_2bandit_b2.png","70","70","test","1","108","108","5","",""
"null","242616","pSARL_v2","pSARL_v22c3r60w7","60a7d7b70d3cf8f48a8a490d","freq_resp","img/green_2bandit_b.png","70","70","test","","","","5","",""
"null","242775","pSARL_v2","pSARL_v22c3r60w7","60a7d7b70d3cf8f48a8a490d","fixation","img/fixation.png","null","","test","","","","","",""
"389","243171","pSARL_v2","pSARL_v22c3r60w7","60a7d7b70d3cf8f48a8a490d","freq","img/green_2bandit_b2.png","70","70","test","1","109","109","5","",""
"null","243589","pSARL_v2","pSARL_v22c3r60w7","60a7d7b70d3cf8f48a8a490d","freq_resp","img/green_2bandit_b.png","70","70","test","","","","5","",""
"null","243747","pSARL_v2","pSARL_v22c3r60w7","60a7d7b70d3cf8f48a8a490d","fixation","img/fixation.png","null","","test","","","","","",""
"416.40000000596046","244170","pSARL_v2","pSARL_v22c3r60w7","60a7d7b70d3cf8f48a8a490d","freq","img/green_2bandit_b2.png","70","70","test","1","110","110","5","",""
"null","244560","pSARL_v2","pSARL_v22c3r60w7","60a7d7b70d3cf8f48a8a490d","freq_resp","img/green_2bandit_b.png","70","70","test","","","","5","",""
"null","244719","pSARL_v2","pSARL_v22c3r60w7","60a7d7b70d3cf8f48a8a490d","fixation","img/fixation.png","null","","test","","","","","",""
"547.6000000089407","245273","pSARL_v2","pSARL_v22c3r60w7","60a7d7b70d3cf8f48a8a490d","freq","img/green_2bandit_b2.png","70","70","test","1","111","111","5","",""
"null","245533","pSARL_v2","pSARL_v22c3r60w7","60a7d7b70d3cf8f48a8a490d","freq_resp","img/green_2bandit_b.png","70","70","test","","","","5","",""
"null","245691","pSARL_v2","pSARL_v22c3r60w7","60a7d7b70d3cf8f48a8a490d","fixation","img/fixation.png","null","","test","","","","","",""
"500.5","246200","pSARL_v2","pSARL_v22c3r60w7","60a7d7b70d3cf8f48a8a490d","freq","img/green_2bandit_b2.png","70","70","test","1","112","112","5","",""
"null","246507","pSARL_v2","pSARL_v22c3r60w7","60a7d7b70d3cf8f48a8a490d","freq_resp","img/green_2bandit_b.png","70","70","test","","","","5","",""
"null","246664","pSARL_v2","pSARL_v22c3r60w7","60a7d7b70d3cf8f48a8a490d","fixation","img/fixation.png","null","","test","","","","","",""
"553","247221","pSARL_v2","pSARL_v22c3r60w7","60a7d7b70d3cf8f48a8a490d","infreq","img/orange_2bandit_b2.png","68","68","test","1","113","113","5","",""
"null","247475","pSARL_v2","pSARL_v22c3r60w7","60a7d7b70d3cf8f48a8a490d","infreq_resp","img/orange_2bandit_b.png","68","68","test","","","","5","",""
"null","247633","pSARL_v2","pSARL_v22c3r60w7","60a7d7b70d3cf8f48a8a490d","fixation","img/fixation.png","null","","test","","","","","",""
"397.40000000596046","248039","pSARL_v2","pSARL_v22c3r60w7","60a7d7b70d3cf8f48a8a490d","freq","img/green_2bandit_b2.png","70","70","test","1","114","114","5","",""
"null","248448","pSARL_v2","pSARL_v22c3r60w7","60a7d7b70d3cf8f48a8a490d","freq_resp","img/green_2bandit_b.png","70","70","test","","","","5","",""
"null","248605","pSARL_v2","pSARL_v22c3r60w7","60a7d7b70d3cf8f48a8a490d","fixation","img/fixation.png","null","","test","","","","","",""
"573.7999999970198","249185","pSARL_v2","pSARL_v22c3r60w7","60a7d7b70d3cf8f48a8a490d","reward","img/slot.png","74","","test","","","","","",""
"null","249942","pSARL_v2","pSARL_v22c3r60w7","60a7d7b70d3cf8f48a8a490d","points","<div class=""veryhighPoints""> +1 </div>","null","na","test","","","","5","1","4"
"285.09999999403954","250233","pSARL_v2","pSARL_v22c3r60w7","60a7d7b70d3cf8f48a8a490d","freq","img/green_2bandit_b2.png","70","70","test","1","115","115","6","",""
"null","250755","pSARL_v2","pSARL_v22c3r60w7","60a7d7b70d3cf8f48a8a490d","freq_resp","img/green_2bandit_b.png","70","70","test","","","","6","",""
"null","250913","pSARL_v2","pSARL_v22c3r60w7","60a7d7b70d3cf8f48a8a490d","fixation","img/fixation.png","null","","test","","","","","",""
"103.20000000298023","251021","pSARL_v2","pSARL_v22c3r60w7","60a7d7b70d3cf8f48a8a490d","infreq","img/orange_2bandit_b2.png","70","68","test","0","116","116","6","",""
"null","251721","pSARL_v2","pSARL_v22c3r60w7","60a7d7b70d3cf8f48a8a490d","infreq_resp","img/orange_2bandit_b.png","70","68","test","","","","6","",""
"null","251878","pSARL_v2","pSARL_v22c3r60w7","60a7d7b70d3cf8f48a8a490d","fixation","img/fixation.png","null","","test","","","","","",""
"412.6000000089407","252296","pSARL_v2","pSARL_v22c3r60w7","60a7d7b70d3cf8f48a8a490d","freq","img/green_2bandit_b2.png","70","70","test","1","117","117","6","",""
"null","252692","pSARL_v2","pSARL_v22c3r60w7","60a7d7b70d3cf8f48a8a490d","freq_resp","img/green_2bandit_b.png","70","70","test","","","","6","",""
"null","252850","pSARL_v2","pSARL_v22c3r60w7","60a7d7b70d3cf8f48a8a490d","fixation","img/fixation.png","null","","test","","","","","",""
"475.8999999910593","253333","pSARL_v2","pSARL_v22c3r60w7","60a7d7b70d3cf8f48a8a490d","freq","img/green_2bandit_b2.png","70","70","test","1","118","118","6","",""
"null","253666","pSARL_v2","pSARL_v22c3r60w7","60a7d7b70d3cf8f48a8a490d","freq_resp","img/green_2bandit_b.png","70","70","test","","","","6","",""
"null","253824","pSARL_v2","pSARL_v22c3r60w7","60a7d7b70d3cf8f48a8a490d","fixation","img/fixation.png","null","","test","","","","","",""
"502.90000000596046","254333","pSARL_v2","pSARL_v22c3r60w7","60a7d7b70d3cf8f48a8a490d","freq","img/green_2bandit_b2.png","70","70","test","1","119","119","6","",""
"null","254638","pSARL_v2","pSARL_v22c3r60w7","60a7d7b70d3cf8f48a8a490d","freq_resp","img/green_2bandit_b.png","70","70","test","","","","6","",""
"null","254796","pSARL_v2","pSARL_v22c3r60w7","60a7d7b70d3cf8f48a8a490d","fixation","img/fixation.png","null","","test","","","","","",""
"603.7000000029802","255408","pSARL_v2","pSARL_v22c3r60w7","60a7d7b70d3cf8f48a8a490d","freq","img/green_2bandit_b2.png","70","70","test","1","120","120","6","",""
"null","255612","pSARL_v2","pSARL_v22c3r60w7","60a7d7b70d3cf8f48a8a490d","freq_resp","img/green_2bandit_b.png","70","70","test","","","","6","",""
"null","255772","pSARL_v2","pSARL_v22c3r60w7","60a7d7b70d3cf8f48a8a490d","fixation","img/fixation.png","null","","test","","","","","",""
"null","256582","pSARL_v2","pSARL_v22c3r60w7","60a7d7b70d3cf8f48a8a490d","freq","img/green_2bandit_b2.png","null","70","test","0","121","121","6","",""
"null","256740","pSARL_v2","pSARL_v22c3r60w7","60a7d7b70d3cf8f48a8a490d","fixation","img/fixation.png","null","","test","","","","","",""
"668.6000000089407","257416","pSARL_v2","pSARL_v22c3r60w7","60a7d7b70d3cf8f48a8a490d","freq","img/green_2bandit_b2.png","70","70","test","1","122","122","6","",""
"null","257554","pSARL_v2","pSARL_v22c3r60w7","60a7d7b70d3cf8f48a8a490d","freq_resp","img/green_2bandit_b.png","70","70","test","","","","6","",""
"null","257711","pSARL_v2","pSARL_v22c3r60w7","60a7d7b70d3cf8f48a8a490d","fixation","img/fixation.png","null","","test","","","","","",""
"488.79999999701977","258206","pSARL_v2","pSARL_v22c3r60w7","60a7d7b70d3cf8f48a8a490d","freq","img/green_2bandit_b2.png","70","70","test","1","123","123","6","",""
"null","258524","pSARL_v2","pSARL_v22c3r60w7","60a7d7b70d3cf8f48a8a490d","freq_resp","img/green_2bandit_b.png","70","70","test","","","","6","",""
"null","258684","pSARL_v2","pSARL_v22c3r60w7","60a7d7b70d3cf8f48a8a490d","fixation","img/fixation.png","null","","test","","","","","",""
"355.5","259047","pSARL_v2","pSARL_v22c3r60w7","60a7d7b70d3cf8f48a8a490d","freq","img/green_2bandit_b2.png","70","70","test","1","124","124","6","",""
"null","259498","pSARL_v2","pSARL_v22c3r60w7","60a7d7b70d3cf8f48a8a490d","freq_resp","img/green_2bandit_b.png","70","70","test","","","","6","",""
"null","259655","pSARL_v2","pSARL_v22c3r60w7","60a7d7b70d3cf8f48a8a490d","fixation","img/fixation.png","null","","test","","","","","",""
"430.40000000596046","260092","pSARL_v2","pSARL_v22c3r60w7","60a7d7b70d3cf8f48a8a490d","infreq","img/orange_2bandit_b2.png","68","68","test","1","125","125","6","",""
"null","260468","pSARL_v2","pSARL_v22c3r60w7","60a7d7b70d3cf8f48a8a490d","infreq_resp","img/orange_2bandit_b.png","68","68","test","","","","6","",""
"null","260626","pSARL_v2","pSARL_v22c3r60w7","60a7d7b70d3cf8f48a8a490d","fixation","img/fixation.png","null","","test","","","","","",""
"515.5","261146","pSARL_v2","pSARL_v22c3r60w7","60a7d7b70d3cf8f48a8a490d","freq","img/green_2bandit_b2.png","70","70","test","1","126","126","6","",""
"null","261434","pSARL_v2","pSARL_v22c3r60w7","60a7d7b70d3cf8f48a8a490d","freq_resp","img/green_2bandit_b.png","70","70","test","","","","6","",""
"null","261593","pSARL_v2","pSARL_v22c3r60w7","60a7d7b70d3cf8f48a8a490d","fixation","img/fixation.png","null","","test","","","","","",""
"452.79999999701977","262052","pSARL_v2","pSARL_v22c3r60w7","60a7d7b70d3cf8f48a8a490d","infreq","img/orange_2bandit_b2.png","68","68","test","1","127","127","6","",""
"null","262407","pSARL_v2","pSARL_v22c3r60w7","60a7d7b70d3cf8f48a8a490d","infreq_resp","img/orange_2bandit_b.png","68","68","test","","","","6","",""
"null","262564","pSARL_v2","pSARL_v22c3r60w7","60a7d7b70d3cf8f48a8a490d","fixation","img/fixation.png","null","","test","","","","","",""
"377.20000000298023","262948","pSARL_v2","pSARL_v22c3r60w7","60a7d7b70d3cf8f48a8a490d","freq","img/green_2bandit_b2.png","70","70","test","1","128","128","6","",""
"null","263374","pSARL_v2","pSARL_v22c3r60w7","60a7d7b70d3cf8f48a8a490d","freq_resp","img/green_2bandit_b.png","70","70","test","","","","6","",""
"null","263531","pSARL_v2","pSARL_v22c3r60w7","60a7d7b70d3cf8f48a8a490d","fixation","img/fixation.png","null","","test","","","","","",""
"484.59999999403954","264022","pSARL_v2","pSARL_v22c3r60w7","60a7d7b70d3cf8f48a8a490d","freq","img/green_2bandit_b2.png","70","70","test","1","129","129","6","",""
"null","264346","pSARL_v2","pSARL_v22c3r60w7","60a7d7b70d3cf8f48a8a490d","freq_resp","img/green_2bandit_b.png","70","70","test","","","","6","",""
"null","264503","pSARL_v2","pSARL_v22c3r60w7","60a7d7b70d3cf8f48a8a490d","fixation","img/fixation.png","null","","test","","","","","",""
"369.59999999403954","264879","pSARL_v2","pSARL_v22c3r60w7","60a7d7b70d3cf8f48a8a490d","freq","img/green_2bandit_b2.png","70","70","test","1","130","130","6","",""
"null","265316","pSARL_v2","pSARL_v22c3r60w7","60a7d7b70d3cf8f48a8a490d","freq_resp","img/green_2bandit_b.png","70","70","test","","","","6","",""
"null","265473","pSARL_v2","pSARL_v22c3r60w7","60a7d7b70d3cf8f48a8a490d","fixation","img/fixation.png","null","","test","","","","","",""
"380.20000000298023","265859","pSARL_v2","pSARL_v22c3r60w7","60a7d7b70d3cf8f48a8a490d","freq","img/green_2bandit_b2.png","70","70","test","1","131","131","6","",""
"null","266281","pSARL_v2","pSARL_v22c3r60w7","60a7d7b70d3cf8f48a8a490d","freq_resp","img/green_2bandit_b.png","70","70","test","","","","6","",""
"null","266438","pSARL_v2","pSARL_v22c3r60w7","60a7d7b70d3cf8f48a8a490d","fixation","img/fixation.png","null","","test","","","","","",""
"312.20000000298023","266757","pSARL_v2","pSARL_v22c3r60w7","60a7d7b70d3cf8f48a8a490d","freq","img/green_2bandit_b2.png","70","70","test","1","132","132","6","",""
"null","267252","pSARL_v2","pSARL_v22c3r60w7","60a7d7b70d3cf8f48a8a490d","freq_resp","img/green_2bandit_b.png","70","70","test","","","","6","",""
"null","267408","pSARL_v2","pSARL_v22c3r60w7","60a7d7b70d3cf8f48a8a490d","fixation","img/fixation.png","null","","test","","","","","",""
"424.5","267840","pSARL_v2","pSARL_v22c3r60w7","60a7d7b70d3cf8f48a8a490d","freq","img/green_2bandit_b2.png","70","70","test","1","133","133","6","",""
"null","268222","pSARL_v2","pSARL_v22c3r60w7","60a7d7b70d3cf8f48a8a490d","freq_resp","img/green_2bandit_b.png","70","70","test","","","","6","",""
"null","268381","pSARL_v2","pSARL_v22c3r60w7","60a7d7b70d3cf8f48a8a490d","fixation","img/fixation.png","null","","test","","","","","",""
"449.79999999701977","268838","pSARL_v2","pSARL_v22c3r60w7","60a7d7b70d3cf8f48a8a490d","freq","img/green_2bandit_b2.png","70","70","test","1","134","134","6","",""
"null","269195","pSARL_v2","pSARL_v22c3r60w7","60a7d7b70d3cf8f48a8a490d","freq_resp","img/green_2bandit_b.png","70","70","test","","","","6","",""
"null","269353","pSARL_v2","pSARL_v22c3r60w7","60a7d7b70d3cf8f48a8a490d","fixation","img/fixation.png","null","","test","","","","","",""
"431.70000000298023","269790","pSARL_v2","pSARL_v22c3r60w7","60a7d7b70d3cf8f48a8a490d","freq","img/green_2bandit_b2.png","70","70","test","1","135","135","6","",""
"null","270167","pSARL_v2","pSARL_v22c3r60w7","60a7d7b70d3cf8f48a8a490d","freq_resp","img/green_2bandit_b.png","70","70","test","","","","6","",""
"null","270325","pSARL_v2","pSARL_v22c3r60w7","60a7d7b70d3cf8f48a8a490d","fixation","img/fixation.png","null","","test","","","","","",""
"259.70000000298023","270591","pSARL_v2","pSARL_v22c3r60w7","60a7d7b70d3cf8f48a8a490d","freq","img/green_2bandit_b2.png","70","70","test","1","136","136","6","",""
"null","271141","pSARL_v2","pSARL_v22c3r60w7","60a7d7b70d3cf8f48a8a490d","freq_resp","img/green_2bandit_b.png","70","70","test","","","","6","",""
"null","271297","pSARL_v2","pSARL_v22c3r60w7","60a7d7b70d3cf8f48a8a490d","fixation","img/fixation.png","null","","test","","","","","",""
"542.6999999880791","271847","pSARL_v2","pSARL_v22c3r60w7","60a7d7b70d3cf8f48a8a490d","freq","img/green_2bandit_b2.png","70","70","test","1","137","137","6","",""
"null","272113","pSARL_v2","pSARL_v22c3r60w7","60a7d7b70d3cf8f48a8a490d","freq_resp","img/green_2bandit_b.png","70","70","test","","","","6","",""
"null","272273","pSARL_v2","pSARL_v22c3r60w7","60a7d7b70d3cf8f48a8a490d","fixation","img/fixation.png","null","","test","","","","","",""
"385.09999999403954","272666","pSARL_v2","pSARL_v22c3r60w7","60a7d7b70d3cf8f48a8a490d","freq","img/green_2bandit_b2.png","70","70","test","1","138","138","6","",""
"null","273088","pSARL_v2","pSARL_v22c3r60w7","60a7d7b70d3cf8f48a8a490d","freq_resp","img/green_2bandit_b.png","70","70","test","","","","6","",""
"null","273246","pSARL_v2","pSARL_v22c3r60w7","60a7d7b70d3cf8f48a8a490d","fixation","img/fixation.png","null","","test","","","","","",""
"628.7999999970198","273881","pSARL_v2","pSARL_v22c3r60w7","60a7d7b70d3cf8f48a8a490d","reward","img/slot.png","74","","test","","","","","",""
"null","274637","pSARL_v2","pSARL_v22c3r60w7","60a7d7b70d3cf8f48a8a490d","points","<div class=""verylowPoints""> -7 </div>","null","na","test","","","","6","-7","5"
"368.40000000596046","275012","pSARL_v2","pSARL_v22c3r60w7","60a7d7b70d3cf8f48a8a490d","freq","img/green_2bandit_b2.png","70","70","test","1","139","139","7","",""
"null","275451","pSARL_v2","pSARL_v22c3r60w7","60a7d7b70d3cf8f48a8a490d","freq_resp","img/green_2bandit_b.png","70","70","test","","","","7","",""
"null","275609","pSARL_v2","pSARL_v22c3r60w7","60a7d7b70d3cf8f48a8a490d","fixation","img/fixation.png","null","","test","","","","","",""
"289.8999999910593","275907","pSARL_v2","pSARL_v22c3r60w7","60a7d7b70d3cf8f48a8a490d","freq","img/green_2bandit_b2.png","70","70","test","1","140","140","7","",""
"null","276423","pSARL_v2","pSARL_v22c3r60w7","60a7d7b70d3cf8f48a8a490d","freq_resp","img/green_2bandit_b.png","70","70","test","","","","7","",""
"null","276582","pSARL_v2","pSARL_v22c3r60w7","60a7d7b70d3cf8f48a8a490d","fixation","img/fixation.png","null","","test","","","","","",""
"204.29999999701977","276794","pSARL_v2","pSARL_v22c3r60w7","60a7d7b70d3cf8f48a8a490d","infreq","img/orange_2bandit_b2.png","70","68","test","0","141","141","7","",""
"null","277397","pSARL_v2","pSARL_v22c3r60w7","60a7d7b70d3cf8f48a8a490d","infreq_resp","img/orange_2bandit_b.png","70","68","test","","","","7","",""
"null","277556","pSARL_v2","pSARL_v22c3r60w7","60a7d7b70d3cf8f48a8a490d","fixation","img/fixation.png","null","","test","","","","","",""
"511.29999999701977","278074","pSARL_v2","pSARL_v22c3r60w7","60a7d7b70d3cf8f48a8a490d","freq","img/green_2bandit_b2.png","70","70","test","1","142","142","7","",""
"null","278369","pSARL_v2","pSARL_v22c3r60w7","60a7d7b70d3cf8f48a8a490d","freq_resp","img/green_2bandit_b.png","70","70","test","","","","7","",""
"null","278527","pSARL_v2","pSARL_v22c3r60w7","60a7d7b70d3cf8f48a8a490d","fixation","img/fixation.png","null","","test","","","","","",""
"null","279334","pSARL_v2","pSARL_v22c3r60w7","60a7d7b70d3cf8f48a8a490d","freq","img/green_2bandit_b2.png","null","70","test","0","143","143","7","",""
"null","279492","pSARL_v2","pSARL_v22c3r60w7","60a7d7b70d3cf8f48a8a490d","fixation","img/fixation.png","null","","test","","","","","",""
"451.6000000089407","279950","pSARL_v2","pSARL_v22c3r60w7","60a7d7b70d3cf8f48a8a490d","freq","img/green_2bandit_b2.png","70","70","test","1","144","144","7","",""
"null","280305","pSARL_v2","pSARL_v22c3r60w7","60a7d7b70d3cf8f48a8a490d","freq_resp","img/green_2bandit_b.png","70","70","test","","","","7","",""
"null","280465","pSARL_v2","pSARL_v22c3r60w7","60a7d7b70d3cf8f48a8a490d","fixation","img/fixation.png","null","","test","","","","","",""
"353.59999999403954","280824","pSARL_v2","pSARL_v22c3r60w7","60a7d7b70d3cf8f48a8a490d","freq","img/green_2bandit_b2.png","70","70","test","1","145","145","7","",""
"null","281279","pSARL_v2","pSARL_v22c3r60w7","60a7d7b70d3cf8f48a8a490d","freq_resp","img/green_2bandit_b.png","70","70","test","","","","7","",""
"null","281439","pSARL_v2","pSARL_v22c3r60w7","60a7d7b70d3cf8f48a8a490d","fixation","img/fixation.png","null","","test","","","","","",""
"360.80000001192093","281806","pSARL_v2","pSARL_v22c3r60w7","60a7d7b70d3cf8f48a8a490d","freq","img/green_2bandit_b2.png","70","70","test","1","146","146","7","",""
"null","282254","pSARL_v2","pSARL_v22c3r60w7","60a7d7b70d3cf8f48a8a490d","freq_resp","img/green_2bandit_b.png","70","70","test","","","","7","",""
"null","282412","pSARL_v2","pSARL_v22c3r60w7","60a7d7b70d3cf8f48a8a490d","fixation","img/fixation.png","null","","test","","","","","",""
"350","282771","pSARL_v2","pSARL_v22c3r60w7","60a7d7b70d3cf8f48a8a490d","freq","img/green_2bandit_b2.png","70","70","test","1","147","147","7","",""
"null","283229","pSARL_v2","pSARL_v22c3r60w7","60a7d7b70d3cf8f48a8a490d","freq_resp","img/green_2bandit_b.png","70","70","test","","","","7","",""
"null","283383","pSARL_v2","pSARL_v22c3r60w7","60a7d7b70d3cf8f48a8a490d","fixation","img/fixation.png","null","","test","","","","","",""
"360","283752","pSARL_v2","pSARL_v22c3r60w7","60a7d7b70d3cf8f48a8a490d","freq","img/green_2bandit_b2.png","70","70","test","1","148","148","7","",""
"null","284200","pSARL_v2","pSARL_v22c3r60w7","60a7d7b70d3cf8f48a8a490d","freq_resp","img/green_2bandit_b.png","70","70","test","","","","7","",""
"null","284358","pSARL_v2","pSARL_v22c3r60w7","60a7d7b70d3cf8f48a8a490d","fixation","img/fixation.png","null","","test","","","","","",""
"437.79999999701977","284804","pSARL_v2","pSARL_v22c3r60w7","60a7d7b70d3cf8f48a8a490d","freq","img/green_2bandit_b2.png","70","70","test","1","149","149","7","",""
"null","285175","pSARL_v2","pSARL_v22c3r60w7","60a7d7b70d3cf8f48a8a490d","freq_resp","img/green_2bandit_b.png","70","70","test","","","","7","",""
"null","285333","pSARL_v2","pSARL_v22c3r60w7","60a7d7b70d3cf8f48a8a490d","fixation","img/fixation.png","null","","test","","","","","",""
"594.7000000029802","285935","pSARL_v2","pSARL_v22c3r60w7","60a7d7b70d3cf8f48a8a490d","infreq","img/orange_2bandit_b2.png","68","68","test","1","150","150","7","",""
"null","286146","pSARL_v2","pSARL_v22c3r60w7","60a7d7b70d3cf8f48a8a490d","infreq_resp","img/orange_2bandit_b.png","68","68","test","","","","7","",""
"null","286304","pSARL_v2","pSARL_v22c3r60w7","60a7d7b70d3cf8f48a8a490d","fixation","img/fixation.png","null","","test","","","","","",""
"757.2000000029802","287068","pSARL_v2","pSARL_v22c3r60w7","60a7d7b70d3cf8f48a8a490d","freq","img/green_2bandit_b2.png","70","70","test","1","151","151","7","",""
"null","287114","pSARL_v2","pSARL_v22c3r60w7","60a7d7b70d3cf8f48a8a490d","freq_resp","img/green_2bandit_b.png","70","70","test","","","","7","",""
"null","287272","pSARL_v2","pSARL_v22c3r60w7","60a7d7b70d3cf8f48a8a490d","fixation","img/fixation.png","null","","test","","","","","",""
"457.6000000089407","287736","pSARL_v2","pSARL_v22c3r60w7","60a7d7b70d3cf8f48a8a490d","freq","img/green_2bandit_b2.png","70","70","test","1","152","152","7","",""
"null","288088","pSARL_v2","pSARL_v22c3r60w7","60a7d7b70d3cf8f48a8a490d","freq_resp","img/green_2bandit_b.png","70","70","test","","","","7","",""
"null","288243","pSARL_v2","pSARL_v22c3r60w7","60a7d7b70d3cf8f48a8a490d","fixation","img/fixation.png","null","","test","","","","","",""
"345.19999998807907","288593","pSARL_v2","pSARL_v22c3r60w7","60a7d7b70d3cf8f48a8a490d","freq","img/green_2bandit_b2.png","70","70","test","1","153","153","7","",""
"null","289054","pSARL_v2","pSARL_v22c3r60w7","60a7d7b70d3cf8f48a8a490d","freq_resp","img/green_2bandit_b.png","70","70","test","","","","7","",""
"null","289211","pSARL_v2","pSARL_v22c3r60w7","60a7d7b70d3cf8f48a8a490d","fixation","img/fixation.png","null","","test","","","","","",""
"327.1000000089407","289547","pSARL_v2","pSARL_v22c3r60w7","60a7d7b70d3cf8f48a8a490d","freq","img/green_2bandit_b2.png","70","70","test","1","154","154","7","",""
"null","290027","pSARL_v2","pSARL_v22c3r60w7","60a7d7b70d3cf8f48a8a490d","freq_resp","img/green_2bandit_b.png","70","70","test","","","","7","",""
"null","290186","pSARL_v2","pSARL_v22c3r60w7","60a7d7b70d3cf8f48a8a490d","fixation","img/fixation.png","null","","test","","","","","",""
"333.09999999403954","290526","pSARL_v2","pSARL_v22c3r60w7","60a7d7b70d3cf8f48a8a490d","freq","img/green_2bandit_b2.png","70","70","test","1","155","155","7","",""
"null","291000","pSARL_v2","pSARL_v22c3r60w7","60a7d7b70d3cf8f48a8a490d","freq_resp","img/green_2bandit_b.png","70","70","test","","","","7","",""
"null","291157","pSARL_v2","pSARL_v22c3r60w7","60a7d7b70d3cf8f48a8a490d","fixation","img/fixation.png","null","","test","","","","","",""
"259.20000000298023","291423","pSARL_v2","pSARL_v22c3r60w7","60a7d7b70d3cf8f48a8a490d","freq","img/green_2bandit_b2.png","70","70","test","1","156","156","7","",""
"null","291971","pSARL_v2","pSARL_v22c3r60w7","60a7d7b70d3cf8f48a8a490d","freq_resp","img/green_2bandit_b.png","70","70","test","","","","7","",""
"null","292128","pSARL_v2","pSARL_v22c3r60w7","60a7d7b70d3cf8f48a8a490d","fixation","img/fixation.png","null","","test","","","","","",""
"202.20000000298023","292338","pSARL_v2","pSARL_v22c3r60w7","60a7d7b70d3cf8f48a8a490d","freq","img/green_2bandit_b2.png","70","70","test","1","157","157","7","",""
"null","292943","pSARL_v2","pSARL_v22c3r60w7","60a7d7b70d3cf8f48a8a490d","freq_resp","img/green_2bandit_b.png","70","70","test","","","","7","",""
"null","293100","pSARL_v2","pSARL_v22c3r60w7","60a7d7b70d3cf8f48a8a490d","fixation","img/fixation.png","null","","test","","","","","",""
"341.5","293448","pSARL_v2","pSARL_v22c3r60w7","60a7d7b70d3cf8f48a8a490d","freq","img/green_2bandit_b2.png","70","70","test","1","158","158","7","",""
"null","293912","pSARL_v2","pSARL_v22c3r60w7","60a7d7b70d3cf8f48a8a490d","freq_resp","img/green_2bandit_b.png","70","70","test","","","","7","",""
"null","294069","pSARL_v2","pSARL_v22c3r60w7","60a7d7b70d3cf8f48a8a490d","fixation","img/fixation.png","null","","test","","","","","",""
"373.09999999403954","294449","pSARL_v2","pSARL_v22c3r60w7","60a7d7b70d3cf8f48a8a490d","freq","img/green_2bandit_b2.png","70","70","test","1","159","159","7","",""
"null","294882","pSARL_v2","pSARL_v22c3r60w7","60a7d7b70d3cf8f48a8a490d","freq_resp","img/green_2bandit_b.png","70","70","test","","","","7","",""
"null","295038","pSARL_v2","pSARL_v22c3r60w7","60a7d7b70d3cf8f48a8a490d","fixation","img/fixation.png","null","","test","","","","","",""
"352.79999999701977","295395","pSARL_v2","pSARL_v22c3r60w7","60a7d7b70d3cf8f48a8a490d","freq","img/green_2bandit_b2.png","70","70","test","1","160","160","7","",""
"null","295850","pSARL_v2","pSARL_v22c3r60w7","60a7d7b70d3cf8f48a8a490d","freq_resp","img/green_2bandit_b.png","70","70","test","","","","7","",""
"null","296007","pSARL_v2","pSARL_v22c3r60w7","60a7d7b70d3cf8f48a8a490d","fixation","img/fixation.png","null","","test","","","","","",""
"281.09999999403954","296296","pSARL_v2","pSARL_v22c3r60w7","60a7d7b70d3cf8f48a8a490d","freq","img/green_2bandit_b2.png","70","70","test","1","161","161","7","",""
"null","296822","pSARL_v2","pSARL_v22c3r60w7","60a7d7b70d3cf8f48a8a490d","freq_resp","img/green_2bandit_b.png","70","70","test","","","","7","",""
"null","296979","pSARL_v2","pSARL_v22c3r60w7","60a7d7b70d3cf8f48a8a490d","fixation","img/fixation.png","null","","test","","","","","",""
"272.6000000089407","297259","pSARL_v2","pSARL_v22c3r60w7","60a7d7b70d3cf8f48a8a490d","freq","img/green_2bandit_b2.png","70","70","test","1","162","162","7","",""
"null","297793","pSARL_v2","pSARL_v22c3r60w7","60a7d7b70d3cf8f48a8a490d","freq_resp","img/green_2bandit_b.png","70","70","test","","","","7","",""
"null","297950","pSARL_v2","pSARL_v22c3r60w7","60a7d7b70d3cf8f48a8a490d","fixation","img/fixation.png","null","","test","","","","","",""
"308.29999999701977","298265","pSARL_v2","pSARL_v22c3r60w7","60a7d7b70d3cf8f48a8a490d","freq","img/green_2bandit_b2.png","70","70","test","1","163","163","7","",""
"null","298763","pSARL_v2","pSARL_v22c3r60w7","60a7d7b70d3cf8f48a8a490d","freq_resp","img/green_2bandit_b.png","70","70","test","","","","7","",""
"null","298922","pSARL_v2","pSARL_v22c3r60w7","60a7d7b70d3cf8f48a8a490d","fixation","img/fixation.png","null","","test","","","","","",""
"618.4000000059605","299547","pSARL_v2","pSARL_v22c3r60w7","60a7d7b70d3cf8f48a8a490d","reward","img/slot.png","74","","test","","","","","",""
"null","300303","pSARL_v2","pSARL_v22c3r60w7","60a7d7b70d3cf8f48a8a490d","points","<div class=""verylowPoints""> -6 </div>","null","na","test","","","","7","-6","6"
"311.40000000596046","300618","pSARL_v2","pSARL_v22c3r60w7","60a7d7b70d3cf8f48a8a490d","freq","img/green_2bandit_b2.png","70","70","test","1","164","164","8","",""
"null","301113","pSARL_v2","pSARL_v22c3r60w7","60a7d7b70d3cf8f48a8a490d","freq_resp","img/green_2bandit_b.png","70","70","test","","","","8","",""
"null","301270","pSARL_v2","pSARL_v22c3r60w7","60a7d7b70d3cf8f48a8a490d","fixation","img/fixation.png","null","","test","","","","","",""
"100.59999999403954","301379","pSARL_v2","pSARL_v22c3r60w7","60a7d7b70d3cf8f48a8a490d","freq","img/green_2bandit_b2.png","70","70","test","1","165","165","8","",""
"null","302088","pSARL_v2","pSARL_v22c3r60w7","60a7d7b70d3cf8f48a8a490d","freq_resp","img/green_2bandit_b.png","70","70","test","","","","8","",""
"null","302247","pSARL_v2","pSARL_v22c3r60w7","60a7d7b70d3cf8f48a8a490d","fixation","img/fixation.png","null","","test","","","","","",""
"526.2999999970198","302780","pSARL_v2","pSARL_v22c3r60w7","60a7d7b70d3cf8f48a8a490d","freq","img/green_2bandit_b2.png","70","70","test","1","166","166","8","",""
"null","303061","pSARL_v2","pSARL_v22c3r60w7","60a7d7b70d3cf8f48a8a490d","freq_resp","img/green_2bandit_b.png","70","70","test","","","","8","",""
"null","303218","pSARL_v2","pSARL_v22c3r60w7","60a7d7b70d3cf8f48a8a490d","fixation","img/fixation.png","null","","test","","","","","",""
"216.09999999403954","303441","pSARL_v2","pSARL_v22c3r60w7","60a7d7b70d3cf8f48a8a490d","freq","img/green_2bandit_b2.png","70","70","test","1","167","167","8","",""
"null","304032","pSARL_v2","pSARL_v22c3r60w7","60a7d7b70d3cf8f48a8a490d","freq_resp","img/green_2bandit_b.png","70","70","test","","","","8","",""
"null","304191","pSARL_v2","pSARL_v22c3r60w7","60a7d7b70d3cf8f48a8a490d","fixation","img/fixation.png","null","","test","","","","","",""
"251.59999999403954","304450","pSARL_v2","pSARL_v22c3r60w7","60a7d7b70d3cf8f48a8a490d","freq","img/green_2bandit_b2.png","70","70","test","1","168","168","8","",""
"null","305006","pSARL_v2","pSARL_v22c3r60w7","60a7d7b70d3cf8f48a8a490d","freq_resp","img/green_2bandit_b.png","70","70","test","","","","8","",""
"null","305159","pSARL_v2","pSARL_v22c3r60w7","60a7d7b70d3cf8f48a8a490d","fixation","img/fixation.png","null","","test","","","","","",""
"179.09999999403954","305345","pSARL_v2","pSARL_v22c3r60w7","60a7d7b70d3cf8f48a8a490d","freq","img/green_2bandit_b2.png","70","70","test","1","169","169","8","",""
"null","305973","pSARL_v2","pSARL_v22c3r60w7","60a7d7b70d3cf8f48a8a490d","freq_resp","img/green_2bandit_b.png","70","70","test","","","","8","",""
"null","306130","pSARL_v2","pSARL_v22c3r60w7","60a7d7b70d3cf8f48a8a490d","fixation","img/fixation.png","null","","test","","","","","",""
"158.29999999701977","306292","pSARL_v2","pSARL_v22c3r60w7","60a7d7b70d3cf8f48a8a490d","freq","img/green_2bandit_b2.png","70","70","test","1","170","170","8","",""
"null","306939","pSARL_v2","pSARL_v22c3r60w7","60a7d7b70d3cf8f48a8a490d","freq_resp","img/green_2bandit_b.png","70","70","test","","","","8","",""
"null","307094","pSARL_v2","pSARL_v22c3r60w7","60a7d7b70d3cf8f48a8a490d","fixation","img/fixation.png","null","","test","","","","","",""
"249.59999999403954","307350","pSARL_v2","pSARL_v22c3r60w7","60a7d7b70d3cf8f48a8a490d","freq","img/green_2bandit_b2.png","70","70","test","1","171","171","8","",""
"null","307907","pSARL_v2","pSARL_v22c3r60w7","60a7d7b70d3cf8f48a8a490d","freq_resp","img/green_2bandit_b.png","70","70","test","","","","8","",""
"null","308063","pSARL_v2","pSARL_v22c3r60w7","60a7d7b70d3cf8f48a8a490d","fixation","img/fixation.png","null","","test","","","","","",""
"269.8999999910593","308341","pSARL_v2","pSARL_v22c3r60w7","60a7d7b70d3cf8f48a8a490d","freq","img/green_2bandit_b2.png","70","70","test","1","172","172","8","",""
"null","308878","pSARL_v2","pSARL_v22c3r60w7","60a7d7b70d3cf8f48a8a490d","freq_resp","img/green_2bandit_b.png","70","70","test","","","","8","",""
"null","309035","pSARL_v2","pSARL_v22c3r60w7","60a7d7b70d3cf8f48a8a490d","fixation","img/fixation.png","null","","test","","","","","",""
"268.5","309310","pSARL_v2","pSARL_v22c3r60w7","60a7d7b70d3cf8f48a8a490d","freq","img/green_2bandit_b2.png","70","70","test","1","173","173","8","",""
"null","309848","pSARL_v2","pSARL_v22c3r60w7","60a7d7b70d3cf8f48a8a490d","freq_resp","img/green_2bandit_b.png","70","70","test","","","","8","",""
"null","310005","pSARL_v2","pSARL_v22c3r60w7","60a7d7b70d3cf8f48a8a490d","fixation","img/fixation.png","null","","test","","","","","",""
"335.90000000596046","310349","pSARL_v2","pSARL_v22c3r60w7","60a7d7b70d3cf8f48a8a490d","infreq","img/orange_2bandit_b2.png","70","68","test","0","174","174","8","",""
"null","310820","pSARL_v2","pSARL_v22c3r60w7","60a7d7b70d3cf8f48a8a490d","infreq_resp","img/orange_2bandit_b.png","70","68","test","","","","8","",""
"null","310978","pSARL_v2","pSARL_v22c3r60w7","60a7d7b70d3cf8f48a8a490d","fixation","img/fixation.png","null","","test","","","","","",""
"446.29999999701977","311432","pSARL_v2","pSARL_v22c3r60w7","60a7d7b70d3cf8f48a8a490d","freq","img/green_2bandit_b2.png","70","70","test","1","175","175","8","",""
"null","311795","pSARL_v2","pSARL_v22c3r60w7","60a7d7b70d3cf8f48a8a490d","freq_resp","img/green_2bandit_b.png","70","70","test","","","","8","",""
"null","311954","pSARL_v2","pSARL_v22c3r60w7","60a7d7b70d3cf8f48a8a490d","fixation","img/fixation.png","null","","test","","","","","",""
"401.5","312364","pSARL_v2","pSARL_v22c3r60w7","60a7d7b70d3cf8f48a8a490d","freq","img/green_2bandit_b2.png","70","70","test","1","176","176","8","",""
"null","312770","pSARL_v2","pSARL_v22c3r60w7","60a7d7b70d3cf8f48a8a490d","freq_resp","img/green_2bandit_b.png","70","70","test","","","","8","",""
"null","312927","pSARL_v2","pSARL_v22c3r60w7","60a7d7b70d3cf8f48a8a490d","fixation","img/fixation.png","null","","test","","","","","",""
"402","313336","pSARL_v2","pSARL_v22c3r60w7","60a7d7b70d3cf8f48a8a490d","freq","img/green_2bandit_b2.png","70","70","test","1","177","177","8","",""
"null","313742","pSARL_v2","pSARL_v22c3r60w7","60a7d7b70d3cf8f48a8a490d","freq_resp","img/green_2bandit_b.png","70","70","test","","","","8","",""
"null","313901","pSARL_v2","pSARL_v22c3r60w7","60a7d7b70d3cf8f48a8a490d","fixation","img/fixation.png","null","","test","","","","","",""
"331.29999999701977","314240","pSARL_v2","pSARL_v22c3r60w7","60a7d7b70d3cf8f48a8a490d","freq","img/green_2bandit_b2.png","70","70","test","1","178","178","8","",""
"null","314716","pSARL_v2","pSARL_v22c3r60w7","60a7d7b70d3cf8f48a8a490d","freq_resp","img/green_2bandit_b.png","70","70","test","","","","8","",""
"null","314874","pSARL_v2","pSARL_v22c3r60w7","60a7d7b70d3cf8f48a8a490d","fixation","img/fixation.png","null","","test","","","","","",""
"337.3999999910593","315219","pSARL_v2","pSARL_v22c3r60w7","60a7d7b70d3cf8f48a8a490d","freq","img/green_2bandit_b2.png","70","70","test","1","179","179","8","",""
"null","315687","pSARL_v2","pSARL_v22c3r60w7","60a7d7b70d3cf8f48a8a490d","freq_resp","img/green_2bandit_b.png","70","70","test","","","","8","",""
"null","315844","pSARL_v2","pSARL_v22c3r60w7","60a7d7b70d3cf8f48a8a490d","fixation","img/fixation.png","null","","test","","","","","",""
"301","316152","pSARL_v2","pSARL_v22c3r60w7","60a7d7b70d3cf8f48a8a490d","freq","img/green_2bandit_b2.png","70","70","test","1","180","180","8","",""
"null","316656","pSARL_v2","pSARL_v22c3r60w7","60a7d7b70d3cf8f48a8a490d","freq_resp","img/green_2bandit_b.png","70","70","test","","","","8","",""
"null","316813","pSARL_v2","pSARL_v22c3r60w7","60a7d7b70d3cf8f48a8a490d","fixation","img/fixation.png","null","","test","","","","","",""
"303.90000000596046","317123","pSARL_v2","pSARL_v22c3r60w7","60a7d7b70d3cf8f48a8a490d","freq","img/green_2bandit_b2.png","70","70","test","1","181","181","8","",""
"null","317627","pSARL_v2","pSARL_v22c3r60w7","60a7d7b70d3cf8f48a8a490d","freq_resp","img/green_2bandit_b.png","70","70","test","","","","8","",""
"null","317784","pSARL_v2","pSARL_v22c3r60w7","60a7d7b70d3cf8f48a8a490d","fixation","img/fixation.png","null","","test","","","","","",""
"302.29999999701977","318093","pSARL_v2","pSARL_v22c3r60w7","60a7d7b70d3cf8f48a8a490d","freq","img/green_2bandit_b2.png","70","70","test","1","182","182","8","",""
"null","318598","pSARL_v2","pSARL_v22c3r60w7","60a7d7b70d3cf8f48a8a490d","freq_resp","img/green_2bandit_b.png","70","70","test","","","","8","",""
"null","318757","pSARL_v2","pSARL_v22c3r60w7","60a7d7b70d3cf8f48a8a490d","fixation","img/fixation.png","null","","test","","","","","",""
"325.69999998807907","319091","pSARL_v2","pSARL_v22c3r60w7","60a7d7b70d3cf8f48a8a490d","freq","img/green_2bandit_b2.png","70","70","test","1","183","183","8","",""
"null","319573","pSARL_v2","pSARL_v22c3r60w7","60a7d7b70d3cf8f48a8a490d","freq_resp","img/green_2bandit_b.png","70","70","test","","","","8","",""
"null","319731","pSARL_v2","pSARL_v22c3r60w7","60a7d7b70d3cf8f48a8a490d","fixation","img/fixation.png","null","","test","","","","","",""
"418","320157","pSARL_v2","pSARL_v22c3r60w7","60a7d7b70d3cf8f48a8a490d","freq","img/green_2bandit_b2.png","70","70","test","1","184","184","8","",""
"null","320547","pSARL_v2","pSARL_v22c3r60w7","60a7d7b70d3cf8f48a8a490d","freq_resp","img/green_2bandit_b.png","70","70","test","","","","8","",""
"null","320705","pSARL_v2","pSARL_v22c3r60w7","60a7d7b70d3cf8f48a8a490d","fixation","img/fixation.png","null","","test","","","","","",""
"376.70000000298023","321089","pSARL_v2","pSARL_v22c3r60w7","60a7d7b70d3cf8f48a8a490d","freq","img/green_2bandit_b2.png","70","70","test","1","185","185","8","",""
"null","321521","pSARL_v2","pSARL_v22c3r60w7","60a7d7b70d3cf8f48a8a490d","freq_resp","img/green_2bandit_b.png","70","70","test","","","","8","",""
"null","321678","pSARL_v2","pSARL_v22c3r60w7","60a7d7b70d3cf8f48a8a490d","fixation","img/fixation.png","null","","test","","","","","",""
"573.6999999880791","322258","pSARL_v2","pSARL_v22c3r60w7","60a7d7b70d3cf8f48a8a490d","infreq","img/orange_2bandit_b2.png","68","68","test","1","186","186","8","",""
"null","322491","pSARL_v2","pSARL_v22c3r60w7","60a7d7b70d3cf8f48a8a490d","infreq_resp","img/orange_2bandit_b.png","68","68","test","","","","8","",""
"null","322651","pSARL_v2","pSARL_v22c3r60w7","60a7d7b70d3cf8f48a8a490d","fixation","img/fixation.png","null","","test","","","","","",""
"345.19999998807907","323004","pSARL_v2","pSARL_v22c3r60w7","60a7d7b70d3cf8f48a8a490d","freq","img/green_2bandit_b2.png","70","70","test","1","187","187","8","",""
"null","323465","pSARL_v2","pSARL_v22c3r60w7","60a7d7b70d3cf8f48a8a490d","freq_resp","img/green_2bandit_b.png","70","70","test","","","","8","",""
"null","323621","pSARL_v2","pSARL_v22c3r60w7","60a7d7b70d3cf8f48a8a490d","fixation","img/fixation.png","null","","test","","","","","",""
"269.90000000596046","323901","pSARL_v2","pSARL_v22c3r60w7","60a7d7b70d3cf8f48a8a490d","freq","img/green_2bandit_b2.png","70","70","test","1","188","188","8","",""
"null","324439","pSARL_v2","pSARL_v22c3r60w7","60a7d7b70d3cf8f48a8a490d","freq_resp","img/green_2bandit_b.png","70","70","test","","","","8","",""
"null","324596","pSARL_v2","pSARL_v22c3r60w7","60a7d7b70d3cf8f48a8a490d","fixation","img/fixation.png","null","","test","","","","","",""
"170.20000000298023","324770","pSARL_v2","pSARL_v22c3r60w7","60a7d7b70d3cf8f48a8a490d","freq","img/green_2bandit_b2.png","70","70","test","1","189","189","8","",""
"null","325407","pSARL_v2","pSARL_v22c3r60w7","60a7d7b70d3cf8f48a8a490d","freq_resp","img/green_2bandit_b.png","70","70","test","","","","8","",""
"null","325560","pSARL_v2","pSARL_v22c3r60w7","60a7d7b70d3cf8f48a8a490d","fixation","img/fixation.png","null","","test","","","","","",""
"894.9000000059605","326462","pSARL_v2","pSARL_v22c3r60w7","60a7d7b70d3cf8f48a8a490d","reward","img/slot.png","74","","test","","","","","",""
"null","327220","pSARL_v2","pSARL_v22c3r60w7","60a7d7b70d3cf8f48a8a490d","points","<div class=""verylowPoints""> -4 </div>","null","na","test","","","","8","-4","7"
"402.8999999910593","327631","pSARL_v2","pSARL_v22c3r60w7","60a7d7b70d3cf8f48a8a490d","freq","img/green_2bandit_b2.png","70","70","test","1","190","190","9","",""
"null","328037","pSARL_v2","pSARL_v22c3r60w7","60a7d7b70d3cf8f48a8a490d","freq_resp","img/green_2bandit_b.png","70","70","test","","","","9","",""
"null","328194","pSARL_v2","pSARL_v22c3r60w7","60a7d7b70d3cf8f48a8a490d","fixation","img/fixation.png","null","","test","","","","","",""
"184.29999999701977","328388","pSARL_v2","pSARL_v22c3r60w7","60a7d7b70d3cf8f48a8a490d","freq","img/green_2bandit_b2.png","70","70","test","1","191","191","9","",""
"null","329008","pSARL_v2","pSARL_v22c3r60w7","60a7d7b70d3cf8f48a8a490d","freq_resp","img/green_2bandit_b.png","70","70","test","","","","9","",""
"null","329164","pSARL_v2","pSARL_v22c3r60w7","60a7d7b70d3cf8f48a8a490d","fixation","img/fixation.png","null","","test","","","","","",""
"372.69999998807907","329543","pSARL_v2","pSARL_v22c3r60w7","60a7d7b70d3cf8f48a8a490d","freq","img/green_2bandit_b2.png","70","70","test","1","192","192","9","",""
"null","329978","pSARL_v2","pSARL_v22c3r60w7","60a7d7b70d3cf8f48a8a490d","freq_resp","img/green_2bandit_b.png","70","70","test","","","","9","",""
"null","330136","pSARL_v2","pSARL_v22c3r60w7","60a7d7b70d3cf8f48a8a490d","fixation","img/fixation.png","null","","test","","","","","",""
"332.8999999910593","330476","pSARL_v2","pSARL_v22c3r60w7","60a7d7b70d3cf8f48a8a490d","freq","img/green_2bandit_b2.png","70","70","test","1","193","193","9","",""
"null","330950","pSARL_v2","pSARL_v22c3r60w7","60a7d7b70d3cf8f48a8a490d","freq_resp","img/green_2bandit_b.png","70","70","test","","","","9","",""
"null","331108","pSARL_v2","pSARL_v22c3r60w7","60a7d7b70d3cf8f48a8a490d","fixation","img/fixation.png","null","","test","","","","","",""
"266.29999999701977","331382","pSARL_v2","pSARL_v22c3r60w7","60a7d7b70d3cf8f48a8a490d","freq","img/green_2bandit_b2.png","70","70","test","1","194","194","9","",""
"null","331924","pSARL_v2","pSARL_v22c3r60w7","60a7d7b70d3cf8f48a8a490d","freq_resp","img/green_2bandit_b.png","70","70","test","","","","9","",""
"null","332084","pSARL_v2","pSARL_v22c3r60w7","60a7d7b70d3cf8f48a8a490d","fixation","img/fixation.png","null","","test","","","","","",""
"298.59999999403954","332390","pSARL_v2","pSARL_v22c3r60w7","60a7d7b70d3cf8f48a8a490d","freq","img/green_2bandit_b2.png","70","70","test","1","195","195","9","",""
"null","332899","pSARL_v2","pSARL_v22c3r60w7","60a7d7b70d3cf8f48a8a490d","freq_resp","img/green_2bandit_b.png","70","70","test","","","","9","",""
"null","333056","pSARL_v2","pSARL_v22c3r60w7","60a7d7b70d3cf8f48a8a490d","fixation","img/fixation.png","null","","test","","","","","",""
"315.3999999910593","333378","pSARL_v2","pSARL_v22c3r60w7","60a7d7b70d3cf8f48a8a490d","freq","img/green_2bandit_b2.png","70","70","test","1","196","196","9","",""
"null","333869","pSARL_v2","pSARL_v22c3r60w7","60a7d7b70d3cf8f48a8a490d","freq_resp","img/green_2bandit_b.png","70","70","test","","","","9","",""
"null","334026","pSARL_v2","pSARL_v22c3r60w7","60a7d7b70d3cf8f48a8a490d","fixation","img/fixation.png","null","","test","","","","","",""
"250.40000000596046","334283","pSARL_v2","pSARL_v22c3r60w7","60a7d7b70d3cf8f48a8a490d","freq","img/green_2bandit_b2.png","70","70","test","1","197","197","9","",""
"null","334835","pSARL_v2","pSARL_v22c3r60w7","60a7d7b70d3cf8f48a8a490d","freq_resp","img/green_2bandit_b.png","70","70","test","","","","9","",""
"null","334992","pSARL_v2","pSARL_v22c3r60w7","60a7d7b70d3cf8f48a8a490d","fixation","img/fixation.png","null","","test","","","","","",""
"340","335339","pSARL_v2","pSARL_v22c3r60w7","60a7d7b70d3cf8f48a8a490d","freq","img/green_2bandit_b2.png","70","70","test","1","198","198","9","",""
"null","335807","pSARL_v2","pSARL_v22c3r60w7","60a7d7b70d3cf8f48a8a490d","freq_resp","img/green_2bandit_b.png","70","70","test","","","","9","",""
"null","335966","pSARL_v2","pSARL_v22c3r60w7","60a7d7b70d3cf8f48a8a490d","fixation","img/fixation.png","null","","test","","","","","",""
"326.40000000596046","336296","pSARL_v2","pSARL_v22c3r60w7","60a7d7b70d3cf8f48a8a490d","freq","img/green_2bandit_b2.png","70","70","test","1","199","199","9","",""
"null","336773","pSARL_v2","pSARL_v22c3r60w7","60a7d7b70d3cf8f48a8a490d","freq_resp","img/green_2bandit_b.png","70","70","test","","","","9","",""
"null","336932","pSARL_v2","pSARL_v22c3r60w7","60a7d7b70d3cf8f48a8a490d","fixation","img/fixation.png","null","","test","","","","","",""
"433.70000000298023","337373","pSARL_v2","pSARL_v22c3r60w7","60a7d7b70d3cf8f48a8a490d","freq","img/green_2bandit_b2.png","70","70","test","1","200","200","9","",""
"null","337746","pSARL_v2","pSARL_v22c3r60w7","60a7d7b70d3cf8f48a8a490d","freq_resp","img/green_2bandit_b.png","70","70","test","","","","9","",""
"null","337903","pSARL_v2","pSARL_v22c3r60w7","60a7d7b70d3cf8f48a8a490d","fixation","img/fixation.png","null","","test","","","","","",""
"502","338412","pSARL_v2","pSARL_v22c3r60w7","60a7d7b70d3cf8f48a8a490d","infreq","img/orange_2bandit_b2.png","68","68","test","1","201","201","9","",""
"null","338719","pSARL_v2","pSARL_v22c3r60w7","60a7d7b70d3cf8f48a8a490d","infreq_resp","img/orange_2bandit_b.png","68","68","test","","","","9","",""
"null","338878","pSARL_v2","pSARL_v22c3r60w7","60a7d7b70d3cf8f48a8a490d","fixation","img/fixation.png","null","","test","","","","","",""
"400.90000000596046","339286","pSARL_v2","pSARL_v22c3r60w7","60a7d7b70d3cf8f48a8a490d","freq","img/green_2bandit_b2.png","70","70","test","1","202","202","9","",""
"null","339690","pSARL_v2","pSARL_v22c3r60w7","60a7d7b70d3cf8f48a8a490d","freq_resp","img/green_2bandit_b.png","70","70","test","","","","9","",""
"null","339847","pSARL_v2","pSARL_v22c3r60w7","60a7d7b70d3cf8f48a8a490d","fixation","img/fixation.png","null","","test","","","","","",""
"309.3999999910593","340163","pSARL_v2","pSARL_v22c3r60w7","60a7d7b70d3cf8f48a8a490d","freq","img/green_2bandit_b2.png","70","70","test","1","203","203","9","",""
"null","340661","pSARL_v2","pSARL_v22c3r60w7","60a7d7b70d3cf8f48a8a490d","freq_resp","img/green_2bandit_b.png","70","70","test","","","","9","",""
"null","340818","pSARL_v2","pSARL_v22c3r60w7","60a7d7b70d3cf8f48a8a490d","fixation","img/fixation.png","null","","test","","","","","",""
"383.29999999701977","341208","pSARL_v2","pSARL_v22c3r60w7","60a7d7b70d3cf8f48a8a490d","freq","img/green_2bandit_b2.png","70","70","test","1","204","204","9","",""
"null","341631","pSARL_v2","pSARL_v22c3r60w7","60a7d7b70d3cf8f48a8a490d","freq_resp","img/green_2bandit_b.png","70","70","test","","","","9","",""
"null","341788","pSARL_v2","pSARL_v22c3r60w7","60a7d7b70d3cf8f48a8a490d","fixation","img/fixation.png","null","","test","","","","","",""
"439.90000000596046","342235","pSARL_v2","pSARL_v22c3r60w7","60a7d7b70d3cf8f48a8a490d","infreq","img/orange_2bandit_b2.png","68","68","test","1","205","205","9","",""
"null","342602","pSARL_v2","pSARL_v22c3r60w7","60a7d7b70d3cf8f48a8a490d","infreq_resp","img/orange_2bandit_b.png","68","68","test","","","","9","",""
"null","342761","pSARL_v2","pSARL_v22c3r60w7","60a7d7b70d3cf8f48a8a490d","fixation","img/fixation.png","null","","test","","","","","",""
"510.3999999910593","343281","pSARL_v2","pSARL_v22c3r60w7","60a7d7b70d3cf8f48a8a490d","freq","img/green_2bandit_b2.png","70","70","test","1","206","206","9","",""
"null","343577","pSARL_v2","pSARL_v22c3r60w7","60a7d7b70d3cf8f48a8a490d","freq_resp","img/green_2bandit_b.png","70","70","test","","","","9","",""
"null","343735","pSARL_v2","pSARL_v22c3r60w7","60a7d7b70d3cf8f48a8a490d","fixation","img/fixation.png","null","","test","","","","","",""
"491.59999999403954","344234","pSARL_v2","pSARL_v22c3r60w7","60a7d7b70d3cf8f48a8a490d","freq","img/green_2bandit_b2.png","70","70","test","1","207","207","9","",""
"null","344548","pSARL_v2","pSARL_v22c3r60w7","60a7d7b70d3cf8f48a8a490d","freq_resp","img/green_2bandit_b.png","70","70","test","","","","9","",""
"null","344707","pSARL_v2","pSARL_v22c3r60w7","60a7d7b70d3cf8f48a8a490d","fixation","img/fixation.png","null","","test","","","","","",""
"601.5","345316","pSARL_v2","pSARL_v22c3r60w7","60a7d7b70d3cf8f48a8a490d","freq","img/green_2bandit_b2.png","70","70","test","1","208","208","9","",""
