"rt","time_elapsed","expId","subject","prolificID","trialType","stimulus","key_press","corrresp","phase","corr","trialNum","attentionRunNum","blockNum","points","rlNum"
"10625.899999976158","10637","pSARL_v2","pSARL_v2bqhwas0g","6325482a5da955ebe4a72c93","","","","","","","","","","",""
"","22880","pSARL_v2","pSARL_v2bqhwas0g","6325482a5da955ebe4a72c93","fullscreen","","","","","","","","","",""
"218145.20000004768","241033","pSARL_v2","pSARL_v2bqhwas0g","6325482a5da955ebe4a72c93","","","","","","","","","","",""
"null","241857","pSARL_v2","pSARL_v2bqhwas0g","6325482a5da955ebe4a72c93","freqPrac","img/orange_2bandit_b2.png","null","70","prac","0","","","","",""
"null","242868","pSARL_v2","pSARL_v2bqhwas0g","6325482a5da955ebe4a72c93","feedback","img/tooSlow.png","null","na","prac","","","","","",""
"null","243033","pSARL_v2","pSARL_v2bqhwas0g","6325482a5da955ebe4a72c93","fixation","img/fixation.png","null","","prac","","","","","",""
"519.6000000238419","243559","pSARL_v2","pSARL_v2bqhwas0g","6325482a5da955ebe4a72c93","infreqPrac","img/green_2bandit_b2.png","68","68","prac","1","","","","",""
"519.6000000238419","243858","pSARL_v2","pSARL_v2bqhwas0g","6325482a5da955ebe4a72c93","infreqPrac_resp","img/green_2bandit_b.png","68","68","prac","","","","","",""
"null","244029","pSARL_v2","pSARL_v2bqhwas0g","6325482a5da955ebe4a72c93","fixation","img/fixation.png","null","","prac","","","","","",""
"701.2000000476837","244737","pSARL_v2","pSARL_v2bqhwas0g","6325482a5da955ebe4a72c93","freqPrac","img/orange_2bandit_b2.png","70","70","prac","1","","","","",""
"701.2000000476837","244854","pSARL_v2","pSARL_v2bqhwas0g","6325482a5da955ebe4a72c93","freqPrac_resp","img/orange_2bandit_b.png","70","70","prac","","","","","",""
"null","245020","pSARL_v2","pSARL_v2bqhwas0g","6325482a5da955ebe4a72c93","fixation","img/fixation.png","null","","prac","","","","","",""
"622.2999999523163","245651","pSARL_v2","pSARL_v2bqhwas0g","6325482a5da955ebe4a72c93","infreqPrac","img/green_2bandit_b2.png","68","68","prac","1","","","","",""
"622.2999999523163","245841","pSARL_v2","pSARL_v2bqhwas0g","6325482a5da955ebe4a72c93","infreqPrac_resp","img/green_2bandit_b.png","68","68","prac","","","","","",""
"null","246007","pSARL_v2","pSARL_v2bqhwas0g","6325482a5da955ebe4a72c93","fixation","img/fixation.png","null","","prac","","","","","",""
"398.89999997615814","246413","pSARL_v2","pSARL_v2bqhwas0g","6325482a5da955ebe4a72c93","infreqPrac","img/green_2bandit_b2.png","68","68","prac","1","","","","",""
"398.89999997615814","246831","pSARL_v2","pSARL_v2bqhwas0g","6325482a5da955ebe4a72c93","infreqPrac_resp","img/green_2bandit_b.png","68","68","prac","","","","","",""
"null","246997","pSARL_v2","pSARL_v2bqhwas0g","6325482a5da955ebe4a72c93","fixation","img/fixation.png","null","","prac","","","","","",""
"299.5","247305","pSARL_v2","pSARL_v2bqhwas0g","6325482a5da955ebe4a72c93","infreqPrac","img/green_2bandit_b2.png","68","68","prac","1","","","","",""
"299.5","247826","pSARL_v2","pSARL_v2bqhwas0g","6325482a5da955ebe4a72c93","infreqPrac_resp","img/green_2bandit_b.png","68","68","prac","","","","","",""
"null","247997","pSARL_v2","pSARL_v2bqhwas0g","6325482a5da955ebe4a72c93","fixation","img/fixation.png","null","","prac","","","","","",""
"238","248244","pSARL_v2","pSARL_v2bqhwas0g","6325482a5da955ebe4a72c93","freqPrac","img/orange_2bandit_b2.png","68","70","prac","0","","","","",""
"238","248816","pSARL_v2","pSARL_v2bqhwas0g","6325482a5da955ebe4a72c93","freqPrac_resp","img/orange_2bandit_b.png","68","70","prac","","","","","",""
"null","249833","pSARL_v2","pSARL_v2bqhwas0g","6325482a5da955ebe4a72c93","feedback","img/wrongKey.png","null","na","prac","","","","","",""
"null","249994","pSARL_v2","pSARL_v2bqhwas0g","6325482a5da955ebe4a72c93","fixation","img/fixation.png","null","","prac","","","","","",""
"null","250809","pSARL_v2","pSARL_v2bqhwas0g","6325482a5da955ebe4a72c93","infreqPrac","img/green_2bandit_b2.png","null","68","prac","0","","","","",""
"null","251819","pSARL_v2","pSARL_v2bqhwas0g","6325482a5da955ebe4a72c93","feedback","img/tooSlow.png","null","na","prac","","","","","",""
"null","251993","pSARL_v2","pSARL_v2bqhwas0g","6325482a5da955ebe4a72c93","fixation","img/fixation.png","null","","prac","","","","","",""
"551","252552","pSARL_v2","pSARL_v2bqhwas0g","6325482a5da955ebe4a72c93","freqPrac","img/orange_2bandit_b2.png","70","70","prac","1","","","","",""
"551","252822","pSARL_v2","pSARL_v2bqhwas0g","6325482a5da955ebe4a72c93","freqPrac_resp","img/orange_2bandit_b.png","70","70","prac","","","","","",""
"null","252996","pSARL_v2","pSARL_v2bqhwas0g","6325482a5da955ebe4a72c93","fixation","img/fixation.png","null","","prac","","","","","",""
"442.60000002384186","253445","pSARL_v2","pSARL_v2bqhwas0g","6325482a5da955ebe4a72c93","freqPrac","img/orange_2bandit_b2.png","70","70","prac","1","","","","",""
"442.60000002384186","253824","pSARL_v2","pSARL_v2bqhwas0g","6325482a5da955ebe4a72c93","freqPrac_resp","img/orange_2bandit_b.png","70","70","prac","","","","","",""
"null","253998","pSARL_v2","pSARL_v2bqhwas0g","6325482a5da955ebe4a72c93","fixation","img/fixation.png","null","","prac","","","","","",""
"29384.800000071526","283390","pSARL_v2","pSARL_v2bqhwas0g","6325482a5da955ebe4a72c93","","","","","prac","","","","","",""
"602.5999999046326","284000","pSARL_v2","pSARL_v2bqhwas0g","6325482a5da955ebe4a72c93","rewardPractice","img/slot.png","74","","prac","","","","","",""
"null","284762","pSARL_v2","pSARL_v2bqhwas0g","6325482a5da955ebe4a72c93","feedback","<div class=""veryhighPoints""> +15 </div>","null","na","prac","","","","","",""
"null","284933","pSARL_v2","pSARL_v2bqhwas0g","6325482a5da955ebe4a72c93","fixation","img/fixation.png","null","","prac","","","","","",""
"10276.700000047684","295219","pSARL_v2","pSARL_v2bqhwas0g","6325482a5da955ebe4a72c93","","","","","prac","","","","","",""
"736.3000000715256","295963","pSARL_v2","pSARL_v2bqhwas0g","6325482a5da955ebe4a72c93","freq","img/orange_2bandit_b2.png","70","70","test","1","1","1","1","",""
"null","296042","pSARL_v2","pSARL_v2bqhwas0g","6325482a5da955ebe4a72c93","freq_resp","img/orange_2bandit_b.png","70","70","test","","","","1","",""
"null","296213","pSARL_v2","pSARL_v2bqhwas0g","6325482a5da955ebe4a72c93","fixation","img/fixation.png","null","","test","","","","","",""
"551.8999999761581","296772","pSARL_v2","pSARL_v2bqhwas0g","6325482a5da955ebe4a72c93","freq","img/orange_2bandit_b2.png","70","70","test","1","2","2","1","",""
"null","297029","pSARL_v2","pSARL_v2bqhwas0g","6325482a5da955ebe4a72c93","freq_resp","img/orange_2bandit_b.png","70","70","test","","","","1","",""
"null","297206","pSARL_v2","pSARL_v2bqhwas0g","6325482a5da955ebe4a72c93","fixation","img/fixation.png","null","","test","","","","","",""
"379.10000002384186","297592","pSARL_v2","pSARL_v2bqhwas0g","6325482a5da955ebe4a72c93","freq","img/orange_2bandit_b2.png","70","70","test","1","3","3","1","",""
"null","298024","pSARL_v2","pSARL_v2bqhwas0g","6325482a5da955ebe4a72c93","freq_resp","img/orange_2bandit_b.png","70","70","test","","","","1","",""
"null","298188","pSARL_v2","pSARL_v2bqhwas0g","6325482a5da955ebe4a72c93","fixation","img/fixation.png","null","","test","","","","","",""
"415.6999999284744","298613","pSARL_v2","pSARL_v2bqhwas0g","6325482a5da955ebe4a72c93","freq","img/orange_2bandit_b2.png","70","70","test","1","4","4","1","",""
"null","299015","pSARL_v2","pSARL_v2bqhwas0g","6325482a5da955ebe4a72c93","freq_resp","img/orange_2bandit_b.png","70","70","test","","","","1","",""
"null","299175","pSARL_v2","pSARL_v2bqhwas0g","6325482a5da955ebe4a72c93","fixation","img/fixation.png","null","","test","","","","","",""
"297.60000002384186","299480","pSARL_v2","pSARL_v2bqhwas0g","6325482a5da955ebe4a72c93","freq","img/orange_2bandit_b2.png","70","70","test","1","5","5","1","",""
"null","300003","pSARL_v2","pSARL_v2bqhwas0g","6325482a5da955ebe4a72c93","freq_resp","img/orange_2bandit_b.png","70","70","test","","","","1","",""
"null","300170","pSARL_v2","pSARL_v2bqhwas0g","6325482a5da955ebe4a72c93","fixation","img/fixation.png","null","","test","","","","","",""
"277.8000000715256","300455","pSARL_v2","pSARL_v2bqhwas0g","6325482a5da955ebe4a72c93","freq","img/orange_2bandit_b2.png","70","70","test","1","6","6","1","",""
"null","300995","pSARL_v2","pSARL_v2bqhwas0g","6325482a5da955ebe4a72c93","freq_resp","img/orange_2bandit_b.png","70","70","test","","","","1","",""
"null","301156","pSARL_v2","pSARL_v2bqhwas0g","6325482a5da955ebe4a72c93","fixation","img/fixation.png","null","","test","","","","","",""
"474","301637","pSARL_v2","pSARL_v2bqhwas0g","6325482a5da955ebe4a72c93","infreq","img/green_2bandit_b2.png","68","68","test","1","7","7","1","",""
"null","301974","pSARL_v2","pSARL_v2bqhwas0g","6325482a5da955ebe4a72c93","infreq_resp","img/green_2bandit_b.png","68","68","test","","","","1","",""
"null","302141","pSARL_v2","pSARL_v2bqhwas0g","6325482a5da955ebe4a72c93","fixation","img/fixation.png","null","","test","","","","","",""
"450.5","302598","pSARL_v2","pSARL_v2bqhwas0g","6325482a5da955ebe4a72c93","freq","img/orange_2bandit_b2.png","70","70","test","1","8","8","1","",""
"null","302964","pSARL_v2","pSARL_v2bqhwas0g","6325482a5da955ebe4a72c93","freq_resp","img/orange_2bandit_b.png","70","70","test","","","","1","",""
"null","303123","pSARL_v2","pSARL_v2bqhwas0g","6325482a5da955ebe4a72c93","fixation","img/fixation.png","null","","test","","","","","",""
"395.90000009536743","303528","pSARL_v2","pSARL_v2bqhwas0g","6325482a5da955ebe4a72c93","freq","img/orange_2bandit_b2.png","70","70","test","1","9","9","1","",""
"null","303972","pSARL_v2","pSARL_v2bqhwas0g","6325482a5da955ebe4a72c93","freq_resp","img/orange_2bandit_b.png","70","70","test","","","","1","",""
"null","304138","pSARL_v2","pSARL_v2bqhwas0g","6325482a5da955ebe4a72c93","fixation","img/fixation.png","null","","test","","","","","",""
"327.60000002384186","304475","pSARL_v2","pSARL_v2bqhwas0g","6325482a5da955ebe4a72c93","freq","img/orange_2bandit_b2.png","70","70","test","1","10","10","1","",""
"null","304962","pSARL_v2","pSARL_v2bqhwas0g","6325482a5da955ebe4a72c93","freq_resp","img/orange_2bandit_b.png","70","70","test","","","","1","",""
"null","305122","pSARL_v2","pSARL_v2bqhwas0g","6325482a5da955ebe4a72c93","fixation","img/fixation.png","null","","test","","","","","",""
"316.89999997615814","305448","pSARL_v2","pSARL_v2bqhwas0g","6325482a5da955ebe4a72c93","freq","img/orange_2bandit_b2.png","70","70","test","1","11","11","1","",""
"null","305949","pSARL_v2","pSARL_v2bqhwas0g","6325482a5da955ebe4a72c93","freq_resp","img/orange_2bandit_b.png","70","70","test","","","","1","",""
"null","306115","pSARL_v2","pSARL_v2bqhwas0g","6325482a5da955ebe4a72c93","fixation","img/fixation.png","null","","test","","","","","",""
"303.1999999284744","306427","pSARL_v2","pSARL_v2bqhwas0g","6325482a5da955ebe4a72c93","freq","img/orange_2bandit_b2.png","70","70","test","1","12","12","1","",""
"null","306941","pSARL_v2","pSARL_v2bqhwas0g","6325482a5da955ebe4a72c93","freq_resp","img/orange_2bandit_b.png","70","70","test","","","","1","",""
"null","307097","pSARL_v2","pSARL_v2bqhwas0g","6325482a5da955ebe4a72c93","fixation","img/fixation.png","null","","test","","","","","",""
"302.7000000476837","307408","pSARL_v2","pSARL_v2bqhwas0g","6325482a5da955ebe4a72c93","freq","img/orange_2bandit_b2.png","70","70","test","1","13","13","1","",""
"null","307915","pSARL_v2","pSARL_v2bqhwas0g","6325482a5da955ebe4a72c93","freq_resp","img/orange_2bandit_b.png","70","70","test","","","","1","",""
"null","308089","pSARL_v2","pSARL_v2bqhwas0g","6325482a5da955ebe4a72c93","fixation","img/fixation.png","null","","test","","","","","",""
"443.89999997615814","308540","pSARL_v2","pSARL_v2bqhwas0g","6325482a5da955ebe4a72c93","infreq","img/green_2bandit_b2.png","68","68","test","1","14","14","1","",""
"null","308920","pSARL_v2","pSARL_v2bqhwas0g","6325482a5da955ebe4a72c93","infreq_resp","img/green_2bandit_b.png","68","68","test","","","","1","",""
"null","309091","pSARL_v2","pSARL_v2bqhwas0g","6325482a5da955ebe4a72c93","fixation","img/fixation.png","null","","test","","","","","",""
"438.7999999523163","309537","pSARL_v2","pSARL_v2bqhwas0g","6325482a5da955ebe4a72c93","freq","img/orange_2bandit_b2.png","70","70","test","1","15","15","1","",""
"null","309909","pSARL_v2","pSARL_v2bqhwas0g","6325482a5da955ebe4a72c93","freq_resp","img/orange_2bandit_b.png","70","70","test","","","","1","",""
"null","310081","pSARL_v2","pSARL_v2bqhwas0g","6325482a5da955ebe4a72c93","fixation","img/fixation.png","null","","test","","","","","",""
"357.2999999523163","310447","pSARL_v2","pSARL_v2bqhwas0g","6325482a5da955ebe4a72c93","freq","img/orange_2bandit_b2.png","70","70","test","1","16","16","1","",""
"null","310911","pSARL_v2","pSARL_v2bqhwas0g","6325482a5da955ebe4a72c93","freq_resp","img/orange_2bandit_b.png","70","70","test","","","","1","",""
"null","311077","pSARL_v2","pSARL_v2bqhwas0g","6325482a5da955ebe4a72c93","fixation","img/fixation.png","null","","test","","","","","",""
"314.60000002384186","311399","pSARL_v2","pSARL_v2bqhwas0g","6325482a5da955ebe4a72c93","freq","img/orange_2bandit_b2.png","70","70","test","1","17","17","1","",""
"null","311906","pSARL_v2","pSARL_v2bqhwas0g","6325482a5da955ebe4a72c93","freq_resp","img/orange_2bandit_b.png","70","70","test","","","","1","",""
"null","312066","pSARL_v2","pSARL_v2bqhwas0g","6325482a5da955ebe4a72c93","fixation","img/fixation.png","null","","test","","","","","",""
"441.7000000476837","312515","pSARL_v2","pSARL_v2bqhwas0g","6325482a5da955ebe4a72c93","infreq","img/green_2bandit_b2.png","68","68","test","1","18","18","1","",""
"null","312892","pSARL_v2","pSARL_v2bqhwas0g","6325482a5da955ebe4a72c93","infreq_resp","img/green_2bandit_b.png","68","68","test","","","","1","",""
"null","313054","pSARL_v2","pSARL_v2bqhwas0g","6325482a5da955ebe4a72c93","fixation","img/fixation.png","null","","test","","","","","",""
"424.7000000476837","313487","pSARL_v2","pSARL_v2bqhwas0g","6325482a5da955ebe4a72c93","freq","img/orange_2bandit_b2.png","70","70","test","1","19","19","1","",""
"null","313880","pSARL_v2","pSARL_v2bqhwas0g","6325482a5da955ebe4a72c93","freq_resp","img/orange_2bandit_b.png","70","70","test","","","","1","",""
"null","314044","pSARL_v2","pSARL_v2bqhwas0g","6325482a5da955ebe4a72c93","fixation","img/fixation.png","null","","test","","","","","",""
"375.7999999523163","314427","pSARL_v2","pSARL_v2bqhwas0g","6325482a5da955ebe4a72c93","freq","img/orange_2bandit_b2.png","70","70","test","1","20","20","1","",""
"null","314867","pSARL_v2","pSARL_v2bqhwas0g","6325482a5da955ebe4a72c93","freq_resp","img/orange_2bandit_b.png","70","70","test","","","","1","",""
"null","315038","pSARL_v2","pSARL_v2bqhwas0g","6325482a5da955ebe4a72c93","fixation","img/fixation.png","null","","test","","","","","",""
"304.10000002384186","315349","pSARL_v2","pSARL_v2bqhwas0g","6325482a5da955ebe4a72c93","freq","img/orange_2bandit_b2.png","70","70","test","1","21","21","1","",""
"null","315857","pSARL_v2","pSARL_v2bqhwas0g","6325482a5da955ebe4a72c93","freq_resp","img/orange_2bandit_b.png","70","70","test","","","","1","",""
"null","316053","pSARL_v2","pSARL_v2bqhwas0g","6325482a5da955ebe4a72c93","fixation","img/fixation.png","null","","test","","","","","",""
"291.60000002384186","316351","pSARL_v2","pSARL_v2bqhwas0g","6325482a5da955ebe4a72c93","freq","img/orange_2bandit_b2.png","70","70","test","1","22","22","1","",""
"null","316869","pSARL_v2","pSARL_v2bqhwas0g","6325482a5da955ebe4a72c93","freq_resp","img/orange_2bandit_b.png","70","70","test","","","","1","",""
"null","317041","pSARL_v2","pSARL_v2bqhwas0g","6325482a5da955ebe4a72c93","fixation","img/fixation.png","null","","test","","","","","",""
"317.89999997615814","317368","pSARL_v2","pSARL_v2bqhwas0g","6325482a5da955ebe4a72c93","freq","img/orange_2bandit_b2.png","70","70","test","1","23","23","1","",""
"null","317872","pSARL_v2","pSARL_v2bqhwas0g","6325482a5da955ebe4a72c93","freq_resp","img/orange_2bandit_b.png","70","70","test","","","","1","",""
"null","318053","pSARL_v2","pSARL_v2bqhwas0g","6325482a5da955ebe4a72c93","fixation","img/fixation.png","null","","test","","","","","",""
"301.39999997615814","318363","pSARL_v2","pSARL_v2bqhwas0g","6325482a5da955ebe4a72c93","freq","img/orange_2bandit_b2.png","70","70","test","1","24","24","1","",""
"null","318883","pSARL_v2","pSARL_v2bqhwas0g","6325482a5da955ebe4a72c93","freq_resp","img/orange_2bandit_b.png","70","70","test","","","","1","",""
"null","319044","pSARL_v2","pSARL_v2bqhwas0g","6325482a5da955ebe4a72c93","fixation","img/fixation.png","null","","test","","","","","",""
"2649.2999999523163","321699","pSARL_v2","pSARL_v2bqhwas0g","6325482a5da955ebe4a72c93","reward","img/slot.png","74","","test","","","","","",""
"null","322470","pSARL_v2","pSARL_v2bqhwas0g","6325482a5da955ebe4a72c93","points","<div class=""verylowPoints""> -6 </div>","null","na","test","","","","1","-6","0"
"null","323293","pSARL_v2","pSARL_v2bqhwas0g","6325482a5da955ebe4a72c93","freq","img/orange_2bandit_b2.png","null","70","test","0","25","25","2","",""
"null","323459","pSARL_v2","pSARL_v2bqhwas0g","6325482a5da955ebe4a72c93","fixation","img/fixation.png","null","","test","","","","","",""
"78.29999995231628","323544","pSARL_v2","pSARL_v2bqhwas0g","6325482a5da955ebe4a72c93","freq","img/orange_2bandit_b2.png","70","70","test","1","26","26","2","",""
"null","324284","pSARL_v2","pSARL_v2bqhwas0g","6325482a5da955ebe4a72c93","freq_resp","img/orange_2bandit_b.png","70","70","test","","","","2","",""
"null","324446","pSARL_v2","pSARL_v2bqhwas0g","6325482a5da955ebe4a72c93","fixation","img/fixation.png","null","","test","","","","","",""
"null","325263","pSARL_v2","pSARL_v2bqhwas0g","6325482a5da955ebe4a72c93","freq","img/orange_2bandit_b2.png","null","70","test","0","27","27","2","",""
"null","325435","pSARL_v2","pSARL_v2bqhwas0g","6325482a5da955ebe4a72c93","fixation","img/fixation.png","null","","test","","","","","",""
"190.30000007152557","325632","pSARL_v2","pSARL_v2bqhwas0g","6325482a5da955ebe4a72c93","freq","img/orange_2bandit_b2.png","70","70","test","1","28","28","2","",""
"null","326267","pSARL_v2","pSARL_v2bqhwas0g","6325482a5da955ebe4a72c93","freq_resp","img/orange_2bandit_b.png","70","70","test","","","","2","",""
"null","326434","pSARL_v2","pSARL_v2bqhwas0g","6325482a5da955ebe4a72c93","fixation","img/fixation.png","null","","test","","","","","",""
"627.5","327069","pSARL_v2","pSARL_v2bqhwas0g","6325482a5da955ebe4a72c93","infreq","img/green_2bandit_b2.png","68","68","test","1","29","29","2","",""
"null","327265","pSARL_v2","pSARL_v2bqhwas0g","6325482a5da955ebe4a72c93","infreq_resp","img/green_2bandit_b.png","68","68","test","","","","2","",""
"null","327434","pSARL_v2","pSARL_v2bqhwas0g","6325482a5da955ebe4a72c93","fixation","img/fixation.png","null","","test","","","","","",""
"771.6999999284744","328214","pSARL_v2","pSARL_v2bqhwas0g","6325482a5da955ebe4a72c93","freq","img/orange_2bandit_b2.png","70","70","test","1","30","30","2","",""
"null","328250","pSARL_v2","pSARL_v2bqhwas0g","6325482a5da955ebe4a72c93","freq_resp","img/orange_2bandit_b.png","70","70","test","","","","2","",""
"null","328419","pSARL_v2","pSARL_v2bqhwas0g","6325482a5da955ebe4a72c93","fixation","img/fixation.png","null","","test","","","","","",""
"563","328989","pSARL_v2","pSARL_v2bqhwas0g","6325482a5da955ebe4a72c93","infreq","img/green_2bandit_b2.png","68","68","test","1","31","31","2","",""
"null","329235","pSARL_v2","pSARL_v2bqhwas0g","6325482a5da955ebe4a72c93","infreq_resp","img/green_2bandit_b.png","68","68","test","","","","2","",""
"null","329400","pSARL_v2","pSARL_v2bqhwas0g","6325482a5da955ebe4a72c93","fixation","img/fixation.png","null","","test","","","","","",""
"454.10000002384186","329863","pSARL_v2","pSARL_v2bqhwas0g","6325482a5da955ebe4a72c93","freq","img/orange_2bandit_b2.png","70","70","test","1","32","32","2","",""
"null","330217","pSARL_v2","pSARL_v2bqhwas0g","6325482a5da955ebe4a72c93","freq_resp","img/orange_2bandit_b.png","70","70","test","","","","2","",""
"null","330385","pSARL_v2","pSARL_v2bqhwas0g","6325482a5da955ebe4a72c93","fixation","img/fixation.png","null","","test","","","","","",""
"393.10000002384186","330786","pSARL_v2","pSARL_v2bqhwas0g","6325482a5da955ebe4a72c93","freq","img/orange_2bandit_b2.png","68","70","test","0","33","33","2","",""
"null","331205","pSARL_v2","pSARL_v2bqhwas0g","6325482a5da955ebe4a72c93","freq_resp","img/orange_2bandit_b.png","68","70","test","","","","2","",""
"null","331367","pSARL_v2","pSARL_v2bqhwas0g","6325482a5da955ebe4a72c93","fixation","img/fixation.png","null","","test","","","","","",""
"543.2000000476837","331918","pSARL_v2","pSARL_v2bqhwas0g","6325482a5da955ebe4a72c93","freq","img/orange_2bandit_b2.png","70","70","test","1","34","34","2","",""
"null","332195","pSARL_v2","pSARL_v2bqhwas0g","6325482a5da955ebe4a72c93","freq_resp","img/orange_2bandit_b.png","70","70","test","","","","2","",""
"null","332360","pSARL_v2","pSARL_v2bqhwas0g","6325482a5da955ebe4a72c93","fixation","img/fixation.png","null","","test","","","","","",""
"362.39999997615814","332730","pSARL_v2","pSARL_v2bqhwas0g","6325482a5da955ebe4a72c93","freq","img/orange_2bandit_b2.png","70","70","test","1","35","35","2","",""
"null","333185","pSARL_v2","pSARL_v2bqhwas0g","6325482a5da955ebe4a72c93","freq_resp","img/orange_2bandit_b.png","70","70","test","","","","2","",""
"null","333349","pSARL_v2","pSARL_v2bqhwas0g","6325482a5da955ebe4a72c93","fixation","img/fixation.png","null","","test","","","","","",""
"289.7999999523163","333645","pSARL_v2","pSARL_v2bqhwas0g","6325482a5da955ebe4a72c93","freq","img/orange_2bandit_b2.png","70","70","test","1","36","36","2","",""
"null","334168","pSARL_v2","pSARL_v2bqhwas0g","6325482a5da955ebe4a72c93","freq_resp","img/orange_2bandit_b.png","70","70","test","","","","2","",""
"null","334335","pSARL_v2","pSARL_v2bqhwas0g","6325482a5da955ebe4a72c93","fixation","img/fixation.png","null","","test","","","","","",""
"275.5","334618","pSARL_v2","pSARL_v2bqhwas0g","6325482a5da955ebe4a72c93","freq","img/orange_2bandit_b2.png","70","70","test","1","37","37","2","",""
"null","335162","pSARL_v2","pSARL_v2bqhwas0g","6325482a5da955ebe4a72c93","freq_resp","img/orange_2bandit_b.png","70","70","test","","","","2","",""
"null","335330","pSARL_v2","pSARL_v2bqhwas0g","6325482a5da955ebe4a72c93","fixation","img/fixation.png","null","","test","","","","","",""
"310","335648","pSARL_v2","pSARL_v2bqhwas0g","6325482a5da955ebe4a72c93","freq","img/orange_2bandit_b2.png","70","70","test","1","38","38","2","",""
"null","336156","pSARL_v2","pSARL_v2bqhwas0g","6325482a5da955ebe4a72c93","freq_resp","img/orange_2bandit_b.png","70","70","test","","","","2","",""
"null","336316","pSARL_v2","pSARL_v2bqhwas0g","6325482a5da955ebe4a72c93","fixation","img/fixation.png","null","","test","","","","","",""
"310.7000000476837","336636","pSARL_v2","pSARL_v2bqhwas0g","6325482a5da955ebe4a72c93","freq","img/orange_2bandit_b2.png","70","70","test","1","39","39","2","",""
"null","337132","pSARL_v2","pSARL_v2bqhwas0g","6325482a5da955ebe4a72c93","freq_resp","img/orange_2bandit_b.png","70","70","test","","","","2","",""
"null","337294","pSARL_v2","pSARL_v2bqhwas0g","6325482a5da955ebe4a72c93","fixation","img/fixation.png","null","","test","","","","","",""
"359.7000000476837","337660","pSARL_v2","pSARL_v2bqhwas0g","6325482a5da955ebe4a72c93","freq","img/orange_2bandit_b2.png","70","70","test","1","40","40","2","",""
"null","338125","pSARL_v2","pSARL_v2bqhwas0g","6325482a5da955ebe4a72c93","freq_resp","img/orange_2bandit_b.png","70","70","test","","","","2","",""
"null","338295","pSARL_v2","pSARL_v2bqhwas0g","6325482a5da955ebe4a72c93","fixation","img/fixation.png","null","","test","","","","","",""
"255.5","338559","pSARL_v2","pSARL_v2bqhwas0g","6325482a5da955ebe4a72c93","freq","img/orange_2bandit_b2.png","70","70","test","1","41","41","2","",""
"null","339113","pSARL_v2","pSARL_v2bqhwas0g","6325482a5da955ebe4a72c93","freq_resp","img/orange_2bandit_b.png","70","70","test","","","","2","",""
"null","339279","pSARL_v2","pSARL_v2bqhwas0g","6325482a5da955ebe4a72c93","fixation","img/fixation.png","null","","test","","","","","",""
"211.29999995231628","339497","pSARL_v2","pSARL_v2bqhwas0g","6325482a5da955ebe4a72c93","freq","img/orange_2bandit_b2.png","70","70","test","1","42","42","2","",""
"null","340095","pSARL_v2","pSARL_v2bqhwas0g","6325482a5da955ebe4a72c93","freq_resp","img/orange_2bandit_b.png","70","70","test","","","","2","",""
"null","340258","pSARL_v2","pSARL_v2bqhwas0g","6325482a5da955ebe4a72c93","fixation","img/fixation.png","null","","test","","","","","",""
"212.09999990463257","340478","pSARL_v2","pSARL_v2bqhwas0g","6325482a5da955ebe4a72c93","freq","img/orange_2bandit_b2.png","70","70","test","1","43","43","2","",""
"null","341079","pSARL_v2","pSARL_v2bqhwas0g","6325482a5da955ebe4a72c93","freq_resp","img/orange_2bandit_b.png","70","70","test","","","","2","",""
"null","341241","pSARL_v2","pSARL_v2bqhwas0g","6325482a5da955ebe4a72c93","fixation","img/fixation.png","null","","test","","","","","",""
"76.5","341326","pSARL_v2","pSARL_v2bqhwas0g","6325482a5da955ebe4a72c93","freq","img/orange_2bandit_b2.png","70","70","test","1","44","44","2","",""
"null","342076","pSARL_v2","pSARL_v2bqhwas0g","6325482a5da955ebe4a72c93","freq_resp","img/orange_2bandit_b.png","70","70","test","","","","2","",""
"null","342248","pSARL_v2","pSARL_v2bqhwas0g","6325482a5da955ebe4a72c93","fixation","img/fixation.png","null","","test","","","","","",""
"18.300000071525574","342277","pSARL_v2","pSARL_v2bqhwas0g","6325482a5da955ebe4a72c93","freq","img/orange_2bandit_b2.png","70","70","test","1","45","45","2","",""
"null","343069","pSARL_v2","pSARL_v2bqhwas0g","6325482a5da955ebe4a72c93","freq_resp","img/orange_2bandit_b.png","70","70","test","","","","2","",""
"null","343242","pSARL_v2","pSARL_v2bqhwas0g","6325482a5da955ebe4a72c93","fixation","img/fixation.png","null","","test","","","","","",""
"0.6000000238418579","343252","pSARL_v2","pSARL_v2bqhwas0g","6325482a5da955ebe4a72c93","freq","img/orange_2bandit_b2.png","70","70","test","1","46","46","2","",""
"null","344071","pSARL_v2","pSARL_v2bqhwas0g","6325482a5da955ebe4a72c93","freq_resp","img/orange_2bandit_b.png","70","70","test","","","","2","",""
"null","344231","pSARL_v2","pSARL_v2bqhwas0g","6325482a5da955ebe4a72c93","fixation","img/fixation.png","null","","test","","","","","",""
"null","345044","pSARL_v2","pSARL_v2bqhwas0g","6325482a5da955ebe4a72c93","freq","img/orange_2bandit_b2.png","null","70","test","0","47","47","2","",""
"null","345218","pSARL_v2","pSARL_v2bqhwas0g","6325482a5da955ebe4a72c93","fixation","img/fixation.png","null","","test","","","","","",""
"null","346029","pSARL_v2","pSARL_v2bqhwas0g","6325482a5da955ebe4a72c93","freq","img/orange_2bandit_b2.png","null","70","test","0","48","48","2","",""
"null","346198","pSARL_v2","pSARL_v2bqhwas0g","6325482a5da955ebe4a72c93","fixation","img/fixation.png","null","","test","","","","","",""
"2283.399999976158","348488","pSARL_v2","pSARL_v2bqhwas0g","6325482a5da955ebe4a72c93","reward","img/slot.png","74","","test","","","","","",""
"null","349252","pSARL_v2","pSARL_v2bqhwas0g","6325482a5da955ebe4a72c93","points","<div class=""verylowPoints""> -11 </div>","null","na","test","","","","2","-11","1"
"null","350069","pSARL_v2","pSARL_v2bqhwas0g","6325482a5da955ebe4a72c93","freq","img/orange_2bandit_b2.png","null","70","test","0","49","49","3","",""
"null","350239","pSARL_v2","pSARL_v2bqhwas0g","6325482a5da955ebe4a72c93","fixation","img/fixation.png","null","","test","","","","","",""
"105.90000009536743","350354","pSARL_v2","pSARL_v2bqhwas0g","6325482a5da955ebe4a72c93","infreq","img/green_2bandit_b2.png","70","68","test","0","50","50","3","",""
"null","351063","pSARL_v2","pSARL_v2bqhwas0g","6325482a5da955ebe4a72c93","infreq_resp","img/green_2bandit_b.png","70","68","test","","","","3","",""
"null","351237","pSARL_v2","pSARL_v2bqhwas0g","6325482a5da955ebe4a72c93","fixation","img/fixation.png","null","","test","","","","","",""
"541","351787","pSARL_v2","pSARL_v2bqhwas0g","6325482a5da955ebe4a72c93","freq","img/orange_2bandit_b2.png","70","70","test","1","51","51","3","",""
"null","352054","pSARL_v2","pSARL_v2bqhwas0g","6325482a5da955ebe4a72c93","freq_resp","img/orange_2bandit_b.png","70","70","test","","","","3","",""
"null","352221","pSARL_v2","pSARL_v2bqhwas0g","6325482a5da955ebe4a72c93","fixation","img/fixation.png","null","","test","","","","","",""
"449","352678","pSARL_v2","pSARL_v2bqhwas0g","6325482a5da955ebe4a72c93","freq","img/orange_2bandit_b2.png","70","70","test","1","52","52","3","",""
"null","353046","pSARL_v2","pSARL_v2bqhwas0g","6325482a5da955ebe4a72c93","freq_resp","img/orange_2bandit_b.png","70","70","test","","","","3","",""
"null","353210","pSARL_v2","pSARL_v2bqhwas0g","6325482a5da955ebe4a72c93","fixation","img/fixation.png","null","","test","","","","","",""
"310.2999999523163","353528","pSARL_v2","pSARL_v2bqhwas0g","6325482a5da955ebe4a72c93","freq","img/orange_2bandit_b2.png","70","70","test","1","53","53","3","",""
"null","354029","pSARL_v2","pSARL_v2bqhwas0g","6325482a5da955ebe4a72c93","freq_resp","img/orange_2bandit_b.png","70","70","test","","","","3","",""
"null","354204","pSARL_v2","pSARL_v2bqhwas0g","6325482a5da955ebe4a72c93","fixation","img/fixation.png","null","","test","","","","","",""
"469.39999997615814","354681","pSARL_v2","pSARL_v2bqhwas0g","6325482a5da955ebe4a72c93","infreq","img/green_2bandit_b2.png","68","68","test","1","54","54","3","",""
"null","355031","pSARL_v2","pSARL_v2bqhwas0g","6325482a5da955ebe4a72c93","infreq_resp","img/green_2bandit_b.png","68","68","test","","","","3","",""
"null","355200","pSARL_v2","pSARL_v2bqhwas0g","6325482a5da955ebe4a72c93","fixation","img/fixation.png","null","","test","","","","","",""
"430.39999997615814","355634","pSARL_v2","pSARL_v2bqhwas0g","6325482a5da955ebe4a72c93","freq","img/orange_2bandit_b2.png","68","70","test","0","55","55","3","",""
"null","356014","pSARL_v2","pSARL_v2bqhwas0g","6325482a5da955ebe4a72c93","freq_resp","img/orange_2bandit_b.png","68","70","test","","","","3","",""
"null","356181","pSARL_v2","pSARL_v2bqhwas0g","6325482a5da955ebe4a72c93","fixation","img/fixation.png","null","","test","","","","","",""
"628.8999999761581","356817","pSARL_v2","pSARL_v2bqhwas0g","6325482a5da955ebe4a72c93","freq","img/orange_2bandit_b2.png","70","70","test","1","56","56","3","",""
"null","357011","pSARL_v2","pSARL_v2bqhwas0g","6325482a5da955ebe4a72c93","freq_resp","img/orange_2bandit_b.png","70","70","test","","","","3","",""
"null","357179","pSARL_v2","pSARL_v2bqhwas0g","6325482a5da955ebe4a72c93","fixation","img/fixation.png","null","","test","","","","","",""
"475.2000000476837","357662","pSARL_v2","pSARL_v2bqhwas0g","6325482a5da955ebe4a72c93","freq","img/orange_2bandit_b2.png","70","70","test","1","57","57","3","",""
"null","357994","pSARL_v2","pSARL_v2bqhwas0g","6325482a5da955ebe4a72c93","freq_resp","img/orange_2bandit_b.png","70","70","test","","","","3","",""
"null","358157","pSARL_v2","pSARL_v2bqhwas0g","6325482a5da955ebe4a72c93","fixation","img/fixation.png","null","","test","","","","","",""
"456.8000000715256","358623","pSARL_v2","pSARL_v2bqhwas0g","6325482a5da955ebe4a72c93","freq","img/orange_2bandit_b2.png","70","70","test","1","58","58","3","",""
"null","358980","pSARL_v2","pSARL_v2bqhwas0g","6325482a5da955ebe4a72c93","freq_resp","img/orange_2bandit_b.png","70","70","test","","","","3","",""
"null","359144","pSARL_v2","pSARL_v2bqhwas0g","6325482a5da955ebe4a72c93","fixation","img/fixation.png","null","","test","","","","","",""
"426.39999997615814","359578","pSARL_v2","pSARL_v2bqhwas0g","6325482a5da955ebe4a72c93","freq","img/orange_2bandit_b2.png","70","70","test","1","59","59","3","",""
"null","359968","pSARL_v2","pSARL_v2bqhwas0g","6325482a5da955ebe4a72c93","freq_resp","img/orange_2bandit_b.png","70","70","test","","","","3","",""
"null","360136","pSARL_v2","pSARL_v2bqhwas0g","6325482a5da955ebe4a72c93","fixation","img/fixation.png","null","","test","","","","","",""
"359.5","360503","pSARL_v2","pSARL_v2bqhwas0g","6325482a5da955ebe4a72c93","freq","img/orange_2bandit_b2.png","70","70","test","1","60","60","3","",""
"null","360955","pSARL_v2","pSARL_v2bqhwas0g","6325482a5da955ebe4a72c93","freq_resp","img/orange_2bandit_b.png","70","70","test","","","","3","",""
"null","361121","pSARL_v2","pSARL_v2bqhwas0g","6325482a5da955ebe4a72c93","fixation","img/fixation.png","null","","test","","","","","",""
"332.10000002384186","361460","pSARL_v2","pSARL_v2bqhwas0g","6325482a5da955ebe4a72c93","freq","img/orange_2bandit_b2.png","70","70","test","1","61","61","3","",""
"null","361949","pSARL_v2","pSARL_v2bqhwas0g","6325482a5da955ebe4a72c93","freq_resp","img/orange_2bandit_b.png","70","70","test","","","","3","",""
"null","362111","pSARL_v2","pSARL_v2bqhwas0g","6325482a5da955ebe4a72c93","fixation","img/fixation.png","null","","test","","","","","",""
"346.10000002384186","362463","pSARL_v2","pSARL_v2bqhwas0g","6325482a5da955ebe4a72c93","freq","img/orange_2bandit_b2.png","70","70","test","1","62","62","3","",""
"null","362934","pSARL_v2","pSARL_v2bqhwas0g","6325482a5da955ebe4a72c93","freq_resp","img/orange_2bandit_b.png","70","70","test","","","","3","",""
"null","363107","pSARL_v2","pSARL_v2bqhwas0g","6325482a5da955ebe4a72c93","fixation","img/fixation.png","null","","test","","","","","",""
"352.10000002384186","363468","pSARL_v2","pSARL_v2bqhwas0g","6325482a5da955ebe4a72c93","freq","img/orange_2bandit_b2.png","70","70","test","1","63","63","3","",""
"null","363933","pSARL_v2","pSARL_v2bqhwas0g","6325482a5da955ebe4a72c93","freq_resp","img/orange_2bandit_b.png","70","70","test","","","","3","",""
"null","364105","pSARL_v2","pSARL_v2bqhwas0g","6325482a5da955ebe4a72c93","fixation","img/fixation.png","null","","test","","","","","",""
"379.6999999284744","364492","pSARL_v2","pSARL_v2bqhwas0g","6325482a5da955ebe4a72c93","freq","img/orange_2bandit_b2.png","70","70","test","1","64","64","3","",""
"null","364928","pSARL_v2","pSARL_v2bqhwas0g","6325482a5da955ebe4a72c93","freq_resp","img/orange_2bandit_b.png","70","70","test","","","","3","",""
"null","365093","pSARL_v2","pSARL_v2bqhwas0g","6325482a5da955ebe4a72c93","fixation","img/fixation.png","null","","test","","","","","",""
"394.5","365495","pSARL_v2","pSARL_v2bqhwas0g","6325482a5da955ebe4a72c93","freq","img/orange_2bandit_b2.png","70","70","test","1","65","65","3","",""
"null","365920","pSARL_v2","pSARL_v2bqhwas0g","6325482a5da955ebe4a72c93","freq_resp","img/orange_2bandit_b.png","70","70","test","","","","3","",""
"null","366091","pSARL_v2","pSARL_v2bqhwas0g","6325482a5da955ebe4a72c93","fixation","img/fixation.png","null","","test","","","","","",""
"413.89999997615814","366513","pSARL_v2","pSARL_v2bqhwas0g","6325482a5da955ebe4a72c93","freq","img/orange_2bandit_b2.png","70","70","test","1","66","66","3","",""
"null","366917","pSARL_v2","pSARL_v2bqhwas0g","6325482a5da955ebe4a72c93","freq_resp","img/orange_2bandit_b.png","70","70","test","","","","3","",""
"null","367082","pSARL_v2","pSARL_v2bqhwas0g","6325482a5da955ebe4a72c93","fixation","img/fixation.png","null","","test","","","","","",""
"510.60000002384186","367600","pSARL_v2","pSARL_v2bqhwas0g","6325482a5da955ebe4a72c93","freq","img/orange_2bandit_b2.png","70","70","test","1","67","67","3","",""
"null","367903","pSARL_v2","pSARL_v2bqhwas0g","6325482a5da955ebe4a72c93","freq_resp","img/orange_2bandit_b.png","70","70","test","","","","3","",""
"null","368068","pSARL_v2","pSARL_v2bqhwas0g","6325482a5da955ebe4a72c93","fixation","img/fixation.png","null","","test","","","","","",""
"1001.6000000238419","369078","pSARL_v2","pSARL_v2bqhwas0g","6325482a5da955ebe4a72c93","reward","img/slot.png","74","","test","","","","","",""
"null","369844","pSARL_v2","pSARL_v2bqhwas0g","6325482a5da955ebe4a72c93","points","<div class=""verylowPoints""> -7 </div>","null","na","test","","","","3","-7","2"
"547.2000000476837","370401","pSARL_v2","pSARL_v2bqhwas0g","6325482a5da955ebe4a72c93","freq","img/orange_2bandit_b2.png","70","70","test","1","68","68","4","",""
"null","370666","pSARL_v2","pSARL_v2bqhwas0g","6325482a5da955ebe4a72c93","freq_resp","img/orange_2bandit_b.png","70","70","test","","","","4","",""
"null","370830","pSARL_v2","pSARL_v2bqhwas0g","6325482a5da955ebe4a72c93","fixation","img/fixation.png","null","","test","","","","","",""
"527.8999999761581","371366","pSARL_v2","pSARL_v2bqhwas0g","6325482a5da955ebe4a72c93","freq","img/orange_2bandit_b2.png","70","70","test","1","69","69","4","",""
"null","371651","pSARL_v2","pSARL_v2bqhwas0g","6325482a5da955ebe4a72c93","freq_resp","img/orange_2bandit_b.png","70","70","test","","","","4","",""
"null","371826","pSARL_v2","pSARL_v2bqhwas0g","6325482a5da955ebe4a72c93","fixation","img/fixation.png","null","","test","","","","","",""
"412.89999997615814","372247","pSARL_v2","pSARL_v2bqhwas0g","6325482a5da955ebe4a72c93","freq","img/orange_2bandit_b2.png","70","70","test","1","70","70","4","",""
"null","372655","pSARL_v2","pSARL_v2bqhwas0g","6325482a5da955ebe4a72c93","freq_resp","img/orange_2bandit_b.png","70","70","test","","","","4","",""
"null","372818","pSARL_v2","pSARL_v2bqhwas0g","6325482a5da955ebe4a72c93","fixation","img/fixation.png","null","","test","","","","","",""
"357.10000002384186","373183","pSARL_v2","pSARL_v2bqhwas0g","6325482a5da955ebe4a72c93","freq","img/orange_2bandit_b2.png","70","70","test","1","71","71","4","",""
"null","373634","pSARL_v2","pSARL_v2bqhwas0g","6325482a5da955ebe4a72c93","freq_resp","img/orange_2bandit_b.png","70","70","test","","","","4","",""
"null","373806","pSARL_v2","pSARL_v2bqhwas0g","6325482a5da955ebe4a72c93","fixation","img/fixation.png","null","","test","","","","","",""
"339.7000000476837","374153","pSARL_v2","pSARL_v2bqhwas0g","6325482a5da955ebe4a72c93","freq","img/orange_2bandit_b2.png","70","70","test","1","72","72","4","",""
"null","374637","pSARL_v2","pSARL_v2bqhwas0g","6325482a5da955ebe4a72c93","freq_resp","img/orange_2bandit_b.png","70","70","test","","","","4","",""
"null","374810","pSARL_v2","pSARL_v2bqhwas0g","6325482a5da955ebe4a72c93","fixation","img/fixation.png","null","","test","","","","","",""
"278.09999990463257","375096","pSARL_v2","pSARL_v2bqhwas0g","6325482a5da955ebe4a72c93","freq","img/orange_2bandit_b2.png","70","70","test","1","73","73","4","",""
"null","375633","pSARL_v2","pSARL_v2bqhwas0g","6325482a5da955ebe4a72c93","freq_resp","img/orange_2bandit_b.png","70","70","test","","","","4","",""
"null","375799","pSARL_v2","pSARL_v2bqhwas0g","6325482a5da955ebe4a72c93","fixation","img/fixation.png","null","","test","","","","","",""
"282","376088","pSARL_v2","pSARL_v2bqhwas0g","6325482a5da955ebe4a72c93","freq","img/orange_2bandit_b2.png","70","70","test","1","74","74","4","",""
"null","376619","pSARL_v2","pSARL_v2bqhwas0g","6325482a5da955ebe4a72c93","freq_resp","img/orange_2bandit_b.png","70","70","test","","","","4","",""
"null","376783","pSARL_v2","pSARL_v2bqhwas0g","6325482a5da955ebe4a72c93","fixation","img/fixation.png","null","","test","","","","","",""
"268.5","377060","pSARL_v2","pSARL_v2bqhwas0g","6325482a5da955ebe4a72c93","infreq","img/green_2bandit_b2.png","70","68","test","0","75","75","4","",""
"null","377602","pSARL_v2","pSARL_v2bqhwas0g","6325482a5da955ebe4a72c93","infreq_resp","img/green_2bandit_b.png","70","68","test","","","","4","",""
"null","377761","pSARL_v2","pSARL_v2bqhwas0g","6325482a5da955ebe4a72c93","fixation","img/fixation.png","null","","test","","","","","",""
"487.1999999284744","378255","pSARL_v2","pSARL_v2bqhwas0g","6325482a5da955ebe4a72c93","freq","img/orange_2bandit_b2.png","70","70","test","1","76","76","4","",""
"null","378587","pSARL_v2","pSARL_v2bqhwas0g","6325482a5da955ebe4a72c93","freq_resp","img/orange_2bandit_b.png","70","70","test","","","","4","",""
"null","378747","pSARL_v2","pSARL_v2bqhwas0g","6325482a5da955ebe4a72c93","fixation","img/fixation.png","null","","test","","","","","",""
"442.89999997615814","379196","pSARL_v2","pSARL_v2bqhwas0g","6325482a5da955ebe4a72c93","freq","img/orange_2bandit_b2.png","70","70","test","1","77","77","4","",""
"null","379575","pSARL_v2","pSARL_v2bqhwas0g","6325482a5da955ebe4a72c93","freq_resp","img/orange_2bandit_b.png","70","70","test","","","","4","",""
"null","379744","pSARL_v2","pSARL_v2bqhwas0g","6325482a5da955ebe4a72c93","fixation","img/fixation.png","null","","test","","","","","",""
"397","380149","pSARL_v2","pSARL_v2bqhwas0g","6325482a5da955ebe4a72c93","infreq","img/green_2bandit_b2.png","68","68","test","1","78","78","4","",""
"null","380566","pSARL_v2","pSARL_v2bqhwas0g","6325482a5da955ebe4a72c93","infreq_resp","img/green_2bandit_b.png","68","68","test","","","","4","",""
"null","380731","pSARL_v2","pSARL_v2bqhwas0g","6325482a5da955ebe4a72c93","fixation","img/fixation.png","null","","test","","","","","",""
"444.2999999523163","381182","pSARL_v2","pSARL_v2bqhwas0g","6325482a5da955ebe4a72c93","freq","img/orange_2bandit_b2.png","70","70","test","1","79","79","4","",""
"null","381552","pSARL_v2","pSARL_v2bqhwas0g","6325482a5da955ebe4a72c93","freq_resp","img/orange_2bandit_b.png","70","70","test","","","","4","",""
"null","381719","pSARL_v2","pSARL_v2bqhwas0g","6325482a5da955ebe4a72c93","fixation","img/fixation.png","null","","test","","","","","",""
"334.5","382061","pSARL_v2","pSARL_v2bqhwas0g","6325482a5da955ebe4a72c93","freq","img/orange_2bandit_b2.png","70","70","test","1","80","80","4","",""
"null","382546","pSARL_v2","pSARL_v2bqhwas0g","6325482a5da955ebe4a72c93","freq_resp","img/orange_2bandit_b.png","70","70","test","","","","4","",""
"null","382713","pSARL_v2","pSARL_v2bqhwas0g","6325482a5da955ebe4a72c93","fixation","img/fixation.png","null","","test","","","","","",""
"293.5","383014","pSARL_v2","pSARL_v2bqhwas0g","6325482a5da955ebe4a72c93","freq","img/orange_2bandit_b2.png","70","70","test","1","81","81","4","",""
"null","383529","pSARL_v2","pSARL_v2bqhwas0g","6325482a5da955ebe4a72c93","freq_resp","img/orange_2bandit_b.png","70","70","test","","","","4","",""
"null","383689","pSARL_v2","pSARL_v2bqhwas0g","6325482a5da955ebe4a72c93","fixation","img/fixation.png","null","","test","","","","","",""
"257.09999990463257","383954","pSARL_v2","pSARL_v2bqhwas0g","6325482a5da955ebe4a72c93","freq","img/orange_2bandit_b2.png","70","70","test","1","82","82","4","",""
"null","384511","pSARL_v2","pSARL_v2bqhwas0g","6325482a5da955ebe4a72c93","freq_resp","img/orange_2bandit_b.png","70","70","test","","","","4","",""
"null","384673","pSARL_v2","pSARL_v2bqhwas0g","6325482a5da955ebe4a72c93","fixation","img/fixation.png","null","","test","","","","","",""
"233.80000007152557","384913","pSARL_v2","pSARL_v2bqhwas0g","6325482a5da955ebe4a72c93","freq","img/orange_2bandit_b2.png","70","70","test","1","83","83","4","",""
"null","385492","pSARL_v2","pSARL_v2bqhwas0g","6325482a5da955ebe4a72c93","freq_resp","img/orange_2bandit_b.png","70","70","test","","","","4","",""
"null","385667","pSARL_v2","pSARL_v2bqhwas0g","6325482a5da955ebe4a72c93","fixation","img/fixation.png","null","","test","","","","","",""
"100.39999997615814","385775","pSARL_v2","pSARL_v2bqhwas0g","6325482a5da955ebe4a72c93","freq","img/orange_2bandit_b2.png","70","70","test","1","84","84","4","",""
"null","386495","pSARL_v2","pSARL_v2bqhwas0g","6325482a5da955ebe4a72c93","freq_resp","img/orange_2bandit_b.png","70","70","test","","","","4","",""
"null","386656","pSARL_v2","pSARL_v2bqhwas0g","6325482a5da955ebe4a72c93","fixation","img/fixation.png","null","","test","","","","","",""
"61.200000047683716","386725","pSARL_v2","pSARL_v2bqhwas0g","6325482a5da955ebe4a72c93","freq","img/orange_2bandit_b2.png","70","70","test","1","85","85","4","",""
"null","387485","pSARL_v2","pSARL_v2bqhwas0g","6325482a5da955ebe4a72c93","freq_resp","img/orange_2bandit_b.png","70","70","test","","","","4","",""
"null","387653","pSARL_v2","pSARL_v2bqhwas0g","6325482a5da955ebe4a72c93","fixation","img/fixation.png","null","","test","","","","","",""
"101.60000002384186","387762","pSARL_v2","pSARL_v2bqhwas0g","6325482a5da955ebe4a72c93","freq","img/orange_2bandit_b2.png","70","70","test","1","86","86","4","",""
"null","388478","pSARL_v2","pSARL_v2bqhwas0g","6325482a5da955ebe4a72c93","freq_resp","img/orange_2bandit_b.png","70","70","test","","","","4","",""
"null","388641","pSARL_v2","pSARL_v2bqhwas0g","6325482a5da955ebe4a72c93","fixation","img/fixation.png","null","","test","","","","","",""
"261.7999999523163","388910","pSARL_v2","pSARL_v2bqhwas0g","6325482a5da955ebe4a72c93","freq","img/orange_2bandit_b2.png","70","70","test","1","87","87","4","",""
"null","389463","pSARL_v2","pSARL_v2bqhwas0g","6325482a5da955ebe4a72c93","freq_resp","img/orange_2bandit_b.png","70","70","test","","","","4","",""
"null","389625","pSARL_v2","pSARL_v2bqhwas0g","6325482a5da955ebe4a72c93","fixation","img/fixation.png","null","","test","","","","","",""
"226.39999997615814","389859","pSARL_v2","pSARL_v2bqhwas0g","6325482a5da955ebe4a72c93","freq","img/orange_2bandit_b2.png","70","70","test","1","88","88","4","",""
"null","390450","pSARL_v2","pSARL_v2bqhwas0g","6325482a5da955ebe4a72c93","freq_resp","img/orange_2bandit_b.png","70","70","test","","","","4","",""
"null","390617","pSARL_v2","pSARL_v2bqhwas0g","6325482a5da955ebe4a72c93","fixation","img/fixation.png","null","","test","","","","","",""
"287.10000002384186","390911","pSARL_v2","pSARL_v2bqhwas0g","6325482a5da955ebe4a72c93","freq","img/orange_2bandit_b2.png","70","70","test","1","89","89","4","",""
"null","391434","pSARL_v2","pSARL_v2bqhwas0g","6325482a5da955ebe4a72c93","freq_resp","img/orange_2bandit_b.png","70","70","test","","","","4","",""
"null","391594","pSARL_v2","pSARL_v2bqhwas0g","6325482a5da955ebe4a72c93","fixation","img/fixation.png","null","","test","","","","","",""
"355.7999999523163","391957","pSARL_v2","pSARL_v2bqhwas0g","6325482a5da955ebe4a72c93","freq","img/orange_2bandit_b2.png","70","70","test","1","90","90","4","",""
"null","392412","pSARL_v2","pSARL_v2bqhwas0g","6325482a5da955ebe4a72c93","freq_resp","img/orange_2bandit_b.png","70","70","test","","","","4","",""
"null","392583","pSARL_v2","pSARL_v2bqhwas0g","6325482a5da955ebe4a72c93","fixation","img/fixation.png","null","","test","","","","","",""
"2126","394716","pSARL_v2","pSARL_v2bqhwas0g","6325482a5da955ebe4a72c93","reward","img/slot.png","74","","test","","","","","",""
"null","395479","pSARL_v2","pSARL_v2bqhwas0g","6325482a5da955ebe4a72c93","points","<div class=""verylowPoints""> -3 </div>","null","na","test","","","","4","-3","3"
"176.59999990463257","395663","pSARL_v2","pSARL_v2bqhwas0g","6325482a5da955ebe4a72c93","freq","img/orange_2bandit_b2.png","70","70","test","1","91","91","5","",""
"null","396302","pSARL_v2","pSARL_v2bqhwas0g","6325482a5da955ebe4a72c93","freq_resp","img/orange_2bandit_b.png","70","70","test","","","","5","",""
"null","396471","pSARL_v2","pSARL_v2bqhwas0g","6325482a5da955ebe4a72c93","fixation","img/fixation.png","null","","test","","","","","",""
"677.5","397157","pSARL_v2","pSARL_v2bqhwas0g","6325482a5da955ebe4a72c93","freq","img/orange_2bandit_b2.png","70","70","test","1","92","92","5","",""
"null","397299","pSARL_v2","pSARL_v2bqhwas0g","6325482a5da955ebe4a72c93","freq_resp","img/orange_2bandit_b.png","70","70","test","","","","5","",""
"null","397478","pSARL_v2","pSARL_v2bqhwas0g","6325482a5da955ebe4a72c93","fixation","img/fixation.png","null","","test","","","","","",""
"536","398022","pSARL_v2","pSARL_v2bqhwas0g","6325482a5da955ebe4a72c93","freq","img/orange_2bandit_b2.png","70","70","test","1","93","93","5","",""
"null","398304","pSARL_v2","pSARL_v2bqhwas0g","6325482a5da955ebe4a72c93","freq_resp","img/orange_2bandit_b.png","70","70","test","","","","5","",""
"null","398464","pSARL_v2","pSARL_v2bqhwas0g","6325482a5da955ebe4a72c93","fixation","img/fixation.png","null","","test","","","","","",""
"392.1999999284744","398863","pSARL_v2","pSARL_v2bqhwas0g","6325482a5da955ebe4a72c93","freq","img/orange_2bandit_b2.png","70","70","test","1","94","94","5","",""
"null","399280","pSARL_v2","pSARL_v2bqhwas0g","6325482a5da955ebe4a72c93","freq_resp","img/orange_2bandit_b.png","70","70","test","","","","5","",""
"null","399446","pSARL_v2","pSARL_v2bqhwas0g","6325482a5da955ebe4a72c93","fixation","img/fixation.png","null","","test","","","","","",""
"238","399693","pSARL_v2","pSARL_v2bqhwas0g","6325482a5da955ebe4a72c93","freq","img/orange_2bandit_b2.png","70","70","test","1","95","95","5","",""
"null","400272","pSARL_v2","pSARL_v2bqhwas0g","6325482a5da955ebe4a72c93","freq_resp","img/orange_2bandit_b.png","70","70","test","","","","5","",""
"null","400434","pSARL_v2","pSARL_v2bqhwas0g","6325482a5da955ebe4a72c93","fixation","img/fixation.png","null","","test","","","","","",""
"368.09999990463257","400810","pSARL_v2","pSARL_v2bqhwas0g","6325482a5da955ebe4a72c93","freq","img/orange_2bandit_b2.png","70","70","test","1","96","96","5","",""
"null","401264","pSARL_v2","pSARL_v2bqhwas0g","6325482a5da955ebe4a72c93","freq_resp","img/orange_2bandit_b.png","70","70","test","","","","5","",""
"null","401432","pSARL_v2","pSARL_v2bqhwas0g","6325482a5da955ebe4a72c93","fixation","img/fixation.png","null","","test","","","","","",""
"402.3000000715256","401842","pSARL_v2","pSARL_v2bqhwas0g","6325482a5da955ebe4a72c93","freq","img/orange_2bandit_b2.png","70","70","test","1","97","97","5","",""
"null","402248","pSARL_v2","pSARL_v2bqhwas0g","6325482a5da955ebe4a72c93","freq_resp","img/orange_2bandit_b.png","70","70","test","","","","5","",""
"null","402417","pSARL_v2","pSARL_v2bqhwas0g","6325482a5da955ebe4a72c93","fixation","img/fixation.png","null","","test","","","","","",""
"464.10000002384186","402889","pSARL_v2","pSARL_v2bqhwas0g","6325482a5da955ebe4a72c93","infreq","img/green_2bandit_b2.png","68","68","test","1","98","98","5","",""
"null","403246","pSARL_v2","pSARL_v2bqhwas0g","6325482a5da955ebe4a72c93","infreq_resp","img/green_2bandit_b.png","68","68","test","","","","5","",""
"null","403409","pSARL_v2","pSARL_v2bqhwas0g","6325482a5da955ebe4a72c93","fixation","img/fixation.png","null","","test","","","","","",""
"445.5","403862","pSARL_v2","pSARL_v2bqhwas0g","6325482a5da955ebe4a72c93","freq","img/orange_2bandit_b2.png","70","70","test","1","99","99","5","",""
"null","404230","pSARL_v2","pSARL_v2bqhwas0g","6325482a5da955ebe4a72c93","freq_resp","img/orange_2bandit_b.png","70","70","test","","","","5","",""
"null","404395","pSARL_v2","pSARL_v2bqhwas0g","6325482a5da955ebe4a72c93","fixation","img/fixation.png","null","","test","","","","","",""
"423","404825","pSARL_v2","pSARL_v2bqhwas0g","6325482a5da955ebe4a72c93","freq","img/orange_2bandit_b2.png","70","70","test","1","100","100","5","",""
"null","405216","pSARL_v2","pSARL_v2bqhwas0g","6325482a5da955ebe4a72c93","freq_resp","img/orange_2bandit_b.png","70","70","test","","","","5","",""
"null","405386","pSARL_v2","pSARL_v2bqhwas0g","6325482a5da955ebe4a72c93","fixation","img/fixation.png","null","","test","","","","","",""
"375.5","405769","pSARL_v2","pSARL_v2bqhwas0g","6325482a5da955ebe4a72c93","freq","img/orange_2bandit_b2.png","70","70","test","1","101","101","5","",""
"null","406215","pSARL_v2","pSARL_v2bqhwas0g","6325482a5da955ebe4a72c93","freq_resp","img/orange_2bandit_b.png","70","70","test","","","","5","",""
"null","406387","pSARL_v2","pSARL_v2bqhwas0g","6325482a5da955ebe4a72c93","fixation","img/fixation.png","null","","test","","","","","",""
"314.89999997615814","406710","pSARL_v2","pSARL_v2bqhwas0g","6325482a5da955ebe4a72c93","freq","img/orange_2bandit_b2.png","70","70","test","1","102","102","5","",""
"null","407213","pSARL_v2","pSARL_v2bqhwas0g","6325482a5da955ebe4a72c93","freq_resp","img/orange_2bandit_b.png","70","70","test","","","","5","",""
"null","407386","pSARL_v2","pSARL_v2bqhwas0g","6325482a5da955ebe4a72c93","fixation","img/fixation.png","null","","test","","","","","",""
"428.90000009536743","407827","pSARL_v2","pSARL_v2bqhwas0g","6325482a5da955ebe4a72c93","freq","img/orange_2bandit_b2.png","70","70","test","1","103","103","5","",""
"null","408215","pSARL_v2","pSARL_v2bqhwas0g","6325482a5da955ebe4a72c93","freq_resp","img/orange_2bandit_b.png","70","70","test","","","","5","",""
"null","408375","pSARL_v2","pSARL_v2bqhwas0g","6325482a5da955ebe4a72c93","fixation","img/fixation.png","null","","test","","","","","",""
"452.2999999523163","408835","pSARL_v2","pSARL_v2bqhwas0g","6325482a5da955ebe4a72c93","freq","img/orange_2bandit_b2.png","70","70","test","1","104","104","5","",""
"null","409203","pSARL_v2","pSARL_v2bqhwas0g","6325482a5da955ebe4a72c93","freq_resp","img/orange_2bandit_b.png","70","70","test","","","","5","",""
"null","409375","pSARL_v2","pSARL_v2bqhwas0g","6325482a5da955ebe4a72c93","fixation","img/fixation.png","null","","test","","","","","",""
"401.5","409784","pSARL_v2","pSARL_v2bqhwas0g","6325482a5da955ebe4a72c93","freq","img/orange_2bandit_b2.png","70","70","test","1","105","105","5","",""
"null","410195","pSARL_v2","pSARL_v2bqhwas0g","6325482a5da955ebe4a72c93","freq_resp","img/orange_2bandit_b.png","70","70","test","","","","5","",""
"null","410356","pSARL_v2","pSARL_v2bqhwas0g","6325482a5da955ebe4a72c93","fixation","img/fixation.png","null","","test","","","","","",""
"509.6999999284744","410874","pSARL_v2","pSARL_v2bqhwas0g","6325482a5da955ebe4a72c93","freq","img/orange_2bandit_b2.png","70","70","test","1","106","106","5","",""
"null","411175","pSARL_v2","pSARL_v2bqhwas0g","6325482a5da955ebe4a72c93","freq_resp","img/orange_2bandit_b.png","70","70","test","","","","5","",""
"null","411342","pSARL_v2","pSARL_v2bqhwas0g","6325482a5da955ebe4a72c93","fixation","img/fixation.png","null","","test","","","","","",""
"352.7000000476837","411701","pSARL_v2","pSARL_v2bqhwas0g","6325482a5da955ebe4a72c93","freq","img/orange_2bandit_b2.png","70","70","test","1","107","107","5","",""
"null","412171","pSARL_v2","pSARL_v2bqhwas0g","6325482a5da955ebe4a72c93","freq_resp","img/orange_2bandit_b.png","70","70","test","","","","5","",""
"null","412343","pSARL_v2","pSARL_v2bqhwas0g","6325482a5da955ebe4a72c93","fixation","img/fixation.png","null","","test","","","","","",""
"301.89999997615814","412652","pSARL_v2","pSARL_v2bqhwas0g","6325482a5da955ebe4a72c93","freq","img/orange_2bandit_b2.png","70","70","test","1","108","108","5","",""
"null","413169","pSARL_v2","pSARL_v2bqhwas0g","6325482a5da955ebe4a72c93","freq_resp","img/orange_2bandit_b.png","70","70","test","","","","5","",""
"null","413334","pSARL_v2","pSARL_v2bqhwas0g","6325482a5da955ebe4a72c93","fixation","img/fixation.png","null","","test","","","","","",""
"290.89999997615814","413632","pSARL_v2","pSARL_v2bqhwas0g","6325482a5da955ebe4a72c93","freq","img/orange_2bandit_b2.png","70","70","test","1","109","109","5","",""
"null","414153","pSARL_v2","pSARL_v2bqhwas0g","6325482a5da955ebe4a72c93","freq_resp","img/orange_2bandit_b.png","70","70","test","","","","5","",""
"null","414321","pSARL_v2","pSARL_v2bqhwas0g","6325482a5da955ebe4a72c93","fixation","img/fixation.png","null","","test","","","","","",""
"483.89999997615814","414812","pSARL_v2","pSARL_v2bqhwas0g","6325482a5da955ebe4a72c93","infreq","img/green_2bandit_b2.png","68","68","test","1","110","110","5","",""
"null","415153","pSARL_v2","pSARL_v2bqhwas0g","6325482a5da955ebe4a72c93","infreq_resp","img/green_2bandit_b.png","68","68","test","","","","5","",""
"null","415324","pSARL_v2","pSARL_v2bqhwas0g","6325482a5da955ebe4a72c93","fixation","img/fixation.png","null","","test","","","","","",""
"414.10000002384186","415744","pSARL_v2","pSARL_v2bqhwas0g","6325482a5da955ebe4a72c93","freq","img/orange_2bandit_b2.png","70","70","test","1","111","111","5","",""
"null","416140","pSARL_v2","pSARL_v2bqhwas0g","6325482a5da955ebe4a72c93","freq_resp","img/orange_2bandit_b.png","70","70","test","","","","5","",""
"null","416310","pSARL_v2","pSARL_v2bqhwas0g","6325482a5da955ebe4a72c93","fixation","img/fixation.png","null","","test","","","","","",""
"400.89999997615814","416718","pSARL_v2","pSARL_v2bqhwas0g","6325482a5da955ebe4a72c93","freq","img/orange_2bandit_b2.png","70","70","test","1","112","112","5","",""
"null","417135","pSARL_v2","pSARL_v2bqhwas0g","6325482a5da955ebe4a72c93","freq_resp","img/orange_2bandit_b.png","70","70","test","","","","5","",""
"null","417296","pSARL_v2","pSARL_v2bqhwas0g","6325482a5da955ebe4a72c93","fixation","img/fixation.png","null","","test","","","","","",""
"1505.9000000953674","418808","pSARL_v2","pSARL_v2bqhwas0g","6325482a5da955ebe4a72c93","reward","img/slot.png","74","","test","","","","","",""
"null","419572","pSARL_v2","pSARL_v2bqhwas0g","6325482a5da955ebe4a72c93","points","<div class=""veryhighPoints""> +1 </div>","null","na","test","","","","5","1","4"
"241.20000004768372","419820","pSARL_v2","pSARL_v2bqhwas0g","6325482a5da955ebe4a72c93","freq","img/orange_2bandit_b2.png","70","70","test","1","113","113","6","",""
"null","420399","pSARL_v2","pSARL_v2bqhwas0g","6325482a5da955ebe4a72c93","freq_resp","img/orange_2bandit_b.png","70","70","test","","","","6","",""
"null","420569","pSARL_v2","pSARL_v2bqhwas0g","6325482a5da955ebe4a72c93","fixation","img/fixation.png","null","","test","","","","","",""
"264.2999999523163","420841","pSARL_v2","pSARL_v2bqhwas0g","6325482a5da955ebe4a72c93","freq","img/orange_2bandit_b2.png","70","70","test","1","114","114","6","",""
"null","421385","pSARL_v2","pSARL_v2bqhwas0g","6325482a5da955ebe4a72c93","freq_resp","img/orange_2bandit_b.png","70","70","test","","","","6","",""
"null","421554","pSARL_v2","pSARL_v2bqhwas0g","6325482a5da955ebe4a72c93","fixation","img/fixation.png","null","","test","","","","","",""
"158.79999995231628","421720","pSARL_v2","pSARL_v2bqhwas0g","6325482a5da955ebe4a72c93","freq","img/orange_2bandit_b2.png","70","70","test","1","115","115","6","",""
"null","422381","pSARL_v2","pSARL_v2bqhwas0g","6325482a5da955ebe4a72c93","freq_resp","img/orange_2bandit_b.png","70","70","test","","","","6","",""
"null","422544","pSARL_v2","pSARL_v2bqhwas0g","6325482a5da955ebe4a72c93","fixation","img/fixation.png","null","","test","","","","","",""
"null","423359","pSARL_v2","pSARL_v2bqhwas0g","6325482a5da955ebe4a72c93","freq","img/orange_2bandit_b2.png","null","70","test","0","116","116","6","",""
"null","423529","pSARL_v2","pSARL_v2bqhwas0g","6325482a5da955ebe4a72c93","fixation","img/fixation.png","null","","test","","","","","",""
"93.29999995231628","423630","pSARL_v2","pSARL_v2bqhwas0g","6325482a5da955ebe4a72c93","freq","img/orange_2bandit_b2.png","70","70","test","1","117","117","6","",""
"null","424344","pSARL_v2","pSARL_v2bqhwas0g","6325482a5da955ebe4a72c93","freq_resp","img/orange_2bandit_b.png","70","70","test","","","","6","",""
"null","424506","pSARL_v2","pSARL_v2bqhwas0g","6325482a5da955ebe4a72c93","fixation","img/fixation.png","null","","test","","","","","",""
"357.10000002384186","424871","pSARL_v2","pSARL_v2bqhwas0g","6325482a5da955ebe4a72c93","freq","img/orange_2bandit_b2.png","70","70","test","1","118","118","6","",""
"null","425336","pSARL_v2","pSARL_v2bqhwas0g","6325482a5da955ebe4a72c93","freq_resp","img/orange_2bandit_b.png","70","70","test","","","","6","",""
"null","425502","pSARL_v2","pSARL_v2bqhwas0g","6325482a5da955ebe4a72c93","fixation","img/fixation.png","null","","test","","","","","",""
"364.7000000476837","425874","pSARL_v2","pSARL_v2bqhwas0g","6325482a5da955ebe4a72c93","freq","img/orange_2bandit_b2.png","70","70","test","1","119","119","6","",""
"null","426321","pSARL_v2","pSARL_v2bqhwas0g","6325482a5da955ebe4a72c93","freq_resp","img/orange_2bandit_b.png","70","70","test","","","","6","",""
"null","426494","pSARL_v2","pSARL_v2bqhwas0g","6325482a5da955ebe4a72c93","fixation","img/fixation.png","null","","test","","","","","",""
"378","426879","pSARL_v2","pSARL_v2bqhwas0g","6325482a5da955ebe4a72c93","freq","img/orange_2bandit_b2.png","70","70","test","1","120","120","6","",""
"null","427319","pSARL_v2","pSARL_v2bqhwas0g","6325482a5da955ebe4a72c93","freq_resp","img/orange_2bandit_b.png","70","70","test","","","","6","",""
"null","427492","pSARL_v2","pSARL_v2bqhwas0g","6325482a5da955ebe4a72c93","fixation","img/fixation.png","null","","test","","","","","",""
"363.7999999523163","427864","pSARL_v2","pSARL_v2bqhwas0g","6325482a5da955ebe4a72c93","freq","img/orange_2bandit_b2.png","70","70","test","1","121","121","6","",""
"null","428320","pSARL_v2","pSARL_v2bqhwas0g","6325482a5da955ebe4a72c93","freq_resp","img/orange_2bandit_b.png","70","70","test","","","","6","",""
"null","428491","pSARL_v2","pSARL_v2bqhwas0g","6325482a5da955ebe4a72c93","fixation","img/fixation.png","null","","test","","","","","",""
"398.3000000715256","428897","pSARL_v2","pSARL_v2bqhwas0g","6325482a5da955ebe4a72c93","freq","img/orange_2bandit_b2.png","70","70","test","1","122","122","6","",""
"null","429313","pSARL_v2","pSARL_v2bqhwas0g","6325482a5da955ebe4a72c93","freq_resp","img/orange_2bandit_b.png","70","70","test","","","","6","",""
"null","429474","pSARL_v2","pSARL_v2bqhwas0g","6325482a5da955ebe4a72c93","fixation","img/fixation.png","null","","test","","","","","",""
"401.2999999523163","429882","pSARL_v2","pSARL_v2bqhwas0g","6325482a5da955ebe4a72c93","freq","img/orange_2bandit_b2.png","70","70","test","1","123","123","6","",""
"null","430289","pSARL_v2","pSARL_v2bqhwas0g","6325482a5da955ebe4a72c93","freq_resp","img/orange_2bandit_b.png","70","70","test","","","","6","",""
"null","430451","pSARL_v2","pSARL_v2bqhwas0g","6325482a5da955ebe4a72c93","fixation","img/fixation.png","null","","test","","","","","",""
"429.60000002384186","430889","pSARL_v2","pSARL_v2bqhwas0g","6325482a5da955ebe4a72c93","freq","img/orange_2bandit_b2.png","70","70","test","1","124","124","6","",""
"null","431280","pSARL_v2","pSARL_v2bqhwas0g","6325482a5da955ebe4a72c93","freq_resp","img/orange_2bandit_b.png","70","70","test","","","","6","",""
"null","431444","pSARL_v2","pSARL_v2bqhwas0g","6325482a5da955ebe4a72c93","fixation","img/fixation.png","null","","test","","","","","",""
"423.7000000476837","431876","pSARL_v2","pSARL_v2bqhwas0g","6325482a5da955ebe4a72c93","freq","img/orange_2bandit_b2.png","70","70","test","1","125","125","6","",""
"null","432263","pSARL_v2","pSARL_v2bqhwas0g","6325482a5da955ebe4a72c93","freq_resp","img/orange_2bandit_b.png","70","70","test","","","","6","",""
"null","432430","pSARL_v2","pSARL_v2bqhwas0g","6325482a5da955ebe4a72c93","fixation","img/fixation.png","null","","test","","","","","",""
"482.7000000476837","432920","pSARL_v2","pSARL_v2bqhwas0g","6325482a5da955ebe4a72c93","infreq","img/green_2bandit_b2.png","68","68","test","1","126","126","6","",""
"null","433257","pSARL_v2","pSARL_v2bqhwas0g","6325482a5da955ebe4a72c93","infreq_resp","img/green_2bandit_b.png","68","68","test","","","","6","",""
"null","433430","pSARL_v2","pSARL_v2bqhwas0g","6325482a5da955ebe4a72c93","fixation","img/fixation.png","null","","test","","","","","",""
"531.4000000953674","433968","pSARL_v2","pSARL_v2bqhwas0g","6325482a5da955ebe4a72c93","freq","img/orange_2bandit_b2.png","70","70","test","1","127","127","6","",""
"null","434254","pSARL_v2","pSARL_v2bqhwas0g","6325482a5da955ebe4a72c93","freq_resp","img/orange_2bandit_b.png","70","70","test","","","","6","",""
"null","434413","pSARL_v2","pSARL_v2bqhwas0g","6325482a5da955ebe4a72c93","fixation","img/fixation.png","null","","test","","","","","",""
"532.3999999761581","434954","pSARL_v2","pSARL_v2bqhwas0g","6325482a5da955ebe4a72c93","infreq","img/green_2bandit_b2.png","68","68","test","1","128","128","6","",""
"null","435231","pSARL_v2","pSARL_v2bqhwas0g","6325482a5da955ebe4a72c93","infreq_resp","img/green_2bandit_b.png","68","68","test","","","","6","",""
"null","435397","pSARL_v2","pSARL_v2bqhwas0g","6325482a5da955ebe4a72c93","fixation","img/fixation.png","null","","test","","","","","",""
"486.89999997615814","435892","pSARL_v2","pSARL_v2bqhwas0g","6325482a5da955ebe4a72c93","freq","img/orange_2bandit_b2.png","70","70","test","1","129","129","6","",""
"null","436218","pSARL_v2","pSARL_v2bqhwas0g","6325482a5da955ebe4a72c93","freq_resp","img/orange_2bandit_b.png","70","70","test","","","","6","",""
"null","436379","pSARL_v2","pSARL_v2bqhwas0g","6325482a5da955ebe4a72c93","fixation","img/fixation.png","null","","test","","","","","",""
"502.10000002384186","436889","pSARL_v2","pSARL_v2bqhwas0g","6325482a5da955ebe4a72c93","infreq","img/green_2bandit_b2.png","68","68","test","1","130","130","6","",""
"null","437216","pSARL_v2","pSARL_v2bqhwas0g","6325482a5da955ebe4a72c93","infreq_resp","img/green_2bandit_b.png","68","68","test","","","","6","",""
"null","437375","pSARL_v2","pSARL_v2bqhwas0g","6325482a5da955ebe4a72c93","fixation","img/fixation.png","null","","test","","","","","",""
"485.40000009536743","437869","pSARL_v2","pSARL_v2bqhwas0g","6325482a5da955ebe4a72c93","freq","img/orange_2bandit_b2.png","70","70","test","1","131","131","6","",""
"null","438197","pSARL_v2","pSARL_v2bqhwas0g","6325482a5da955ebe4a72c93","freq_resp","img/orange_2bandit_b.png","70","70","test","","","","6","",""
"null","438370","pSARL_v2","pSARL_v2bqhwas0g","6325482a5da955ebe4a72c93","fixation","img/fixation.png","null","","test","","","","","",""
"422.2999999523163","438799","pSARL_v2","pSARL_v2bqhwas0g","6325482a5da955ebe4a72c93","freq","img/orange_2bandit_b2.png","70","70","test","1","132","132","6","",""
"null","439186","pSARL_v2","pSARL_v2bqhwas0g","6325482a5da955ebe4a72c93","freq_resp","img/orange_2bandit_b.png","70","70","test","","","","6","",""
"null","439354","pSARL_v2","pSARL_v2bqhwas0g","6325482a5da955ebe4a72c93","fixation","img/fixation.png","null","","test","","","","","",""
"450.3000000715256","439811","pSARL_v2","pSARL_v2bqhwas0g","6325482a5da955ebe4a72c93","freq","img/orange_2bandit_b2.png","70","70","test","1","133","133","6","",""
"null","440180","pSARL_v2","pSARL_v2bqhwas0g","6325482a5da955ebe4a72c93","freq_resp","img/orange_2bandit_b.png","70","70","test","","","","6","",""
"null","440351","pSARL_v2","pSARL_v2bqhwas0g","6325482a5da955ebe4a72c93","fixation","img/fixation.png","null","","test","","","","","",""
"648.2999999523163","441005","pSARL_v2","pSARL_v2bqhwas0g","6325482a5da955ebe4a72c93","freq","img/orange_2bandit_b2.png","70","70","test","1","134","134","6","",""
"null","441169","pSARL_v2","pSARL_v2bqhwas0g","6325482a5da955ebe4a72c93","freq_resp","img/orange_2bandit_b.png","70","70","test","","","","6","",""
"null","441333","pSARL_v2","pSARL_v2bqhwas0g","6325482a5da955ebe4a72c93","fixation","img/fixation.png","null","","test","","","","","",""
"603.8999999761581","441944","pSARL_v2","pSARL_v2bqhwas0g","6325482a5da955ebe4a72c93","freq","img/orange_2bandit_b2.png","70","70","test","1","135","135","6","",""
"null","442164","pSARL_v2","pSARL_v2bqhwas0g","6325482a5da955ebe4a72c93","freq_resp","img/orange_2bandit_b.png","70","70","test","","","","6","",""
"null","442324","pSARL_v2","pSARL_v2bqhwas0g","6325482a5da955ebe4a72c93","fixation","img/fixation.png","null","","test","","","","","",""
"566.2000000476837","442897","pSARL_v2","pSARL_v2bqhwas0g","6325482a5da955ebe4a72c93","freq","img/orange_2bandit_b2.png","70","70","test","1","136","136","6","",""
"null","443154","pSARL_v2","pSARL_v2bqhwas0g","6325482a5da955ebe4a72c93","freq_resp","img/orange_2bandit_b.png","70","70","test","","","","6","",""
"null","443314","pSARL_v2","pSARL_v2bqhwas0g","6325482a5da955ebe4a72c93","fixation","img/fixation.png","null","","test","","","","","",""
"614.2999999523163","443936","pSARL_v2","pSARL_v2bqhwas0g","6325482a5da955ebe4a72c93","freq","img/orange_2bandit_b2.png","70","70","test","1","137","137","6","",""
"null","444131","pSARL_v2","pSARL_v2bqhwas0g","6325482a5da955ebe4a72c93","freq_resp","img/orange_2bandit_b.png","70","70","test","","","","6","",""
"null","444306","pSARL_v2","pSARL_v2bqhwas0g","6325482a5da955ebe4a72c93","fixation","img/fixation.png","null","","test","","","","","",""
"545.1999999284744","444858","pSARL_v2","pSARL_v2bqhwas0g","6325482a5da955ebe4a72c93","freq","img/orange_2bandit_b2.png","70","70","test","1","138","138","6","",""
"null","445133","pSARL_v2","pSARL_v2bqhwas0g","6325482a5da955ebe4a72c93","freq_resp","img/orange_2bandit_b.png","70","70","test","","","","6","",""
"null","445305","pSARL_v2","pSARL_v2bqhwas0g","6325482a5da955ebe4a72c93","fixation","img/fixation.png","null","","test","","","","","",""
"1210.2999999523163","446524","pSARL_v2","pSARL_v2bqhwas0g","6325482a5da955ebe4a72c93","reward","img/slot.png","74","","test","","","","","",""
"null","447290","pSARL_v2","pSARL_v2bqhwas0g","6325482a5da955ebe4a72c93","points","<div class=""verylowPoints""> -7 </div>","null","na","test","","","","6","-7","5"
"422.2000000476837","447721","pSARL_v2","pSARL_v2bqhwas0g","6325482a5da955ebe4a72c93","freq","img/orange_2bandit_b2.png","70","70","test","1","139","139","7","",""
"null","448106","pSARL_v2","pSARL_v2bqhwas0g","6325482a5da955ebe4a72c93","freq_resp","img/orange_2bandit_b.png","70","70","test","","","","7","",""
"null","448269","pSARL_v2","pSARL_v2bqhwas0g","6325482a5da955ebe4a72c93","fixation","img/fixation.png","null","","test","","","","","",""
"387","448664","pSARL_v2","pSARL_v2bqhwas0g","6325482a5da955ebe4a72c93","freq","img/orange_2bandit_b2.png","70","70","test","1","140","140","7","",""
"null","449087","pSARL_v2","pSARL_v2bqhwas0g","6325482a5da955ebe4a72c93","freq_resp","img/orange_2bandit_b.png","70","70","test","","","","7","",""
"null","449259","pSARL_v2","pSARL_v2bqhwas0g","6325482a5da955ebe4a72c93","fixation","img/fixation.png","null","","test","","","","","",""
"306.7999999523163","449573","pSARL_v2","pSARL_v2bqhwas0g","6325482a5da955ebe4a72c93","freq","img/orange_2bandit_b2.png","70","70","test","1","141","141","7","",""
"null","450083","pSARL_v2","pSARL_v2bqhwas0g","6325482a5da955ebe4a72c93","freq_resp","img/orange_2bandit_b.png","70","70","test","","","","7","",""
"null","450247","pSARL_v2","pSARL_v2bqhwas0g","6325482a5da955ebe4a72c93","fixation","img/fixation.png","null","","test","","","","","",""
"581.2000000476837","450836","pSARL_v2","pSARL_v2bqhwas0g","6325482a5da955ebe4a72c93","freq","img/orange_2bandit_b2.png","70","70","test","1","142","142","7","",""
"null","451067","pSARL_v2","pSARL_v2bqhwas0g","6325482a5da955ebe4a72c93","freq_resp","img/orange_2bandit_b.png","70","70","test","","","","7","",""
"null","451226","pSARL_v2","pSARL_v2bqhwas0g","6325482a5da955ebe4a72c93","fixation","img/fixation.png","null","","test","","","","","",""
"402.3000000715256","451638","pSARL_v2","pSARL_v2bqhwas0g","6325482a5da955ebe4a72c93","freq","img/orange_2bandit_b2.png","70","70","test","1","143","143","7","",""
"null","452054","pSARL_v2","pSARL_v2bqhwas0g","6325482a5da955ebe4a72c93","freq_resp","img/orange_2bandit_b.png","70","70","test","","","","7","",""
"null","452226","pSARL_v2","pSARL_v2bqhwas0g","6325482a5da955ebe4a72c93","fixation","img/fixation.png","null","","test","","","","","",""
"331.7999999523163","452566","pSARL_v2","pSARL_v2bqhwas0g","6325482a5da955ebe4a72c93","freq","img/orange_2bandit_b2.png","70","70","test","1","144","144","7","",""
"null","453050","pSARL_v2","pSARL_v2bqhwas0g","6325482a5da955ebe4a72c93","freq_resp","img/orange_2bandit_b.png","70","70","test","","","","7","",""
"null","453220","pSARL_v2","pSARL_v2bqhwas0g","6325482a5da955ebe4a72c93","fixation","img/fixation.png","null","","test","","","","","",""
"348.10000002384186","453576","pSARL_v2","pSARL_v2bqhwas0g","6325482a5da955ebe4a72c93","freq","img/orange_2bandit_b2.png","70","70","test","1","145","145","7","",""
"null","454039","pSARL_v2","pSARL_v2bqhwas0g","6325482a5da955ebe4a72c93","freq_resp","img/orange_2bandit_b.png","70","70","test","","","","7","",""
"null","454203","pSARL_v2","pSARL_v2bqhwas0g","6325482a5da955ebe4a72c93","fixation","img/fixation.png","null","","test","","","","","",""
"281.7999999523163","454494","pSARL_v2","pSARL_v2bqhwas0g","6325482a5da955ebe4a72c93","freq","img/orange_2bandit_b2.png","70","70","test","1","146","146","7","",""
"null","455024","pSARL_v2","pSARL_v2bqhwas0g","6325482a5da955ebe4a72c93","freq_resp","img/orange_2bandit_b.png","70","70","test","","","","7","",""
"null","455182","pSARL_v2","pSARL_v2bqhwas0g","6325482a5da955ebe4a72c93","fixation","img/fixation.png","null","","test","","","","","",""
"236.90000009536743","455426","pSARL_v2","pSARL_v2bqhwas0g","6325482a5da955ebe4a72c93","freq","img/orange_2bandit_b2.png","70","70","test","1","147","147","7","",""
"null","456005","pSARL_v2","pSARL_v2bqhwas0g","6325482a5da955ebe4a72c93","freq_resp","img/orange_2bandit_b.png","70","70","test","","","","7","",""
"null","456171","pSARL_v2","pSARL_v2bqhwas0g","6325482a5da955ebe4a72c93","fixation","img/fixation.png","null","","test","","","","","",""
"246.40000009536743","456425","pSARL_v2","pSARL_v2bqhwas0g","6325482a5da955ebe4a72c93","freq","img/orange_2bandit_b2.png","70","70","test","1","148","148","7","",""
"null","457012","pSARL_v2","pSARL_v2bqhwas0g","6325482a5da955ebe4a72c93","freq_resp","img/orange_2bandit_b.png","70","70","test","","","","7","",""
"null","457184","pSARL_v2","pSARL_v2bqhwas0g","6325482a5da955ebe4a72c93","fixation","img/fixation.png","null","","test","","","","","",""
"170.70000004768372","457361","pSARL_v2","pSARL_v2bqhwas0g","6325482a5da955ebe4a72c93","freq","img/orange_2bandit_b2.png","70","70","test","1","149","149","7","",""
"null","458008","pSARL_v2","pSARL_v2bqhwas0g","6325482a5da955ebe4a72c93","freq_resp","img/orange_2bandit_b.png","70","70","test","","","","7","",""
"null","458179","pSARL_v2","pSARL_v2bqhwas0g","6325482a5da955ebe4a72c93","fixation","img/fixation.png","null","","test","","","","","",""
"249.69999992847443","458436","pSARL_v2","pSARL_v2bqhwas0g","6325482a5da955ebe4a72c93","freq","img/orange_2bandit_b2.png","70","70","test","1","150","150","7","",""
"null","458998","pSARL_v2","pSARL_v2bqhwas0g","6325482a5da955ebe4a72c93","freq_resp","img/orange_2bandit_b.png","70","70","test","","","","7","",""
"null","459162","pSARL_v2","pSARL_v2bqhwas0g","6325482a5da955ebe4a72c93","fixation","img/fixation.png","null","","test","","","","","",""
"255.10000002384186","459425","pSARL_v2","pSARL_v2bqhwas0g","6325482a5da955ebe4a72c93","freq","img/orange_2bandit_b2.png","70","70","test","1","151","151","7","",""
"null","459979","pSARL_v2","pSARL_v2bqhwas0g","6325482a5da955ebe4a72c93","freq_resp","img/orange_2bandit_b.png","70","70","test","","","","7","",""
"null","460145","pSARL_v2","pSARL_v2bqhwas0g","6325482a5da955ebe4a72c93","fixation","img/fixation.png","null","","test","","","","","",""
"303.5","460457","pSARL_v2","pSARL_v2bqhwas0g","6325482a5da955ebe4a72c93","freq","img/orange_2bandit_b2.png","70","70","test","1","152","152","7","",""
"null","460974","pSARL_v2","pSARL_v2bqhwas0g","6325482a5da955ebe4a72c93","freq_resp","img/orange_2bandit_b.png","70","70","test","","","","7","",""
"null","461136","pSARL_v2","pSARL_v2bqhwas0g","6325482a5da955ebe4a72c93","fixation","img/fixation.png","null","","test","","","","","",""
"271.7999999523163","461418","pSARL_v2","pSARL_v2bqhwas0g","6325482a5da955ebe4a72c93","freq","img/orange_2bandit_b2.png","70","70","test","1","153","153","7","",""
"null","461959","pSARL_v2","pSARL_v2bqhwas0g","6325482a5da955ebe4a72c93","freq_resp","img/orange_2bandit_b.png","70","70","test","","","","7","",""
"null","462132","pSARL_v2","pSARL_v2bqhwas0g","6325482a5da955ebe4a72c93","fixation","img/fixation.png","null","","test","","","","","",""
"265.7000000476837","462406","pSARL_v2","pSARL_v2bqhwas0g","6325482a5da955ebe4a72c93","freq","img/orange_2bandit_b2.png","70","70","test","1","154","154","7","",""
"null","462964","pSARL_v2","pSARL_v2bqhwas0g","6325482a5da955ebe4a72c93","freq_resp","img/orange_2bandit_b.png","70","70","test","","","","7","",""
"null","463123","pSARL_v2","pSARL_v2bqhwas0g","6325482a5da955ebe4a72c93","fixation","img/fixation.png","null","","test","","","","","",""
"202.5","463332","pSARL_v2","pSARL_v2bqhwas0g","6325482a5da955ebe4a72c93","freq","img/orange_2bandit_b2.png","70","70","test","1","155","155","7","",""
"null","463939","pSARL_v2","pSARL_v2bqhwas0g","6325482a5da955ebe4a72c93","freq_resp","img/orange_2bandit_b.png","70","70","test","","","","7","",""
"null","464111","pSARL_v2","pSARL_v2bqhwas0g","6325482a5da955ebe4a72c93","fixation","img/fixation.png","null","","test","","","","","",""
"72.5","464190","pSARL_v2","pSARL_v2bqhwas0g","6325482a5da955ebe4a72c93","freq","img/orange_2bandit_b2.png","70","70","test","1","156","156","7","",""
"null","464937","pSARL_v2","pSARL_v2bqhwas0g","6325482a5da955ebe4a72c93","freq_resp","img/orange_2bandit_b.png","70","70","test","","","","7","",""
"null","465102","pSARL_v2","pSARL_v2bqhwas0g","6325482a5da955ebe4a72c93","fixation","img/fixation.png","null","","test","","","","","",""
"241.70000004768372","465350","pSARL_v2","pSARL_v2bqhwas0g","6325482a5da955ebe4a72c93","freq","img/orange_2bandit_b2.png","70","70","test","1","157","157","7","",""
"null","465922","pSARL_v2","pSARL_v2bqhwas0g","6325482a5da955ebe4a72c93","freq_resp","img/orange_2bandit_b.png","70","70","test","","","","7","",""
"null","466087","pSARL_v2","pSARL_v2bqhwas0g","6325482a5da955ebe4a72c93","fixation","img/fixation.png","null","","test","","","","","",""
"249.20000004768372","466345","pSARL_v2","pSARL_v2bqhwas0g","6325482a5da955ebe4a72c93","freq","img/orange_2bandit_b2.png","70","70","test","1","158","158","7","",""
"null","466918","pSARL_v2","pSARL_v2bqhwas0g","6325482a5da955ebe4a72c93","freq_resp","img/orange_2bandit_b.png","70","70","test","","","","7","",""
"null","467086","pSARL_v2","pSARL_v2bqhwas0g","6325482a5da955ebe4a72c93","fixation","img/fixation.png","null","","test","","","","","",""
"302.10000002384186","467395","pSARL_v2","pSARL_v2bqhwas0g","6325482a5da955ebe4a72c93","freq","img/orange_2bandit_b2.png","70","70","test","1","159","159","7","",""
"null","467904","pSARL_v2","pSARL_v2bqhwas0g","6325482a5da955ebe4a72c93","freq_resp","img/orange_2bandit_b.png","70","70","test","","","","7","",""
"null","468078","pSARL_v2","pSARL_v2bqhwas0g","6325482a5da955ebe4a72c93","fixation","img/fixation.png","null","","test","","","","","",""
"225.10000002384186","468310","pSARL_v2","pSARL_v2bqhwas0g","6325482a5da955ebe4a72c93","freq","img/orange_2bandit_b2.png","70","70","test","1","160","160","7","",""
"null","468903","pSARL_v2","pSARL_v2bqhwas0g","6325482a5da955ebe4a72c93","freq_resp","img/orange_2bandit_b.png","70","70","test","","","","7","",""
"null","469076","pSARL_v2","pSARL_v2bqhwas0g","6325482a5da955ebe4a72c93","fixation","img/fixation.png","null","","test","","","","","",""
"178","469261","pSARL_v2","pSARL_v2bqhwas0g","6325482a5da955ebe4a72c93","infreq","img/green_2bandit_b2.png","70","68","test","0","161","161","7","",""
"null","469906","pSARL_v2","pSARL_v2bqhwas0g","6325482a5da955ebe4a72c93","infreq_resp","img/green_2bandit_b.png","70","68","test","","","","7","",""
"null","470078","pSARL_v2","pSARL_v2bqhwas0g","6325482a5da955ebe4a72c93","fixation","img/fixation.png","null","","test","","","","","",""
"58.700000047683716","470143","pSARL_v2","pSARL_v2bqhwas0g","6325482a5da955ebe4a72c93","infreq","img/green_2bandit_b2.png","68","68","test","1","162","162","7","",""
"null","470907","pSARL_v2","pSARL_v2bqhwas0g","6325482a5da955ebe4a72c93","infreq_resp","img/green_2bandit_b.png","68","68","test","","","","7","",""
"null","471081","pSARL_v2","pSARL_v2bqhwas0g","6325482a5da955ebe4a72c93","fixation","img/fixation.png","null","","test","","","","","",""
"729.3999999761581","471817","pSARL_v2","pSARL_v2bqhwas0g","6325482a5da955ebe4a72c93","freq","img/orange_2bandit_b2.png","70","70","test","1","163","163","7","",""
"null","471906","pSARL_v2","pSARL_v2bqhwas0g","6325482a5da955ebe4a72c93","freq_resp","img/orange_2bandit_b.png","70","70","test","","","","7","",""
"null","472073","pSARL_v2","pSARL_v2bqhwas0g","6325482a5da955ebe4a72c93","fixation","img/fixation.png","null","","test","","","","","",""
"444.60000002384186","472524","pSARL_v2","pSARL_v2bqhwas0g","6325482a5da955ebe4a72c93","reward","img/slot.png","74","","test","","","","","",""
"null","473288","pSARL_v2","pSARL_v2bqhwas0g","6325482a5da955ebe4a72c93","points","<div class=""verylowPoints""> -6 </div>","null","na","test","","","","7","-6","6"
"null","474100","pSARL_v2","pSARL_v2bqhwas0g","6325482a5da955ebe4a72c93","freq","img/orange_2bandit_b2.png","null","70","test","0","164","164","8","",""
"null","474274","pSARL_v2","pSARL_v2bqhwas0g","6325482a5da955ebe4a72c93","fixation","img/fixation.png","null","","test","","","","","",""
"692.2999999523163","474974","pSARL_v2","pSARL_v2bqhwas0g","6325482a5da955ebe4a72c93","freq","img/orange_2bandit_b2.png","70","70","test","1","165","165","8","",""
"null","475096","pSARL_v2","pSARL_v2bqhwas0g","6325482a5da955ebe4a72c93","freq_resp","img/orange_2bandit_b.png","70","70","test","","","","8","",""
"null","475257","pSARL_v2","pSARL_v2bqhwas0g","6325482a5da955ebe4a72c93","fixation","img/fixation.png","null","","test","","","","","",""
"628.3000000715256","475898","pSARL_v2","pSARL_v2bqhwas0g","6325482a5da955ebe4a72c93","freq","img/orange_2bandit_b2.png","70","70","test","1","166","166","8","",""
"null","476093","pSARL_v2","pSARL_v2bqhwas0g","6325482a5da955ebe4a72c93","freq_resp","img/orange_2bandit_b.png","70","70","test","","","","8","",""
"null","476261","pSARL_v2","pSARL_v2bqhwas0g","6325482a5da955ebe4a72c93","fixation","img/fixation.png","null","","test","","","","","",""
"613","476883","pSARL_v2","pSARL_v2bqhwas0g","6325482a5da955ebe4a72c93","freq","img/orange_2bandit_b2.png","70","70","test","1","167","167","8","",""
"null","477086","pSARL_v2","pSARL_v2bqhwas0g","6325482a5da955ebe4a72c93","freq_resp","img/orange_2bandit_b.png","70","70","test","","","","8","",""
"null","477255","pSARL_v2","pSARL_v2bqhwas0g","6325482a5da955ebe4a72c93","fixation","img/fixation.png","null","","test","","","","","",""
"564.8999999761581","477828","pSARL_v2","pSARL_v2bqhwas0g","6325482a5da955ebe4a72c93","freq","img/orange_2bandit_b2.png","70","70","test","1","168","168","8","",""
"null","478078","pSARL_v2","pSARL_v2bqhwas0g","6325482a5da955ebe4a72c93","freq_resp","img/orange_2bandit_b.png","70","70","test","","","","8","",""
"null","478248","pSARL_v2","pSARL_v2bqhwas0g","6325482a5da955ebe4a72c93","fixation","img/fixation.png","null","","test","","","","","",""
"539.8999999761581","478795","pSARL_v2","pSARL_v2bqhwas0g","6325482a5da955ebe4a72c93","freq","img/orange_2bandit_b2.png","70","70","test","1","169","169","8","",""
"null","479074","pSARL_v2","pSARL_v2bqhwas0g","6325482a5da955ebe4a72c93","freq_resp","img/orange_2bandit_b.png","70","70","test","","","","8","",""
"null","479240","pSARL_v2","pSARL_v2bqhwas0g","6325482a5da955ebe4a72c93","fixation","img/fixation.png","null","","test","","","","","",""
"532.6999999284744","479780","pSARL_v2","pSARL_v2bqhwas0g","6325482a5da955ebe4a72c93","freq","img/orange_2bandit_b2.png","70","70","test","1","170","170","8","",""
"null","480065","pSARL_v2","pSARL_v2bqhwas0g","6325482a5da955ebe4a72c93","freq_resp","img/orange_2bandit_b.png","70","70","test","","","","8","",""
"null","480233","pSARL_v2","pSARL_v2bqhwas0g","6325482a5da955ebe4a72c93","fixation","img/fixation.png","null","","test","","","","","",""
"462.10000002384186","480702","pSARL_v2","pSARL_v2bqhwas0g","6325482a5da955ebe4a72c93","freq","img/orange_2bandit_b2.png","70","70","test","1","171","171","8","",""
"null","481061","pSARL_v2","pSARL_v2bqhwas0g","6325482a5da955ebe4a72c93","freq_resp","img/orange_2bandit_b.png","70","70","test","","","","8","",""
"null","481221","pSARL_v2","pSARL_v2bqhwas0g","6325482a5da955ebe4a72c93","fixation","img/fixation.png","null","","test","","","","","",""
"501.90000009536743","481730","pSARL_v2","pSARL_v2bqhwas0g","6325482a5da955ebe4a72c93","freq","img/orange_2bandit_b2.png","70","70","test","1","172","172","8","",""
"null","482044","pSARL_v2","pSARL_v2bqhwas0g","6325482a5da955ebe4a72c93","freq_resp","img/orange_2bandit_b.png","70","70","test","","","","8","",""
"null","482203","pSARL_v2","pSARL_v2bqhwas0g","6325482a5da955ebe4a72c93","fixation","img/fixation.png","null","","test","","","","","",""
"null","483031","pSARL_v2","pSARL_v2bqhwas0g","6325482a5da955ebe4a72c93","infreq","img/green_2bandit_b2.png","null","68","test","0","173","173","8","",""
"null","483202","pSARL_v2","pSARL_v2bqhwas0g","6325482a5da955ebe4a72c93","fixation","img/fixation.png","null","","test","","","","","",""
"687.1000000238419","483896","pSARL_v2","pSARL_v2bqhwas0g","6325482a5da955ebe4a72c93","freq","img/orange_2bandit_b2.png","70","70","test","1","174","174","8","",""
"null","484029","pSARL_v2","pSARL_v2bqhwas0g","6325482a5da955ebe4a72c93","freq_resp","img/orange_2bandit_b.png","70","70","test","","","","8","",""
"null","484200","pSARL_v2","pSARL_v2bqhwas0g","6325482a5da955ebe4a72c93","fixation","img/fixation.png","null","","test","","","","","",""
"488.09999990463257","484696","pSARL_v2","pSARL_v2bqhwas0g","6325482a5da955ebe4a72c93","infreq","img/green_2bandit_b2.png","68","68","test","1","175","175","8","",""
"null","485030","pSARL_v2","pSARL_v2bqhwas0g","6325482a5da955ebe4a72c93","infreq_resp","img/green_2bandit_b.png","68","68","test","","","","8","",""
"null","485200","pSARL_v2","pSARL_v2bqhwas0g","6325482a5da955ebe4a72c93","fixation","img/fixation.png","null","","test","","","","","",""
"365.1999999284744","485574","pSARL_v2","pSARL_v2bqhwas0g","6325482a5da955ebe4a72c93","freq","img/orange_2bandit_b2.png","70","70","test","1","176","176","8","",""
"null","486018","pSARL_v2","pSARL_v2bqhwas0g","6325482a5da955ebe4a72c93","freq_resp","img/orange_2bandit_b.png","70","70","test","","","","8","",""
"null","486187","pSARL_v2","pSARL_v2bqhwas0g","6325482a5da955ebe4a72c93","fixation","img/fixation.png","null","","test","","","","","",""
"392.89999997615814","486588","pSARL_v2","pSARL_v2bqhwas0g","6325482a5da955ebe4a72c93","freq","img/orange_2bandit_b2.png","70","70","test","1","177","177","8","",""
"null","487013","pSARL_v2","pSARL_v2bqhwas0g","6325482a5da955ebe4a72c93","freq_resp","img/orange_2bandit_b.png","70","70","test","","","","8","",""
"null","487179","pSARL_v2","pSARL_v2bqhwas0g","6325482a5da955ebe4a72c93","fixation","img/fixation.png","null","","test","","","","","",""
"360","487546","pSARL_v2","pSARL_v2bqhwas0g","6325482a5da955ebe4a72c93","freq","img/orange_2bandit_b2.png","70","70","test","1","178","178","8","",""
"null","487996","pSARL_v2","pSARL_v2bqhwas0g","6325482a5da955ebe4a72c93","freq_resp","img/orange_2bandit_b.png","70","70","test","","","","8","",""
"null","488169","pSARL_v2","pSARL_v2bqhwas0g","6325482a5da955ebe4a72c93","fixation","img/fixation.png","null","","test","","","","","",""
"331.7999999523163","488508","pSARL_v2","pSARL_v2bqhwas0g","6325482a5da955ebe4a72c93","freq","img/orange_2bandit_b2.png","70","70","test","1","179","179","8","",""
"null","488989","pSARL_v2","pSARL_v2bqhwas0g","6325482a5da955ebe4a72c93","freq_resp","img/orange_2bandit_b.png","70","70","test","","","","8","",""
"null","489157","pSARL_v2","pSARL_v2bqhwas0g","6325482a5da955ebe4a72c93","fixation","img/fixation.png","null","","test","","","","","",""
"335.7000000476837","489500","pSARL_v2","pSARL_v2bqhwas0g","6325482a5da955ebe4a72c93","freq","img/orange_2bandit_b2.png","70","70","test","1","180","180","8","",""
"null","489981","pSARL_v2","pSARL_v2bqhwas0g","6325482a5da955ebe4a72c93","freq_resp","img/orange_2bandit_b.png","70","70","test","","","","8","",""
"null","490143","pSARL_v2","pSARL_v2bqhwas0g","6325482a5da955ebe4a72c93","fixation","img/fixation.png","null","","test","","","","","",""
"305.90000009536743","490457","pSARL_v2","pSARL_v2bqhwas0g","6325482a5da955ebe4a72c93","freq","img/orange_2bandit_b2.png","70","70","test","1","181","181","8","",""
"null","490964","pSARL_v2","pSARL_v2bqhwas0g","6325482a5da955ebe4a72c93","freq_resp","img/orange_2bandit_b.png","70","70","test","","","","8","",""
"null","491130","pSARL_v2","pSARL_v2bqhwas0g","6325482a5da955ebe4a72c93","fixation","img/fixation.png","null","","test","","","","","",""
"165.89999997615814","491305","pSARL_v2","pSARL_v2bqhwas0g","6325482a5da955ebe4a72c93","freq","img/orange_2bandit_b2.png","70","70","test","1","182","182","8","",""
"null","491953","pSARL_v2","pSARL_v2bqhwas0g","6325482a5da955ebe4a72c93","freq_resp","img/orange_2bandit_b.png","70","70","test","","","","8","",""
"null","492125","pSARL_v2","pSARL_v2bqhwas0g","6325482a5da955ebe4a72c93","fixation","img/fixation.png","null","","test","","","","","",""
"279.8000000715256","492413","pSARL_v2","pSARL_v2bqhwas0g","6325482a5da955ebe4a72c93","freq","img/orange_2bandit_b2.png","70","70","test","1","183","183","8","",""
"null","492953","pSARL_v2","pSARL_v2bqhwas0g","6325482a5da955ebe4a72c93","freq_resp","img/orange_2bandit_b.png","70","70","test","","","","8","",""
"null","493120","pSARL_v2","pSARL_v2bqhwas0g","6325482a5da955ebe4a72c93","fixation","img/fixation.png","null","","test","","","","","",""
"189.90000009536743","493317","pSARL_v2","pSARL_v2bqhwas0g","6325482a5da955ebe4a72c93","freq","img/orange_2bandit_b2.png","70","70","test","1","184","184","8","",""
"null","493939","pSARL_v2","pSARL_v2bqhwas0g","6325482a5da955ebe4a72c93","freq_resp","img/orange_2bandit_b.png","70","70","test","","","","8","",""
"null","494112","pSARL_v2","pSARL_v2bqhwas0g","6325482a5da955ebe4a72c93","fixation","img/fixation.png","null","","test","","","","","",""
"234","494354","pSARL_v2","pSARL_v2bqhwas0g","6325482a5da955ebe4a72c93","infreq","img/green_2bandit_b2.png","70","68","test","0","185","185","8","",""
"null","494939","pSARL_v2","pSARL_v2bqhwas0g","6325482a5da955ebe4a72c93","infreq_resp","img/green_2bandit_b.png","70","68","test","","","","8","",""
"null","495108","pSARL_v2","pSARL_v2bqhwas0g","6325482a5da955ebe4a72c93","fixation","img/fixation.png","null","","test","","","","","",""
"58.39999997615814","495174","pSARL_v2","pSARL_v2bqhwas0g","6325482a5da955ebe4a72c93","freq","img/orange_2bandit_b2.png","68","70","test","0","186","186","8","",""
"null","495932","pSARL_v2","pSARL_v2bqhwas0g","6325482a5da955ebe4a72c93","freq_resp","img/orange_2bandit_b.png","68","70","test","","","","8","",""
"null","496099","pSARL_v2","pSARL_v2bqhwas0g","6325482a5da955ebe4a72c93","fixation","img/fixation.png","null","","test","","","","","",""
"85.20000004768372","496192","pSARL_v2","pSARL_v2bqhwas0g","6325482a5da955ebe4a72c93","freq","img/orange_2bandit_b2.png","70","70","test","1","187","187","8","",""
"null","496918","pSARL_v2","pSARL_v2bqhwas0g","6325482a5da955ebe4a72c93","freq_resp","img/orange_2bandit_b.png","70","70","test","","","","8","",""
"null","497079","pSARL_v2","pSARL_v2bqhwas0g","6325482a5da955ebe4a72c93","fixation","img/fixation.png","null","","test","","","","","",""
"179.09999990463257","497268","pSARL_v2","pSARL_v2bqhwas0g","6325482a5da955ebe4a72c93","freq","img/orange_2bandit_b2.png","70","70","test","1","188","188","8","",""
"null","497905","pSARL_v2","pSARL_v2bqhwas0g","6325482a5da955ebe4a72c93","freq_resp","img/orange_2bandit_b.png","70","70","test","","","","8","",""
"null","498079","pSARL_v2","pSARL_v2bqhwas0g","6325482a5da955ebe4a72c93","fixation","img/fixation.png","null","","test","","","","","",""
"485.7999999523163","498572","pSARL_v2","pSARL_v2bqhwas0g","6325482a5da955ebe4a72c93","reward","img/slot.png","74","","test","","","","","",""
"null","499340","pSARL_v2","pSARL_v2bqhwas0g","6325482a5da955ebe4a72c93","points","<div class=""verylowPoints""> -4 </div>","null","na","test","","","","8","-4","7"
"null","500157","pSARL_v2","pSARL_v2bqhwas0g","6325482a5da955ebe4a72c93","freq","img/orange_2bandit_b2.png","null","70","test","0","189","189","9","",""
"null","500326","pSARL_v2","pSARL_v2bqhwas0g","6325482a5da955ebe4a72c93","fixation","img/fixation.png","null","","test","","","","","",""
"363.8000000715256","500699","pSARL_v2","pSARL_v2bqhwas0g","6325482a5da955ebe4a72c93","freq","img/orange_2bandit_b2.png","70","70","test","1","190","190","9","",""
"null","501144","pSARL_v2","pSARL_v2bqhwas0g","6325482a5da955ebe4a72c93","freq_resp","img/orange_2bandit_b.png","70","70","test","","","","9","",""
"null","501325","pSARL_v2","pSARL_v2bqhwas0g","6325482a5da955ebe4a72c93","fixation","img/fixation.png","null","","test","","","","","",""
"330","501662","pSARL_v2","pSARL_v2bqhwas0g","6325482a5da955ebe4a72c93","freq","img/orange_2bandit_b2.png","70","70","test","1","191","191","9","",""
"null","502149","pSARL_v2","pSARL_v2bqhwas0g","6325482a5da955ebe4a72c93","freq_resp","img/orange_2bandit_b.png","70","70","test","","","","9","",""
"null","502318","pSARL_v2","pSARL_v2bqhwas0g","6325482a5da955ebe4a72c93","fixation","img/fixation.png","null","","test","","","","","",""
"300.39999997615814","502626","pSARL_v2","pSARL_v2bqhwas0g","6325482a5da955ebe4a72c93","freq","img/orange_2bandit_b2.png","70","70","test","1","192","192","9","",""
"null","503152","pSARL_v2","pSARL_v2bqhwas0g","6325482a5da955ebe4a72c93","freq_resp","img/orange_2bandit_b.png","70","70","test","","","","9","",""
"null","503315","pSARL_v2","pSARL_v2bqhwas0g","6325482a5da955ebe4a72c93","fixation","img/fixation.png","null","","test","","","","","",""
"168.60000002384186","503490","pSARL_v2","pSARL_v2bqhwas0g","6325482a5da955ebe4a72c93","freq","img/orange_2bandit_b2.png","70","70","test","1","193","193","9","",""
"null","504142","pSARL_v2","pSARL_v2bqhwas0g","6325482a5da955ebe4a72c93","freq_resp","img/orange_2bandit_b.png","70","70","test","","","","9","",""
"null","504319","pSARL_v2","pSARL_v2bqhwas0g","6325482a5da955ebe4a72c93","fixation","img/fixation.png","null","","test","","","","","",""
"119.20000004768372","504447","pSARL_v2","pSARL_v2bqhwas0g","6325482a5da955ebe4a72c93","freq","img/orange_2bandit_b2.png","70","70","test","1","194","194","9","",""
"null","505152","pSARL_v2","pSARL_v2bqhwas0g","6325482a5da955ebe4a72c93","freq_resp","img/orange_2bandit_b.png","70","70","test","","","","9","",""
"null","505314","pSARL_v2","pSARL_v2bqhwas0g","6325482a5da955ebe4a72c93","fixation","img/fixation.png","null","","test","","","","","",""
"null","506134","pSARL_v2","pSARL_v2bqhwas0g","6325482a5da955ebe4a72c93","infreq","img/green_2bandit_b2.png","null","68","test","0","195","195","9","",""
"null","506309","pSARL_v2","pSARL_v2bqhwas0g","6325482a5da955ebe4a72c93","fixation","img/fixation.png","null","","test","","","","","",""
"756.8000000715256","507074","pSARL_v2","pSARL_v2bqhwas0g","6325482a5da955ebe4a72c93","freq","img/orange_2bandit_b2.png","70","70","test","1","196","196","9","",""
"null","507133","pSARL_v2","pSARL_v2bqhwas0g","6325482a5da955ebe4a72c93","freq_resp","img/orange_2bandit_b.png","70","70","test","","","","9","",""
"null","507294","pSARL_v2","pSARL_v2bqhwas0g","6325482a5da955ebe4a72c93","fixation","img/fixation.png","null","","test","","","","","",""
"583.1000000238419","507885","pSARL_v2","pSARL_v2bqhwas0g","6325482a5da955ebe4a72c93","freq","img/orange_2bandit_b2.png","70","70","test","1","197","197","9","",""
"null","508121","pSARL_v2","pSARL_v2bqhwas0g","6325482a5da955ebe4a72c93","freq_resp","img/orange_2bandit_b.png","70","70","test","","","","9","",""
"null","508284","pSARL_v2","pSARL_v2bqhwas0g","6325482a5da955ebe4a72c93","fixation","img/fixation.png","null","","test","","","","","",""
"467.60000002384186","508758","pSARL_v2","pSARL_v2bqhwas0g","6325482a5da955ebe4a72c93","freq","img/orange_2bandit_b2.png","70","70","test","1","198","198","9","",""
"null","509107","pSARL_v2","pSARL_v2bqhwas0g","6325482a5da955ebe4a72c93","freq_resp","img/orange_2bandit_b.png","70","70","test","","","","9","",""
"null","509271","pSARL_v2","pSARL_v2bqhwas0g","6325482a5da955ebe4a72c93","fixation","img/fixation.png","null","","test","","","","","",""
"262.40000009536743","509543","pSARL_v2","pSARL_v2bqhwas0g","6325482a5da955ebe4a72c93","freq","img/orange_2bandit_b2.png","70","70","test","1","199","199","9","",""
"null","510092","pSARL_v2","pSARL_v2bqhwas0g","6325482a5da955ebe4a72c93","freq_resp","img/orange_2bandit_b.png","70","70","test","","","","9","",""
"null","510252","pSARL_v2","pSARL_v2bqhwas0g","6325482a5da955ebe4a72c93","fixation","img/fixation.png","null","","test","","","","","",""
"326.3000000715256","510586","pSARL_v2","pSARL_v2bqhwas0g","6325482a5da955ebe4a72c93","freq","img/orange_2bandit_b2.png","70","70","test","1","200","200","9","",""
"null","511079","pSARL_v2","pSARL_v2bqhwas0g","6325482a5da955ebe4a72c93","freq_resp","img/orange_2bandit_b.png","70","70","test","","","","9","",""
"null","511243","pSARL_v2","pSARL_v2bqhwas0g","6325482a5da955ebe4a72c93","fixation","img/fixation.png","null","","test","","","","","",""
"335.3000000715256","511585","pSARL_v2","pSARL_v2bqhwas0g","6325482a5da955ebe4a72c93","freq","img/orange_2bandit_b2.png","70","70","test","1","201","201","9","",""
"null","512061","pSARL_v2","pSARL_v2bqhwas0g","6325482a5da955ebe4a72c93","freq_resp","img/orange_2bandit_b.png","70","70","test","","","","9","",""
"null","512230","pSARL_v2","pSARL_v2bqhwas0g","6325482a5da955ebe4a72c93","fixation","img/fixation.png","null","","test","","","","","",""
"440.60000002384186","512677","pSARL_v2","pSARL_v2bqhwas0g","6325482a5da955ebe4a72c93","freq","img/orange_2bandit_b2.png","70","70","test","1","202","202","9","",""
"null","513054","pSARL_v2","pSARL_v2bqhwas0g","6325482a5da955ebe4a72c93","freq_resp","img/orange_2bandit_b.png","70","70","test","","","","9","",""
"null","513227","pSARL_v2","pSARL_v2bqhwas0g","6325482a5da955ebe4a72c93","fixation","img/fixation.png","null","","test","","","","","",""
"null","514045","pSARL_v2","pSARL_v2bqhwas0g","6325482a5da955ebe4a72c93","infreq","img/green_2bandit_b2.png","null","68","test","0","203","203","9","",""
"null","514212","pSARL_v2","pSARL_v2bqhwas0g","6325482a5da955ebe4a72c93","fixation","img/fixation.png","null","","test","","","","","",""
"null","515028","pSARL_v2","pSARL_v2bqhwas0g","6325482a5da955ebe4a72c93","freq","img/orange_2bandit_b2.png","null","70","test","0","204","204","9","",""
"null","515190","pSARL_v2","pSARL_v2bqhwas0g","6325482a5da955ebe4a72c93","fixation","img/fixation.png","null","","test","","","","","",""
"387","515585","pSARL_v2","pSARL_v2bqhwas0g","6325482a5da955ebe4a72c93","freq","img/orange_2bandit_b2.png","68","70","test","0","205","205","9","",""
"null","516015","pSARL_v2","pSARL_v2bqhwas0g","6325482a5da955ebe4a72c93","freq_resp","img/orange_2bandit_b.png","68","70","test","","","","9","",""
"null","516184","pSARL_v2","pSARL_v2bqhwas0g","6325482a5da955ebe4a72c93","fixation","img/fixation.png","null","","test","","","","","",""
"null","516999","pSARL_v2","pSARL_v2bqhwas0g","6325482a5da955ebe4a72c93","freq","img/orange_2bandit_b2.png","null","70","test","0","206","206","9","",""
"null","517156","pSARL_v2","pSARL_v2bqhwas0g","6325482a5da955ebe4a72c93","fixation","img/fixation.png","null","","test","","","","","",""
"null","517973","pSARL_v2","pSARL_v2bqhwas0g","6325482a5da955ebe4a72c93","freq","img/orange_2bandit_b2.png","null","70","test","0","207","207","9","",""
"null","518134","pSARL_v2","pSARL_v2bqhwas0g","6325482a5da955ebe4a72c93","fixation","img/fixation.png","null","","test","","","","","",""
"799","518943","pSARL_v2","pSARL_v2bqhwas0g","6325482a5da955ebe4a72c93","freq","img/orange_2bandit_b2.png","70","70","test","1","208","208","9","",""
"null","518955","pSARL_v2","pSARL_v2bqhwas0g","6325482a5da955ebe4a72c93","freq_resp","img/orange_2bandit_b.png","70","70","test","","","","9","",""
"null","519129","pSARL_v2","pSARL_v2bqhwas0g","6325482a5da955ebe4a72c93","fixation","img/fixation.png","null","","test","","","","","",""
"711","519848","pSARL_v2","pSARL_v2bqhwas0g","6325482a5da955ebe4a72c93","freq","img/orange_2bandit_b2.png","70","70","test","1","209","209","9","",""
"null","519950","pSARL_v2","pSARL_v2bqhwas0g","6325482a5da955ebe4a72c93","freq_resp","img/orange_2bandit_b.png","70","70","test","","","","9","",""
"null","520111","pSARL_v2","pSARL_v2bqhwas0g","6325482a5da955ebe4a72c93","fixation","img/fixation.png","null","","test","","","","","",""
"633.1000000238419","520752","pSARL_v2","pSARL_v2bqhwas0g","6325482a5da955ebe4a72c93","freq","img/orange_2bandit_b2.png","70","70","test","1","210","210","9","",""
"null","520937","pSARL_v2","pSARL_v2bqhwas0g","6325482a5da955ebe4a72c93","freq_resp","img/orange_2bandit_b.png","70","70","test","","","","9","",""
