"rt","time_elapsed","expId","subject","prolificID","trialType","stimulus","key_press","corrresp","phase","corr","trialNum","attentionRunNum","blockNum","points","rlNum"
"12398.700000047684","12403","pSARL_v2","pSARL_v24rxfdz3w","63dab0380b8791f9560fd329","","","","","","","","","","",""
"","15435","pSARL_v2","pSARL_v24rxfdz3w","63dab0380b8791f9560fd329","fullscreen","","","","","","","","","",""
"418669.2000000477","434106","pSARL_v2","pSARL_v24rxfdz3w","63dab0380b8791f9560fd329","","","","","","","","","","",""
"650","434760","pSARL_v2","pSARL_v24rxfdz3w","63dab0380b8791f9560fd329","freqPrac","img/green_2bandit_a2.png","70","70","prac","1","","","","",""
"650","434919","pSARL_v2","pSARL_v24rxfdz3w","63dab0380b8791f9560fd329","freqPrac_resp","img/green_2bandit_a.png","70","70","prac","","","","","",""
"null","435074","pSARL_v2","pSARL_v24rxfdz3w","63dab0380b8791f9560fd329","fixation","img/fixation.png","null","","prac","","","","","",""
"545.1000001430511","435622","pSARL_v2","pSARL_v24rxfdz3w","63dab0380b8791f9560fd329","infreqPrac","img/orange_2bandit_a2.png","68","68","prac","1","","","","",""
"545.1000001430511","435883","pSARL_v2","pSARL_v24rxfdz3w","63dab0380b8791f9560fd329","infreqPrac_resp","img/orange_2bandit_a.png","68","68","prac","","","","","",""
"null","436039","pSARL_v2","pSARL_v24rxfdz3w","63dab0380b8791f9560fd329","fixation","img/fixation.png","null","","prac","","","","","",""
"289.7000000476837","436332","pSARL_v2","pSARL_v24rxfdz3w","63dab0380b8791f9560fd329","freqPrac","img/green_2bandit_a2.png","70","70","prac","1","","","","",""
"289.7000000476837","436850","pSARL_v2","pSARL_v24rxfdz3w","63dab0380b8791f9560fd329","freqPrac_resp","img/green_2bandit_a.png","70","70","prac","","","","","",""
"null","437006","pSARL_v2","pSARL_v24rxfdz3w","63dab0380b8791f9560fd329","fixation","img/fixation.png","null","","prac","","","","","",""
"304.5","437313","pSARL_v2","pSARL_v24rxfdz3w","63dab0380b8791f9560fd329","infreqPrac","img/orange_2bandit_a2.png","68","68","prac","1","","","","",""
"304.5","437815","pSARL_v2","pSARL_v24rxfdz3w","63dab0380b8791f9560fd329","infreqPrac_resp","img/orange_2bandit_a.png","68","68","prac","","","","","",""
"null","437970","pSARL_v2","pSARL_v24rxfdz3w","63dab0380b8791f9560fd329","fixation","img/fixation.png","null","","prac","","","","","",""
"336.39999985694885","438309","pSARL_v2","pSARL_v24rxfdz3w","63dab0380b8791f9560fd329","infreqPrac","img/orange_2bandit_a2.png","68","68","prac","1","","","","",""
"336.39999985694885","438778","pSARL_v2","pSARL_v24rxfdz3w","63dab0380b8791f9560fd329","infreqPrac_resp","img/orange_2bandit_a.png","68","68","prac","","","","","",""
"null","438934","pSARL_v2","pSARL_v24rxfdz3w","63dab0380b8791f9560fd329","fixation","img/fixation.png","null","","prac","","","","","",""
"415.59999990463257","439352","pSARL_v2","pSARL_v24rxfdz3w","63dab0380b8791f9560fd329","infreqPrac","img/orange_2bandit_a2.png","68","68","prac","1","","","","",""
"415.59999990463257","439747","pSARL_v2","pSARL_v24rxfdz3w","63dab0380b8791f9560fd329","infreqPrac_resp","img/orange_2bandit_a.png","68","68","prac","","","","","",""
"null","439902","pSARL_v2","pSARL_v24rxfdz3w","63dab0380b8791f9560fd329","fixation","img/fixation.png","null","","prac","","","","","",""
"396.7999999523163","440301","pSARL_v2","pSARL_v24rxfdz3w","63dab0380b8791f9560fd329","freqPrac","img/green_2bandit_a2.png","70","70","prac","1","","","","",""
"396.7999999523163","440711","pSARL_v2","pSARL_v24rxfdz3w","63dab0380b8791f9560fd329","freqPrac_resp","img/green_2bandit_a.png","70","70","prac","","","","","",""
"null","440865","pSARL_v2","pSARL_v24rxfdz3w","63dab0380b8791f9560fd329","fixation","img/fixation.png","null","","prac","","","","","",""
"486.90000009536743","441355","pSARL_v2","pSARL_v24rxfdz3w","63dab0380b8791f9560fd329","infreqPrac","img/orange_2bandit_a2.png","68","68","prac","1","","","","",""
"486.90000009536743","441674","pSARL_v2","pSARL_v24rxfdz3w","63dab0380b8791f9560fd329","infreqPrac_resp","img/orange_2bandit_a.png","68","68","prac","","","","","",""
"null","441833","pSARL_v2","pSARL_v24rxfdz3w","63dab0380b8791f9560fd329","fixation","img/fixation.png","null","","prac","","","","","",""
"429.60000014305115","442265","pSARL_v2","pSARL_v24rxfdz3w","63dab0380b8791f9560fd329","freqPrac","img/green_2bandit_a2.png","70","70","prac","1","","","","",""
"429.60000014305115","442640","pSARL_v2","pSARL_v24rxfdz3w","63dab0380b8791f9560fd329","freqPrac_resp","img/green_2bandit_a.png","70","70","prac","","","","","",""
"null","442797","pSARL_v2","pSARL_v24rxfdz3w","63dab0380b8791f9560fd329","fixation","img/fixation.png","null","","prac","","","","","",""
"267.5","443067","pSARL_v2","pSARL_v24rxfdz3w","63dab0380b8791f9560fd329","freqPrac","img/green_2bandit_a2.png","70","70","prac","1","","","","",""
"267.5","443608","pSARL_v2","pSARL_v24rxfdz3w","63dab0380b8791f9560fd329","freqPrac_resp","img/green_2bandit_a.png","70","70","prac","","","","","",""
"null","443763","pSARL_v2","pSARL_v24rxfdz3w","63dab0380b8791f9560fd329","fixation","img/fixation.png","null","","prac","","","","","",""
"15873.200000047684","459639","pSARL_v2","pSARL_v24rxfdz3w","63dab0380b8791f9560fd329","","","","","prac","","","","","",""
"869","460511","pSARL_v2","pSARL_v24rxfdz3w","63dab0380b8791f9560fd329","rewardPractice","img/slot.png","74","","prac","","","","","",""
"null","461267","pSARL_v2","pSARL_v24rxfdz3w","63dab0380b8791f9560fd329","feedback","<div class=""veryhighPoints""> +15 </div>","null","na","prac","","","","","",""
"null","461421","pSARL_v2","pSARL_v24rxfdz3w","63dab0380b8791f9560fd329","fixation","img/fixation.png","null","","prac","","","","","",""
"1216.6999998092651","462640","pSARL_v2","pSARL_v24rxfdz3w","63dab0380b8791f9560fd329","","","","","prac","","","","","",""
"604.0999999046326","463247","pSARL_v2","pSARL_v24rxfdz3w","63dab0380b8791f9560fd329","freq","img/green_2bandit_a2.png","70","70","test","1","1","1","1","",""
"null","463458","pSARL_v2","pSARL_v24rxfdz3w","63dab0380b8791f9560fd329","freq_resp","img/green_2bandit_a.png","70","70","test","","","","1","",""
"null","463615","pSARL_v2","pSARL_v24rxfdz3w","63dab0380b8791f9560fd329","fixation","img/fixation.png","null","","test","","","","","",""
"275.90000009536743","463893","pSARL_v2","pSARL_v24rxfdz3w","63dab0380b8791f9560fd329","freq","img/green_2bandit_a2.png","70","70","test","1","2","2","1","",""
"null","464433","pSARL_v2","pSARL_v24rxfdz3w","63dab0380b8791f9560fd329","freq_resp","img/green_2bandit_a.png","70","70","test","","","","1","",""
"null","464590","pSARL_v2","pSARL_v24rxfdz3w","63dab0380b8791f9560fd329","fixation","img/fixation.png","null","","test","","","","","",""
"304.30000019073486","464897","pSARL_v2","pSARL_v24rxfdz3w","63dab0380b8791f9560fd329","freq","img/green_2bandit_a2.png","70","70","test","1","3","3","1","",""
"null","465399","pSARL_v2","pSARL_v24rxfdz3w","63dab0380b8791f9560fd329","freq_resp","img/green_2bandit_a.png","70","70","test","","","","1","",""
"null","465552","pSARL_v2","pSARL_v24rxfdz3w","63dab0380b8791f9560fd329","fixation","img/fixation.png","null","","test","","","","","",""
"268.2000000476837","465823","pSARL_v2","pSARL_v24rxfdz3w","63dab0380b8791f9560fd329","freq","img/green_2bandit_a2.png","70","70","test","1","4","4","1","",""
"null","466361","pSARL_v2","pSARL_v24rxfdz3w","63dab0380b8791f9560fd329","freq_resp","img/green_2bandit_a.png","70","70","test","","","","1","",""
"null","466520","pSARL_v2","pSARL_v24rxfdz3w","63dab0380b8791f9560fd329","fixation","img/fixation.png","null","","test","","","","","",""
"308","466831","pSARL_v2","pSARL_v24rxfdz3w","63dab0380b8791f9560fd329","freq","img/green_2bandit_a2.png","70","70","test","1","5","5","1","",""
"null","467330","pSARL_v2","pSARL_v24rxfdz3w","63dab0380b8791f9560fd329","freq_resp","img/green_2bandit_a.png","70","70","test","","","","1","",""
"null","467484","pSARL_v2","pSARL_v24rxfdz3w","63dab0380b8791f9560fd329","fixation","img/fixation.png","null","","test","","","","","",""
"202.60000014305115","467689","pSARL_v2","pSARL_v24rxfdz3w","63dab0380b8791f9560fd329","infreq","img/orange_2bandit_a2.png","70","68","test","0","6","6","1","",""
"null","468296","pSARL_v2","pSARL_v24rxfdz3w","63dab0380b8791f9560fd329","infreq_resp","img/orange_2bandit_a.png","70","68","test","","","","1","",""
"null","468452","pSARL_v2","pSARL_v24rxfdz3w","63dab0380b8791f9560fd329","fixation","img/fixation.png","null","","test","","","","","",""
"431.10000014305115","468886","pSARL_v2","pSARL_v24rxfdz3w","63dab0380b8791f9560fd329","infreq","img/orange_2bandit_a2.png","68","68","test","1","7","7","1","",""
"null","469258","pSARL_v2","pSARL_v24rxfdz3w","63dab0380b8791f9560fd329","infreq_resp","img/orange_2bandit_a.png","68","68","test","","","","1","",""
"null","469411","pSARL_v2","pSARL_v24rxfdz3w","63dab0380b8791f9560fd329","fixation","img/fixation.png","null","","test","","","","","",""
"386.09999990463257","469800","pSARL_v2","pSARL_v24rxfdz3w","63dab0380b8791f9560fd329","freq","img/green_2bandit_a2.png","70","70","test","1","8","8","1","",""
"null","470223","pSARL_v2","pSARL_v24rxfdz3w","63dab0380b8791f9560fd329","freq_resp","img/green_2bandit_a.png","70","70","test","","","","1","",""
"null","470380","pSARL_v2","pSARL_v24rxfdz3w","63dab0380b8791f9560fd329","fixation","img/fixation.png","null","","test","","","","","",""
"340.2000000476837","470723","pSARL_v2","pSARL_v24rxfdz3w","63dab0380b8791f9560fd329","freq","img/green_2bandit_a2.png","70","70","test","1","9","9","1","",""
"null","471186","pSARL_v2","pSARL_v24rxfdz3w","63dab0380b8791f9560fd329","freq_resp","img/green_2bandit_a.png","70","70","test","","","","1","",""
"null","471340","pSARL_v2","pSARL_v24rxfdz3w","63dab0380b8791f9560fd329","fixation","img/fixation.png","null","","test","","","","","",""
"315.2999999523163","471658","pSARL_v2","pSARL_v24rxfdz3w","63dab0380b8791f9560fd329","freq","img/green_2bandit_a2.png","70","70","test","1","10","10","1","",""
"null","472150","pSARL_v2","pSARL_v24rxfdz3w","63dab0380b8791f9560fd329","freq_resp","img/green_2bandit_a.png","70","70","test","","","","1","",""
"null","472303","pSARL_v2","pSARL_v24rxfdz3w","63dab0380b8791f9560fd329","fixation","img/fixation.png","null","","test","","","","","",""
"324.69999980926514","472631","pSARL_v2","pSARL_v24rxfdz3w","63dab0380b8791f9560fd329","freq","img/green_2bandit_a2.png","70","70","test","1","11","11","1","",""
"null","473114","pSARL_v2","pSARL_v24rxfdz3w","63dab0380b8791f9560fd329","freq_resp","img/green_2bandit_a.png","70","70","test","","","","1","",""
"null","473269","pSARL_v2","pSARL_v24rxfdz3w","63dab0380b8791f9560fd329","fixation","img/fixation.png","null","","test","","","","","",""
"273.89999985694885","473546","pSARL_v2","pSARL_v24rxfdz3w","63dab0380b8791f9560fd329","freq","img/green_2bandit_a2.png","70","70","test","1","12","12","1","",""
"null","474075","pSARL_v2","pSARL_v24rxfdz3w","63dab0380b8791f9560fd329","freq_resp","img/green_2bandit_a.png","70","70","test","","","","1","",""
"null","474231","pSARL_v2","pSARL_v24rxfdz3w","63dab0380b8791f9560fd329","fixation","img/fixation.png","null","","test","","","","","",""
"334.59999990463257","474568","pSARL_v2","pSARL_v24rxfdz3w","63dab0380b8791f9560fd329","freq","img/green_2bandit_a2.png","70","70","test","1","13","13","1","",""
"null","475039","pSARL_v2","pSARL_v24rxfdz3w","63dab0380b8791f9560fd329","freq_resp","img/green_2bandit_a.png","70","70","test","","","","1","",""
"null","475193","pSARL_v2","pSARL_v24rxfdz3w","63dab0380b8791f9560fd329","fixation","img/fixation.png","null","","test","","","","","",""
"246.59999990463257","475442","pSARL_v2","pSARL_v24rxfdz3w","63dab0380b8791f9560fd329","freq","img/green_2bandit_a2.png","70","70","test","1","14","14","1","",""
"null","476001","pSARL_v2","pSARL_v24rxfdz3w","63dab0380b8791f9560fd329","freq_resp","img/green_2bandit_a.png","70","70","test","","","","1","",""
"null","476157","pSARL_v2","pSARL_v24rxfdz3w","63dab0380b8791f9560fd329","fixation","img/fixation.png","null","","test","","","","","",""
"254.70000004768372","476415","pSARL_v2","pSARL_v24rxfdz3w","63dab0380b8791f9560fd329","freq","img/green_2bandit_a2.png","70","70","test","1","15","15","1","",""
"null","476977","pSARL_v2","pSARL_v24rxfdz3w","63dab0380b8791f9560fd329","freq_resp","img/green_2bandit_a.png","70","70","test","","","","1","",""
"null","477132","pSARL_v2","pSARL_v24rxfdz3w","63dab0380b8791f9560fd329","fixation","img/fixation.png","null","","test","","","","","",""
"240.29999995231628","477375","pSARL_v2","pSARL_v24rxfdz3w","63dab0380b8791f9560fd329","freq","img/green_2bandit_a2.png","70","70","test","1","16","16","1","",""
"null","477942","pSARL_v2","pSARL_v24rxfdz3w","63dab0380b8791f9560fd329","freq_resp","img/green_2bandit_a.png","70","70","test","","","","1","",""
"null","478095","pSARL_v2","pSARL_v24rxfdz3w","63dab0380b8791f9560fd329","fixation","img/fixation.png","null","","test","","","","","",""
"187","478286","pSARL_v2","pSARL_v24rxfdz3w","63dab0380b8791f9560fd329","freq","img/green_2bandit_a2.png","70","70","test","1","17","17","1","",""
"null","478915","pSARL_v2","pSARL_v24rxfdz3w","63dab0380b8791f9560fd329","freq_resp","img/green_2bandit_a.png","70","70","test","","","","1","",""
"null","479073","pSARL_v2","pSARL_v24rxfdz3w","63dab0380b8791f9560fd329","fixation","img/fixation.png","null","","test","","","","","",""
"275.5","479352","pSARL_v2","pSARL_v24rxfdz3w","63dab0380b8791f9560fd329","freq","img/green_2bandit_a2.png","70","70","test","1","18","18","1","",""
"null","479879","pSARL_v2","pSARL_v24rxfdz3w","63dab0380b8791f9560fd329","freq_resp","img/green_2bandit_a.png","70","70","test","","","","1","",""
"null","480035","pSARL_v2","pSARL_v24rxfdz3w","63dab0380b8791f9560fd329","fixation","img/fixation.png","null","","test","","","","","",""
"250.70000004768372","480289","pSARL_v2","pSARL_v24rxfdz3w","63dab0380b8791f9560fd329","freq","img/green_2bandit_a2.png","70","70","test","1","19","19","1","",""
"null","480846","pSARL_v2","pSARL_v24rxfdz3w","63dab0380b8791f9560fd329","freq_resp","img/green_2bandit_a.png","70","70","test","","","","1","",""
"null","481002","pSARL_v2","pSARL_v24rxfdz3w","63dab0380b8791f9560fd329","fixation","img/fixation.png","null","","test","","","","","",""
"366.2000000476837","481371","pSARL_v2","pSARL_v24rxfdz3w","63dab0380b8791f9560fd329","freq","img/green_2bandit_a2.png","70","70","test","1","20","20","1","",""
"null","481822","pSARL_v2","pSARL_v24rxfdz3w","63dab0380b8791f9560fd329","freq_resp","img/green_2bandit_a.png","70","70","test","","","","1","",""
"null","481978","pSARL_v2","pSARL_v24rxfdz3w","63dab0380b8791f9560fd329","fixation","img/fixation.png","null","","test","","","","","",""
"271.2999999523163","482252","pSARL_v2","pSARL_v24rxfdz3w","63dab0380b8791f9560fd329","freq","img/green_2bandit_a2.png","70","70","test","1","21","21","1","",""
"null","482798","pSARL_v2","pSARL_v24rxfdz3w","63dab0380b8791f9560fd329","freq_resp","img/green_2bandit_a.png","70","70","test","","","","1","",""
"null","482954","pSARL_v2","pSARL_v24rxfdz3w","63dab0380b8791f9560fd329","fixation","img/fixation.png","null","","test","","","","","",""
"529.1000001430511","483486","pSARL_v2","pSARL_v24rxfdz3w","63dab0380b8791f9560fd329","reward","img/slot.png","74","","test","","","","","",""
"null","484243","pSARL_v2","pSARL_v24rxfdz3w","63dab0380b8791f9560fd329","points","<div class=""verylowPoints""> -6 </div>","null","na","test","","","","1","-6","0"
"418","484664","pSARL_v2","pSARL_v24rxfdz3w","63dab0380b8791f9560fd329","freq","img/green_2bandit_a2.png","70","70","test","1","22","22","2","",""
"null","485051","pSARL_v2","pSARL_v24rxfdz3w","63dab0380b8791f9560fd329","freq_resp","img/green_2bandit_a.png","70","70","test","","","","2","",""
"null","485207","pSARL_v2","pSARL_v24rxfdz3w","63dab0380b8791f9560fd329","fixation","img/fixation.png","null","","test","","","","","",""
"314.39999985694885","485525","pSARL_v2","pSARL_v24rxfdz3w","63dab0380b8791f9560fd329","infreq","img/orange_2bandit_a2.png","68","68","test","1","23","23","2","",""
"null","486016","pSARL_v2","pSARL_v24rxfdz3w","63dab0380b8791f9560fd329","infreq_resp","img/orange_2bandit_a.png","68","68","test","","","","2","",""
"null","486173","pSARL_v2","pSARL_v24rxfdz3w","63dab0380b8791f9560fd329","fixation","img/fixation.png","null","","test","","","","","",""
"319.89999985694885","486496","pSARL_v2","pSARL_v24rxfdz3w","63dab0380b8791f9560fd329","freq","img/green_2bandit_a2.png","68","70","test","0","24","24","2","",""
"null","486984","pSARL_v2","pSARL_v24rxfdz3w","63dab0380b8791f9560fd329","freq_resp","img/green_2bandit_a.png","68","70","test","","","","2","",""
"null","487139","pSARL_v2","pSARL_v24rxfdz3w","63dab0380b8791f9560fd329","fixation","img/fixation.png","null","","test","","","","","",""
"352.40000009536743","487494","pSARL_v2","pSARL_v24rxfdz3w","63dab0380b8791f9560fd329","freq","img/green_2bandit_a2.png","70","70","test","1","25","25","2","",""
"null","487945","pSARL_v2","pSARL_v24rxfdz3w","63dab0380b8791f9560fd329","freq_resp","img/green_2bandit_a.png","70","70","test","","","","2","",""
"null","488100","pSARL_v2","pSARL_v24rxfdz3w","63dab0380b8791f9560fd329","fixation","img/fixation.png","null","","test","","","","","",""
"283.09999990463257","488386","pSARL_v2","pSARL_v24rxfdz3w","63dab0380b8791f9560fd329","freq","img/green_2bandit_a2.png","70","70","test","1","26","26","2","",""
"null","488912","pSARL_v2","pSARL_v24rxfdz3w","63dab0380b8791f9560fd329","freq_resp","img/green_2bandit_a.png","70","70","test","","","","2","",""
"null","489066","pSARL_v2","pSARL_v24rxfdz3w","63dab0380b8791f9560fd329","fixation","img/fixation.png","null","","test","","","","","",""
"268.40000009536743","489337","pSARL_v2","pSARL_v24rxfdz3w","63dab0380b8791f9560fd329","freq","img/green_2bandit_a2.png","70","70","test","1","27","27","2","",""
"null","489875","pSARL_v2","pSARL_v24rxfdz3w","63dab0380b8791f9560fd329","freq_resp","img/green_2bandit_a.png","70","70","test","","","","2","",""
"null","490033","pSARL_v2","pSARL_v24rxfdz3w","63dab0380b8791f9560fd329","fixation","img/fixation.png","null","","test","","","","","",""
"266.80000019073486","490303","pSARL_v2","pSARL_v24rxfdz3w","63dab0380b8791f9560fd329","freq","img/green_2bandit_a2.png","70","70","test","1","28","28","2","",""
"null","490841","pSARL_v2","pSARL_v24rxfdz3w","63dab0380b8791f9560fd329","freq_resp","img/green_2bandit_a.png","70","70","test","","","","2","",""
"null","490996","pSARL_v2","pSARL_v24rxfdz3w","63dab0380b8791f9560fd329","fixation","img/fixation.png","null","","test","","","","","",""
"263.60000014305115","491262","pSARL_v2","pSARL_v24rxfdz3w","63dab0380b8791f9560fd329","freq","img/green_2bandit_a2.png","70","70","test","1","29","29","2","",""
"null","491804","pSARL_v2","pSARL_v24rxfdz3w","63dab0380b8791f9560fd329","freq_resp","img/green_2bandit_a.png","70","70","test","","","","2","",""
"null","491963","pSARL_v2","pSARL_v24rxfdz3w","63dab0380b8791f9560fd329","fixation","img/fixation.png","null","","test","","","","","",""
"238.89999985694885","492204","pSARL_v2","pSARL_v24rxfdz3w","63dab0380b8791f9560fd329","freq","img/green_2bandit_a2.png","70","70","test","1","30","30","2","",""
"null","492768","pSARL_v2","pSARL_v24rxfdz3w","63dab0380b8791f9560fd329","freq_resp","img/green_2bandit_a.png","70","70","test","","","","2","",""
"null","492924","pSARL_v2","pSARL_v24rxfdz3w","63dab0380b8791f9560fd329","fixation","img/fixation.png","null","","test","","","","","",""
"271.80000019073486","493198","pSARL_v2","pSARL_v24rxfdz3w","63dab0380b8791f9560fd329","freq","img/green_2bandit_a2.png","70","70","test","1","31","31","2","",""
"null","493734","pSARL_v2","pSARL_v24rxfdz3w","63dab0380b8791f9560fd329","freq_resp","img/green_2bandit_a.png","70","70","test","","","","2","",""
"null","493889","pSARL_v2","pSARL_v24rxfdz3w","63dab0380b8791f9560fd329","fixation","img/fixation.png","null","","test","","","","","",""
"268.2999999523163","494161","pSARL_v2","pSARL_v24rxfdz3w","63dab0380b8791f9560fd329","freq","img/green_2bandit_a2.png","70","70","test","1","32","32","2","",""
"null","494704","pSARL_v2","pSARL_v24rxfdz3w","63dab0380b8791f9560fd329","freq_resp","img/green_2bandit_a.png","70","70","test","","","","2","",""
"null","494859","pSARL_v2","pSARL_v24rxfdz3w","63dab0380b8791f9560fd329","fixation","img/fixation.png","null","","test","","","","","",""
"314.7000000476837","495176","pSARL_v2","pSARL_v24rxfdz3w","63dab0380b8791f9560fd329","freq","img/green_2bandit_a2.png","70","70","test","1","33","33","2","",""
"null","495666","pSARL_v2","pSARL_v24rxfdz3w","63dab0380b8791f9560fd329","freq_resp","img/green_2bandit_a.png","70","70","test","","","","2","",""
"null","495820","pSARL_v2","pSARL_v24rxfdz3w","63dab0380b8791f9560fd329","fixation","img/fixation.png","null","","test","","","","","",""
"258.90000009536743","496082","pSARL_v2","pSARL_v24rxfdz3w","63dab0380b8791f9560fd329","freq","img/green_2bandit_a2.png","70","70","test","1","34","34","2","",""
"null","496629","pSARL_v2","pSARL_v24rxfdz3w","63dab0380b8791f9560fd329","freq_resp","img/green_2bandit_a.png","70","70","test","","","","2","",""
"null","496798","pSARL_v2","pSARL_v24rxfdz3w","63dab0380b8791f9560fd329","fixation","img/fixation.png","null","","test","","","","","",""
"271.19999980926514","497072","pSARL_v2","pSARL_v24rxfdz3w","63dab0380b8791f9560fd329","freq","img/green_2bandit_a2.png","70","70","test","1","35","35","2","",""
"null","497605","pSARL_v2","pSARL_v24rxfdz3w","63dab0380b8791f9560fd329","freq_resp","img/green_2bandit_a.png","70","70","test","","","","2","",""
"null","497760","pSARL_v2","pSARL_v24rxfdz3w","63dab0380b8791f9560fd329","fixation","img/fixation.png","null","","test","","","","","",""
"474.10000014305115","498237","pSARL_v2","pSARL_v24rxfdz3w","63dab0380b8791f9560fd329","infreq","img/orange_2bandit_a2.png","68","68","test","1","36","36","2","",""
"null","498567","pSARL_v2","pSARL_v24rxfdz3w","63dab0380b8791f9560fd329","infreq_resp","img/orange_2bandit_a.png","68","68","test","","","","2","",""
"null","498721","pSARL_v2","pSARL_v24rxfdz3w","63dab0380b8791f9560fd329","fixation","img/fixation.png","null","","test","","","","","",""
"335","499059","pSARL_v2","pSARL_v24rxfdz3w","63dab0380b8791f9560fd329","freq","img/green_2bandit_a2.png","70","70","test","1","37","37","2","",""
"null","499542","pSARL_v2","pSARL_v24rxfdz3w","63dab0380b8791f9560fd329","freq_resp","img/green_2bandit_a.png","70","70","test","","","","2","",""
"null","499698","pSARL_v2","pSARL_v24rxfdz3w","63dab0380b8791f9560fd329","fixation","img/fixation.png","null","","test","","","","","",""
"345.09999990463257","500046","pSARL_v2","pSARL_v24rxfdz3w","63dab0380b8791f9560fd329","freq","img/green_2bandit_a2.png","70","70","test","1","38","38","2","",""
"null","500509","pSARL_v2","pSARL_v24rxfdz3w","63dab0380b8791f9560fd329","freq_resp","img/green_2bandit_a.png","70","70","test","","","","2","",""
"null","500665","pSARL_v2","pSARL_v24rxfdz3w","63dab0380b8791f9560fd329","fixation","img/fixation.png","null","","test","","","","","",""
"271.2000000476837","500939","pSARL_v2","pSARL_v24rxfdz3w","63dab0380b8791f9560fd329","freq","img/green_2bandit_a2.png","70","70","test","1","39","39","2","",""
"null","501473","pSARL_v2","pSARL_v24rxfdz3w","63dab0380b8791f9560fd329","freq_resp","img/green_2bandit_a.png","70","70","test","","","","2","",""
"null","501629","pSARL_v2","pSARL_v24rxfdz3w","63dab0380b8791f9560fd329","fixation","img/fixation.png","null","","test","","","","","",""
"269.2999999523163","501901","pSARL_v2","pSARL_v24rxfdz3w","63dab0380b8791f9560fd329","freq","img/green_2bandit_a2.png","70","70","test","1","40","40","2","",""
"null","502437","pSARL_v2","pSARL_v24rxfdz3w","63dab0380b8791f9560fd329","freq_resp","img/green_2bandit_a.png","70","70","test","","","","2","",""
"null","502593","pSARL_v2","pSARL_v24rxfdz3w","63dab0380b8791f9560fd329","fixation","img/fixation.png","null","","test","","","","","",""
"357.5","502952","pSARL_v2","pSARL_v24rxfdz3w","63dab0380b8791f9560fd329","freq","img/green_2bandit_a2.png","70","70","test","1","41","41","2","",""
"null","503401","pSARL_v2","pSARL_v24rxfdz3w","63dab0380b8791f9560fd329","freq_resp","img/green_2bandit_a.png","70","70","test","","","","2","",""
"null","503556","pSARL_v2","pSARL_v24rxfdz3w","63dab0380b8791f9560fd329","fixation","img/fixation.png","null","","test","","","","","",""
"250.09999990463257","503808","pSARL_v2","pSARL_v24rxfdz3w","63dab0380b8791f9560fd329","freq","img/green_2bandit_a2.png","70","70","test","1","42","42","2","",""
"null","504365","pSARL_v2","pSARL_v24rxfdz3w","63dab0380b8791f9560fd329","freq_resp","img/green_2bandit_a.png","70","70","test","","","","2","",""
"null","504522","pSARL_v2","pSARL_v24rxfdz3w","63dab0380b8791f9560fd329","fixation","img/fixation.png","null","","test","","","","","",""
"342.30000019073486","504867","pSARL_v2","pSARL_v24rxfdz3w","63dab0380b8791f9560fd329","freq","img/green_2bandit_a2.png","70","70","test","1","43","43","2","",""
"null","505330","pSARL_v2","pSARL_v24rxfdz3w","63dab0380b8791f9560fd329","freq_resp","img/green_2bandit_a.png","70","70","test","","","","2","",""
"null","505486","pSARL_v2","pSARL_v24rxfdz3w","63dab0380b8791f9560fd329","fixation","img/fixation.png","null","","test","","","","","",""
"516.5","506005","pSARL_v2","pSARL_v24rxfdz3w","63dab0380b8791f9560fd329","reward","img/slot.png","74","","test","","","","","",""
"null","506765","pSARL_v2","pSARL_v24rxfdz3w","63dab0380b8791f9560fd329","points","<div class=""verylowPoints""> -11 </div>","null","na","test","","","","2","-11","1"
"547.2000000476837","507315","pSARL_v2","pSARL_v24rxfdz3w","63dab0380b8791f9560fd329","freq","img/green_2bandit_a2.png","70","70","test","1","44","44","3","",""
"null","507585","pSARL_v2","pSARL_v24rxfdz3w","63dab0380b8791f9560fd329","freq_resp","img/green_2bandit_a.png","70","70","test","","","","3","",""
"null","507740","pSARL_v2","pSARL_v24rxfdz3w","63dab0380b8791f9560fd329","fixation","img/fixation.png","null","","test","","","","","",""
"274","508016","pSARL_v2","pSARL_v24rxfdz3w","63dab0380b8791f9560fd329","freq","img/green_2bandit_a2.png","70","70","test","1","45","45","3","",""
"null","508545","pSARL_v2","pSARL_v24rxfdz3w","63dab0380b8791f9560fd329","freq_resp","img/green_2bandit_a.png","70","70","test","","","","3","",""
"null","508701","pSARL_v2","pSARL_v24rxfdz3w","63dab0380b8791f9560fd329","fixation","img/fixation.png","null","","test","","","","","",""
"352","509055","pSARL_v2","pSARL_v24rxfdz3w","63dab0380b8791f9560fd329","freq","img/green_2bandit_a2.png","70","70","test","1","46","46","3","",""
"null","509506","pSARL_v2","pSARL_v24rxfdz3w","63dab0380b8791f9560fd329","freq_resp","img/green_2bandit_a.png","70","70","test","","","","3","",""
"null","509663","pSARL_v2","pSARL_v24rxfdz3w","63dab0380b8791f9560fd329","fixation","img/fixation.png","null","","test","","","","","",""
"280.5","509947","pSARL_v2","pSARL_v24rxfdz3w","63dab0380b8791f9560fd329","freq","img/green_2bandit_a2.png","70","70","test","1","47","47","3","",""
"null","510476","pSARL_v2","pSARL_v24rxfdz3w","63dab0380b8791f9560fd329","freq_resp","img/green_2bandit_a.png","70","70","test","","","","3","",""
"null","510630","pSARL_v2","pSARL_v24rxfdz3w","63dab0380b8791f9560fd329","fixation","img/fixation.png","null","","test","","","","","",""
"400.09999990463257","511033","pSARL_v2","pSARL_v24rxfdz3w","63dab0380b8791f9560fd329","freq","img/green_2bandit_a2.png","70","70","test","1","48","48","3","",""
"null","511440","pSARL_v2","pSARL_v24rxfdz3w","63dab0380b8791f9560fd329","freq_resp","img/green_2bandit_a.png","70","70","test","","","","3","",""
"null","511595","pSARL_v2","pSARL_v24rxfdz3w","63dab0380b8791f9560fd329","fixation","img/fixation.png","null","","test","","","","","",""
"270.2000000476837","511869","pSARL_v2","pSARL_v24rxfdz3w","63dab0380b8791f9560fd329","freq","img/green_2bandit_a2.png","70","70","test","1","49","49","3","",""
"null","512406","pSARL_v2","pSARL_v24rxfdz3w","63dab0380b8791f9560fd329","freq_resp","img/green_2bandit_a.png","70","70","test","","","","3","",""
"null","512560","pSARL_v2","pSARL_v24rxfdz3w","63dab0380b8791f9560fd329","fixation","img/fixation.png","null","","test","","","","","",""
"276.7000000476837","512840","pSARL_v2","pSARL_v24rxfdz3w","63dab0380b8791f9560fd329","freq","img/green_2bandit_a2.png","70","70","test","1","50","50","3","",""
"null","513369","pSARL_v2","pSARL_v24rxfdz3w","63dab0380b8791f9560fd329","freq_resp","img/green_2bandit_a.png","70","70","test","","","","3","",""
"null","513524","pSARL_v2","pSARL_v24rxfdz3w","63dab0380b8791f9560fd329","fixation","img/fixation.png","null","","test","","","","","",""
"246.29999995231628","513773","pSARL_v2","pSARL_v24rxfdz3w","63dab0380b8791f9560fd329","freq","img/green_2bandit_a2.png","70","70","test","1","51","51","3","",""
"null","514334","pSARL_v2","pSARL_v24rxfdz3w","63dab0380b8791f9560fd329","freq_resp","img/green_2bandit_a.png","70","70","test","","","","3","",""
"null","514489","pSARL_v2","pSARL_v24rxfdz3w","63dab0380b8791f9560fd329","fixation","img/fixation.png","null","","test","","","","","",""
"255","514747","pSARL_v2","pSARL_v24rxfdz3w","63dab0380b8791f9560fd329","freq","img/green_2bandit_a2.png","70","70","test","1","52","52","3","",""
"null","515301","pSARL_v2","pSARL_v24rxfdz3w","63dab0380b8791f9560fd329","freq_resp","img/green_2bandit_a.png","70","70","test","","","","3","",""
"null","515455","pSARL_v2","pSARL_v24rxfdz3w","63dab0380b8791f9560fd329","fixation","img/fixation.png","null","","test","","","","","",""
"237.29999995231628","515695","pSARL_v2","pSARL_v24rxfdz3w","63dab0380b8791f9560fd329","freq","img/green_2bandit_a2.png","70","70","test","1","53","53","3","",""
"null","516264","pSARL_v2","pSARL_v24rxfdz3w","63dab0380b8791f9560fd329","freq_resp","img/green_2bandit_a.png","70","70","test","","","","3","",""
"null","516419","pSARL_v2","pSARL_v24rxfdz3w","63dab0380b8791f9560fd329","fixation","img/fixation.png","null","","test","","","","","",""
"229.70000004768372","516651","pSARL_v2","pSARL_v24rxfdz3w","63dab0380b8791f9560fd329","freq","img/green_2bandit_a2.png","70","70","test","1","54","54","3","",""
"null","517231","pSARL_v2","pSARL_v24rxfdz3w","63dab0380b8791f9560fd329","freq_resp","img/green_2bandit_a.png","70","70","test","","","","3","",""
"null","517386","pSARL_v2","pSARL_v24rxfdz3w","63dab0380b8791f9560fd329","fixation","img/fixation.png","null","","test","","","","","",""
"211.70000004768372","517600","pSARL_v2","pSARL_v24rxfdz3w","63dab0380b8791f9560fd329","freq","img/green_2bandit_a2.png","70","70","test","1","55","55","3","",""
"null","518192","pSARL_v2","pSARL_v24rxfdz3w","63dab0380b8791f9560fd329","freq_resp","img/green_2bandit_a.png","70","70","test","","","","3","",""
"null","518348","pSARL_v2","pSARL_v24rxfdz3w","63dab0380b8791f9560fd329","fixation","img/fixation.png","null","","test","","","","","",""
"124","518476","pSARL_v2","pSARL_v24rxfdz3w","63dab0380b8791f9560fd329","freq","img/green_2bandit_a2.png","70","70","test","1","56","56","3","",""
"null","519156","pSARL_v2","pSARL_v24rxfdz3w","63dab0380b8791f9560fd329","freq_resp","img/green_2bandit_a.png","70","70","test","","","","3","",""
"null","519312","pSARL_v2","pSARL_v24rxfdz3w","63dab0380b8791f9560fd329","fixation","img/fixation.png","null","","test","","","","","",""
"210.19999980926514","519525","pSARL_v2","pSARL_v24rxfdz3w","63dab0380b8791f9560fd329","freq","img/green_2bandit_a2.png","70","70","test","1","57","57","3","",""
"null","520132","pSARL_v2","pSARL_v24rxfdz3w","63dab0380b8791f9560fd329","freq_resp","img/green_2bandit_a.png","70","70","test","","","","3","",""
"null","520286","pSARL_v2","pSARL_v24rxfdz3w","63dab0380b8791f9560fd329","fixation","img/fixation.png","null","","test","","","","","",""
"108.39999985694885","520397","pSARL_v2","pSARL_v24rxfdz3w","63dab0380b8791f9560fd329","infreq","img/orange_2bandit_a2.png","70","68","test","0","58","58","3","",""
"null","521106","pSARL_v2","pSARL_v24rxfdz3w","63dab0380b8791f9560fd329","infreq_resp","img/orange_2bandit_a.png","70","68","test","","","","3","",""
"null","521262","pSARL_v2","pSARL_v24rxfdz3w","63dab0380b8791f9560fd329","fixation","img/fixation.png","null","","test","","","","","",""
"413","521679","pSARL_v2","pSARL_v24rxfdz3w","63dab0380b8791f9560fd329","freq","img/green_2bandit_a2.png","70","70","test","1","59","59","3","",""
"null","522069","pSARL_v2","pSARL_v24rxfdz3w","63dab0380b8791f9560fd329","freq_resp","img/green_2bandit_a.png","70","70","test","","","","3","",""
"null","522225","pSARL_v2","pSARL_v24rxfdz3w","63dab0380b8791f9560fd329","fixation","img/fixation.png","null","","test","","","","","",""
"295.09999990463257","522523","pSARL_v2","pSARL_v24rxfdz3w","63dab0380b8791f9560fd329","freq","img/green_2bandit_a2.png","70","70","test","1","60","60","3","",""
"null","523033","pSARL_v2","pSARL_v24rxfdz3w","63dab0380b8791f9560fd329","freq_resp","img/green_2bandit_a.png","70","70","test","","","","3","",""
"null","523189","pSARL_v2","pSARL_v24rxfdz3w","63dab0380b8791f9560fd329","fixation","img/fixation.png","null","","test","","","","","",""
"181.89999985694885","523374","pSARL_v2","pSARL_v24rxfdz3w","63dab0380b8791f9560fd329","freq","img/green_2bandit_a2.png","70","70","test","1","61","61","3","",""
"null","523998","pSARL_v2","pSARL_v24rxfdz3w","63dab0380b8791f9560fd329","freq_resp","img/green_2bandit_a.png","70","70","test","","","","3","",""
"null","524155","pSARL_v2","pSARL_v24rxfdz3w","63dab0380b8791f9560fd329","fixation","img/fixation.png","null","","test","","","","","",""
"158.69999980926514","524316","pSARL_v2","pSARL_v24rxfdz3w","63dab0380b8791f9560fd329","freq","img/green_2bandit_a2.png","70","70","test","1","62","62","3","",""
"null","524962","pSARL_v2","pSARL_v24rxfdz3w","63dab0380b8791f9560fd329","freq_resp","img/green_2bandit_a.png","70","70","test","","","","3","",""
"null","525118","pSARL_v2","pSARL_v24rxfdz3w","63dab0380b8791f9560fd329","fixation","img/fixation.png","null","","test","","","","","",""
"194.60000014305115","525314","pSARL_v2","pSARL_v24rxfdz3w","63dab0380b8791f9560fd329","freq","img/green_2bandit_a2.png","70","70","test","1","63","63","3","",""
"null","525935","pSARL_v2","pSARL_v24rxfdz3w","63dab0380b8791f9560fd329","freq_resp","img/green_2bandit_a.png","70","70","test","","","","3","",""
"null","526091","pSARL_v2","pSARL_v24rxfdz3w","63dab0380b8791f9560fd329","fixation","img/fixation.png","null","","test","","","","","",""
"302.90000009536743","526397","pSARL_v2","pSARL_v24rxfdz3w","63dab0380b8791f9560fd329","freq","img/green_2bandit_a2.png","70","70","test","1","64","64","3","",""
"null","526899","pSARL_v2","pSARL_v24rxfdz3w","63dab0380b8791f9560fd329","freq_resp","img/green_2bandit_a.png","70","70","test","","","","3","",""
"null","527056","pSARL_v2","pSARL_v24rxfdz3w","63dab0380b8791f9560fd329","fixation","img/fixation.png","null","","test","","","","","",""
"441.30000019073486","527500","pSARL_v2","pSARL_v24rxfdz3w","63dab0380b8791f9560fd329","infreq","img/orange_2bandit_a2.png","68","68","test","1","65","65","3","",""
"null","527861","pSARL_v2","pSARL_v24rxfdz3w","63dab0380b8791f9560fd329","infreq_resp","img/orange_2bandit_a.png","68","68","test","","","","3","",""
"null","528015","pSARL_v2","pSARL_v24rxfdz3w","63dab0380b8791f9560fd329","fixation","img/fixation.png","null","","test","","","","","",""
"408.10000014305115","528426","pSARL_v2","pSARL_v24rxfdz3w","63dab0380b8791f9560fd329","freq","img/green_2bandit_a2.png","70","70","test","1","66","66","3","",""
"null","528829","pSARL_v2","pSARL_v24rxfdz3w","63dab0380b8791f9560fd329","freq_resp","img/green_2bandit_a.png","70","70","test","","","","3","",""
"null","528984","pSARL_v2","pSARL_v24rxfdz3w","63dab0380b8791f9560fd329","fixation","img/fixation.png","null","","test","","","","","",""
"479.7000000476837","529465","pSARL_v2","pSARL_v24rxfdz3w","63dab0380b8791f9560fd329","reward","img/slot.png","74","","test","","","","","",""
"null","530222","pSARL_v2","pSARL_v24rxfdz3w","63dab0380b8791f9560fd329","points","<div class=""verylowPoints""> -7 </div>","null","na","test","","","","3","-7","2"
"375.2999999523163","530601","pSARL_v2","pSARL_v24rxfdz3w","63dab0380b8791f9560fd329","freq","img/green_2bandit_a2.png","70","70","test","1","67","67","4","",""
"null","531043","pSARL_v2","pSARL_v24rxfdz3w","63dab0380b8791f9560fd329","freq_resp","img/green_2bandit_a.png","70","70","test","","","","4","",""
"null","531199","pSARL_v2","pSARL_v24rxfdz3w","63dab0380b8791f9560fd329","fixation","img/fixation.png","null","","test","","","","","",""
"225.70000004768372","531428","pSARL_v2","pSARL_v24rxfdz3w","63dab0380b8791f9560fd329","freq","img/green_2bandit_a2.png","70","70","test","1","68","68","4","",""
"null","532017","pSARL_v2","pSARL_v24rxfdz3w","63dab0380b8791f9560fd329","freq_resp","img/green_2bandit_a.png","70","70","test","","","","4","",""
"null","532173","pSARL_v2","pSARL_v24rxfdz3w","63dab0380b8791f9560fd329","fixation","img/fixation.png","null","","test","","","","","",""
"113","532289","pSARL_v2","pSARL_v24rxfdz3w","63dab0380b8791f9560fd329","freq","img/green_2bandit_a2.png","70","70","test","1","69","69","4","",""
"null","532981","pSARL_v2","pSARL_v24rxfdz3w","63dab0380b8791f9560fd329","freq_resp","img/green_2bandit_a.png","70","70","test","","","","4","",""
"null","533137","pSARL_v2","pSARL_v24rxfdz3w","63dab0380b8791f9560fd329","fixation","img/fixation.png","null","","test","","","","","",""
"126.29999995231628","533266","pSARL_v2","pSARL_v24rxfdz3w","63dab0380b8791f9560fd329","freq","img/green_2bandit_a2.png","70","70","test","1","70","70","4","",""
"null","533957","pSARL_v2","pSARL_v24rxfdz3w","63dab0380b8791f9560fd329","freq_resp","img/green_2bandit_a.png","70","70","test","","","","4","",""
"null","534111","pSARL_v2","pSARL_v24rxfdz3w","63dab0380b8791f9560fd329","fixation","img/fixation.png","null","","test","","","","","",""
"228.79999995231628","534343","pSARL_v2","pSARL_v24rxfdz3w","63dab0380b8791f9560fd329","freq","img/green_2bandit_a2.png","70","70","test","1","71","71","4","",""
"null","534924","pSARL_v2","pSARL_v24rxfdz3w","63dab0380b8791f9560fd329","freq_resp","img/green_2bandit_a.png","70","70","test","","","","4","",""
"null","535080","pSARL_v2","pSARL_v24rxfdz3w","63dab0380b8791f9560fd329","fixation","img/fixation.png","null","","test","","","","","",""
"246.89999985694885","535329","pSARL_v2","pSARL_v24rxfdz3w","63dab0380b8791f9560fd329","freq","img/green_2bandit_a2.png","70","70","test","1","72","72","4","",""
"null","535887","pSARL_v2","pSARL_v24rxfdz3w","63dab0380b8791f9560fd329","freq_resp","img/green_2bandit_a.png","70","70","test","","","","4","",""
"null","536041","pSARL_v2","pSARL_v24rxfdz3w","63dab0380b8791f9560fd329","fixation","img/fixation.png","null","","test","","","","","",""
"256.39999985694885","536300","pSARL_v2","pSARL_v24rxfdz3w","63dab0380b8791f9560fd329","freq","img/green_2bandit_a2.png","70","70","test","1","73","73","4","",""
"null","536852","pSARL_v2","pSARL_v24rxfdz3w","63dab0380b8791f9560fd329","freq_resp","img/green_2bandit_a.png","70","70","test","","","","4","",""
"null","537006","pSARL_v2","pSARL_v24rxfdz3w","63dab0380b8791f9560fd329","fixation","img/fixation.png","null","","test","","","","","",""
"455.59999990463257","537464","pSARL_v2","pSARL_v24rxfdz3w","63dab0380b8791f9560fd329","infreq","img/orange_2bandit_a2.png","68","68","test","1","74","74","4","",""
"null","537815","pSARL_v2","pSARL_v24rxfdz3w","63dab0380b8791f9560fd329","infreq_resp","img/orange_2bandit_a.png","68","68","test","","","","4","",""
"null","537970","pSARL_v2","pSARL_v24rxfdz3w","63dab0380b8791f9560fd329","fixation","img/fixation.png","null","","test","","","","","",""
"364.7999999523163","538337","pSARL_v2","pSARL_v24rxfdz3w","63dab0380b8791f9560fd329","freq","img/green_2bandit_a2.png","70","70","test","1","75","75","4","",""
"null","538778","pSARL_v2","pSARL_v24rxfdz3w","63dab0380b8791f9560fd329","freq_resp","img/green_2bandit_a.png","70","70","test","","","","4","",""
"null","538933","pSARL_v2","pSARL_v24rxfdz3w","63dab0380b8791f9560fd329","fixation","img/fixation.png","null","","test","","","","","",""
"293.69999980926514","539230","pSARL_v2","pSARL_v24rxfdz3w","63dab0380b8791f9560fd329","freq","img/green_2bandit_a2.png","70","70","test","1","76","76","4","",""
"null","539742","pSARL_v2","pSARL_v24rxfdz3w","63dab0380b8791f9560fd329","freq_resp","img/green_2bandit_a.png","70","70","test","","","","4","",""
"null","539896","pSARL_v2","pSARL_v24rxfdz3w","63dab0380b8791f9560fd329","fixation","img/fixation.png","null","","test","","","","","",""
"257.2000000476837","540156","pSARL_v2","pSARL_v24rxfdz3w","63dab0380b8791f9560fd329","freq","img/green_2bandit_a2.png","70","70","test","1","77","77","4","",""
"null","540706","pSARL_v2","pSARL_v24rxfdz3w","63dab0380b8791f9560fd329","freq_resp","img/green_2bandit_a.png","70","70","test","","","","4","",""
"null","540860","pSARL_v2","pSARL_v24rxfdz3w","63dab0380b8791f9560fd329","fixation","img/fixation.png","null","","test","","","","","",""
"269","541132","pSARL_v2","pSARL_v24rxfdz3w","63dab0380b8791f9560fd329","freq","img/green_2bandit_a2.png","70","70","test","1","78","78","4","",""
"null","541667","pSARL_v2","pSARL_v24rxfdz3w","63dab0380b8791f9560fd329","freq_resp","img/green_2bandit_a.png","70","70","test","","","","4","",""
"null","541823","pSARL_v2","pSARL_v24rxfdz3w","63dab0380b8791f9560fd329","fixation","img/fixation.png","null","","test","","","","","",""
"252","542078","pSARL_v2","pSARL_v24rxfdz3w","63dab0380b8791f9560fd329","freq","img/green_2bandit_a2.png","70","70","test","1","79","79","4","",""
"null","542632","pSARL_v2","pSARL_v24rxfdz3w","63dab0380b8791f9560fd329","freq_resp","img/green_2bandit_a.png","70","70","test","","","","4","",""
"null","542785","pSARL_v2","pSARL_v24rxfdz3w","63dab0380b8791f9560fd329","fixation","img/fixation.png","null","","test","","","","","",""
"249.39999985694885","543037","pSARL_v2","pSARL_v24rxfdz3w","63dab0380b8791f9560fd329","freq","img/green_2bandit_a2.png","70","70","test","1","80","80","4","",""
"null","543594","pSARL_v2","pSARL_v24rxfdz3w","63dab0380b8791f9560fd329","freq_resp","img/green_2bandit_a.png","70","70","test","","","","4","",""
"null","543749","pSARL_v2","pSARL_v24rxfdz3w","63dab0380b8791f9560fd329","fixation","img/fixation.png","null","","test","","","","","",""
"270.7000000476837","544023","pSARL_v2","pSARL_v24rxfdz3w","63dab0380b8791f9560fd329","freq","img/green_2bandit_a2.png","70","70","test","1","81","81","4","",""
"null","544559","pSARL_v2","pSARL_v24rxfdz3w","63dab0380b8791f9560fd329","freq_resp","img/green_2bandit_a.png","70","70","test","","","","4","",""
"null","544713","pSARL_v2","pSARL_v24rxfdz3w","63dab0380b8791f9560fd329","fixation","img/fixation.png","null","","test","","","","","",""
"257.5","544974","pSARL_v2","pSARL_v24rxfdz3w","63dab0380b8791f9560fd329","freq","img/green_2bandit_a2.png","70","70","test","1","82","82","4","",""
"null","545524","pSARL_v2","pSARL_v24rxfdz3w","63dab0380b8791f9560fd329","freq_resp","img/green_2bandit_a.png","70","70","test","","","","4","",""
"null","545680","pSARL_v2","pSARL_v24rxfdz3w","63dab0380b8791f9560fd329","fixation","img/fixation.png","null","","test","","","","","",""
"227.40000009536743","545911","pSARL_v2","pSARL_v24rxfdz3w","63dab0380b8791f9560fd329","freq","img/green_2bandit_a2.png","70","70","test","1","83","83","4","",""
"null","546487","pSARL_v2","pSARL_v24rxfdz3w","63dab0380b8791f9560fd329","freq_resp","img/green_2bandit_a.png","70","70","test","","","","4","",""
"null","546643","pSARL_v2","pSARL_v24rxfdz3w","63dab0380b8791f9560fd329","fixation","img/fixation.png","null","","test","","","","","",""
"396.09999990463257","547041","pSARL_v2","pSARL_v24rxfdz3w","63dab0380b8791f9560fd329","infreq","img/orange_2bandit_a2.png","68","68","test","1","84","84","4","",""
"null","547454","pSARL_v2","pSARL_v24rxfdz3w","63dab0380b8791f9560fd329","infreq_resp","img/orange_2bandit_a.png","68","68","test","","","","4","",""
"null","547610","pSARL_v2","pSARL_v24rxfdz3w","63dab0380b8791f9560fd329","fixation","img/fixation.png","null","","test","","","","","",""
"328.59999990463257","547941","pSARL_v2","pSARL_v24rxfdz3w","63dab0380b8791f9560fd329","freq","img/green_2bandit_a2.png","70","70","test","1","85","85","4","",""
"null","548417","pSARL_v2","pSARL_v24rxfdz3w","63dab0380b8791f9560fd329","freq_resp","img/green_2bandit_a.png","70","70","test","","","","4","",""
"null","548574","pSARL_v2","pSARL_v24rxfdz3w","63dab0380b8791f9560fd329","fixation","img/fixation.png","null","","test","","","","","",""
"329.80000019073486","548906","pSARL_v2","pSARL_v24rxfdz3w","63dab0380b8791f9560fd329","freq","img/green_2bandit_a2.png","70","70","test","1","86","86","4","",""
"null","549381","pSARL_v2","pSARL_v24rxfdz3w","63dab0380b8791f9560fd329","freq_resp","img/green_2bandit_a.png","70","70","test","","","","4","",""
"null","549538","pSARL_v2","pSARL_v24rxfdz3w","63dab0380b8791f9560fd329","fixation","img/fixation.png","null","","test","","","","","",""
"275.90000009536743","549817","pSARL_v2","pSARL_v24rxfdz3w","63dab0380b8791f9560fd329","freq","img/green_2bandit_a2.png","70","70","test","1","87","87","4","",""
"null","550362","pSARL_v2","pSARL_v24rxfdz3w","63dab0380b8791f9560fd329","freq_resp","img/green_2bandit_a.png","70","70","test","","","","4","",""
"null","550527","pSARL_v2","pSARL_v24rxfdz3w","63dab0380b8791f9560fd329","fixation","img/fixation.png","null","","test","","","","","",""
"231.30000019073486","550761","pSARL_v2","pSARL_v24rxfdz3w","63dab0380b8791f9560fd329","freq","img/green_2bandit_a2.png","70","70","test","1","88","88","4","",""
"null","551345","pSARL_v2","pSARL_v24rxfdz3w","63dab0380b8791f9560fd329","freq_resp","img/green_2bandit_a.png","70","70","test","","","","4","",""
"null","551501","pSARL_v2","pSARL_v24rxfdz3w","63dab0380b8791f9560fd329","fixation","img/fixation.png","null","","test","","","","","",""
"425.40000009536743","551929","pSARL_v2","pSARL_v24rxfdz3w","63dab0380b8791f9560fd329","freq","img/green_2bandit_a2.png","70","70","test","1","89","89","4","",""
"null","552309","pSARL_v2","pSARL_v24rxfdz3w","63dab0380b8791f9560fd329","freq_resp","img/green_2bandit_a.png","70","70","test","","","","4","",""
"null","552467","pSARL_v2","pSARL_v24rxfdz3w","63dab0380b8791f9560fd329","fixation","img/fixation.png","null","","test","","","","","",""
"214.70000004768372","552684","pSARL_v2","pSARL_v24rxfdz3w","63dab0380b8791f9560fd329","freq","img/green_2bandit_a2.png","70","70","test","1","90","90","4","",""
"null","553275","pSARL_v2","pSARL_v24rxfdz3w","63dab0380b8791f9560fd329","freq_resp","img/green_2bandit_a.png","70","70","test","","","","4","",""
"null","553430","pSARL_v2","pSARL_v24rxfdz3w","63dab0380b8791f9560fd329","fixation","img/fixation.png","null","","test","","","","","",""
"264.80000019073486","553697","pSARL_v2","pSARL_v24rxfdz3w","63dab0380b8791f9560fd329","freq","img/green_2bandit_a2.png","70","70","test","1","91","91","4","",""
"null","554237","pSARL_v2","pSARL_v24rxfdz3w","63dab0380b8791f9560fd329","freq_resp","img/green_2bandit_a.png","70","70","test","","","","4","",""
"null","554392","pSARL_v2","pSARL_v24rxfdz3w","63dab0380b8791f9560fd329","fixation","img/fixation.png","null","","test","","","","","",""
"877.0999999046326","555272","pSARL_v2","pSARL_v24rxfdz3w","63dab0380b8791f9560fd329","reward","img/slot.png","74","","test","","","","","",""
"null","556037","pSARL_v2","pSARL_v24rxfdz3w","63dab0380b8791f9560fd329","points","<div class=""verylowPoints""> -3 </div>","null","na","test","","","","4","-3","3"
"390.59999990463257","556430","pSARL_v2","pSARL_v24rxfdz3w","63dab0380b8791f9560fd329","freq","img/green_2bandit_a2.png","70","70","test","1","92","92","5","",""
"null","556844","pSARL_v2","pSARL_v24rxfdz3w","63dab0380b8791f9560fd329","freq_resp","img/green_2bandit_a.png","70","70","test","","","","5","",""
"null","556997","pSARL_v2","pSARL_v24rxfdz3w","63dab0380b8791f9560fd329","fixation","img/fixation.png","null","","test","","","","","",""
"255.79999995231628","557255","pSARL_v2","pSARL_v24rxfdz3w","63dab0380b8791f9560fd329","freq","img/green_2bandit_a2.png","70","70","test","1","93","93","5","",""
"null","557805","pSARL_v2","pSARL_v24rxfdz3w","63dab0380b8791f9560fd329","freq_resp","img/green_2bandit_a.png","70","70","test","","","","5","",""
"null","557959","pSARL_v2","pSARL_v24rxfdz3w","63dab0380b8791f9560fd329","fixation","img/fixation.png","null","","test","","","","","",""
"262.60000014305115","558225","pSARL_v2","pSARL_v24rxfdz3w","63dab0380b8791f9560fd329","freq","img/green_2bandit_a2.png","70","70","test","1","94","94","5","",""
"null","558769","pSARL_v2","pSARL_v24rxfdz3w","63dab0380b8791f9560fd329","freq_resp","img/green_2bandit_a.png","70","70","test","","","","5","",""
"null","558925","pSARL_v2","pSARL_v24rxfdz3w","63dab0380b8791f9560fd329","fixation","img/fixation.png","null","","test","","","","","",""
"74.09999990463257","559002","pSARL_v2","pSARL_v24rxfdz3w","63dab0380b8791f9560fd329","infreq","img/orange_2bandit_a2.png","70","68","test","0","95","95","5","",""
"null","559730","pSARL_v2","pSARL_v24rxfdz3w","63dab0380b8791f9560fd329","infreq_resp","img/orange_2bandit_a.png","70","68","test","","","","5","",""
"null","559884","pSARL_v2","pSARL_v24rxfdz3w","63dab0380b8791f9560fd329","fixation","img/fixation.png","null","","test","","","","","",""
"398.7999999523163","560285","pSARL_v2","pSARL_v24rxfdz3w","63dab0380b8791f9560fd329","freq","img/green_2bandit_a2.png","68","70","test","0","96","96","5","",""
"null","560693","pSARL_v2","pSARL_v24rxfdz3w","63dab0380b8791f9560fd329","freq_resp","img/green_2bandit_a.png","68","70","test","","","","5","",""
"null","560851","pSARL_v2","pSARL_v24rxfdz3w","63dab0380b8791f9560fd329","fixation","img/fixation.png","null","","test","","","","","",""
"148.39999985694885","561002","pSARL_v2","pSARL_v24rxfdz3w","63dab0380b8791f9560fd329","infreq","img/orange_2bandit_a2.png","70","68","test","0","97","97","5","",""
"null","561661","pSARL_v2","pSARL_v24rxfdz3w","63dab0380b8791f9560fd329","infreq_resp","img/orange_2bandit_a.png","70","68","test","","","","5","",""
"null","561815","pSARL_v2","pSARL_v24rxfdz3w","63dab0380b8791f9560fd329","fixation","img/fixation.png","null","","test","","","","","",""
"367.5","562185","pSARL_v2","pSARL_v24rxfdz3w","63dab0380b8791f9560fd329","freq","img/green_2bandit_a2.png","70","70","test","1","98","98","5","",""
"null","562624","pSARL_v2","pSARL_v24rxfdz3w","63dab0380b8791f9560fd329","freq_resp","img/green_2bandit_a.png","70","70","test","","","","5","",""
"null","562778","pSARL_v2","pSARL_v24rxfdz3w","63dab0380b8791f9560fd329","fixation","img/fixation.png","null","","test","","","","","",""
"258","563038","pSARL_v2","pSARL_v24rxfdz3w","63dab0380b8791f9560fd329","freq","img/green_2bandit_a2.png","70","70","test","1","99","99","5","",""
"null","563584","pSARL_v2","pSARL_v24rxfdz3w","63dab0380b8791f9560fd329","freq_resp","img/green_2bandit_a.png","70","70","test","","","","5","",""
"null","563739","pSARL_v2","pSARL_v24rxfdz3w","63dab0380b8791f9560fd329","fixation","img/fixation.png","null","","test","","","","","",""
"272.90000009536743","564014","pSARL_v2","pSARL_v24rxfdz3w","63dab0380b8791f9560fd329","freq","img/green_2bandit_a2.png","70","70","test","1","100","100","5","",""
"null","564549","pSARL_v2","pSARL_v24rxfdz3w","63dab0380b8791f9560fd329","freq_resp","img/green_2bandit_a.png","70","70","test","","","","5","",""
"null","564703","pSARL_v2","pSARL_v24rxfdz3w","63dab0380b8791f9560fd329","fixation","img/fixation.png","null","","test","","","","","",""
"241","564947","pSARL_v2","pSARL_v24rxfdz3w","63dab0380b8791f9560fd329","freq","img/green_2bandit_a2.png","70","70","test","1","101","101","5","",""
"null","565525","pSARL_v2","pSARL_v24rxfdz3w","63dab0380b8791f9560fd329","freq_resp","img/green_2bandit_a.png","70","70","test","","","","5","",""
"null","565680","pSARL_v2","pSARL_v24rxfdz3w","63dab0380b8791f9560fd329","fixation","img/fixation.png","null","","test","","","","","",""
"265.2999999523163","565947","pSARL_v2","pSARL_v24rxfdz3w","63dab0380b8791f9560fd329","freq","img/green_2bandit_a2.png","70","70","test","1","102","102","5","",""
"null","566485","pSARL_v2","pSARL_v24rxfdz3w","63dab0380b8791f9560fd329","freq_resp","img/green_2bandit_a.png","70","70","test","","","","5","",""
"null","566639","pSARL_v2","pSARL_v24rxfdz3w","63dab0380b8791f9560fd329","fixation","img/fixation.png","null","","test","","","","","",""
"334.7999999523163","566976","pSARL_v2","pSARL_v24rxfdz3w","63dab0380b8791f9560fd329","freq","img/green_2bandit_a2.png","70","70","test","1","103","103","5","",""
"null","567460","pSARL_v2","pSARL_v24rxfdz3w","63dab0380b8791f9560fd329","freq_resp","img/green_2bandit_a.png","70","70","test","","","","5","",""
"null","567629","pSARL_v2","pSARL_v24rxfdz3w","63dab0380b8791f9560fd329","fixation","img/fixation.png","null","","test","","","","","",""
"268","567899","pSARL_v2","pSARL_v24rxfdz3w","63dab0380b8791f9560fd329","freq","img/green_2bandit_a2.png","70","70","test","1","104","104","5","",""
"null","568438","pSARL_v2","pSARL_v24rxfdz3w","63dab0380b8791f9560fd329","freq_resp","img/green_2bandit_a.png","70","70","test","","","","5","",""
"null","568596","pSARL_v2","pSARL_v24rxfdz3w","63dab0380b8791f9560fd329","fixation","img/fixation.png","null","","test","","","","","",""
"280.30000019073486","568879","pSARL_v2","pSARL_v24rxfdz3w","63dab0380b8791f9560fd329","freq","img/green_2bandit_a2.png","70","70","test","1","105","105","5","",""
"null","569402","pSARL_v2","pSARL_v24rxfdz3w","63dab0380b8791f9560fd329","freq_resp","img/green_2bandit_a.png","70","70","test","","","","5","",""
"null","569558","pSARL_v2","pSARL_v24rxfdz3w","63dab0380b8791f9560fd329","fixation","img/fixation.png","null","","test","","","","","",""
"266.7999999523163","569828","pSARL_v2","pSARL_v24rxfdz3w","63dab0380b8791f9560fd329","freq","img/green_2bandit_a2.png","70","70","test","1","106","106","5","",""
"null","570366","pSARL_v2","pSARL_v24rxfdz3w","63dab0380b8791f9560fd329","freq_resp","img/green_2bandit_a.png","70","70","test","","","","5","",""
"null","570522","pSARL_v2","pSARL_v24rxfdz3w","63dab0380b8791f9560fd329","fixation","img/fixation.png","null","","test","","","","","",""
"279","570804","pSARL_v2","pSARL_v24rxfdz3w","63dab0380b8791f9560fd329","freq","img/green_2bandit_a2.png","70","70","test","1","107","107","5","",""
"null","571329","pSARL_v2","pSARL_v24rxfdz3w","63dab0380b8791f9560fd329","freq_resp","img/green_2bandit_a.png","70","70","test","","","","5","",""
"null","571486","pSARL_v2","pSARL_v24rxfdz3w","63dab0380b8791f9560fd329","fixation","img/fixation.png","null","","test","","","","","",""
"249.39999985694885","571738","pSARL_v2","pSARL_v24rxfdz3w","63dab0380b8791f9560fd329","freq","img/green_2bandit_a2.png","70","70","test","1","108","108","5","",""
"null","572294","pSARL_v2","pSARL_v24rxfdz3w","63dab0380b8791f9560fd329","freq_resp","img/green_2bandit_a.png","70","70","test","","","","5","",""
"null","572448","pSARL_v2","pSARL_v24rxfdz3w","63dab0380b8791f9560fd329","fixation","img/fixation.png","null","","test","","","","","",""
"216.80000019073486","572667","pSARL_v2","pSARL_v24rxfdz3w","63dab0380b8791f9560fd329","freq","img/green_2bandit_a2.png","70","70","test","1","109","109","5","",""
"null","573258","pSARL_v2","pSARL_v24rxfdz3w","63dab0380b8791f9560fd329","freq_resp","img/green_2bandit_a.png","70","70","test","","","","5","",""
"null","573412","pSARL_v2","pSARL_v24rxfdz3w","63dab0380b8791f9560fd329","fixation","img/fixation.png","null","","test","","","","","",""
"231.90000009536743","573646","pSARL_v2","pSARL_v24rxfdz3w","63dab0380b8791f9560fd329","freq","img/green_2bandit_a2.png","70","70","test","1","110","110","5","",""
"null","574219","pSARL_v2","pSARL_v24rxfdz3w","63dab0380b8791f9560fd329","freq_resp","img/green_2bandit_a.png","70","70","test","","","","5","",""
"null","574376","pSARL_v2","pSARL_v24rxfdz3w","63dab0380b8791f9560fd329","fixation","img/fixation.png","null","","test","","","","","",""
"251.5","574630","pSARL_v2","pSARL_v24rxfdz3w","63dab0380b8791f9560fd329","freq","img/green_2bandit_a2.png","70","70","test","1","111","111","5","",""
"null","575182","pSARL_v2","pSARL_v24rxfdz3w","63dab0380b8791f9560fd329","freq_resp","img/green_2bandit_a.png","70","70","test","","","","5","",""
"null","575339","pSARL_v2","pSARL_v24rxfdz3w","63dab0380b8791f9560fd329","fixation","img/fixation.png","null","","test","","","","","",""
"130.40000009536743","575473","pSARL_v2","pSARL_v24rxfdz3w","63dab0380b8791f9560fd329","infreq","img/orange_2bandit_a2.png","70","68","test","0","112","112","5","",""
"null","576148","pSARL_v2","pSARL_v24rxfdz3w","63dab0380b8791f9560fd329","infreq_resp","img/orange_2bandit_a.png","70","68","test","","","","5","",""
"null","576303","pSARL_v2","pSARL_v24rxfdz3w","63dab0380b8791f9560fd329","fixation","img/fixation.png","null","","test","","","","","",""
"369.09999990463257","576676","pSARL_v2","pSARL_v24rxfdz3w","63dab0380b8791f9560fd329","freq","img/green_2bandit_a2.png","70","70","test","1","113","113","5","",""
"null","577112","pSARL_v2","pSARL_v24rxfdz3w","63dab0380b8791f9560fd329","freq_resp","img/green_2bandit_a.png","70","70","test","","","","5","",""
"null","577269","pSARL_v2","pSARL_v24rxfdz3w","63dab0380b8791f9560fd329","fixation","img/fixation.png","null","","test","","","","","",""
"273.7000000476837","577545","pSARL_v2","pSARL_v24rxfdz3w","63dab0380b8791f9560fd329","freq","img/green_2bandit_a2.png","70","70","test","1","114","114","5","",""
"null","578079","pSARL_v2","pSARL_v24rxfdz3w","63dab0380b8791f9560fd329","freq_resp","img/green_2bandit_a.png","70","70","test","","","","5","",""
"null","578237","pSARL_v2","pSARL_v24rxfdz3w","63dab0380b8791f9560fd329","fixation","img/fixation.png","null","","test","","","","","",""
"463.59999990463257","578703","pSARL_v2","pSARL_v24rxfdz3w","63dab0380b8791f9560fd329","reward","img/slot.png","74","","test","","","","","",""
"null","579461","pSARL_v2","pSARL_v24rxfdz3w","63dab0380b8791f9560fd329","points","<div class=""veryhighPoints""> +1 </div>","null","na","test","","","","5","1","4"
"611.3999998569489","580075","pSARL_v2","pSARL_v24rxfdz3w","63dab0380b8791f9560fd329","freq","img/green_2bandit_a2.png","70","70","test","1","115","115","6","",""
"null","580269","pSARL_v2","pSARL_v24rxfdz3w","63dab0380b8791f9560fd329","freq_resp","img/green_2bandit_a.png","70","70","test","","","","6","",""
"null","580423","pSARL_v2","pSARL_v24rxfdz3w","63dab0380b8791f9560fd329","fixation","img/fixation.png","null","","test","","","","","",""
"314.2999999523163","580740","pSARL_v2","pSARL_v24rxfdz3w","63dab0380b8791f9560fd329","freq","img/green_2bandit_a2.png","70","70","test","1","116","116","6","",""
"null","581230","pSARL_v2","pSARL_v24rxfdz3w","63dab0380b8791f9560fd329","freq_resp","img/green_2bandit_a.png","70","70","test","","","","6","",""
"null","581386","pSARL_v2","pSARL_v24rxfdz3w","63dab0380b8791f9560fd329","fixation","img/fixation.png","null","","test","","","","","",""
"221.5","581610","pSARL_v2","pSARL_v24rxfdz3w","63dab0380b8791f9560fd329","freq","img/green_2bandit_a2.png","70","70","test","1","117","117","6","",""
"null","582207","pSARL_v2","pSARL_v24rxfdz3w","63dab0380b8791f9560fd329","freq_resp","img/green_2bandit_a.png","70","70","test","","","","6","",""
"null","582361","pSARL_v2","pSARL_v24rxfdz3w","63dab0380b8791f9560fd329","fixation","img/fixation.png","null","","test","","","","","",""
"258.7999999523163","582623","pSARL_v2","pSARL_v24rxfdz3w","63dab0380b8791f9560fd329","freq","img/green_2bandit_a2.png","70","70","test","1","118","118","6","",""
"null","583170","pSARL_v2","pSARL_v24rxfdz3w","63dab0380b8791f9560fd329","freq_resp","img/green_2bandit_a.png","70","70","test","","","","6","",""
"null","583331","pSARL_v2","pSARL_v24rxfdz3w","63dab0380b8791f9560fd329","fixation","img/fixation.png","null","","test","","","","","",""
"422.39999985694885","583756","pSARL_v2","pSARL_v24rxfdz3w","63dab0380b8791f9560fd329","infreq","img/orange_2bandit_a2.png","68","68","test","1","119","119","6","",""
"null","584142","pSARL_v2","pSARL_v24rxfdz3w","63dab0380b8791f9560fd329","infreq_resp","img/orange_2bandit_a.png","68","68","test","","","","6","",""
"null","584300","pSARL_v2","pSARL_v24rxfdz3w","63dab0380b8791f9560fd329","fixation","img/fixation.png","null","","test","","","","","",""
"337.19999980926514","584640","pSARL_v2","pSARL_v24rxfdz3w","63dab0380b8791f9560fd329","freq","img/green_2bandit_a2.png","70","70","test","1","120","120","6","",""
"null","585107","pSARL_v2","pSARL_v24rxfdz3w","63dab0380b8791f9560fd329","freq_resp","img/green_2bandit_a.png","70","70","test","","","","6","",""
"null","585261","pSARL_v2","pSARL_v24rxfdz3w","63dab0380b8791f9560fd329","fixation","img/fixation.png","null","","test","","","","","",""
"299.10000014305115","585566","pSARL_v2","pSARL_v24rxfdz3w","63dab0380b8791f9560fd329","freq","img/green_2bandit_a2.png","70","70","test","1","121","121","6","",""
"null","586069","pSARL_v2","pSARL_v24rxfdz3w","63dab0380b8791f9560fd329","freq_resp","img/green_2bandit_a.png","70","70","test","","","","6","",""
"null","586226","pSARL_v2","pSARL_v24rxfdz3w","63dab0380b8791f9560fd329","fixation","img/fixation.png","null","","test","","","","","",""
"258.40000009536743","586487","pSARL_v2","pSARL_v24rxfdz3w","63dab0380b8791f9560fd329","freq","img/green_2bandit_a2.png","70","70","test","1","122","122","6","",""
"null","587045","pSARL_v2","pSARL_v24rxfdz3w","63dab0380b8791f9560fd329","freq_resp","img/green_2bandit_a.png","70","70","test","","","","6","",""
"null","587202","pSARL_v2","pSARL_v24rxfdz3w","63dab0380b8791f9560fd329","fixation","img/fixation.png","null","","test","","","","","",""
"370.40000009536743","587575","pSARL_v2","pSARL_v24rxfdz3w","63dab0380b8791f9560fd329","freq","img/green_2bandit_a2.png","70","70","test","1","123","123","6","",""
"null","588008","pSARL_v2","pSARL_v24rxfdz3w","63dab0380b8791f9560fd329","freq_resp","img/green_2bandit_a.png","70","70","test","","","","6","",""
"null","588177","pSARL_v2","pSARL_v24rxfdz3w","63dab0380b8791f9560fd329","fixation","img/fixation.png","null","","test","","","","","",""
"240.20000004768372","588419","pSARL_v2","pSARL_v24rxfdz3w","63dab0380b8791f9560fd329","freq","img/green_2bandit_a2.png","70","70","test","1","124","124","6","",""
"null","588981","pSARL_v2","pSARL_v24rxfdz3w","63dab0380b8791f9560fd329","freq_resp","img/green_2bandit_a.png","70","70","test","","","","6","",""
"null","589138","pSARL_v2","pSARL_v24rxfdz3w","63dab0380b8791f9560fd329","fixation","img/fixation.png","null","","test","","","","","",""
"258.2000000476837","589399","pSARL_v2","pSARL_v24rxfdz3w","63dab0380b8791f9560fd329","freq","img/green_2bandit_a2.png","70","70","test","1","125","125","6","",""
"null","589944","pSARL_v2","pSARL_v24rxfdz3w","63dab0380b8791f9560fd329","freq_resp","img/green_2bandit_a.png","70","70","test","","","","6","",""
"null","590102","pSARL_v2","pSARL_v24rxfdz3w","63dab0380b8791f9560fd329","fixation","img/fixation.png","null","","test","","","","","",""
"241.70000004768372","590346","pSARL_v2","pSARL_v24rxfdz3w","63dab0380b8791f9560fd329","freq","img/green_2bandit_a2.png","70","70","test","1","126","126","6","",""
"null","590911","pSARL_v2","pSARL_v24rxfdz3w","63dab0380b8791f9560fd329","freq_resp","img/green_2bandit_a.png","70","70","test","","","","6","",""
"null","591068","pSARL_v2","pSARL_v24rxfdz3w","63dab0380b8791f9560fd329","fixation","img/fixation.png","null","","test","","","","","",""
"295.09999990463257","591366","pSARL_v2","pSARL_v24rxfdz3w","63dab0380b8791f9560fd329","freq","img/green_2bandit_a2.png","70","70","test","1","127","127","6","",""
"null","591873","pSARL_v2","pSARL_v24rxfdz3w","63dab0380b8791f9560fd329","freq_resp","img/green_2bandit_a.png","70","70","test","","","","6","",""
"null","592029","pSARL_v2","pSARL_v24rxfdz3w","63dab0380b8791f9560fd329","fixation","img/fixation.png","null","","test","","","","","",""
"315.7000000476837","592348","pSARL_v2","pSARL_v24rxfdz3w","63dab0380b8791f9560fd329","freq","img/green_2bandit_a2.png","70","70","test","1","128","128","6","",""
"null","592849","pSARL_v2","pSARL_v24rxfdz3w","63dab0380b8791f9560fd329","freq_resp","img/green_2bandit_a.png","70","70","test","","","","6","",""
"null","593004","pSARL_v2","pSARL_v24rxfdz3w","63dab0380b8791f9560fd329","fixation","img/fixation.png","null","","test","","","","","",""
"287.2999999523163","593294","pSARL_v2","pSARL_v24rxfdz3w","63dab0380b8791f9560fd329","freq","img/green_2bandit_a2.png","70","70","test","1","129","129","6","",""
"null","593813","pSARL_v2","pSARL_v24rxfdz3w","63dab0380b8791f9560fd329","freq_resp","img/green_2bandit_a.png","70","70","test","","","","6","",""
"null","593966","pSARL_v2","pSARL_v24rxfdz3w","63dab0380b8791f9560fd329","fixation","img/fixation.png","null","","test","","","","","",""
"245.59999990463257","594214","pSARL_v2","pSARL_v24rxfdz3w","63dab0380b8791f9560fd329","freq","img/green_2bandit_a2.png","70","70","test","1","130","130","6","",""
"null","594774","pSARL_v2","pSARL_v24rxfdz3w","63dab0380b8791f9560fd329","freq_resp","img/green_2bandit_a.png","70","70","test","","","","6","",""
"null","594929","pSARL_v2","pSARL_v24rxfdz3w","63dab0380b8791f9560fd329","fixation","img/fixation.png","null","","test","","","","","",""
"361.7999999523163","595293","pSARL_v2","pSARL_v24rxfdz3w","63dab0380b8791f9560fd329","infreq","img/orange_2bandit_a2.png","68","68","test","1","131","131","6","",""
"null","595748","pSARL_v2","pSARL_v24rxfdz3w","63dab0380b8791f9560fd329","infreq_resp","img/orange_2bandit_a.png","68","68","test","","","","6","",""
"null","595903","pSARL_v2","pSARL_v24rxfdz3w","63dab0380b8791f9560fd329","fixation","img/fixation.png","null","","test","","","","","",""
"437.5","596343","pSARL_v2","pSARL_v24rxfdz3w","63dab0380b8791f9560fd329","freq","img/green_2bandit_a2.png","70","70","test","1","132","132","6","",""
"null","596710","pSARL_v2","pSARL_v24rxfdz3w","63dab0380b8791f9560fd329","freq_resp","img/green_2bandit_a.png","70","70","test","","","","6","",""
"null","596866","pSARL_v2","pSARL_v24rxfdz3w","63dab0380b8791f9560fd329","fixation","img/fixation.png","null","","test","","","","","",""
"276.7999999523163","597146","pSARL_v2","pSARL_v24rxfdz3w","63dab0380b8791f9560fd329","freq","img/green_2bandit_a2.png","70","70","test","1","133","133","6","",""
"null","597686","pSARL_v2","pSARL_v24rxfdz3w","63dab0380b8791f9560fd329","freq_resp","img/green_2bandit_a.png","70","70","test","","","","6","",""
"null","597842","pSARL_v2","pSARL_v24rxfdz3w","63dab0380b8791f9560fd329","fixation","img/fixation.png","null","","test","","","","","",""
"266.09999990463257","598112","pSARL_v2","pSARL_v24rxfdz3w","63dab0380b8791f9560fd329","freq","img/green_2bandit_a2.png","70","70","test","1","134","134","6","",""
"null","598650","pSARL_v2","pSARL_v24rxfdz3w","63dab0380b8791f9560fd329","freq_resp","img/green_2bandit_a.png","70","70","test","","","","6","",""
"null","598803","pSARL_v2","pSARL_v24rxfdz3w","63dab0380b8791f9560fd329","fixation","img/fixation.png","null","","test","","","","","",""
"261","599067","pSARL_v2","pSARL_v24rxfdz3w","63dab0380b8791f9560fd329","freq","img/green_2bandit_a2.png","70","70","test","1","135","135","6","",""
"null","599612","pSARL_v2","pSARL_v24rxfdz3w","63dab0380b8791f9560fd329","freq_resp","img/green_2bandit_a.png","70","70","test","","","","6","",""
"null","599767","pSARL_v2","pSARL_v24rxfdz3w","63dab0380b8791f9560fd329","fixation","img/fixation.png","null","","test","","","","","",""
"305.59999990463257","600076","pSARL_v2","pSARL_v24rxfdz3w","63dab0380b8791f9560fd329","freq","img/green_2bandit_a2.png","70","70","test","1","136","136","6","",""
"null","600575","pSARL_v2","pSARL_v24rxfdz3w","63dab0380b8791f9560fd329","freq_resp","img/green_2bandit_a.png","70","70","test","","","","6","",""
"null","600731","pSARL_v2","pSARL_v24rxfdz3w","63dab0380b8791f9560fd329","fixation","img/fixation.png","null","","test","","","","","",""
"1000.8000001907349","601735","pSARL_v2","pSARL_v24rxfdz3w","63dab0380b8791f9560fd329","reward","img/slot.png","74","","test","","","","","",""
"null","602502","pSARL_v2","pSARL_v24rxfdz3w","63dab0380b8791f9560fd329","points","<div class=""verylowPoints""> -7 </div>","null","na","test","","","","6","-7","5"
"360.2999999523163","602865","pSARL_v2","pSARL_v24rxfdz3w","63dab0380b8791f9560fd329","freq","img/green_2bandit_a2.png","70","70","test","1","137","137","7","",""
"null","603321","pSARL_v2","pSARL_v24rxfdz3w","63dab0380b8791f9560fd329","freq_resp","img/green_2bandit_a.png","70","70","test","","","","7","",""
"null","603475","pSARL_v2","pSARL_v24rxfdz3w","63dab0380b8791f9560fd329","fixation","img/fixation.png","null","","test","","","","","",""
"617.6999998092651","604096","pSARL_v2","pSARL_v24rxfdz3w","63dab0380b8791f9560fd329","freq","img/green_2bandit_a2.png","70","70","test","1","138","138","7","",""
"null","604283","pSARL_v2","pSARL_v24rxfdz3w","63dab0380b8791f9560fd329","freq_resp","img/green_2bandit_a.png","70","70","test","","","","7","",""
"null","604437","pSARL_v2","pSARL_v24rxfdz3w","63dab0380b8791f9560fd329","fixation","img/fixation.png","null","","test","","","","","",""
"305.7000000476837","604746","pSARL_v2","pSARL_v24rxfdz3w","63dab0380b8791f9560fd329","freq","img/green_2bandit_a2.png","70","70","test","1","139","139","7","",""
"null","605247","pSARL_v2","pSARL_v24rxfdz3w","63dab0380b8791f9560fd329","freq_resp","img/green_2bandit_a.png","70","70","test","","","","7","",""
"null","605403","pSARL_v2","pSARL_v24rxfdz3w","63dab0380b8791f9560fd329","fixation","img/fixation.png","null","","test","","","","","",""
"215.09999990463257","605621","pSARL_v2","pSARL_v24rxfdz3w","63dab0380b8791f9560fd329","freq","img/green_2bandit_a2.png","70","70","test","1","140","140","7","",""
"null","606216","pSARL_v2","pSARL_v24rxfdz3w","63dab0380b8791f9560fd329","freq_resp","img/green_2bandit_a.png","70","70","test","","","","7","",""
"null","606372","pSARL_v2","pSARL_v24rxfdz3w","63dab0380b8791f9560fd329","fixation","img/fixation.png","null","","test","","","","","",""
"426.90000009536743","606802","pSARL_v2","pSARL_v24rxfdz3w","63dab0380b8791f9560fd329","freq","img/green_2bandit_a2.png","70","70","test","1","141","141","7","",""
"null","607178","pSARL_v2","pSARL_v24rxfdz3w","63dab0380b8791f9560fd329","freq_resp","img/green_2bandit_a.png","70","70","test","","","","7","",""
"null","607334","pSARL_v2","pSARL_v24rxfdz3w","63dab0380b8791f9560fd329","fixation","img/fixation.png","null","","test","","","","","",""
"566.7999999523163","607903","pSARL_v2","pSARL_v24rxfdz3w","63dab0380b8791f9560fd329","freq","img/green_2bandit_a2.png","70","70","test","1","142","142","7","",""
"null","608141","pSARL_v2","pSARL_v24rxfdz3w","63dab0380b8791f9560fd329","freq_resp","img/green_2bandit_a.png","70","70","test","","","","7","",""
"null","608296","pSARL_v2","pSARL_v24rxfdz3w","63dab0380b8791f9560fd329","fixation","img/fixation.png","null","","test","","","","","",""
"330.19999980926514","608628","pSARL_v2","pSARL_v24rxfdz3w","63dab0380b8791f9560fd329","freq","img/green_2bandit_a2.png","70","70","test","1","143","143","7","",""
"null","609114","pSARL_v2","pSARL_v24rxfdz3w","63dab0380b8791f9560fd329","freq_resp","img/green_2bandit_a.png","70","70","test","","","","7","",""
"null","609270","pSARL_v2","pSARL_v24rxfdz3w","63dab0380b8791f9560fd329","fixation","img/fixation.png","null","","test","","","","","",""
"567.7999999523163","609840","pSARL_v2","pSARL_v24rxfdz3w","63dab0380b8791f9560fd329","infreq","img/orange_2bandit_a2.png","68","68","test","1","144","144","7","",""
"null","610078","pSARL_v2","pSARL_v24rxfdz3w","63dab0380b8791f9560fd329","infreq_resp","img/orange_2bandit_a.png","68","68","test","","","","7","",""
"null","610234","pSARL_v2","pSARL_v24rxfdz3w","63dab0380b8791f9560fd329","fixation","img/fixation.png","null","","test","","","","","",""
"733.2999999523163","610970","pSARL_v2","pSARL_v24rxfdz3w","63dab0380b8791f9560fd329","infreq","img/orange_2bandit_a2.png","68","68","test","1","145","145","7","",""
"null","611039","pSARL_v2","pSARL_v24rxfdz3w","63dab0380b8791f9560fd329","infreq_resp","img/orange_2bandit_a.png","68","68","test","","","","7","",""
"null","611195","pSARL_v2","pSARL_v24rxfdz3w","63dab0380b8791f9560fd329","fixation","img/fixation.png","null","","test","","","","","",""
"427.5","611625","pSARL_v2","pSARL_v24rxfdz3w","63dab0380b8791f9560fd329","freq","img/green_2bandit_a2.png","70","70","test","1","146","146","7","",""
"null","612004","pSARL_v2","pSARL_v24rxfdz3w","63dab0380b8791f9560fd329","freq_resp","img/green_2bandit_a.png","70","70","test","","","","7","",""
"null","612158","pSARL_v2","pSARL_v24rxfdz3w","63dab0380b8791f9560fd329","fixation","img/fixation.png","null","","test","","","","","",""
"415.2000000476837","612576","pSARL_v2","pSARL_v24rxfdz3w","63dab0380b8791f9560fd329","freq","img/green_2bandit_a2.png","70","70","test","1","147","147","7","",""
"null","612977","pSARL_v2","pSARL_v24rxfdz3w","63dab0380b8791f9560fd329","freq_resp","img/green_2bandit_a.png","70","70","test","","","","7","",""
"null","613131","pSARL_v2","pSARL_v24rxfdz3w","63dab0380b8791f9560fd329","fixation","img/fixation.png","null","","test","","","","","",""
"276.2000000476837","613410","pSARL_v2","pSARL_v24rxfdz3w","63dab0380b8791f9560fd329","freq","img/green_2bandit_a2.png","70","70","test","1","148","148","7","",""
"null","613938","pSARL_v2","pSARL_v24rxfdz3w","63dab0380b8791f9560fd329","freq_resp","img/green_2bandit_a.png","70","70","test","","","","7","",""
"null","614091","pSARL_v2","pSARL_v24rxfdz3w","63dab0380b8791f9560fd329","fixation","img/fixation.png","null","","test","","","","","",""
"290.5","614384","pSARL_v2","pSARL_v24rxfdz3w","63dab0380b8791f9560fd329","freq","img/green_2bandit_a2.png","70","70","test","1","149","149","7","",""
"null","614901","pSARL_v2","pSARL_v24rxfdz3w","63dab0380b8791f9560fd329","freq_resp","img/green_2bandit_a.png","70","70","test","","","","7","",""
"null","615055","pSARL_v2","pSARL_v24rxfdz3w","63dab0380b8791f9560fd329","fixation","img/fixation.png","null","","test","","","","","",""
"340.59999990463257","615398","pSARL_v2","pSARL_v24rxfdz3w","63dab0380b8791f9560fd329","freq","img/green_2bandit_a2.png","70","70","test","1","150","150","7","",""
"null","615863","pSARL_v2","pSARL_v24rxfdz3w","63dab0380b8791f9560fd329","freq_resp","img/green_2bandit_a.png","70","70","test","","","","7","",""
"null","616020","pSARL_v2","pSARL_v24rxfdz3w","63dab0380b8791f9560fd329","fixation","img/fixation.png","null","","test","","","","","",""
"263.2999999523163","616286","pSARL_v2","pSARL_v24rxfdz3w","63dab0380b8791f9560fd329","freq","img/green_2bandit_a2.png","70","70","test","1","151","151","7","",""
"null","616829","pSARL_v2","pSARL_v24rxfdz3w","63dab0380b8791f9560fd329","freq_resp","img/green_2bandit_a.png","70","70","test","","","","7","",""
"null","616986","pSARL_v2","pSARL_v24rxfdz3w","63dab0380b8791f9560fd329","fixation","img/fixation.png","null","","test","","","","","",""
"268.7000000476837","617257","pSARL_v2","pSARL_v24rxfdz3w","63dab0380b8791f9560fd329","freq","img/green_2bandit_a2.png","70","70","test","1","152","152","7","",""
"null","617792","pSARL_v2","pSARL_v24rxfdz3w","63dab0380b8791f9560fd329","freq_resp","img/green_2bandit_a.png","70","70","test","","","","7","",""
"null","617947","pSARL_v2","pSARL_v24rxfdz3w","63dab0380b8791f9560fd329","fixation","img/fixation.png","null","","test","","","","","",""
"255.90000009536743","618206","pSARL_v2","pSARL_v24rxfdz3w","63dab0380b8791f9560fd329","freq","img/green_2bandit_a2.png","70","70","test","1","153","153","7","",""
"null","618755","pSARL_v2","pSARL_v24rxfdz3w","63dab0380b8791f9560fd329","freq_resp","img/green_2bandit_a.png","70","70","test","","","","7","",""
"null","618912","pSARL_v2","pSARL_v24rxfdz3w","63dab0380b8791f9560fd329","fixation","img/fixation.png","null","","test","","","","","",""
"231","619146","pSARL_v2","pSARL_v24rxfdz3w","63dab0380b8791f9560fd329","freq","img/green_2bandit_a2.png","70","70","test","1","154","154","7","",""
"null","619718","pSARL_v2","pSARL_v24rxfdz3w","63dab0380b8791f9560fd329","freq_resp","img/green_2bandit_a.png","70","70","test","","","","7","",""
"null","619875","pSARL_v2","pSARL_v24rxfdz3w","63dab0380b8791f9560fd329","fixation","img/fixation.png","null","","test","","","","","",""
"294.19999980926514","620172","pSARL_v2","pSARL_v24rxfdz3w","63dab0380b8791f9560fd329","freq","img/green_2bandit_a2.png","70","70","test","1","155","155","7","",""
"null","620684","pSARL_v2","pSARL_v24rxfdz3w","63dab0380b8791f9560fd329","freq_resp","img/green_2bandit_a.png","70","70","test","","","","7","",""
"null","620838","pSARL_v2","pSARL_v24rxfdz3w","63dab0380b8791f9560fd329","fixation","img/fixation.png","null","","test","","","","","",""
"235.39999985694885","621076","pSARL_v2","pSARL_v24rxfdz3w","63dab0380b8791f9560fd329","freq","img/green_2bandit_a2.png","70","70","test","1","156","156","7","",""
"null","621656","pSARL_v2","pSARL_v24rxfdz3w","63dab0380b8791f9560fd329","freq_resp","img/green_2bandit_a.png","70","70","test","","","","7","",""
"null","621812","pSARL_v2","pSARL_v24rxfdz3w","63dab0380b8791f9560fd329","fixation","img/fixation.png","null","","test","","","","","",""
"249.09999990463257","622064","pSARL_v2","pSARL_v24rxfdz3w","63dab0380b8791f9560fd329","freq","img/green_2bandit_a2.png","70","70","test","1","157","157","7","",""
"null","622617","pSARL_v2","pSARL_v24rxfdz3w","63dab0380b8791f9560fd329","freq_resp","img/green_2bandit_a.png","70","70","test","","","","7","",""
"null","622773","pSARL_v2","pSARL_v24rxfdz3w","63dab0380b8791f9560fd329","fixation","img/fixation.png","null","","test","","","","","",""
"200.5","622976","pSARL_v2","pSARL_v24rxfdz3w","63dab0380b8791f9560fd329","freq","img/green_2bandit_a2.png","70","70","test","1","158","158","7","",""
"null","623589","pSARL_v2","pSARL_v24rxfdz3w","63dab0380b8791f9560fd329","freq_resp","img/green_2bandit_a.png","70","70","test","","","","7","",""
"null","623746","pSARL_v2","pSARL_v24rxfdz3w","63dab0380b8791f9560fd329","fixation","img/fixation.png","null","","test","","","","","",""
"161","623909","pSARL_v2","pSARL_v24rxfdz3w","63dab0380b8791f9560fd329","freq","img/green_2bandit_a2.png","70","70","test","1","159","159","7","",""
"null","624555","pSARL_v2","pSARL_v24rxfdz3w","63dab0380b8791f9560fd329","freq_resp","img/green_2bandit_a.png","70","70","test","","","","7","",""
"null","624709","pSARL_v2","pSARL_v24rxfdz3w","63dab0380b8791f9560fd329","fixation","img/fixation.png","null","","test","","","","","",""
"283.60000014305115","624996","pSARL_v2","pSARL_v24rxfdz3w","63dab0380b8791f9560fd329","freq","img/green_2bandit_a2.png","70","70","test","1","160","160","7","",""
"null","625516","pSARL_v2","pSARL_v24rxfdz3w","63dab0380b8791f9560fd329","freq_resp","img/green_2bandit_a.png","70","70","test","","","","7","",""
"null","625671","pSARL_v2","pSARL_v24rxfdz3w","63dab0380b8791f9560fd329","fixation","img/fixation.png","null","","test","","","","","",""
"512.9000000953674","626186","pSARL_v2","pSARL_v24rxfdz3w","63dab0380b8791f9560fd329","reward","img/slot.png","74","","test","","","","","",""
"null","626941","pSARL_v2","pSARL_v24rxfdz3w","63dab0380b8791f9560fd329","points","<div class=""verylowPoints""> -6 </div>","null","na","test","","","","7","-6","6"
"488.10000014305115","627432","pSARL_v2","pSARL_v24rxfdz3w","63dab0380b8791f9560fd329","freq","img/green_2bandit_a2.png","70","70","test","1","161","161","8","",""
"null","627748","pSARL_v2","pSARL_v24rxfdz3w","63dab0380b8791f9560fd329","freq_resp","img/green_2bandit_a.png","70","70","test","","","","8","",""
"null","627903","pSARL_v2","pSARL_v24rxfdz3w","63dab0380b8791f9560fd329","fixation","img/fixation.png","null","","test","","","","","",""
"253.90000009536743","628159","pSARL_v2","pSARL_v24rxfdz3w","63dab0380b8791f9560fd329","freq","img/green_2bandit_a2.png","70","70","test","1","162","162","8","",""
"null","628711","pSARL_v2","pSARL_v24rxfdz3w","63dab0380b8791f9560fd329","freq_resp","img/green_2bandit_a.png","70","70","test","","","","8","",""
"null","628865","pSARL_v2","pSARL_v24rxfdz3w","63dab0380b8791f9560fd329","fixation","img/fixation.png","null","","test","","","","","",""
"251.60000014305115","629120","pSARL_v2","pSARL_v24rxfdz3w","63dab0380b8791f9560fd329","freq","img/green_2bandit_a2.png","70","70","test","1","163","163","8","",""
"null","629674","pSARL_v2","pSARL_v24rxfdz3w","63dab0380b8791f9560fd329","freq_resp","img/green_2bandit_a.png","70","70","test","","","","8","",""
"null","629829","pSARL_v2","pSARL_v24rxfdz3w","63dab0380b8791f9560fd329","fixation","img/fixation.png","null","","test","","","","","",""
"272.90000009536743","630105","pSARL_v2","pSARL_v24rxfdz3w","63dab0380b8791f9560fd329","freq","img/green_2bandit_a2.png","70","70","test","1","164","164","8","",""
"null","630638","pSARL_v2","pSARL_v24rxfdz3w","63dab0380b8791f9560fd329","freq_resp","img/green_2bandit_a.png","70","70","test","","","","8","",""
"null","630795","pSARL_v2","pSARL_v24rxfdz3w","63dab0380b8791f9560fd329","fixation","img/fixation.png","null","","test","","","","","",""
"176.39999985694885","630975","pSARL_v2","pSARL_v24rxfdz3w","63dab0380b8791f9560fd329","freq","img/green_2bandit_a2.png","70","70","test","1","165","165","8","",""
"null","631616","pSARL_v2","pSARL_v24rxfdz3w","63dab0380b8791f9560fd329","freq_resp","img/green_2bandit_a.png","70","70","test","","","","8","",""
"null","631772","pSARL_v2","pSARL_v24rxfdz3w","63dab0380b8791f9560fd329","fixation","img/fixation.png","null","","test","","","","","",""
"400","632174","pSARL_v2","pSARL_v24rxfdz3w","63dab0380b8791f9560fd329","infreq","img/orange_2bandit_a2.png","68","68","test","1","166","166","8","",""
"null","632583","pSARL_v2","pSARL_v24rxfdz3w","63dab0380b8791f9560fd329","infreq_resp","img/orange_2bandit_a.png","68","68","test","","","","8","",""
"null","632739","pSARL_v2","pSARL_v24rxfdz3w","63dab0380b8791f9560fd329","fixation","img/fixation.png","null","","test","","","","","",""
"347.69999980926514","633089","pSARL_v2","pSARL_v24rxfdz3w","63dab0380b8791f9560fd329","freq","img/green_2bandit_a2.png","70","70","test","1","167","167","8","",""
"null","633547","pSARL_v2","pSARL_v24rxfdz3w","63dab0380b8791f9560fd329","freq_resp","img/green_2bandit_a.png","70","70","test","","","","8","",""
"null","633704","pSARL_v2","pSARL_v24rxfdz3w","63dab0380b8791f9560fd329","fixation","img/fixation.png","null","","test","","","","","",""
"296.5","634003","pSARL_v2","pSARL_v24rxfdz3w","63dab0380b8791f9560fd329","freq","img/green_2bandit_a2.png","70","70","test","1","168","168","8","",""
"null","634510","pSARL_v2","pSARL_v24rxfdz3w","63dab0380b8791f9560fd329","freq_resp","img/green_2bandit_a.png","70","70","test","","","","8","",""
"null","634666","pSARL_v2","pSARL_v24rxfdz3w","63dab0380b8791f9560fd329","fixation","img/fixation.png","null","","test","","","","","",""
"246.29999995231628","634916","pSARL_v2","pSARL_v24rxfdz3w","63dab0380b8791f9560fd329","freq","img/green_2bandit_a2.png","70","70","test","1","169","169","8","",""
"null","635475","pSARL_v2","pSARL_v24rxfdz3w","63dab0380b8791f9560fd329","freq_resp","img/green_2bandit_a.png","70","70","test","","","","8","",""
"null","635630","pSARL_v2","pSARL_v24rxfdz3w","63dab0380b8791f9560fd329","fixation","img/fixation.png","null","","test","","","","","",""
"349.80000019073486","635982","pSARL_v2","pSARL_v24rxfdz3w","63dab0380b8791f9560fd329","freq","img/green_2bandit_a2.png","70","70","test","1","170","170","8","",""
"null","636444","pSARL_v2","pSARL_v24rxfdz3w","63dab0380b8791f9560fd329","freq_resp","img/green_2bandit_a.png","70","70","test","","","","8","",""
"null","636598","pSARL_v2","pSARL_v24rxfdz3w","63dab0380b8791f9560fd329","fixation","img/fixation.png","null","","test","","","","","",""
"426.40000009536743","637028","pSARL_v2","pSARL_v24rxfdz3w","63dab0380b8791f9560fd329","freq","img/green_2bandit_a2.png","70","70","test","1","171","171","8","",""
"null","637408","pSARL_v2","pSARL_v24rxfdz3w","63dab0380b8791f9560fd329","freq_resp","img/green_2bandit_a.png","70","70","test","","","","8","",""
"null","637564","pSARL_v2","pSARL_v24rxfdz3w","63dab0380b8791f9560fd329","fixation","img/fixation.png","null","","test","","","","","",""
"358.5","637925","pSARL_v2","pSARL_v24rxfdz3w","63dab0380b8791f9560fd329","infreq","img/orange_2bandit_a2.png","70","68","test","0","172","172","8","",""
"null","638373","pSARL_v2","pSARL_v24rxfdz3w","63dab0380b8791f9560fd329","infreq_resp","img/orange_2bandit_a.png","70","68","test","","","","8","",""
"null","638527","pSARL_v2","pSARL_v24rxfdz3w","63dab0380b8791f9560fd329","fixation","img/fixation.png","null","","test","","","","","",""
"528.5","639058","pSARL_v2","pSARL_v24rxfdz3w","63dab0380b8791f9560fd329","freq","img/green_2bandit_a2.png","70","70","test","1","173","173","8","",""
"null","639337","pSARL_v2","pSARL_v24rxfdz3w","63dab0380b8791f9560fd329","freq_resp","img/green_2bandit_a.png","70","70","test","","","","8","",""
"null","639493","pSARL_v2","pSARL_v24rxfdz3w","63dab0380b8791f9560fd329","fixation","img/fixation.png","null","","test","","","","","",""
"542","640038","pSARL_v2","pSARL_v24rxfdz3w","63dab0380b8791f9560fd329","freq","img/green_2bandit_a2.png","70","70","test","1","174","174","8","",""
"null","640301","pSARL_v2","pSARL_v24rxfdz3w","63dab0380b8791f9560fd329","freq_resp","img/green_2bandit_a.png","70","70","test","","","","8","",""
"null","640456","pSARL_v2","pSARL_v24rxfdz3w","63dab0380b8791f9560fd329","fixation","img/fixation.png","null","","test","","","","","",""
"null","641266","pSARL_v2","pSARL_v24rxfdz3w","63dab0380b8791f9560fd329","freq","img/green_2bandit_a2.png","null","70","test","0","175","175","8","",""
"null","641420","pSARL_v2","pSARL_v24rxfdz3w","63dab0380b8791f9560fd329","fixation","img/fixation.png","null","","test","","","","","",""
"723.5","642146","pSARL_v2","pSARL_v24rxfdz3w","63dab0380b8791f9560fd329","freq","img/green_2bandit_a2.png","70","70","test","1","176","176","8","",""
"null","642229","pSARL_v2","pSARL_v24rxfdz3w","63dab0380b8791f9560fd329","freq_resp","img/green_2bandit_a.png","70","70","test","","","","8","",""
"null","642384","pSARL_v2","pSARL_v24rxfdz3w","63dab0380b8791f9560fd329","fixation","img/fixation.png","null","","test","","","","","",""
"747.7999999523163","643134","pSARL_v2","pSARL_v24rxfdz3w","63dab0380b8791f9560fd329","freq","img/green_2bandit_a2.png","70","70","test","1","177","177","8","",""
"null","643188","pSARL_v2","pSARL_v24rxfdz3w","63dab0380b8791f9560fd329","freq_resp","img/green_2bandit_a.png","70","70","test","","","","8","",""
"null","643344","pSARL_v2","pSARL_v24rxfdz3w","63dab0380b8791f9560fd329","fixation","img/fixation.png","null","","test","","","","","",""
"587.7000000476837","643934","pSARL_v2","pSARL_v24rxfdz3w","63dab0380b8791f9560fd329","freq","img/green_2bandit_a2.png","70","70","test","1","178","178","8","",""
"null","644151","pSARL_v2","pSARL_v24rxfdz3w","63dab0380b8791f9560fd329","freq_resp","img/green_2bandit_a.png","70","70","test","","","","8","",""
"null","644308","pSARL_v2","pSARL_v24rxfdz3w","63dab0380b8791f9560fd329","fixation","img/fixation.png","null","","test","","","","","",""
"297.2000000476837","644608","pSARL_v2","pSARL_v24rxfdz3w","63dab0380b8791f9560fd329","freq","img/green_2bandit_a2.png","70","70","test","1","179","179","8","",""
"null","645117","pSARL_v2","pSARL_v24rxfdz3w","63dab0380b8791f9560fd329","freq_resp","img/green_2bandit_a.png","70","70","test","","","","8","",""
"null","645274","pSARL_v2","pSARL_v24rxfdz3w","63dab0380b8791f9560fd329","fixation","img/fixation.png","null","","test","","","","","",""
"286.90000009536743","645564","pSARL_v2","pSARL_v24rxfdz3w","63dab0380b8791f9560fd329","freq","img/green_2bandit_a2.png","70","70","test","1","180","180","8","",""
"null","646082","pSARL_v2","pSARL_v24rxfdz3w","63dab0380b8791f9560fd329","freq_resp","img/green_2bandit_a.png","70","70","test","","","","8","",""
"null","646237","pSARL_v2","pSARL_v24rxfdz3w","63dab0380b8791f9560fd329","fixation","img/fixation.png","null","","test","","","","","",""
"301.7000000476837","646541","pSARL_v2","pSARL_v24rxfdz3w","63dab0380b8791f9560fd329","freq","img/green_2bandit_a2.png","70","70","test","1","181","181","8","",""
"null","647058","pSARL_v2","pSARL_v24rxfdz3w","63dab0380b8791f9560fd329","freq_resp","img/green_2bandit_a.png","70","70","test","","","","8","",""
"null","647217","pSARL_v2","pSARL_v24rxfdz3w","63dab0380b8791f9560fd329","fixation","img/fixation.png","null","","test","","","","","",""
"397","647616","pSARL_v2","pSARL_v24rxfdz3w","63dab0380b8791f9560fd329","freq","img/green_2bandit_a2.png","70","70","test","1","182","182","8","",""
"null","648024","pSARL_v2","pSARL_v24rxfdz3w","63dab0380b8791f9560fd329","freq_resp","img/green_2bandit_a.png","70","70","test","","","","8","",""
"null","648179","pSARL_v2","pSARL_v24rxfdz3w","63dab0380b8791f9560fd329","fixation","img/fixation.png","null","","test","","","","","",""
"235.70000004768372","648418","pSARL_v2","pSARL_v24rxfdz3w","63dab0380b8791f9560fd329","freq","img/green_2bandit_a2.png","70","70","test","1","183","183","8","",""
"null","648985","pSARL_v2","pSARL_v24rxfdz3w","63dab0380b8791f9560fd329","freq_resp","img/green_2bandit_a.png","70","70","test","","","","8","",""
"null","649141","pSARL_v2","pSARL_v24rxfdz3w","63dab0380b8791f9560fd329","fixation","img/fixation.png","null","","test","","","","","",""
"898.8000001907349","650043","pSARL_v2","pSARL_v24rxfdz3w","63dab0380b8791f9560fd329","reward","img/slot.png","74","","test","","","","","",""
"null","650803","pSARL_v2","pSARL_v24rxfdz3w","63dab0380b8791f9560fd329","points","<div class=""verylowPoints""> -4 </div>","null","na","test","","","","8","-4","7"
"null","651611","pSARL_v2","pSARL_v24rxfdz3w","63dab0380b8791f9560fd329","freq","img/green_2bandit_a2.png","null","70","test","0","184","184","9","",""
"null","651764","pSARL_v2","pSARL_v24rxfdz3w","63dab0380b8791f9560fd329","fixation","img/fixation.png","null","","test","","","","","",""
"490.5","652258","pSARL_v2","pSARL_v24rxfdz3w","63dab0380b8791f9560fd329","freq","img/green_2bandit_a2.png","70","70","test","1","185","185","9","",""
"null","652573","pSARL_v2","pSARL_v24rxfdz3w","63dab0380b8791f9560fd329","freq_resp","img/green_2bandit_a.png","70","70","test","","","","9","",""
"null","652727","pSARL_v2","pSARL_v24rxfdz3w","63dab0380b8791f9560fd329","fixation","img/fixation.png","null","","test","","","","","",""
"308.2999999523163","653038","pSARL_v2","pSARL_v24rxfdz3w","63dab0380b8791f9560fd329","freq","img/green_2bandit_a2.png","70","70","test","1","186","186","9","",""
"null","653533","pSARL_v2","pSARL_v24rxfdz3w","63dab0380b8791f9560fd329","freq_resp","img/green_2bandit_a.png","70","70","test","","","","9","",""
"null","653689","pSARL_v2","pSARL_v24rxfdz3w","63dab0380b8791f9560fd329","fixation","img/fixation.png","null","","test","","","","","",""
"221.89999985694885","653914","pSARL_v2","pSARL_v24rxfdz3w","63dab0380b8791f9560fd329","freq","img/green_2bandit_a2.png","70","70","test","1","187","187","9","",""
"null","654496","pSARL_v2","pSARL_v24rxfdz3w","63dab0380b8791f9560fd329","freq_resp","img/green_2bandit_a.png","70","70","test","","","","9","",""
"null","654652","pSARL_v2","pSARL_v24rxfdz3w","63dab0380b8791f9560fd329","fixation","img/fixation.png","null","","test","","","","","",""
"316.40000009536743","654971","pSARL_v2","pSARL_v24rxfdz3w","63dab0380b8791f9560fd329","freq","img/green_2bandit_a2.png","70","70","test","1","188","188","9","",""
"null","655461","pSARL_v2","pSARL_v24rxfdz3w","63dab0380b8791f9560fd329","freq_resp","img/green_2bandit_a.png","70","70","test","","","","9","",""
"null","655615","pSARL_v2","pSARL_v24rxfdz3w","63dab0380b8791f9560fd329","fixation","img/fixation.png","null","","test","","","","","",""
"388.2000000476837","656005","pSARL_v2","pSARL_v24rxfdz3w","63dab0380b8791f9560fd329","freq","img/green_2bandit_a2.png","70","70","test","1","189","189","9","",""
"null","656424","pSARL_v2","pSARL_v24rxfdz3w","63dab0380b8791f9560fd329","freq_resp","img/green_2bandit_a.png","70","70","test","","","","9","",""
"null","656579","pSARL_v2","pSARL_v24rxfdz3w","63dab0380b8791f9560fd329","fixation","img/fixation.png","null","","test","","","","","",""
"227.70000004768372","656810","pSARL_v2","pSARL_v24rxfdz3w","63dab0380b8791f9560fd329","freq","img/green_2bandit_a2.png","70","70","test","1","190","190","9","",""
"null","657399","pSARL_v2","pSARL_v24rxfdz3w","63dab0380b8791f9560fd329","freq_resp","img/green_2bandit_a.png","70","70","test","","","","9","",""
"null","657555","pSARL_v2","pSARL_v24rxfdz3w","63dab0380b8791f9560fd329","fixation","img/fixation.png","null","","test","","","","","",""
"289","657847","pSARL_v2","pSARL_v24rxfdz3w","63dab0380b8791f9560fd329","infreq","img/orange_2bandit_a2.png","70","68","test","0","191","191","9","",""
"null","658366","pSARL_v2","pSARL_v24rxfdz3w","63dab0380b8791f9560fd329","infreq_resp","img/orange_2bandit_a.png","70","68","test","","","","9","",""
"null","658521","pSARL_v2","pSARL_v24rxfdz3w","63dab0380b8791f9560fd329","fixation","img/fixation.png","null","","test","","","","","",""
"330.09999990463257","658855","pSARL_v2","pSARL_v24rxfdz3w","63dab0380b8791f9560fd329","freq","img/green_2bandit_a2.png","70","70","test","1","192","192","9","",""
"null","659341","pSARL_v2","pSARL_v24rxfdz3w","63dab0380b8791f9560fd329","freq_resp","img/green_2bandit_a.png","70","70","test","","","","9","",""
"null","659497","pSARL_v2","pSARL_v24rxfdz3w","63dab0380b8791f9560fd329","fixation","img/fixation.png","null","","test","","","","","",""
"254.29999995231628","659755","pSARL_v2","pSARL_v24rxfdz3w","63dab0380b8791f9560fd329","freq","img/green_2bandit_a2.png","70","70","test","1","193","193","9","",""
"null","660310","pSARL_v2","pSARL_v24rxfdz3w","63dab0380b8791f9560fd329","freq_resp","img/green_2bandit_a.png","70","70","test","","","","9","",""
"null","660478","pSARL_v2","pSARL_v24rxfdz3w","63dab0380b8791f9560fd329","fixation","img/fixation.png","null","","test","","","","","",""
"404.09999990463257","660885","pSARL_v2","pSARL_v24rxfdz3w","63dab0380b8791f9560fd329","infreq","img/orange_2bandit_a2.png","68","68","test","1","194","194","9","",""
"null","661287","pSARL_v2","pSARL_v24rxfdz3w","63dab0380b8791f9560fd329","infreq_resp","img/orange_2bandit_a.png","68","68","test","","","","9","",""
"null","661443","pSARL_v2","pSARL_v24rxfdz3w","63dab0380b8791f9560fd329","fixation","img/fixation.png","null","","test","","","","","",""
"415.40000009536743","661861","pSARL_v2","pSARL_v24rxfdz3w","63dab0380b8791f9560fd329","infreq","img/orange_2bandit_a2.png","68","68","test","1","195","195","9","",""
"null","662254","pSARL_v2","pSARL_v24rxfdz3w","63dab0380b8791f9560fd329","infreq_resp","img/orange_2bandit_a.png","68","68","test","","","","9","",""
"null","662407","pSARL_v2","pSARL_v24rxfdz3w","63dab0380b8791f9560fd329","fixation","img/fixation.png","null","","test","","","","","",""
"425.2000000476837","662835","pSARL_v2","pSARL_v24rxfdz3w","63dab0380b8791f9560fd329","freq","img/green_2bandit_a2.png","70","70","test","1","196","196","9","",""
"null","663214","pSARL_v2","pSARL_v24rxfdz3w","63dab0380b8791f9560fd329","freq_resp","img/green_2bandit_a.png","70","70","test","","","","9","",""
"null","663369","pSARL_v2","pSARL_v24rxfdz3w","63dab0380b8791f9560fd329","fixation","img/fixation.png","null","","test","","","","","",""
"322.40000009536743","663694","pSARL_v2","pSARL_v24rxfdz3w","63dab0380b8791f9560fd329","freq","img/green_2bandit_a2.png","70","70","test","1","197","197","9","",""
"null","664180","pSARL_v2","pSARL_v24rxfdz3w","63dab0380b8791f9560fd329","freq_resp","img/green_2bandit_a.png","70","70","test","","","","9","",""
"null","664334","pSARL_v2","pSARL_v24rxfdz3w","63dab0380b8791f9560fd329","fixation","img/fixation.png","null","","test","","","","","",""
"269.59999990463257","664606","pSARL_v2","pSARL_v24rxfdz3w","63dab0380b8791f9560fd329","freq","img/green_2bandit_a2.png","70","70","test","1","198","198","9","",""
"null","665142","pSARL_v2","pSARL_v24rxfdz3w","63dab0380b8791f9560fd329","freq_resp","img/green_2bandit_a.png","70","70","test","","","","9","",""
"null","665296","pSARL_v2","pSARL_v24rxfdz3w","63dab0380b8791f9560fd329","fixation","img/fixation.png","null","","test","","","","","",""
"266","665565","pSARL_v2","pSARL_v24rxfdz3w","63dab0380b8791f9560fd329","freq","img/green_2bandit_a2.png","70","70","test","1","199","199","9","",""
"null","666106","pSARL_v2","pSARL_v24rxfdz3w","63dab0380b8791f9560fd329","freq_resp","img/green_2bandit_a.png","70","70","test","","","","9","",""
"null","666263","pSARL_v2","pSARL_v24rxfdz3w","63dab0380b8791f9560fd329","fixation","img/fixation.png","null","","test","","","","","",""
"471.09999990463257","666737","pSARL_v2","pSARL_v24rxfdz3w","63dab0380b8791f9560fd329","freq","img/green_2bandit_a2.png","70","70","test","1","200","200","9","",""
"null","667072","pSARL_v2","pSARL_v24rxfdz3w","63dab0380b8791f9560fd329","freq_resp","img/green_2bandit_a.png","70","70","test","","","","9","",""
"null","667227","pSARL_v2","pSARL_v24rxfdz3w","63dab0380b8791f9560fd329","fixation","img/fixation.png","null","","test","","","","","",""
"345","667575","pSARL_v2","pSARL_v24rxfdz3w","63dab0380b8791f9560fd329","freq","img/green_2bandit_a2.png","70","70","test","1","201","201","9","",""
"null","668035","pSARL_v2","pSARL_v24rxfdz3w","63dab0380b8791f9560fd329","freq_resp","img/green_2bandit_a.png","70","70","test","","","","9","",""
"null","668190","pSARL_v2","pSARL_v24rxfdz3w","63dab0380b8791f9560fd329","fixation","img/fixation.png","null","","test","","","","","",""
"234.5","668427","pSARL_v2","pSARL_v24rxfdz3w","63dab0380b8791f9560fd329","freq","img/green_2bandit_a2.png","70","70","test","1","202","202","9","",""
"null","669008","pSARL_v2","pSARL_v24rxfdz3w","63dab0380b8791f9560fd329","freq_resp","img/green_2bandit_a.png","70","70","test","","","","9","",""
"null","669165","pSARL_v2","pSARL_v24rxfdz3w","63dab0380b8791f9560fd329","fixation","img/fixation.png","null","","test","","","","","",""
"82","669250","pSARL_v2","pSARL_v24rxfdz3w","63dab0380b8791f9560fd329","freq","img/green_2bandit_a2.png","70","70","test","1","203","203","9","",""
"null","669975","pSARL_v2","pSARL_v24rxfdz3w","63dab0380b8791f9560fd329","freq_resp","img/green_2bandit_a.png","70","70","test","","","","9","",""
"null","670131","pSARL_v2","pSARL_v24rxfdz3w","63dab0380b8791f9560fd329","fixation","img/fixation.png","null","","test","","","","","",""
"383.2999999523163","670517","pSARL_v2","pSARL_v24rxfdz3w","63dab0380b8791f9560fd329","freq","img/green_2bandit_a2.png","70","70","test","1","204","204","9","",""
"null","670937","pSARL_v2","pSARL_v24rxfdz3w","63dab0380b8791f9560fd329","freq_resp","img/green_2bandit_a.png","70","70","test","","","","9","",""
"null","671094","pSARL_v2","pSARL_v24rxfdz3w","63dab0380b8791f9560fd329","fixation","img/fixation.png","null","","test","","","","","",""
"262.40000009536743","671358","pSARL_v2","pSARL_v24rxfdz3w","63dab0380b8791f9560fd329","freq","img/green_2bandit_a2.png","70","70","test","1","205","205","9","",""
"null","671902","pSARL_v2","pSARL_v24rxfdz3w","63dab0380b8791f9560fd329","freq_resp","img/green_2bandit_a.png","70","70","test","","","","9","",""
"null","672056","pSARL_v2","pSARL_v24rxfdz3w","63dab0380b8791f9560fd329","fixation","img/fixation.png","null","","test","","","","","",""
"223.70000004768372","672282","pSARL_v2","pSARL_v24rxfdz3w","63dab0380b8791f9560fd329","freq","img/green_2bandit_a2.png","70","70","test","1","206","206","9","",""
"null","672864","pSARL_v2","pSARL_v24rxfdz3w","63dab0380b8791f9560fd329","freq_resp","img/green_2bandit_a.png","70","70","test","","","","9","",""
"null","673021","pSARL_v2","pSARL_v24rxfdz3w","63dab0380b8791f9560fd329","fixation","img/fixation.png","null","","test","","","","","",""
"227.29999995231628","673251","pSARL_v2","pSARL_v24rxfdz3w","63dab0380b8791f9560fd329","freq","img/green_2bandit_a2.png","70","70","test","1","207","207","9","",""
"null","673839","pSARL_v2","pSARL_v24rxfdz3w","63dab0380b8791f9560fd329","freq_resp","img/green_2bandit_a.png","70","70","test","","","","9","",""
