"rt","time_elapsed","expId","subject","prolificID","trialType","stimulus","key_press","corrresp","phase","corr","trialNum","attentionRunNum","blockNum","points","rlNum"
"2107","2116","pSARL_v2","pSARL_v29sx2d3q6","6308dca0fefa374b1d697aba","","","","","","","","","","",""
"","5638","pSARL_v2","pSARL_v29sx2d3q6","6308dca0fefa374b1d697aba","fullscreen","","","","","","","","","",""
"619383.1999999285","625015","pSARL_v2","pSARL_v29sx2d3q6","6308dca0fefa374b1d697aba","","","","","","","","","","",""
"null","625825","pSARL_v2","pSARL_v29sx2d3q6","6308dca0fefa374b1d697aba","freqPrac","img/orange_2bandit_b2.png","null","70","prac","0","","","","",""
"null","626842","pSARL_v2","pSARL_v29sx2d3q6","6308dca0fefa374b1d697aba","feedback","img/tooSlow.png","null","na","prac","","","","","",""
"null","627006","pSARL_v2","pSARL_v29sx2d3q6","6308dca0fefa374b1d697aba","fixation","img/fixation.png","null","","prac","","","","","",""
"501.7999999523163","627516","pSARL_v2","pSARL_v29sx2d3q6","6308dca0fefa374b1d697aba","infreqPrac","img/green_2bandit_b2.png","68","68","prac","1","","","","",""
"501.7999999523163","627826","pSARL_v2","pSARL_v29sx2d3q6","6308dca0fefa374b1d697aba","infreqPrac_resp","img/green_2bandit_b.png","68","68","prac","","","","","",""
"null","627987","pSARL_v2","pSARL_v29sx2d3q6","6308dca0fefa374b1d697aba","fixation","img/fixation.png","null","","prac","","","","","",""
"520.7999999523163","628514","pSARL_v2","pSARL_v29sx2d3q6","6308dca0fefa374b1d697aba","freqPrac","img/orange_2bandit_b2.png","70","70","prac","1","","","","",""
"520.7999999523163","628802","pSARL_v2","pSARL_v29sx2d3q6","6308dca0fefa374b1d697aba","freqPrac_resp","img/orange_2bandit_b.png","70","70","prac","","","","","",""
"null","628959","pSARL_v2","pSARL_v29sx2d3q6","6308dca0fefa374b1d697aba","fixation","img/fixation.png","null","","prac","","","","","",""
"549.4000000953674","629515","pSARL_v2","pSARL_v29sx2d3q6","6308dca0fefa374b1d697aba","infreqPrac","img/green_2bandit_b2.png","68","68","prac","1","","","","",""
"549.4000000953674","629774","pSARL_v2","pSARL_v29sx2d3q6","6308dca0fefa374b1d697aba","infreqPrac_resp","img/green_2bandit_b.png","68","68","prac","","","","","",""
"null","629946","pSARL_v2","pSARL_v29sx2d3q6","6308dca0fefa374b1d697aba","fixation","img/fixation.png","null","","prac","","","","","",""
"434.5","630387","pSARL_v2","pSARL_v29sx2d3q6","6308dca0fefa374b1d697aba","infreqPrac","img/green_2bandit_b2.png","68","68","prac","1","","","","",""
"434.5","630761","pSARL_v2","pSARL_v29sx2d3q6","6308dca0fefa374b1d697aba","infreqPrac_resp","img/green_2bandit_b.png","68","68","prac","","","","","",""
"null","630929","pSARL_v2","pSARL_v29sx2d3q6","6308dca0fefa374b1d697aba","fixation","img/fixation.png","null","","prac","","","","","",""
"362.90000009536743","631296","pSARL_v2","pSARL_v29sx2d3q6","6308dca0fefa374b1d697aba","infreqPrac","img/green_2bandit_b2.png","68","68","prac","1","","","","",""
"362.90000009536743","631743","pSARL_v2","pSARL_v29sx2d3q6","6308dca0fefa374b1d697aba","infreqPrac_resp","img/green_2bandit_b.png","68","68","prac","","","","","",""
"null","631908","pSARL_v2","pSARL_v29sx2d3q6","6308dca0fefa374b1d697aba","fixation","img/fixation.png","null","","prac","","","","","",""
"296.2000000476837","632212","pSARL_v2","pSARL_v29sx2d3q6","6308dca0fefa374b1d697aba","freqPrac","img/orange_2bandit_b2.png","68","70","prac","0","","","","",""
"296.2000000476837","632729","pSARL_v2","pSARL_v29sx2d3q6","6308dca0fefa374b1d697aba","freqPrac_resp","img/orange_2bandit_b.png","68","70","prac","","","","","",""
"null","633747","pSARL_v2","pSARL_v29sx2d3q6","6308dca0fefa374b1d697aba","feedback","img/wrongKey.png","null","na","prac","","","","","",""
"null","633910","pSARL_v2","pSARL_v29sx2d3q6","6308dca0fefa374b1d697aba","fixation","img/fixation.png","null","","prac","","","","","",""
"494.3000000715256","634410","pSARL_v2","pSARL_v29sx2d3q6","6308dca0fefa374b1d697aba","infreqPrac","img/green_2bandit_b2.png","68","68","prac","1","","","","",""
"494.3000000715256","634733","pSARL_v2","pSARL_v29sx2d3q6","6308dca0fefa374b1d697aba","infreqPrac_resp","img/green_2bandit_b.png","68","68","prac","","","","","",""
"null","634897","pSARL_v2","pSARL_v29sx2d3q6","6308dca0fefa374b1d697aba","fixation","img/fixation.png","null","","prac","","","","","",""
"375","635279","pSARL_v2","pSARL_v29sx2d3q6","6308dca0fefa374b1d697aba","freqPrac","img/orange_2bandit_b2.png","70","70","prac","1","","","","",""
"375","635710","pSARL_v2","pSARL_v29sx2d3q6","6308dca0fefa374b1d697aba","freqPrac_resp","img/orange_2bandit_b.png","70","70","prac","","","","","",""
"null","635881","pSARL_v2","pSARL_v29sx2d3q6","6308dca0fefa374b1d697aba","fixation","img/fixation.png","null","","prac","","","","","",""
"391.5","636279","pSARL_v2","pSARL_v29sx2d3q6","6308dca0fefa374b1d697aba","freqPrac","img/orange_2bandit_b2.png","70","70","prac","1","","","","",""
"391.5","636695","pSARL_v2","pSARL_v29sx2d3q6","6308dca0fefa374b1d697aba","freqPrac_resp","img/orange_2bandit_b.png","70","70","prac","","","","","",""
"null","636864","pSARL_v2","pSARL_v29sx2d3q6","6308dca0fefa374b1d697aba","fixation","img/fixation.png","null","","prac","","","","","",""
"16549","653417","pSARL_v2","pSARL_v29sx2d3q6","6308dca0fefa374b1d697aba","","","","","prac","","","","","",""
"1246.4000000953674","654667","pSARL_v2","pSARL_v29sx2d3q6","6308dca0fefa374b1d697aba","rewardPractice","img/slot.png","74","","prac","","","","","",""
"null","655436","pSARL_v2","pSARL_v29sx2d3q6","6308dca0fefa374b1d697aba","feedback","<div class=""veryhighPoints""> +15 </div>","null","na","prac","","","","","",""
"null","655603","pSARL_v2","pSARL_v29sx2d3q6","6308dca0fefa374b1d697aba","fixation","img/fixation.png","null","","prac","","","","","",""
"4149","659756","pSARL_v2","pSARL_v29sx2d3q6","6308dca0fefa374b1d697aba","","","","","prac","","","","","",""
"739.3999999761581","660499","pSARL_v2","pSARL_v29sx2d3q6","6308dca0fefa374b1d697aba","freq","img/orange_2bandit_b2.png","68","70","test","0","1","1","1","",""
"null","660569","pSARL_v2","pSARL_v29sx2d3q6","6308dca0fefa374b1d697aba","freq_resp","img/orange_2bandit_b.png","68","70","test","","","","1","",""
"null","660733","pSARL_v2","pSARL_v29sx2d3q6","6308dca0fefa374b1d697aba","fixation","img/fixation.png","null","","test","","","","","",""
"null","661549","pSARL_v2","pSARL_v29sx2d3q6","6308dca0fefa374b1d697aba","freq","img/orange_2bandit_b2.png","null","70","test","0","2","2","1","",""
"null","661702","pSARL_v2","pSARL_v29sx2d3q6","6308dca0fefa374b1d697aba","fixation","img/fixation.png","null","","test","","","","","",""
"785.5","662492","pSARL_v2","pSARL_v29sx2d3q6","6308dca0fefa374b1d697aba","freq","img/orange_2bandit_b2.png","70","70","test","1","3","3","1","",""
"null","662510","pSARL_v2","pSARL_v29sx2d3q6","6308dca0fefa374b1d697aba","freq_resp","img/orange_2bandit_b.png","70","70","test","","","","1","",""
"null","662675","pSARL_v2","pSARL_v29sx2d3q6","6308dca0fefa374b1d697aba","fixation","img/fixation.png","null","","test","","","","","",""
"372.7999999523163","663051","pSARL_v2","pSARL_v29sx2d3q6","6308dca0fefa374b1d697aba","freq","img/orange_2bandit_b2.png","70","70","test","1","4","4","1","",""
"null","663492","pSARL_v2","pSARL_v29sx2d3q6","6308dca0fefa374b1d697aba","freq_resp","img/orange_2bandit_b.png","70","70","test","","","","1","",""
"null","663654","pSARL_v2","pSARL_v29sx2d3q6","6308dca0fefa374b1d697aba","fixation","img/fixation.png","null","","test","","","","","",""
"425.7999999523163","664083","pSARL_v2","pSARL_v29sx2d3q6","6308dca0fefa374b1d697aba","freq","img/orange_2bandit_b2.png","70","70","test","1","5","5","1","",""
"null","664478","pSARL_v2","pSARL_v29sx2d3q6","6308dca0fefa374b1d697aba","freq_resp","img/orange_2bandit_b.png","70","70","test","","","","1","",""
"null","664641","pSARL_v2","pSARL_v29sx2d3q6","6308dca0fefa374b1d697aba","fixation","img/fixation.png","null","","test","","","","","",""
"326.60000002384186","664971","pSARL_v2","pSARL_v29sx2d3q6","6308dca0fefa374b1d697aba","freq","img/orange_2bandit_b2.png","70","70","test","1","6","6","1","",""
"null","665459","pSARL_v2","pSARL_v29sx2d3q6","6308dca0fefa374b1d697aba","freq_resp","img/orange_2bandit_b.png","70","70","test","","","","1","",""
"null","665627","pSARL_v2","pSARL_v29sx2d3q6","6308dca0fefa374b1d697aba","fixation","img/fixation.png","null","","test","","","","","",""
"352.8000000715256","665983","pSARL_v2","pSARL_v29sx2d3q6","6308dca0fefa374b1d697aba","freq","img/orange_2bandit_b2.png","70","70","test","1","7","7","1","",""
"null","666444","pSARL_v2","pSARL_v29sx2d3q6","6308dca0fefa374b1d697aba","freq_resp","img/orange_2bandit_b.png","70","70","test","","","","1","",""
"null","666622","pSARL_v2","pSARL_v29sx2d3q6","6308dca0fefa374b1d697aba","fixation","img/fixation.png","null","","test","","","","","",""
"457.60000002384186","667083","pSARL_v2","pSARL_v29sx2d3q6","6308dca0fefa374b1d697aba","infreq","img/green_2bandit_b2.png","68","68","test","1","8","8","1","",""
"null","667439","pSARL_v2","pSARL_v29sx2d3q6","6308dca0fefa374b1d697aba","infreq_resp","img/green_2bandit_b.png","68","68","test","","","","1","",""
"null","667609","pSARL_v2","pSARL_v29sx2d3q6","6308dca0fefa374b1d697aba","fixation","img/fixation.png","null","","test","","","","","",""
"518.6000000238419","668130","pSARL_v2","pSARL_v29sx2d3q6","6308dca0fefa374b1d697aba","freq","img/orange_2bandit_b2.png","70","70","test","1","9","9","1","",""
"null","668426","pSARL_v2","pSARL_v29sx2d3q6","6308dca0fefa374b1d697aba","freq_resp","img/orange_2bandit_b.png","70","70","test","","","","1","",""
"null","668595","pSARL_v2","pSARL_v29sx2d3q6","6308dca0fefa374b1d697aba","fixation","img/fixation.png","null","","test","","","","","",""
"444.2000000476837","669042","pSARL_v2","pSARL_v29sx2d3q6","6308dca0fefa374b1d697aba","freq","img/orange_2bandit_b2.png","70","70","test","1","10","10","1","",""
"null","669411","pSARL_v2","pSARL_v29sx2d3q6","6308dca0fefa374b1d697aba","freq_resp","img/orange_2bandit_b.png","70","70","test","","","","1","",""
"null","669575","pSARL_v2","pSARL_v29sx2d3q6","6308dca0fefa374b1d697aba","fixation","img/fixation.png","null","","test","","","","","",""
"328.7000000476837","669907","pSARL_v2","pSARL_v29sx2d3q6","6308dca0fefa374b1d697aba","freq","img/orange_2bandit_b2.png","70","70","test","1","11","11","1","",""
"null","670399","pSARL_v2","pSARL_v29sx2d3q6","6308dca0fefa374b1d697aba","freq_resp","img/orange_2bandit_b.png","70","70","test","","","","1","",""
"null","670560","pSARL_v2","pSARL_v29sx2d3q6","6308dca0fefa374b1d697aba","fixation","img/fixation.png","null","","test","","","","","",""
"332.10000002384186","670900","pSARL_v2","pSARL_v29sx2d3q6","6308dca0fefa374b1d697aba","freq","img/orange_2bandit_b2.png","70","70","test","1","12","12","1","",""
"null","671380","pSARL_v2","pSARL_v29sx2d3q6","6308dca0fefa374b1d697aba","freq_resp","img/orange_2bandit_b.png","70","70","test","","","","1","",""
"null","671551","pSARL_v2","pSARL_v29sx2d3q6","6308dca0fefa374b1d697aba","fixation","img/fixation.png","null","","test","","","","","",""
"292.2000000476837","671851","pSARL_v2","pSARL_v29sx2d3q6","6308dca0fefa374b1d697aba","freq","img/orange_2bandit_b2.png","70","70","test","1","13","13","1","",""
"null","672367","pSARL_v2","pSARL_v29sx2d3q6","6308dca0fefa374b1d697aba","freq_resp","img/orange_2bandit_b.png","70","70","test","","","","1","",""
"null","672537","pSARL_v2","pSARL_v29sx2d3q6","6308dca0fefa374b1d697aba","fixation","img/fixation.png","null","","test","","","","","",""
"279.10000002384186","672825","pSARL_v2","pSARL_v29sx2d3q6","6308dca0fefa374b1d697aba","freq","img/orange_2bandit_b2.png","70","70","test","1","14","14","1","",""
"null","673352","pSARL_v2","pSARL_v29sx2d3q6","6308dca0fefa374b1d697aba","freq_resp","img/orange_2bandit_b.png","70","70","test","","","","1","",""
"null","673520","pSARL_v2","pSARL_v29sx2d3q6","6308dca0fefa374b1d697aba","fixation","img/fixation.png","null","","test","","","","","",""
"252.39999997615814","673780","pSARL_v2","pSARL_v29sx2d3q6","6308dca0fefa374b1d697aba","freq","img/orange_2bandit_b2.png","70","70","test","1","15","15","1","",""
"null","674340","pSARL_v2","pSARL_v29sx2d3q6","6308dca0fefa374b1d697aba","freq_resp","img/orange_2bandit_b.png","70","70","test","","","","1","",""
"null","674506","pSARL_v2","pSARL_v29sx2d3q6","6308dca0fefa374b1d697aba","fixation","img/fixation.png","null","","test","","","","","",""
"163","674674","pSARL_v2","pSARL_v29sx2d3q6","6308dca0fefa374b1d697aba","freq","img/orange_2bandit_b2.png","70","70","test","1","16","16","1","",""
"null","675327","pSARL_v2","pSARL_v29sx2d3q6","6308dca0fefa374b1d697aba","freq_resp","img/orange_2bandit_b.png","70","70","test","","","","1","",""
"null","675489","pSARL_v2","pSARL_v29sx2d3q6","6308dca0fefa374b1d697aba","fixation","img/fixation.png","null","","test","","","","","",""
"146.89999997615814","675643","pSARL_v2","pSARL_v29sx2d3q6","6308dca0fefa374b1d697aba","freq","img/orange_2bandit_b2.png","70","70","test","1","17","17","1","",""
"null","676312","pSARL_v2","pSARL_v29sx2d3q6","6308dca0fefa374b1d697aba","freq_resp","img/orange_2bandit_b.png","70","70","test","","","","1","",""
"null","676477","pSARL_v2","pSARL_v29sx2d3q6","6308dca0fefa374b1d697aba","fixation","img/fixation.png","null","","test","","","","","",""
"222.30000007152557","676704","pSARL_v2","pSARL_v29sx2d3q6","6308dca0fefa374b1d697aba","freq","img/orange_2bandit_b2.png","70","70","test","1","18","18","1","",""
"null","677290","pSARL_v2","pSARL_v29sx2d3q6","6308dca0fefa374b1d697aba","freq_resp","img/orange_2bandit_b.png","70","70","test","","","","1","",""
"null","677461","pSARL_v2","pSARL_v29sx2d3q6","6308dca0fefa374b1d697aba","fixation","img/fixation.png","null","","test","","","","","",""
"311.2999999523163","677776","pSARL_v2","pSARL_v29sx2d3q6","6308dca0fefa374b1d697aba","freq","img/orange_2bandit_b2.png","70","70","test","1","19","19","1","",""
"null","678278","pSARL_v2","pSARL_v29sx2d3q6","6308dca0fefa374b1d697aba","freq_resp","img/orange_2bandit_b.png","70","70","test","","","","1","",""
"null","678447","pSARL_v2","pSARL_v29sx2d3q6","6308dca0fefa374b1d697aba","fixation","img/fixation.png","null","","test","","","","","",""
"245.20000004768372","678699","pSARL_v2","pSARL_v29sx2d3q6","6308dca0fefa374b1d697aba","infreq","img/green_2bandit_b2.png","70","68","test","0","20","20","1","",""
"null","679264","pSARL_v2","pSARL_v29sx2d3q6","6308dca0fefa374b1d697aba","infreq_resp","img/green_2bandit_b.png","70","68","test","","","","1","",""
"null","679433","pSARL_v2","pSARL_v29sx2d3q6","6308dca0fefa374b1d697aba","fixation","img/fixation.png","null","","test","","","","","",""
"395.39999997615814","679835","pSARL_v2","pSARL_v29sx2d3q6","6308dca0fefa374b1d697aba","freq","img/orange_2bandit_b2.png","70","70","test","1","21","21","1","",""
"null","680248","pSARL_v2","pSARL_v29sx2d3q6","6308dca0fefa374b1d697aba","freq_resp","img/orange_2bandit_b.png","70","70","test","","","","1","",""
"null","680418","pSARL_v2","pSARL_v29sx2d3q6","6308dca0fefa374b1d697aba","fixation","img/fixation.png","null","","test","","","","","",""
"642.0999999046326","681066","pSARL_v2","pSARL_v29sx2d3q6","6308dca0fefa374b1d697aba","reward","img/slot.png","74","","test","","","","","",""
"null","681835","pSARL_v2","pSARL_v29sx2d3q6","6308dca0fefa374b1d697aba","points","<div class=""verylowPoints""> -6 </div>","null","na","test","","","","1","-6","0"
"689.1000000238419","682531","pSARL_v2","pSARL_v29sx2d3q6","6308dca0fefa374b1d697aba","freq","img/orange_2bandit_b2.png","70","70","test","1","22","22","2","",""
"null","682655","pSARL_v2","pSARL_v29sx2d3q6","6308dca0fefa374b1d697aba","freq_resp","img/orange_2bandit_b.png","70","70","test","","","","2","",""
"null","682822","pSARL_v2","pSARL_v29sx2d3q6","6308dca0fefa374b1d697aba","fixation","img/fixation.png","null","","test","","","","","",""
"421.09999990463257","683247","pSARL_v2","pSARL_v29sx2d3q6","6308dca0fefa374b1d697aba","freq","img/orange_2bandit_b2.png","70","70","test","1","23","23","2","",""
"null","683639","pSARL_v2","pSARL_v29sx2d3q6","6308dca0fefa374b1d697aba","freq_resp","img/orange_2bandit_b.png","70","70","test","","","","2","",""
"null","683801","pSARL_v2","pSARL_v29sx2d3q6","6308dca0fefa374b1d697aba","fixation","img/fixation.png","null","","test","","","","","",""
"467.10000002384186","684275","pSARL_v2","pSARL_v29sx2d3q6","6308dca0fefa374b1d697aba","infreq","img/green_2bandit_b2.png","68","68","test","1","24","24","2","",""
"null","684625","pSARL_v2","pSARL_v29sx2d3q6","6308dca0fefa374b1d697aba","infreq_resp","img/green_2bandit_b.png","68","68","test","","","","2","",""
"null","684787","pSARL_v2","pSARL_v29sx2d3q6","6308dca0fefa374b1d697aba","fixation","img/fixation.png","null","","test","","","","","",""
"393.39999997615814","685187","pSARL_v2","pSARL_v29sx2d3q6","6308dca0fefa374b1d697aba","freq","img/orange_2bandit_b2.png","70","70","test","1","25","25","2","",""
"null","685608","pSARL_v2","pSARL_v29sx2d3q6","6308dca0fefa374b1d697aba","freq_resp","img/orange_2bandit_b.png","70","70","test","","","","2","",""
"null","685777","pSARL_v2","pSARL_v29sx2d3q6","6308dca0fefa374b1d697aba","fixation","img/fixation.png","null","","test","","","","","",""
"451","686234","pSARL_v2","pSARL_v29sx2d3q6","6308dca0fefa374b1d697aba","infreq","img/green_2bandit_b2.png","68","68","test","1","26","26","2","",""
"null","686592","pSARL_v2","pSARL_v29sx2d3q6","6308dca0fefa374b1d697aba","infreq_resp","img/green_2bandit_b.png","68","68","test","","","","2","",""
"null","686749","pSARL_v2","pSARL_v29sx2d3q6","6308dca0fefa374b1d697aba","fixation","img/fixation.png","null","","test","","","","","",""
"311","687066","pSARL_v2","pSARL_v29sx2d3q6","6308dca0fefa374b1d697aba","freq","img/orange_2bandit_b2.png","70","70","test","1","27","27","2","",""
"null","687567","pSARL_v2","pSARL_v29sx2d3q6","6308dca0fefa374b1d697aba","freq_resp","img/orange_2bandit_b.png","70","70","test","","","","2","",""
"null","687729","pSARL_v2","pSARL_v29sx2d3q6","6308dca0fefa374b1d697aba","fixation","img/fixation.png","null","","test","","","","","",""
"403.39999997615814","688139","pSARL_v2","pSARL_v29sx2d3q6","6308dca0fefa374b1d697aba","freq","img/orange_2bandit_b2.png","70","70","test","1","28","28","2","",""
"null","688555","pSARL_v2","pSARL_v29sx2d3q6","6308dca0fefa374b1d697aba","freq_resp","img/orange_2bandit_b.png","70","70","test","","","","2","",""
"null","688716","pSARL_v2","pSARL_v29sx2d3q6","6308dca0fefa374b1d697aba","fixation","img/fixation.png","null","","test","","","","","",""
"376.2999999523163","689098","pSARL_v2","pSARL_v29sx2d3q6","6308dca0fefa374b1d697aba","freq","img/orange_2bandit_b2.png","70","70","test","1","29","29","2","",""
"null","689534","pSARL_v2","pSARL_v29sx2d3q6","6308dca0fefa374b1d697aba","freq_resp","img/orange_2bandit_b.png","70","70","test","","","","2","",""
"null","689705","pSARL_v2","pSARL_v29sx2d3q6","6308dca0fefa374b1d697aba","fixation","img/fixation.png","null","","test","","","","","",""
"330.89999997615814","690042","pSARL_v2","pSARL_v29sx2d3q6","6308dca0fefa374b1d697aba","freq","img/orange_2bandit_b2.png","70","70","test","1","30","30","2","",""
"null","690520","pSARL_v2","pSARL_v29sx2d3q6","6308dca0fefa374b1d697aba","freq_resp","img/orange_2bandit_b.png","70","70","test","","","","2","",""
"null","690689","pSARL_v2","pSARL_v29sx2d3q6","6308dca0fefa374b1d697aba","fixation","img/fixation.png","null","","test","","","","","",""
"355","691050","pSARL_v2","pSARL_v29sx2d3q6","6308dca0fefa374b1d697aba","freq","img/orange_2bandit_b2.png","70","70","test","1","31","31","2","",""
"null","691507","pSARL_v2","pSARL_v29sx2d3q6","6308dca0fefa374b1d697aba","freq_resp","img/orange_2bandit_b.png","70","70","test","","","","2","",""
"null","691674","pSARL_v2","pSARL_v29sx2d3q6","6308dca0fefa374b1d697aba","fixation","img/fixation.png","null","","test","","","","","",""
"330.5","692011","pSARL_v2","pSARL_v29sx2d3q6","6308dca0fefa374b1d697aba","freq","img/orange_2bandit_b2.png","70","70","test","1","32","32","2","",""
"null","692492","pSARL_v2","pSARL_v29sx2d3q6","6308dca0fefa374b1d697aba","freq_resp","img/orange_2bandit_b.png","70","70","test","","","","2","",""
"null","692662","pSARL_v2","pSARL_v29sx2d3q6","6308dca0fefa374b1d697aba","fixation","img/fixation.png","null","","test","","","","","",""
"317.39999997615814","692983","pSARL_v2","pSARL_v29sx2d3q6","6308dca0fefa374b1d697aba","freq","img/orange_2bandit_b2.png","70","70","test","1","33","33","2","",""
"null","693479","pSARL_v2","pSARL_v29sx2d3q6","6308dca0fefa374b1d697aba","freq_resp","img/orange_2bandit_b.png","70","70","test","","","","2","",""
"null","693642","pSARL_v2","pSARL_v29sx2d3q6","6308dca0fefa374b1d697aba","fixation","img/fixation.png","null","","test","","","","","",""
"329.09999990463257","693975","pSARL_v2","pSARL_v29sx2d3q6","6308dca0fefa374b1d697aba","freq","img/orange_2bandit_b2.png","70","70","test","1","34","34","2","",""
"null","694462","pSARL_v2","pSARL_v29sx2d3q6","6308dca0fefa374b1d697aba","freq_resp","img/orange_2bandit_b.png","70","70","test","","","","2","",""
"null","694627","pSARL_v2","pSARL_v29sx2d3q6","6308dca0fefa374b1d697aba","fixation","img/fixation.png","null","","test","","","","","",""
"344.2999999523163","694976","pSARL_v2","pSARL_v29sx2d3q6","6308dca0fefa374b1d697aba","freq","img/orange_2bandit_b2.png","70","70","test","1","35","35","2","",""
"null","695445","pSARL_v2","pSARL_v29sx2d3q6","6308dca0fefa374b1d697aba","freq_resp","img/orange_2bandit_b.png","70","70","test","","","","2","",""
"null","695616","pSARL_v2","pSARL_v29sx2d3q6","6308dca0fefa374b1d697aba","fixation","img/fixation.png","null","","test","","","","","",""
"330.2000000476837","695951","pSARL_v2","pSARL_v29sx2d3q6","6308dca0fefa374b1d697aba","freq","img/orange_2bandit_b2.png","70","70","test","1","36","36","2","",""
"null","696432","pSARL_v2","pSARL_v29sx2d3q6","6308dca0fefa374b1d697aba","freq_resp","img/orange_2bandit_b.png","70","70","test","","","","2","",""
"null","696599","pSARL_v2","pSARL_v29sx2d3q6","6308dca0fefa374b1d697aba","fixation","img/fixation.png","null","","test","","","","","",""
"253.10000002384186","696856","pSARL_v2","pSARL_v29sx2d3q6","6308dca0fefa374b1d697aba","freq","img/orange_2bandit_b2.png","70","70","test","1","37","37","2","",""
"null","697417","pSARL_v2","pSARL_v29sx2d3q6","6308dca0fefa374b1d697aba","freq_resp","img/orange_2bandit_b.png","70","70","test","","","","2","",""
"null","697588","pSARL_v2","pSARL_v29sx2d3q6","6308dca0fefa374b1d697aba","fixation","img/fixation.png","null","","test","","","","","",""
"335.8000000715256","697930","pSARL_v2","pSARL_v29sx2d3q6","6308dca0fefa374b1d697aba","freq","img/orange_2bandit_b2.png","70","70","test","1","38","38","2","",""
"null","698401","pSARL_v2","pSARL_v29sx2d3q6","6308dca0fefa374b1d697aba","freq_resp","img/orange_2bandit_b.png","70","70","test","","","","2","",""
"null","698572","pSARL_v2","pSARL_v29sx2d3q6","6308dca0fefa374b1d697aba","fixation","img/fixation.png","null","","test","","","","","",""
"280.39999997615814","698858","pSARL_v2","pSARL_v29sx2d3q6","6308dca0fefa374b1d697aba","freq","img/orange_2bandit_b2.png","70","70","test","1","39","39","2","",""
"null","699388","pSARL_v2","pSARL_v29sx2d3q6","6308dca0fefa374b1d697aba","freq_resp","img/orange_2bandit_b.png","70","70","test","","","","2","",""
"null","699551","pSARL_v2","pSARL_v29sx2d3q6","6308dca0fefa374b1d697aba","fixation","img/fixation.png","null","","test","","","","","",""
"137.10000002384186","699695","pSARL_v2","pSARL_v29sx2d3q6","6308dca0fefa374b1d697aba","freq","img/orange_2bandit_b2.png","70","70","test","1","40","40","2","",""
"null","700373","pSARL_v2","pSARL_v29sx2d3q6","6308dca0fefa374b1d697aba","freq_resp","img/orange_2bandit_b.png","70","70","test","","","","2","",""
"null","700536","pSARL_v2","pSARL_v29sx2d3q6","6308dca0fefa374b1d697aba","fixation","img/fixation.png","null","","test","","","","","",""
"588","701130","pSARL_v2","pSARL_v29sx2d3q6","6308dca0fefa374b1d697aba","reward","img/slot.png","74","","test","","","","","",""
"null","701890","pSARL_v2","pSARL_v29sx2d3q6","6308dca0fefa374b1d697aba","points","<div class=""verylowPoints""> -11 </div>","null","na","test","","","","2","-11","1"
"575","702469","pSARL_v2","pSARL_v29sx2d3q6","6308dca0fefa374b1d697aba","freq","img/orange_2bandit_b2.png","70","70","test","1","41","41","3","",""
"null","702705","pSARL_v2","pSARL_v29sx2d3q6","6308dca0fefa374b1d697aba","freq_resp","img/orange_2bandit_b.png","70","70","test","","","","3","",""
"null","702876","pSARL_v2","pSARL_v29sx2d3q6","6308dca0fefa374b1d697aba","fixation","img/fixation.png","null","","test","","","","","",""
"499.2999999523163","703379","pSARL_v2","pSARL_v29sx2d3q6","6308dca0fefa374b1d697aba","freq","img/orange_2bandit_b2.png","68","70","test","0","42","42","3","",""
"null","703692","pSARL_v2","pSARL_v29sx2d3q6","6308dca0fefa374b1d697aba","freq_resp","img/orange_2bandit_b.png","68","70","test","","","","3","",""
"null","703857","pSARL_v2","pSARL_v29sx2d3q6","6308dca0fefa374b1d697aba","fixation","img/fixation.png","null","","test","","","","","",""
"502","704366","pSARL_v2","pSARL_v29sx2d3q6","6308dca0fefa374b1d697aba","freq","img/orange_2bandit_b2.png","70","70","test","1","43","43","3","",""
"null","704678","pSARL_v2","pSARL_v29sx2d3q6","6308dca0fefa374b1d697aba","freq_resp","img/orange_2bandit_b.png","70","70","test","","","","3","",""
"null","704840","pSARL_v2","pSARL_v29sx2d3q6","6308dca0fefa374b1d697aba","fixation","img/fixation.png","null","","test","","","","","",""
"319.7999999523163","705166","pSARL_v2","pSARL_v29sx2d3q6","6308dca0fefa374b1d697aba","freq","img/orange_2bandit_b2.png","70","70","test","1","44","44","3","",""
"null","705654","pSARL_v2","pSARL_v29sx2d3q6","6308dca0fefa374b1d697aba","freq_resp","img/orange_2bandit_b.png","70","70","test","","","","3","",""
"null","705825","pSARL_v2","pSARL_v29sx2d3q6","6308dca0fefa374b1d697aba","fixation","img/fixation.png","null","","test","","","","","",""
"303.2999999523163","706134","pSARL_v2","pSARL_v29sx2d3q6","6308dca0fefa374b1d697aba","freq","img/orange_2bandit_b2.png","70","70","test","1","45","45","3","",""
"null","706642","pSARL_v2","pSARL_v29sx2d3q6","6308dca0fefa374b1d697aba","freq_resp","img/orange_2bandit_b.png","70","70","test","","","","3","",""
"null","706811","pSARL_v2","pSARL_v29sx2d3q6","6308dca0fefa374b1d697aba","fixation","img/fixation.png","null","","test","","","","","",""
"260.6999999284744","707078","pSARL_v2","pSARL_v29sx2d3q6","6308dca0fefa374b1d697aba","freq","img/orange_2bandit_b2.png","70","70","test","1","46","46","3","",""
"null","707627","pSARL_v2","pSARL_v29sx2d3q6","6308dca0fefa374b1d697aba","freq_resp","img/orange_2bandit_b.png","70","70","test","","","","3","",""
"null","707795","pSARL_v2","pSARL_v29sx2d3q6","6308dca0fefa374b1d697aba","fixation","img/fixation.png","null","","test","","","","","",""
"85.19999992847443","707885","pSARL_v2","pSARL_v29sx2d3q6","6308dca0fefa374b1d697aba","freq","img/orange_2bandit_b2.png","70","70","test","1","47","47","3","",""
"null","708611","pSARL_v2","pSARL_v29sx2d3q6","6308dca0fefa374b1d697aba","freq_resp","img/orange_2bandit_b.png","70","70","test","","","","3","",""
"null","708784","pSARL_v2","pSARL_v29sx2d3q6","6308dca0fefa374b1d697aba","fixation","img/fixation.png","null","","test","","","","","",""
"264","709054","pSARL_v2","pSARL_v29sx2d3q6","6308dca0fefa374b1d697aba","freq","img/orange_2bandit_b2.png","70","70","test","1","48","48","3","",""
"null","709598","pSARL_v2","pSARL_v29sx2d3q6","6308dca0fefa374b1d697aba","freq_resp","img/orange_2bandit_b.png","70","70","test","","","","3","",""
"null","709762","pSARL_v2","pSARL_v29sx2d3q6","6308dca0fefa374b1d697aba","fixation","img/fixation.png","null","","test","","","","","",""
"133.39999997615814","709901","pSARL_v2","pSARL_v29sx2d3q6","6308dca0fefa374b1d697aba","freq","img/orange_2bandit_b2.png","70","70","test","1","49","49","3","",""
"null","710583","pSARL_v2","pSARL_v29sx2d3q6","6308dca0fefa374b1d697aba","freq_resp","img/orange_2bandit_b.png","70","70","test","","","","3","",""
"null","710746","pSARL_v2","pSARL_v29sx2d3q6","6308dca0fefa374b1d697aba","fixation","img/fixation.png","null","","test","","","","","",""
"294.7000000476837","711046","pSARL_v2","pSARL_v29sx2d3q6","6308dca0fefa374b1d697aba","freq","img/orange_2bandit_b2.png","70","70","test","1","50","50","3","",""
"null","711568","pSARL_v2","pSARL_v29sx2d3q6","6308dca0fefa374b1d697aba","freq_resp","img/orange_2bandit_b.png","70","70","test","","","","3","",""
"null","711736","pSARL_v2","pSARL_v29sx2d3q6","6308dca0fefa374b1d697aba","fixation","img/fixation.png","null","","test","","","","","",""
"111.79999995231628","711854","pSARL_v2","pSARL_v29sx2d3q6","6308dca0fefa374b1d697aba","freq","img/orange_2bandit_b2.png","70","70","test","1","51","51","3","",""
"null","712553","pSARL_v2","pSARL_v29sx2d3q6","6308dca0fefa374b1d697aba","freq_resp","img/orange_2bandit_b.png","70","70","test","","","","3","",""
"null","712721","pSARL_v2","pSARL_v29sx2d3q6","6308dca0fefa374b1d697aba","fixation","img/fixation.png","null","","test","","","","","",""
"null","713540","pSARL_v2","pSARL_v29sx2d3q6","6308dca0fefa374b1d697aba","freq","img/orange_2bandit_b2.png","null","70","test","0","52","52","3","",""
"null","713703","pSARL_v2","pSARL_v29sx2d3q6","6308dca0fefa374b1d697aba","fixation","img/fixation.png","null","","test","","","","","",""
"null","714524","pSARL_v2","pSARL_v29sx2d3q6","6308dca0fefa374b1d697aba","freq","img/orange_2bandit_b2.png","null","70","test","0","53","53","3","",""
"null","714687","pSARL_v2","pSARL_v29sx2d3q6","6308dca0fefa374b1d697aba","fixation","img/fixation.png","null","","test","","","","","",""
"97.29999995231628","714790","pSARL_v2","pSARL_v29sx2d3q6","6308dca0fefa374b1d697aba","freq","img/orange_2bandit_b2.png","70","70","test","1","54","54","3","",""
"null","715510","pSARL_v2","pSARL_v29sx2d3q6","6308dca0fefa374b1d697aba","freq_resp","img/orange_2bandit_b.png","70","70","test","","","","3","",""
"null","715675","pSARL_v2","pSARL_v29sx2d3q6","6308dca0fefa374b1d697aba","fixation","img/fixation.png","null","","test","","","","","",""
"109","715791","pSARL_v2","pSARL_v29sx2d3q6","6308dca0fefa374b1d697aba","freq","img/orange_2bandit_b2.png","70","70","test","1","55","55","3","",""
"null","716492","pSARL_v2","pSARL_v29sx2d3q6","6308dca0fefa374b1d697aba","freq_resp","img/orange_2bandit_b.png","70","70","test","","","","3","",""
"null","716660","pSARL_v2","pSARL_v29sx2d3q6","6308dca0fefa374b1d697aba","fixation","img/fixation.png","null","","test","","","","","",""
"84.39999997615814","716750","pSARL_v2","pSARL_v29sx2d3q6","6308dca0fefa374b1d697aba","infreq","img/green_2bandit_b2.png","70","68","test","0","56","56","3","",""
"null","717477","pSARL_v2","pSARL_v29sx2d3q6","6308dca0fefa374b1d697aba","infreq_resp","img/green_2bandit_b.png","70","68","test","","","","3","",""
"null","717650","pSARL_v2","pSARL_v29sx2d3q6","6308dca0fefa374b1d697aba","fixation","img/fixation.png","null","","test","","","","","",""
"558","718214","pSARL_v2","pSARL_v29sx2d3q6","6308dca0fefa374b1d697aba","freq","img/orange_2bandit_b2.png","70","70","test","1","57","57","3","",""
"null","718465","pSARL_v2","pSARL_v29sx2d3q6","6308dca0fefa374b1d697aba","freq_resp","img/orange_2bandit_b.png","70","70","test","","","","3","",""
"null","718636","pSARL_v2","pSARL_v29sx2d3q6","6308dca0fefa374b1d697aba","fixation","img/fixation.png","null","","test","","","","","",""
"427.3000000715256","719069","pSARL_v2","pSARL_v29sx2d3q6","6308dca0fefa374b1d697aba","freq","img/orange_2bandit_b2.png","70","70","test","1","58","58","3","",""
"null","719451","pSARL_v2","pSARL_v29sx2d3q6","6308dca0fefa374b1d697aba","freq_resp","img/orange_2bandit_b.png","70","70","test","","","","3","",""
"null","719620","pSARL_v2","pSARL_v29sx2d3q6","6308dca0fefa374b1d697aba","fixation","img/fixation.png","null","","test","","","","","",""
"412","720038","pSARL_v2","pSARL_v29sx2d3q6","6308dca0fefa374b1d697aba","freq","img/orange_2bandit_b2.png","70","70","test","1","59","59","3","",""
"null","720437","pSARL_v2","pSARL_v29sx2d3q6","6308dca0fefa374b1d697aba","freq_resp","img/orange_2bandit_b.png","70","70","test","","","","3","",""
"null","720601","pSARL_v2","pSARL_v29sx2d3q6","6308dca0fefa374b1d697aba","fixation","img/fixation.png","null","","test","","","","","",""
"270.39999997615814","720878","pSARL_v2","pSARL_v29sx2d3q6","6308dca0fefa374b1d697aba","infreq","img/green_2bandit_b2.png","70","68","test","0","60","60","3","",""
"null","721425","pSARL_v2","pSARL_v29sx2d3q6","6308dca0fefa374b1d697aba","infreq_resp","img/green_2bandit_b.png","70","68","test","","","","3","",""
"null","721586","pSARL_v2","pSARL_v29sx2d3q6","6308dca0fefa374b1d697aba","fixation","img/fixation.png","null","","test","","","","","",""
"381","721975","pSARL_v2","pSARL_v29sx2d3q6","6308dca0fefa374b1d697aba","freq","img/orange_2bandit_b2.png","70","70","test","1","61","61","3","",""
"null","722402","pSARL_v2","pSARL_v29sx2d3q6","6308dca0fefa374b1d697aba","freq_resp","img/orange_2bandit_b.png","70","70","test","","","","3","",""
"null","722572","pSARL_v2","pSARL_v29sx2d3q6","6308dca0fefa374b1d697aba","fixation","img/fixation.png","null","","test","","","","","",""
"319.39999997615814","722899","pSARL_v2","pSARL_v29sx2d3q6","6308dca0fefa374b1d697aba","freq","img/orange_2bandit_b2.png","70","70","test","1","62","62","3","",""
"null","723389","pSARL_v2","pSARL_v29sx2d3q6","6308dca0fefa374b1d697aba","freq_resp","img/orange_2bandit_b.png","70","70","test","","","","3","",""
"null","723558","pSARL_v2","pSARL_v29sx2d3q6","6308dca0fefa374b1d697aba","fixation","img/fixation.png","null","","test","","","","","",""
"585.8999999761581","724147","pSARL_v2","pSARL_v29sx2d3q6","6308dca0fefa374b1d697aba","reward","img/slot.png","74","","test","","","","","",""
"null","724916","pSARL_v2","pSARL_v29sx2d3q6","6308dca0fefa374b1d697aba","points","<div class=""verylowPoints""> -7 </div>","null","na","test","","","","3","-7","2"
"507.10000002384186","725427","pSARL_v2","pSARL_v29sx2d3q6","6308dca0fefa374b1d697aba","freq","img/orange_2bandit_b2.png","70","70","test","1","63","63","4","",""
"null","725733","pSARL_v2","pSARL_v29sx2d3q6","6308dca0fefa374b1d697aba","freq_resp","img/orange_2bandit_b.png","70","70","test","","","","4","",""
"null","725905","pSARL_v2","pSARL_v29sx2d3q6","6308dca0fefa374b1d697aba","fixation","img/fixation.png","null","","test","","","","","",""
"495.10000002384186","726406","pSARL_v2","pSARL_v29sx2d3q6","6308dca0fefa374b1d697aba","infreq","img/green_2bandit_b2.png","68","68","test","1","64","64","4","",""
"null","726719","pSARL_v2","pSARL_v29sx2d3q6","6308dca0fefa374b1d697aba","infreq_resp","img/green_2bandit_b.png","68","68","test","","","","4","",""
"null","726890","pSARL_v2","pSARL_v29sx2d3q6","6308dca0fefa374b1d697aba","fixation","img/fixation.png","null","","test","","","","","",""
"286.10000002384186","727182","pSARL_v2","pSARL_v29sx2d3q6","6308dca0fefa374b1d697aba","freq","img/orange_2bandit_b2.png","70","70","test","1","65","65","4","",""
"null","727707","pSARL_v2","pSARL_v29sx2d3q6","6308dca0fefa374b1d697aba","freq_resp","img/orange_2bandit_b.png","70","70","test","","","","4","",""
"null","727876","pSARL_v2","pSARL_v29sx2d3q6","6308dca0fefa374b1d697aba","fixation","img/fixation.png","null","","test","","","","","",""
"511.8000000715256","728395","pSARL_v2","pSARL_v29sx2d3q6","6308dca0fefa374b1d697aba","freq","img/orange_2bandit_b2.png","70","70","test","1","66","66","4","",""
"null","728691","pSARL_v2","pSARL_v29sx2d3q6","6308dca0fefa374b1d697aba","freq_resp","img/orange_2bandit_b.png","70","70","test","","","","4","",""
"null","728857","pSARL_v2","pSARL_v29sx2d3q6","6308dca0fefa374b1d697aba","fixation","img/fixation.png","null","","test","","","","","",""
"322.10000002384186","729185","pSARL_v2","pSARL_v29sx2d3q6","6308dca0fefa374b1d697aba","freq","img/orange_2bandit_b2.png","70","70","test","1","67","67","4","",""
"null","729678","pSARL_v2","pSARL_v29sx2d3q6","6308dca0fefa374b1d697aba","freq_resp","img/orange_2bandit_b.png","70","70","test","","","","4","",""
"null","729848","pSARL_v2","pSARL_v29sx2d3q6","6308dca0fefa374b1d697aba","fixation","img/fixation.png","null","","test","","","","","",""
"395.8000000715256","730251","pSARL_v2","pSARL_v29sx2d3q6","6308dca0fefa374b1d697aba","infreq","img/green_2bandit_b2.png","68","68","test","1","68","68","4","",""
"null","730663","pSARL_v2","pSARL_v29sx2d3q6","6308dca0fefa374b1d697aba","infreq_resp","img/green_2bandit_b.png","68","68","test","","","","4","",""
"null","730831","pSARL_v2","pSARL_v29sx2d3q6","6308dca0fefa374b1d697aba","fixation","img/fixation.png","null","","test","","","","","",""
"368.59999990463257","731206","pSARL_v2","pSARL_v29sx2d3q6","6308dca0fefa374b1d697aba","freq","img/orange_2bandit_b2.png","70","70","test","1","69","69","4","",""
"null","731651","pSARL_v2","pSARL_v29sx2d3q6","6308dca0fefa374b1d697aba","freq_resp","img/orange_2bandit_b.png","70","70","test","","","","4","",""
"null","731821","pSARL_v2","pSARL_v29sx2d3q6","6308dca0fefa374b1d697aba","fixation","img/fixation.png","null","","test","","","","","",""
"317.39999997615814","732145","pSARL_v2","pSARL_v29sx2d3q6","6308dca0fefa374b1d697aba","freq","img/orange_2bandit_b2.png","70","70","test","1","70","70","4","",""
"null","732637","pSARL_v2","pSARL_v29sx2d3q6","6308dca0fefa374b1d697aba","freq_resp","img/orange_2bandit_b.png","70","70","test","","","","4","",""
"null","732807","pSARL_v2","pSARL_v29sx2d3q6","6308dca0fefa374b1d697aba","fixation","img/fixation.png","null","","test","","","","","",""
"313","733126","pSARL_v2","pSARL_v29sx2d3q6","6308dca0fefa374b1d697aba","freq","img/orange_2bandit_b2.png","70","70","test","1","71","71","4","",""
"null","733625","pSARL_v2","pSARL_v29sx2d3q6","6308dca0fefa374b1d697aba","freq_resp","img/orange_2bandit_b.png","70","70","test","","","","4","",""
"null","733792","pSARL_v2","pSARL_v29sx2d3q6","6308dca0fefa374b1d697aba","fixation","img/fixation.png","null","","test","","","","","",""
"331.39999997615814","734128","pSARL_v2","pSARL_v29sx2d3q6","6308dca0fefa374b1d697aba","freq","img/orange_2bandit_b2.png","70","70","test","1","72","72","4","",""
"null","734611","pSARL_v2","pSARL_v29sx2d3q6","6308dca0fefa374b1d697aba","freq_resp","img/orange_2bandit_b.png","70","70","test","","","","4","",""
"null","734783","pSARL_v2","pSARL_v29sx2d3q6","6308dca0fefa374b1d697aba","fixation","img/fixation.png","null","","test","","","","","",""
"380.39999997615814","735170","pSARL_v2","pSARL_v29sx2d3q6","6308dca0fefa374b1d697aba","freq","img/orange_2bandit_b2.png","70","70","test","1","73","73","4","",""
"null","735598","pSARL_v2","pSARL_v29sx2d3q6","6308dca0fefa374b1d697aba","freq_resp","img/orange_2bandit_b.png","70","70","test","","","","4","",""
"null","735763","pSARL_v2","pSARL_v29sx2d3q6","6308dca0fefa374b1d697aba","fixation","img/fixation.png","null","","test","","","","","",""
"319.89999997615814","736090","pSARL_v2","pSARL_v29sx2d3q6","6308dca0fefa374b1d697aba","freq","img/orange_2bandit_b2.png","70","70","test","1","74","74","4","",""
"null","736584","pSARL_v2","pSARL_v29sx2d3q6","6308dca0fefa374b1d697aba","freq_resp","img/orange_2bandit_b.png","70","70","test","","","","4","",""
"null","736746","pSARL_v2","pSARL_v29sx2d3q6","6308dca0fefa374b1d697aba","fixation","img/fixation.png","null","","test","","","","","",""
"297.2999999523163","737049","pSARL_v2","pSARL_v29sx2d3q6","6308dca0fefa374b1d697aba","freq","img/orange_2bandit_b2.png","70","70","test","1","75","75","4","",""
"null","737564","pSARL_v2","pSARL_v29sx2d3q6","6308dca0fefa374b1d697aba","freq_resp","img/orange_2bandit_b.png","70","70","test","","","","4","",""
"null","737733","pSARL_v2","pSARL_v29sx2d3q6","6308dca0fefa374b1d697aba","fixation","img/fixation.png","null","","test","","","","","",""
"286.5","738024","pSARL_v2","pSARL_v29sx2d3q6","6308dca0fefa374b1d697aba","freq","img/orange_2bandit_b2.png","70","70","test","1","76","76","4","",""
"null","738549","pSARL_v2","pSARL_v29sx2d3q6","6308dca0fefa374b1d697aba","freq_resp","img/orange_2bandit_b.png","70","70","test","","","","4","",""
"null","738719","pSARL_v2","pSARL_v29sx2d3q6","6308dca0fefa374b1d697aba","fixation","img/fixation.png","null","","test","","","","","",""
"284.39999997615814","739009","pSARL_v2","pSARL_v29sx2d3q6","6308dca0fefa374b1d697aba","freq","img/orange_2bandit_b2.png","70","70","test","1","77","77","4","",""
"null","739537","pSARL_v2","pSARL_v29sx2d3q6","6308dca0fefa374b1d697aba","freq_resp","img/orange_2bandit_b.png","70","70","test","","","","4","",""
"null","739708","pSARL_v2","pSARL_v29sx2d3q6","6308dca0fefa374b1d697aba","fixation","img/fixation.png","null","","test","","","","","",""
"304.10000002384186","740017","pSARL_v2","pSARL_v29sx2d3q6","6308dca0fefa374b1d697aba","freq","img/orange_2bandit_b2.png","70","70","test","1","78","78","4","",""
"null","740522","pSARL_v2","pSARL_v29sx2d3q6","6308dca0fefa374b1d697aba","freq_resp","img/orange_2bandit_b.png","70","70","test","","","","4","",""
"null","740693","pSARL_v2","pSARL_v29sx2d3q6","6308dca0fefa374b1d697aba","fixation","img/fixation.png","null","","test","","","","","",""
"342.2999999523163","741041","pSARL_v2","pSARL_v29sx2d3q6","6308dca0fefa374b1d697aba","freq","img/orange_2bandit_b2.png","70","70","test","1","79","79","4","",""
"null","741510","pSARL_v2","pSARL_v29sx2d3q6","6308dca0fefa374b1d697aba","freq_resp","img/orange_2bandit_b.png","70","70","test","","","","4","",""
"null","741673","pSARL_v2","pSARL_v29sx2d3q6","6308dca0fefa374b1d697aba","fixation","img/fixation.png","null","","test","","","","","",""
"314.10000002384186","741994","pSARL_v2","pSARL_v29sx2d3q6","6308dca0fefa374b1d697aba","freq","img/orange_2bandit_b2.png","70","70","test","1","80","80","4","",""
"null","742496","pSARL_v2","pSARL_v29sx2d3q6","6308dca0fefa374b1d697aba","freq_resp","img/orange_2bandit_b.png","70","70","test","","","","4","",""
"null","742661","pSARL_v2","pSARL_v29sx2d3q6","6308dca0fefa374b1d697aba","fixation","img/fixation.png","null","","test","","","","","",""
"421.40000009536743","743089","pSARL_v2","pSARL_v29sx2d3q6","6308dca0fefa374b1d697aba","freq","img/orange_2bandit_b2.png","70","70","test","1","81","81","4","",""
"null","743477","pSARL_v2","pSARL_v29sx2d3q6","6308dca0fefa374b1d697aba","freq_resp","img/orange_2bandit_b.png","70","70","test","","","","4","",""
"null","743646","pSARL_v2","pSARL_v29sx2d3q6","6308dca0fefa374b1d697aba","fixation","img/fixation.png","null","","test","","","","","",""
"317.60000002384186","743971","pSARL_v2","pSARL_v29sx2d3q6","6308dca0fefa374b1d697aba","freq","img/orange_2bandit_b2.png","70","70","test","1","82","82","4","",""
"null","744463","pSARL_v2","pSARL_v29sx2d3q6","6308dca0fefa374b1d697aba","freq_resp","img/orange_2bandit_b.png","70","70","test","","","","4","",""
"null","744631","pSARL_v2","pSARL_v29sx2d3q6","6308dca0fefa374b1d697aba","fixation","img/fixation.png","null","","test","","","","","",""
"277.10000002384186","744913","pSARL_v2","pSARL_v29sx2d3q6","6308dca0fefa374b1d697aba","freq","img/orange_2bandit_b2.png","70","70","test","1","83","83","4","",""
"null","745447","pSARL_v2","pSARL_v29sx2d3q6","6308dca0fefa374b1d697aba","freq_resp","img/orange_2bandit_b.png","70","70","test","","","","4","",""
"null","745618","pSARL_v2","pSARL_v29sx2d3q6","6308dca0fefa374b1d697aba","fixation","img/fixation.png","null","","test","","","","","",""
"561","746186","pSARL_v2","pSARL_v29sx2d3q6","6308dca0fefa374b1d697aba","reward","img/slot.png","74","","test","","","","","",""
"null","746955","pSARL_v2","pSARL_v29sx2d3q6","6308dca0fefa374b1d697aba","points","<div class=""verylowPoints""> -3 </div>","null","na","test","","","","4","-3","3"
"353.3000000715256","747314","pSARL_v2","pSARL_v29sx2d3q6","6308dca0fefa374b1d697aba","freq","img/orange_2bandit_b2.png","70","70","test","1","84","84","5","",""
"null","747772","pSARL_v2","pSARL_v29sx2d3q6","6308dca0fefa374b1d697aba","freq_resp","img/orange_2bandit_b.png","70","70","test","","","","5","",""
"null","747942","pSARL_v2","pSARL_v29sx2d3q6","6308dca0fefa374b1d697aba","fixation","img/fixation.png","null","","test","","","","","",""
"229.5","748178","pSARL_v2","pSARL_v29sx2d3q6","6308dca0fefa374b1d697aba","freq","img/orange_2bandit_b2.png","70","70","test","1","85","85","5","",""
"null","748759","pSARL_v2","pSARL_v29sx2d3q6","6308dca0fefa374b1d697aba","freq_resp","img/orange_2bandit_b.png","70","70","test","","","","5","",""
"null","748930","pSARL_v2","pSARL_v29sx2d3q6","6308dca0fefa374b1d697aba","fixation","img/fixation.png","null","","test","","","","","",""
"72.89999997615814","749012","pSARL_v2","pSARL_v29sx2d3q6","6308dca0fefa374b1d697aba","freq","img/orange_2bandit_b2.png","70","70","test","1","86","86","5","",""
"null","749746","pSARL_v2","pSARL_v29sx2d3q6","6308dca0fefa374b1d697aba","freq_resp","img/orange_2bandit_b.png","70","70","test","","","","5","",""
"null","749906","pSARL_v2","pSARL_v29sx2d3q6","6308dca0fefa374b1d697aba","fixation","img/fixation.png","null","","test","","","","","",""
"121.70000004768372","750034","pSARL_v2","pSARL_v29sx2d3q6","6308dca0fefa374b1d697aba","freq","img/orange_2bandit_b2.png","70","70","test","1","87","87","5","",""
"null","750732","pSARL_v2","pSARL_v29sx2d3q6","6308dca0fefa374b1d697aba","freq_resp","img/orange_2bandit_b.png","70","70","test","","","","5","",""
"null","750897","pSARL_v2","pSARL_v29sx2d3q6","6308dca0fefa374b1d697aba","fixation","img/fixation.png","null","","test","","","","","",""
"41.700000047683716","750946","pSARL_v2","pSARL_v29sx2d3q6","6308dca0fefa374b1d697aba","freq","img/orange_2bandit_b2.png","70","70","test","1","88","88","5","",""
"null","751711","pSARL_v2","pSARL_v29sx2d3q6","6308dca0fefa374b1d697aba","freq_resp","img/orange_2bandit_b.png","70","70","test","","","","5","",""
"null","751866","pSARL_v2","pSARL_v29sx2d3q6","6308dca0fefa374b1d697aba","fixation","img/fixation.png","null","","test","","","","","",""
"17.300000071525574","751887","pSARL_v2","pSARL_v29sx2d3q6","6308dca0fefa374b1d697aba","freq","img/orange_2bandit_b2.png","70","70","test","1","89","89","5","",""
"null","752681","pSARL_v2","pSARL_v29sx2d3q6","6308dca0fefa374b1d697aba","freq_resp","img/orange_2bandit_b.png","70","70","test","","","","5","",""
"null","752852","pSARL_v2","pSARL_v29sx2d3q6","6308dca0fefa374b1d697aba","fixation","img/fixation.png","null","","test","","","","","",""
"null","753669","pSARL_v2","pSARL_v29sx2d3q6","6308dca0fefa374b1d697aba","freq","img/orange_2bandit_b2.png","null","70","test","0","90","90","5","",""
"null","753841","pSARL_v2","pSARL_v29sx2d3q6","6308dca0fefa374b1d697aba","fixation","img/fixation.png","null","","test","","","","","",""
"null","754655","pSARL_v2","pSARL_v29sx2d3q6","6308dca0fefa374b1d697aba","freq","img/orange_2bandit_b2.png","null","70","test","0","91","91","5","",""
"null","754818","pSARL_v2","pSARL_v29sx2d3q6","6308dca0fefa374b1d697aba","fixation","img/fixation.png","null","","test","","","","","",""
"274","755098","pSARL_v2","pSARL_v29sx2d3q6","6308dca0fefa374b1d697aba","freq","img/orange_2bandit_b2.png","70","70","test","1","92","92","5","",""
"null","755641","pSARL_v2","pSARL_v29sx2d3q6","6308dca0fefa374b1d697aba","freq_resp","img/orange_2bandit_b.png","70","70","test","","","","5","",""
"null","755807","pSARL_v2","pSARL_v29sx2d3q6","6308dca0fefa374b1d697aba","fixation","img/fixation.png","null","","test","","","","","",""
"187.39999997615814","755999","pSARL_v2","pSARL_v29sx2d3q6","6308dca0fefa374b1d697aba","freq","img/orange_2bandit_b2.png","70","70","test","1","93","93","5","",""
"null","756639","pSARL_v2","pSARL_v29sx2d3q6","6308dca0fefa374b1d697aba","freq_resp","img/orange_2bandit_b.png","70","70","test","","","","5","",""
"null","756802","pSARL_v2","pSARL_v29sx2d3q6","6308dca0fefa374b1d697aba","fixation","img/fixation.png","null","","test","","","","","",""
"113.70000004768372","756923","pSARL_v2","pSARL_v29sx2d3q6","6308dca0fefa374b1d697aba","freq","img/orange_2bandit_b2.png","70","70","test","1","94","94","5","",""
"null","757619","pSARL_v2","pSARL_v29sx2d3q6","6308dca0fefa374b1d697aba","freq_resp","img/orange_2bandit_b.png","70","70","test","","","","5","",""
"null","757790","pSARL_v2","pSARL_v29sx2d3q6","6308dca0fefa374b1d697aba","fixation","img/fixation.png","null","","test","","","","","",""
"76.10000002384186","757871","pSARL_v2","pSARL_v29sx2d3q6","6308dca0fefa374b1d697aba","freq","img/orange_2bandit_b2.png","70","70","test","1","95","95","5","",""
"null","758605","pSARL_v2","pSARL_v29sx2d3q6","6308dca0fefa374b1d697aba","freq_resp","img/orange_2bandit_b.png","70","70","test","","","","5","",""
"null","758774","pSARL_v2","pSARL_v29sx2d3q6","6308dca0fefa374b1d697aba","fixation","img/fixation.png","null","","test","","","","","",""
"77","758858","pSARL_v2","pSARL_v29sx2d3q6","6308dca0fefa374b1d697aba","freq","img/orange_2bandit_b2.png","70","70","test","1","96","96","5","",""
"null","759591","pSARL_v2","pSARL_v29sx2d3q6","6308dca0fefa374b1d697aba","freq_resp","img/orange_2bandit_b.png","70","70","test","","","","5","",""
"null","759759","pSARL_v2","pSARL_v29sx2d3q6","6308dca0fefa374b1d697aba","fixation","img/fixation.png","null","","test","","","","","",""
"304.5","760070","pSARL_v2","pSARL_v29sx2d3q6","6308dca0fefa374b1d697aba","freq","img/orange_2bandit_b2.png","70","70","test","1","97","97","5","",""
"null","760577","pSARL_v2","pSARL_v29sx2d3q6","6308dca0fefa374b1d697aba","freq_resp","img/orange_2bandit_b.png","70","70","test","","","","5","",""
"null","760749","pSARL_v2","pSARL_v29sx2d3q6","6308dca0fefa374b1d697aba","fixation","img/fixation.png","null","","test","","","","","",""
"226.79999995231628","760982","pSARL_v2","pSARL_v29sx2d3q6","6308dca0fefa374b1d697aba","freq","img/orange_2bandit_b2.png","70","70","test","1","98","98","5","",""
"null","761566","pSARL_v2","pSARL_v29sx2d3q6","6308dca0fefa374b1d697aba","freq_resp","img/orange_2bandit_b.png","70","70","test","","","","5","",""
"null","761728","pSARL_v2","pSARL_v29sx2d3q6","6308dca0fefa374b1d697aba","fixation","img/fixation.png","null","","test","","","","","",""
"163.39999997615814","761897","pSARL_v2","pSARL_v29sx2d3q6","6308dca0fefa374b1d697aba","freq","img/orange_2bandit_b2.png","70","70","test","1","99","99","5","",""
"null","762551","pSARL_v2","pSARL_v29sx2d3q6","6308dca0fefa374b1d697aba","freq_resp","img/orange_2bandit_b.png","70","70","test","","","","5","",""
"null","762715","pSARL_v2","pSARL_v29sx2d3q6","6308dca0fefa374b1d697aba","fixation","img/fixation.png","null","","test","","","","","",""
"90.89999997615814","762812","pSARL_v2","pSARL_v29sx2d3q6","6308dca0fefa374b1d697aba","infreq","img/green_2bandit_b2.png","70","68","test","0","100","100","5","",""
"null","763530","pSARL_v2","pSARL_v29sx2d3q6","6308dca0fefa374b1d697aba","infreq_resp","img/green_2bandit_b.png","70","68","test","","","","5","",""
"null","763696","pSARL_v2","pSARL_v29sx2d3q6","6308dca0fefa374b1d697aba","fixation","img/fixation.png","null","","test","","","","","",""
"607.5","764310","pSARL_v2","pSARL_v29sx2d3q6","6308dca0fefa374b1d697aba","infreq","img/green_2bandit_b2.png","68","68","test","1","101","101","5","",""
"null","764515","pSARL_v2","pSARL_v29sx2d3q6","6308dca0fefa374b1d697aba","infreq_resp","img/green_2bandit_b.png","68","68","test","","","","5","",""
"null","764682","pSARL_v2","pSARL_v29sx2d3q6","6308dca0fefa374b1d697aba","fixation","img/fixation.png","null","","test","","","","","",""
"501.7000000476837","765190","pSARL_v2","pSARL_v29sx2d3q6","6308dca0fefa374b1d697aba","freq","img/orange_2bandit_b2.png","70","70","test","1","102","102","5","",""
"null","765501","pSARL_v2","pSARL_v29sx2d3q6","6308dca0fefa374b1d697aba","freq_resp","img/orange_2bandit_b.png","70","70","test","","","","5","",""
"null","765670","pSARL_v2","pSARL_v29sx2d3q6","6308dca0fefa374b1d697aba","fixation","img/fixation.png","null","","test","","","","","",""
"481.5","766158","pSARL_v2","pSARL_v29sx2d3q6","6308dca0fefa374b1d697aba","infreq","img/green_2bandit_b2.png","68","68","test","1","103","103","5","",""
"null","766484","pSARL_v2","pSARL_v29sx2d3q6","6308dca0fefa374b1d697aba","infreq_resp","img/green_2bandit_b.png","68","68","test","","","","5","",""
"null","766654","pSARL_v2","pSARL_v29sx2d3q6","6308dca0fefa374b1d697aba","fixation","img/fixation.png","null","","test","","","","","",""
"361.5","767022","pSARL_v2","pSARL_v29sx2d3q6","6308dca0fefa374b1d697aba","freq","img/orange_2bandit_b2.png","70","70","test","1","104","104","5","",""
"null","767481","pSARL_v2","pSARL_v29sx2d3q6","6308dca0fefa374b1d697aba","freq_resp","img/orange_2bandit_b.png","70","70","test","","","","5","",""
"null","767650","pSARL_v2","pSARL_v29sx2d3q6","6308dca0fefa374b1d697aba","fixation","img/fixation.png","null","","test","","","","","",""
"421.2999999523163","768078","pSARL_v2","pSARL_v29sx2d3q6","6308dca0fefa374b1d697aba","freq","img/orange_2bandit_b2.png","70","70","test","1","105","105","5","",""
"null","768468","pSARL_v2","pSARL_v29sx2d3q6","6308dca0fefa374b1d697aba","freq_resp","img/orange_2bandit_b.png","70","70","test","","","","5","",""
"null","768639","pSARL_v2","pSARL_v29sx2d3q6","6308dca0fefa374b1d697aba","fixation","img/fixation.png","null","","test","","","","","",""
"368","769013","pSARL_v2","pSARL_v29sx2d3q6","6308dca0fefa374b1d697aba","freq","img/orange_2bandit_b2.png","70","70","test","1","106","106","5","",""
"null","769455","pSARL_v2","pSARL_v29sx2d3q6","6308dca0fefa374b1d697aba","freq_resp","img/orange_2bandit_b.png","70","70","test","","","","5","",""
"null","769625","pSARL_v2","pSARL_v29sx2d3q6","6308dca0fefa374b1d697aba","fixation","img/fixation.png","null","","test","","","","","",""
"1110.8000000715256","770742","pSARL_v2","pSARL_v29sx2d3q6","6308dca0fefa374b1d697aba","reward","img/slot.png","74","","test","","","","","",""
"null","771506","pSARL_v2","pSARL_v29sx2d3q6","6308dca0fefa374b1d697aba","points","<div class=""veryhighPoints""> +1 </div>","null","na","test","","","","5","1","4"
"542.4000000953674","772054","pSARL_v2","pSARL_v29sx2d3q6","6308dca0fefa374b1d697aba","freq","img/orange_2bandit_b2.png","70","70","test","1","107","107","6","",""
"null","772328","pSARL_v2","pSARL_v29sx2d3q6","6308dca0fefa374b1d697aba","freq_resp","img/orange_2bandit_b.png","70","70","test","","","","6","",""
"null","772489","pSARL_v2","pSARL_v29sx2d3q6","6308dca0fefa374b1d697aba","fixation","img/fixation.png","null","","test","","","","","",""
"302.7999999523163","772798","pSARL_v2","pSARL_v29sx2d3q6","6308dca0fefa374b1d697aba","freq","img/orange_2bandit_b2.png","70","70","test","1","108","108","6","",""
"null","773309","pSARL_v2","pSARL_v29sx2d3q6","6308dca0fefa374b1d697aba","freq_resp","img/orange_2bandit_b.png","70","70","test","","","","6","",""
"null","773479","pSARL_v2","pSARL_v29sx2d3q6","6308dca0fefa374b1d697aba","fixation","img/fixation.png","null","","test","","","","","",""
"271.7000000476837","773758","pSARL_v2","pSARL_v29sx2d3q6","6308dca0fefa374b1d697aba","freq","img/orange_2bandit_b2.png","70","70","test","1","109","109","6","",""
"null","774293","pSARL_v2","pSARL_v29sx2d3q6","6308dca0fefa374b1d697aba","freq_resp","img/orange_2bandit_b.png","70","70","test","","","","6","",""
"null","774462","pSARL_v2","pSARL_v29sx2d3q6","6308dca0fefa374b1d697aba","fixation","img/fixation.png","null","","test","","","","","",""
"169.60000002384186","774639","pSARL_v2","pSARL_v29sx2d3q6","6308dca0fefa374b1d697aba","freq","img/orange_2bandit_b2.png","70","70","test","1","110","110","6","",""
"null","775281","pSARL_v2","pSARL_v29sx2d3q6","6308dca0fefa374b1d697aba","freq_resp","img/orange_2bandit_b.png","70","70","test","","","","6","",""
"null","775452","pSARL_v2","pSARL_v29sx2d3q6","6308dca0fefa374b1d697aba","fixation","img/fixation.png","null","","test","","","","","",""
"235.60000002384186","775694","pSARL_v2","pSARL_v29sx2d3q6","6308dca0fefa374b1d697aba","freq","img/orange_2bandit_b2.png","70","70","test","1","111","111","6","",""
"null","776266","pSARL_v2","pSARL_v29sx2d3q6","6308dca0fefa374b1d697aba","freq_resp","img/orange_2bandit_b.png","70","70","test","","","","6","",""
"null","776432","pSARL_v2","pSARL_v29sx2d3q6","6308dca0fefa374b1d697aba","fixation","img/fixation.png","null","","test","","","","","",""
"247","776682","pSARL_v2","pSARL_v29sx2d3q6","6308dca0fefa374b1d697aba","freq","img/orange_2bandit_b2.png","70","70","test","1","112","112","6","",""
"null","777253","pSARL_v2","pSARL_v29sx2d3q6","6308dca0fefa374b1d697aba","freq_resp","img/orange_2bandit_b.png","70","70","test","","","","6","",""
"null","777417","pSARL_v2","pSARL_v29sx2d3q6","6308dca0fefa374b1d697aba","fixation","img/fixation.png","null","","test","","","","","",""
"149","777570","pSARL_v2","pSARL_v29sx2d3q6","6308dca0fefa374b1d697aba","freq","img/orange_2bandit_b2.png","70","70","test","1","113","113","6","",""
"null","778240","pSARL_v2","pSARL_v29sx2d3q6","6308dca0fefa374b1d697aba","freq_resp","img/orange_2bandit_b.png","70","70","test","","","","6","",""
"null","778402","pSARL_v2","pSARL_v29sx2d3q6","6308dca0fefa374b1d697aba","fixation","img/fixation.png","null","","test","","","","","",""
"164.60000002384186","778574","pSARL_v2","pSARL_v29sx2d3q6","6308dca0fefa374b1d697aba","freq","img/orange_2bandit_b2.png","70","70","test","1","114","114","6","",""
"null","779217","pSARL_v2","pSARL_v29sx2d3q6","6308dca0fefa374b1d697aba","freq_resp","img/orange_2bandit_b.png","70","70","test","","","","6","",""
"null","779391","pSARL_v2","pSARL_v29sx2d3q6","6308dca0fefa374b1d697aba","fixation","img/fixation.png","null","","test","","","","","",""
"80.10000002384186","779480","pSARL_v2","pSARL_v29sx2d3q6","6308dca0fefa374b1d697aba","freq","img/orange_2bandit_b2.png","70","70","test","1","115","115","6","",""
"null","780205","pSARL_v2","pSARL_v29sx2d3q6","6308dca0fefa374b1d697aba","freq_resp","img/orange_2bandit_b.png","70","70","test","","","","6","",""
"null","780377","pSARL_v2","pSARL_v29sx2d3q6","6308dca0fefa374b1d697aba","fixation","img/fixation.png","null","","test","","","","","",""
"53.60000002384186","780439","pSARL_v2","pSARL_v29sx2d3q6","6308dca0fefa374b1d697aba","infreq","img/green_2bandit_b2.png","70","68","test","0","116","116","6","",""
"null","781206","pSARL_v2","pSARL_v29sx2d3q6","6308dca0fefa374b1d697aba","infreq_resp","img/green_2bandit_b.png","70","68","test","","","","6","",""
"null","781379","pSARL_v2","pSARL_v29sx2d3q6","6308dca0fefa374b1d697aba","fixation","img/fixation.png","null","","test","","","","","",""
"340.5","781726","pSARL_v2","pSARL_v29sx2d3q6","6308dca0fefa374b1d697aba","freq","img/orange_2bandit_b2.png","70","70","test","1","117","117","6","",""
"null","782194","pSARL_v2","pSARL_v29sx2d3q6","6308dca0fefa374b1d697aba","freq_resp","img/orange_2bandit_b.png","70","70","test","","","","6","",""
"null","782365","pSARL_v2","pSARL_v29sx2d3q6","6308dca0fefa374b1d697aba","fixation","img/fixation.png","null","","test","","","","","",""
"402.09999990463257","782774","pSARL_v2","pSARL_v29sx2d3q6","6308dca0fefa374b1d697aba","infreq","img/green_2bandit_b2.png","68","68","test","1","118","118","6","",""
"null","783180","pSARL_v2","pSARL_v29sx2d3q6","6308dca0fefa374b1d697aba","infreq_resp","img/green_2bandit_b.png","68","68","test","","","","6","",""
"null","783350","pSARL_v2","pSARL_v29sx2d3q6","6308dca0fefa374b1d697aba","fixation","img/fixation.png","null","","test","","","","","",""
"249.29999995231628","783606","pSARL_v2","pSARL_v29sx2d3q6","6308dca0fefa374b1d697aba","freq","img/orange_2bandit_b2.png","70","70","test","1","119","119","6","",""
"null","784169","pSARL_v2","pSARL_v29sx2d3q6","6308dca0fefa374b1d697aba","freq_resp","img/orange_2bandit_b.png","70","70","test","","","","6","",""
"null","784333","pSARL_v2","pSARL_v29sx2d3q6","6308dca0fefa374b1d697aba","fixation","img/fixation.png","null","","test","","","","","",""
"369.89999997615814","784709","pSARL_v2","pSARL_v29sx2d3q6","6308dca0fefa374b1d697aba","freq","img/orange_2bandit_b2.png","70","70","test","1","120","120","6","",""
"null","785154","pSARL_v2","pSARL_v29sx2d3q6","6308dca0fefa374b1d697aba","freq_resp","img/orange_2bandit_b.png","70","70","test","","","","6","",""
"null","785316","pSARL_v2","pSARL_v29sx2d3q6","6308dca0fefa374b1d697aba","fixation","img/fixation.png","null","","test","","","","","",""
"308.2000000476837","785630","pSARL_v2","pSARL_v29sx2d3q6","6308dca0fefa374b1d697aba","freq","img/orange_2bandit_b2.png","70","70","test","1","121","121","6","",""
"null","786136","pSARL_v2","pSARL_v29sx2d3q6","6308dca0fefa374b1d697aba","freq_resp","img/orange_2bandit_b.png","70","70","test","","","","6","",""
"null","786304","pSARL_v2","pSARL_v29sx2d3q6","6308dca0fefa374b1d697aba","fixation","img/fixation.png","null","","test","","","","","",""
"295.6999999284744","786607","pSARL_v2","pSARL_v29sx2d3q6","6308dca0fefa374b1d697aba","freq","img/orange_2bandit_b2.png","70","70","test","1","122","122","6","",""
"null","787122","pSARL_v2","pSARL_v29sx2d3q6","6308dca0fefa374b1d697aba","freq_resp","img/orange_2bandit_b.png","70","70","test","","","","6","",""
"null","787291","pSARL_v2","pSARL_v29sx2d3q6","6308dca0fefa374b1d697aba","fixation","img/fixation.png","null","","test","","","","","",""
"291.7999999523163","787587","pSARL_v2","pSARL_v29sx2d3q6","6308dca0fefa374b1d697aba","freq","img/orange_2bandit_b2.png","70","70","test","1","123","123","6","",""
"null","788106","pSARL_v2","pSARL_v29sx2d3q6","6308dca0fefa374b1d697aba","freq_resp","img/orange_2bandit_b.png","70","70","test","","","","6","",""
"null","788276","pSARL_v2","pSARL_v29sx2d3q6","6308dca0fefa374b1d697aba","fixation","img/fixation.png","null","","test","","","","","",""
"315.10000002384186","788597","pSARL_v2","pSARL_v29sx2d3q6","6308dca0fefa374b1d697aba","freq","img/orange_2bandit_b2.png","70","70","test","1","124","124","6","",""
"null","789092","pSARL_v2","pSARL_v29sx2d3q6","6308dca0fefa374b1d697aba","freq_resp","img/orange_2bandit_b.png","70","70","test","","","","6","",""
"null","789259","pSARL_v2","pSARL_v29sx2d3q6","6308dca0fefa374b1d697aba","fixation","img/fixation.png","null","","test","","","","","",""
"292.10000002384186","789558","pSARL_v2","pSARL_v29sx2d3q6","6308dca0fefa374b1d697aba","freq","img/orange_2bandit_b2.png","70","70","test","1","125","125","6","",""
"null","790078","pSARL_v2","pSARL_v29sx2d3q6","6308dca0fefa374b1d697aba","freq_resp","img/orange_2bandit_b.png","70","70","test","","","","6","",""
"null","790240","pSARL_v2","pSARL_v29sx2d3q6","6308dca0fefa374b1d697aba","fixation","img/fixation.png","null","","test","","","","","",""
"304.10000002384186","790550","pSARL_v2","pSARL_v29sx2d3q6","6308dca0fefa374b1d697aba","freq","img/orange_2bandit_b2.png","70","70","test","1","126","126","6","",""
"null","791063","pSARL_v2","pSARL_v29sx2d3q6","6308dca0fefa374b1d697aba","freq_resp","img/orange_2bandit_b.png","70","70","test","","","","6","",""
"null","791225","pSARL_v2","pSARL_v29sx2d3q6","6308dca0fefa374b1d697aba","fixation","img/fixation.png","null","","test","","","","","",""
"242.70000004768372","791474","pSARL_v2","pSARL_v29sx2d3q6","6308dca0fefa374b1d697aba","freq","img/orange_2bandit_b2.png","70","70","test","1","127","127","6","",""
"null","792040","pSARL_v2","pSARL_v29sx2d3q6","6308dca0fefa374b1d697aba","freq_resp","img/orange_2bandit_b.png","70","70","test","","","","6","",""
"null","792210","pSARL_v2","pSARL_v29sx2d3q6","6308dca0fefa374b1d697aba","fixation","img/fixation.png","null","","test","","","","","",""
"289.7000000476837","792506","pSARL_v2","pSARL_v29sx2d3q6","6308dca0fefa374b1d697aba","freq","img/orange_2bandit_b2.png","70","70","test","1","128","128","6","",""
"null","793028","pSARL_v2","pSARL_v29sx2d3q6","6308dca0fefa374b1d697aba","freq_resp","img/orange_2bandit_b.png","70","70","test","","","","6","",""
"null","793195","pSARL_v2","pSARL_v29sx2d3q6","6308dca0fefa374b1d697aba","fixation","img/fixation.png","null","","test","","","","","",""
"264","793466","pSARL_v2","pSARL_v29sx2d3q6","6308dca0fefa374b1d697aba","freq","img/orange_2bandit_b2.png","70","70","test","1","129","129","6","",""
"null","794013","pSARL_v2","pSARL_v29sx2d3q6","6308dca0fefa374b1d697aba","freq_resp","img/orange_2bandit_b.png","70","70","test","","","","6","",""
"null","794181","pSARL_v2","pSARL_v29sx2d3q6","6308dca0fefa374b1d697aba","fixation","img/fixation.png","null","","test","","","","","",""
"558.3999999761581","794746","pSARL_v2","pSARL_v29sx2d3q6","6308dca0fefa374b1d697aba","reward","img/slot.png","74","","test","","","","","",""
"null","795514","pSARL_v2","pSARL_v29sx2d3q6","6308dca0fefa374b1d697aba","points","<div class=""verylowPoints""> -7 </div>","null","na","test","","","","6","-7","5"
"313.8000000715256","795834","pSARL_v2","pSARL_v29sx2d3q6","6308dca0fefa374b1d697aba","freq","img/orange_2bandit_b2.png","70","70","test","1","130","130","7","",""
"null","796330","pSARL_v2","pSARL_v29sx2d3q6","6308dca0fefa374b1d697aba","freq_resp","img/orange_2bandit_b.png","70","70","test","","","","7","",""
"null","796499","pSARL_v2","pSARL_v29sx2d3q6","6308dca0fefa374b1d697aba","fixation","img/fixation.png","null","","test","","","","","",""
"79.80000007152557","796585","pSARL_v2","pSARL_v29sx2d3q6","6308dca0fefa374b1d697aba","freq","img/orange_2bandit_b2.png","70","70","test","1","131","131","7","",""
"null","797315","pSARL_v2","pSARL_v29sx2d3q6","6308dca0fefa374b1d697aba","freq_resp","img/orange_2bandit_b.png","70","70","test","","","","7","",""
"null","797484","pSARL_v2","pSARL_v29sx2d3q6","6308dca0fefa374b1d697aba","fixation","img/fixation.png","null","","test","","","","","",""
"94.89999997615814","797582","pSARL_v2","pSARL_v29sx2d3q6","6308dca0fefa374b1d697aba","freq","img/orange_2bandit_b2.png","70","70","test","1","132","132","7","",""
"null","798302","pSARL_v2","pSARL_v29sx2d3q6","6308dca0fefa374b1d697aba","freq_resp","img/orange_2bandit_b.png","70","70","test","","","","7","",""
"null","798472","pSARL_v2","pSARL_v29sx2d3q6","6308dca0fefa374b1d697aba","fixation","img/fixation.png","null","","test","","","","","",""
"90.5","798570","pSARL_v2","pSARL_v29sx2d3q6","6308dca0fefa374b1d697aba","freq","img/orange_2bandit_b2.png","70","70","test","1","133","133","7","",""
"null","799299","pSARL_v2","pSARL_v29sx2d3q6","6308dca0fefa374b1d697aba","freq_resp","img/orange_2bandit_b.png","70","70","test","","","","7","",""
"null","799469","pSARL_v2","pSARL_v29sx2d3q6","6308dca0fefa374b1d697aba","fixation","img/fixation.png","null","","test","","","","","",""
"142","799619","pSARL_v2","pSARL_v29sx2d3q6","6308dca0fefa374b1d697aba","freq","img/orange_2bandit_b2.png","70","70","test","1","134","134","7","",""
"null","800287","pSARL_v2","pSARL_v29sx2d3q6","6308dca0fefa374b1d697aba","freq_resp","img/orange_2bandit_b.png","70","70","test","","","","7","",""
"null","800456","pSARL_v2","pSARL_v29sx2d3q6","6308dca0fefa374b1d697aba","fixation","img/fixation.png","null","","test","","","","","",""
"147.10000002384186","800610","pSARL_v2","pSARL_v29sx2d3q6","6308dca0fefa374b1d697aba","freq","img/orange_2bandit_b2.png","70","70","test","1","135","135","7","",""
"null","801272","pSARL_v2","pSARL_v29sx2d3q6","6308dca0fefa374b1d697aba","freq_resp","img/orange_2bandit_b.png","70","70","test","","","","7","",""
"null","801434","pSARL_v2","pSARL_v29sx2d3q6","6308dca0fefa374b1d697aba","fixation","img/fixation.png","null","","test","","","","","",""
"273.60000002384186","801714","pSARL_v2","pSARL_v29sx2d3q6","6308dca0fefa374b1d697aba","freq","img/orange_2bandit_b2.png","70","70","test","1","136","136","7","",""
"null","802258","pSARL_v2","pSARL_v29sx2d3q6","6308dca0fefa374b1d697aba","freq_resp","img/orange_2bandit_b.png","70","70","test","","","","7","",""
"null","802422","pSARL_v2","pSARL_v29sx2d3q6","6308dca0fefa374b1d697aba","fixation","img/fixation.png","null","","test","","","","","",""
"173","802602","pSARL_v2","pSARL_v29sx2d3q6","6308dca0fefa374b1d697aba","freq","img/orange_2bandit_b2.png","70","70","test","1","137","137","7","",""
"null","803234","pSARL_v2","pSARL_v29sx2d3q6","6308dca0fefa374b1d697aba","freq_resp","img/orange_2bandit_b.png","70","70","test","","","","7","",""
"null","803405","pSARL_v2","pSARL_v29sx2d3q6","6308dca0fefa374b1d697aba","fixation","img/fixation.png","null","","test","","","","","",""
"461.39999997615814","803874","pSARL_v2","pSARL_v29sx2d3q6","6308dca0fefa374b1d697aba","infreq","img/green_2bandit_b2.png","68","68","test","1","138","138","7","",""
"null","804221","pSARL_v2","pSARL_v29sx2d3q6","6308dca0fefa374b1d697aba","infreq_resp","img/green_2bandit_b.png","68","68","test","","","","7","",""
"null","804393","pSARL_v2","pSARL_v29sx2d3q6","6308dca0fefa374b1d697aba","fixation","img/fixation.png","null","","test","","","","","",""
"330","804730","pSARL_v2","pSARL_v29sx2d3q6","6308dca0fefa374b1d697aba","freq","img/orange_2bandit_b2.png","70","70","test","1","139","139","7","",""
"null","805212","pSARL_v2","pSARL_v29sx2d3q6","6308dca0fefa374b1d697aba","freq_resp","img/orange_2bandit_b.png","70","70","test","","","","7","",""
"null","805379","pSARL_v2","pSARL_v29sx2d3q6","6308dca0fefa374b1d697aba","fixation","img/fixation.png","null","","test","","","","","",""
"464.7999999523163","805849","pSARL_v2","pSARL_v29sx2d3q6","6308dca0fefa374b1d697aba","freq","img/orange_2bandit_b2.png","70","70","test","1","140","140","7","",""
"null","806197","pSARL_v2","pSARL_v29sx2d3q6","6308dca0fefa374b1d697aba","freq_resp","img/orange_2bandit_b.png","70","70","test","","","","7","",""
"null","806359","pSARL_v2","pSARL_v29sx2d3q6","6308dca0fefa374b1d697aba","fixation","img/fixation.png","null","","test","","","","","",""
"324.10000002384186","806690","pSARL_v2","pSARL_v29sx2d3q6","6308dca0fefa374b1d697aba","freq","img/orange_2bandit_b2.png","70","70","test","1","141","141","7","",""
"null","807185","pSARL_v2","pSARL_v29sx2d3q6","6308dca0fefa374b1d697aba","freq_resp","img/orange_2bandit_b.png","70","70","test","","","","7","",""
"null","807345","pSARL_v2","pSARL_v29sx2d3q6","6308dca0fefa374b1d697aba","fixation","img/fixation.png","null","","test","","","","","",""
"169.89999997615814","807519","pSARL_v2","pSARL_v29sx2d3q6","6308dca0fefa374b1d697aba","freq","img/orange_2bandit_b2.png","70","70","test","1","142","142","7","",""
"null","808164","pSARL_v2","pSARL_v29sx2d3q6","6308dca0fefa374b1d697aba","freq_resp","img/orange_2bandit_b.png","70","70","test","","","","7","",""
"null","808336","pSARL_v2","pSARL_v29sx2d3q6","6308dca0fefa374b1d697aba","fixation","img/fixation.png","null","","test","","","","","",""
"114.80000007152557","808455","pSARL_v2","pSARL_v29sx2d3q6","6308dca0fefa374b1d697aba","freq","img/orange_2bandit_b2.png","70","70","test","1","143","143","7","",""
"null","809164","pSARL_v2","pSARL_v29sx2d3q6","6308dca0fefa374b1d697aba","freq_resp","img/orange_2bandit_b.png","70","70","test","","","","7","",""
"null","809327","pSARL_v2","pSARL_v29sx2d3q6","6308dca0fefa374b1d697aba","fixation","img/fixation.png","null","","test","","","","","",""
"52","809386","pSARL_v2","pSARL_v29sx2d3q6","6308dca0fefa374b1d697aba","freq","img/orange_2bandit_b2.png","70","70","test","1","144","144","7","",""
"null","810147","pSARL_v2","pSARL_v29sx2d3q6","6308dca0fefa374b1d697aba","freq_resp","img/orange_2bandit_b.png","70","70","test","","","","7","",""
"null","810317","pSARL_v2","pSARL_v29sx2d3q6","6308dca0fefa374b1d697aba","fixation","img/fixation.png","null","","test","","","","","",""
"117.29999995231628","810442","pSARL_v2","pSARL_v29sx2d3q6","6308dca0fefa374b1d697aba","freq","img/orange_2bandit_b2.png","70","70","test","1","145","145","7","",""
"null","811133","pSARL_v2","pSARL_v29sx2d3q6","6308dca0fefa374b1d697aba","freq_resp","img/orange_2bandit_b.png","70","70","test","","","","7","",""
"null","811302","pSARL_v2","pSARL_v29sx2d3q6","6308dca0fefa374b1d697aba","fixation","img/fixation.png","null","","test","","","","","",""
"229.70000004768372","811537","pSARL_v2","pSARL_v29sx2d3q6","6308dca0fefa374b1d697aba","freq","img/orange_2bandit_b2.png","70","70","test","1","146","146","7","",""
"null","812119","pSARL_v2","pSARL_v29sx2d3q6","6308dca0fefa374b1d697aba","freq_resp","img/orange_2bandit_b.png","70","70","test","","","","7","",""
"null","812289","pSARL_v2","pSARL_v29sx2d3q6","6308dca0fefa374b1d697aba","fixation","img/fixation.png","null","","test","","","","","",""
"442.5","812737","pSARL_v2","pSARL_v29sx2d3q6","6308dca0fefa374b1d697aba","freq","img/orange_2bandit_b2.png","70","70","test","1","147","147","7","",""
"null","813106","pSARL_v2","pSARL_v29sx2d3q6","6308dca0fefa374b1d697aba","freq_resp","img/orange_2bandit_b.png","70","70","test","","","","7","",""
"null","813275","pSARL_v2","pSARL_v29sx2d3q6","6308dca0fefa374b1d697aba","fixation","img/fixation.png","null","","test","","","","","",""
"456.89999997615814","813738","pSARL_v2","pSARL_v29sx2d3q6","6308dca0fefa374b1d697aba","freq","img/orange_2bandit_b2.png","70","70","test","1","148","148","7","",""
"null","814091","pSARL_v2","pSARL_v29sx2d3q6","6308dca0fefa374b1d697aba","freq_resp","img/orange_2bandit_b.png","70","70","test","","","","7","",""
"null","814255","pSARL_v2","pSARL_v29sx2d3q6","6308dca0fefa374b1d697aba","fixation","img/fixation.png","null","","test","","","","","",""
"468.2000000476837","814730","pSARL_v2","pSARL_v29sx2d3q6","6308dca0fefa374b1d697aba","freq","img/orange_2bandit_b2.png","70","70","test","1","149","149","7","",""
"null","815079","pSARL_v2","pSARL_v29sx2d3q6","6308dca0fefa374b1d697aba","freq_resp","img/orange_2bandit_b.png","70","70","test","","","","7","",""
"null","815241","pSARL_v2","pSARL_v29sx2d3q6","6308dca0fefa374b1d697aba","fixation","img/fixation.png","null","","test","","","","","",""
"353.5","815602","pSARL_v2","pSARL_v29sx2d3q6","6308dca0fefa374b1d697aba","freq","img/orange_2bandit_b2.png","70","70","test","1","150","150","7","",""
"null","816056","pSARL_v2","pSARL_v29sx2d3q6","6308dca0fefa374b1d697aba","freq_resp","img/orange_2bandit_b.png","70","70","test","","","","7","",""
"null","816225","pSARL_v2","pSARL_v29sx2d3q6","6308dca0fefa374b1d697aba","fixation","img/fixation.png","null","","test","","","","","",""
"375.10000002384186","816609","pSARL_v2","pSARL_v29sx2d3q6","6308dca0fefa374b1d697aba","freq","img/orange_2bandit_b2.png","70","70","test","1","151","151","7","",""
"null","817052","pSARL_v2","pSARL_v29sx2d3q6","6308dca0fefa374b1d697aba","freq_resp","img/orange_2bandit_b.png","70","70","test","","","","7","",""
"null","817218","pSARL_v2","pSARL_v29sx2d3q6","6308dca0fefa374b1d697aba","fixation","img/fixation.png","null","","test","","","","","",""
"480.7000000476837","817706","pSARL_v2","pSARL_v29sx2d3q6","6308dca0fefa374b1d697aba","infreq","img/green_2bandit_b2.png","68","68","test","1","152","152","7","",""
"null","818034","pSARL_v2","pSARL_v29sx2d3q6","6308dca0fefa374b1d697aba","infreq_resp","img/green_2bandit_b.png","68","68","test","","","","7","",""
"null","818203","pSARL_v2","pSARL_v29sx2d3q6","6308dca0fefa374b1d697aba","fixation","img/fixation.png","null","","test","","","","","",""
"527.3999999761581","818738","pSARL_v2","pSARL_v29sx2d3q6","6308dca0fefa374b1d697aba","freq","img/orange_2bandit_b2.png","70","70","test","1","153","153","7","",""
"null","819020","pSARL_v2","pSARL_v29sx2d3q6","6308dca0fefa374b1d697aba","freq_resp","img/orange_2bandit_b.png","70","70","test","","","","7","",""
"null","819187","pSARL_v2","pSARL_v29sx2d3q6","6308dca0fefa374b1d697aba","fixation","img/fixation.png","null","","test","","","","","",""
"412.1999999284744","819603","pSARL_v2","pSARL_v29sx2d3q6","6308dca0fefa374b1d697aba","freq","img/orange_2bandit_b2.png","70","70","test","1","154","154","7","",""
"null","820006","pSARL_v2","pSARL_v29sx2d3q6","6308dca0fefa374b1d697aba","freq_resp","img/orange_2bandit_b.png","70","70","test","","","","7","",""
"null","820175","pSARL_v2","pSARL_v29sx2d3q6","6308dca0fefa374b1d697aba","fixation","img/fixation.png","null","","test","","","","","",""
"440.7000000476837","820623","pSARL_v2","pSARL_v29sx2d3q6","6308dca0fefa374b1d697aba","freq","img/orange_2bandit_b2.png","70","70","test","1","155","155","7","",""
"null","820990","pSARL_v2","pSARL_v29sx2d3q6","6308dca0fefa374b1d697aba","freq_resp","img/orange_2bandit_b.png","70","70","test","","","","7","",""
"null","821161","pSARL_v2","pSARL_v29sx2d3q6","6308dca0fefa374b1d697aba","fixation","img/fixation.png","null","","test","","","","","",""
"1085.3999999761581","822254","pSARL_v2","pSARL_v29sx2d3q6","6308dca0fefa374b1d697aba","reward","img/slot.png","74","","test","","","","","",""
"null","823024","pSARL_v2","pSARL_v29sx2d3q6","6308dca0fefa374b1d697aba","points","<div class=""verylowPoints""> -6 </div>","null","na","test","","","","7","-6","6"
"631.2999999523163","823662","pSARL_v2","pSARL_v29sx2d3q6","6308dca0fefa374b1d697aba","freq","img/orange_2bandit_b2.png","70","70","test","1","156","156","8","",""
"null","823841","pSARL_v2","pSARL_v29sx2d3q6","6308dca0fefa374b1d697aba","freq_resp","img/orange_2bandit_b.png","70","70","test","","","","8","",""
"null","824009","pSARL_v2","pSARL_v29sx2d3q6","6308dca0fefa374b1d697aba","fixation","img/fixation.png","null","","test","","","","","",""
"693.5","824706","pSARL_v2","pSARL_v29sx2d3q6","6308dca0fefa374b1d697aba","freq","img/orange_2bandit_b2.png","70","70","test","1","157","157","8","",""
"null","824824","pSARL_v2","pSARL_v29sx2d3q6","6308dca0fefa374b1d697aba","freq_resp","img/orange_2bandit_b.png","70","70","test","","","","8","",""
"null","824994","pSARL_v2","pSARL_v29sx2d3q6","6308dca0fefa374b1d697aba","fixation","img/fixation.png","null","","test","","","","","",""
"517.6000000238419","825518","pSARL_v2","pSARL_v29sx2d3q6","6308dca0fefa374b1d697aba","freq","img/orange_2bandit_b2.png","70","70","test","1","158","158","8","",""
"null","825811","pSARL_v2","pSARL_v29sx2d3q6","6308dca0fefa374b1d697aba","freq_resp","img/orange_2bandit_b.png","70","70","test","","","","8","",""
"null","825980","pSARL_v2","pSARL_v29sx2d3q6","6308dca0fefa374b1d697aba","fixation","img/fixation.png","null","","test","","","","","",""
"348","826334","pSARL_v2","pSARL_v29sx2d3q6","6308dca0fefa374b1d697aba","freq","img/orange_2bandit_b2.png","70","70","test","1","159","159","8","",""
"null","826797","pSARL_v2","pSARL_v29sx2d3q6","6308dca0fefa374b1d697aba","freq_resp","img/orange_2bandit_b.png","70","70","test","","","","8","",""
"null","826965","pSARL_v2","pSARL_v29sx2d3q6","6308dca0fefa374b1d697aba","fixation","img/fixation.png","null","","test","","","","","",""
"426.5","827397","pSARL_v2","pSARL_v29sx2d3q6","6308dca0fefa374b1d697aba","freq","img/orange_2bandit_b2.png","70","70","test","1","160","160","8","",""
"null","827782","pSARL_v2","pSARL_v29sx2d3q6","6308dca0fefa374b1d697aba","freq_resp","img/orange_2bandit_b.png","70","70","test","","","","8","",""
"null","827946","pSARL_v2","pSARL_v29sx2d3q6","6308dca0fefa374b1d697aba","fixation","img/fixation.png","null","","test","","","","","",""
"636.8999999761581","828590","pSARL_v2","pSARL_v29sx2d3q6","6308dca0fefa374b1d697aba","freq","img/orange_2bandit_b2.png","70","70","test","1","161","161","8","",""
"null","828765","pSARL_v2","pSARL_v29sx2d3q6","6308dca0fefa374b1d697aba","freq_resp","img/orange_2bandit_b.png","70","70","test","","","","8","",""
"null","828929","pSARL_v2","pSARL_v29sx2d3q6","6308dca0fefa374b1d697aba","fixation","img/fixation.png","null","","test","","","","","",""
"478.6999999284744","829414","pSARL_v2","pSARL_v29sx2d3q6","6308dca0fefa374b1d697aba","freq","img/orange_2bandit_b2.png","70","70","test","1","162","162","8","",""
"null","829744","pSARL_v2","pSARL_v29sx2d3q6","6308dca0fefa374b1d697aba","freq_resp","img/orange_2bandit_b.png","70","70","test","","","","8","",""
"null","829917","pSARL_v2","pSARL_v29sx2d3q6","6308dca0fefa374b1d697aba","fixation","img/fixation.png","null","","test","","","","","",""
"488.8000000715256","830413","pSARL_v2","pSARL_v29sx2d3q6","6308dca0fefa374b1d697aba","freq","img/orange_2bandit_b2.png","70","70","test","1","163","163","8","",""
"null","830732","pSARL_v2","pSARL_v29sx2d3q6","6308dca0fefa374b1d697aba","freq_resp","img/orange_2bandit_b.png","70","70","test","","","","8","",""
"null","830900","pSARL_v2","pSARL_v29sx2d3q6","6308dca0fefa374b1d697aba","fixation","img/fixation.png","null","","test","","","","","",""
"331.7000000476837","831238","pSARL_v2","pSARL_v29sx2d3q6","6308dca0fefa374b1d697aba","freq","img/orange_2bandit_b2.png","70","70","test","1","164","164","8","",""
"null","831715","pSARL_v2","pSARL_v29sx2d3q6","6308dca0fefa374b1d697aba","freq_resp","img/orange_2bandit_b.png","70","70","test","","","","8","",""
"null","831888","pSARL_v2","pSARL_v29sx2d3q6","6308dca0fefa374b1d697aba","fixation","img/fixation.png","null","","test","","","","","",""
"503.10000002384186","832398","pSARL_v2","pSARL_v29sx2d3q6","6308dca0fefa374b1d697aba","infreq","img/green_2bandit_b2.png","68","68","test","1","165","165","8","",""
"null","832702","pSARL_v2","pSARL_v29sx2d3q6","6308dca0fefa374b1d697aba","infreq_resp","img/green_2bandit_b.png","68","68","test","","","","8","",""
"null","832870","pSARL_v2","pSARL_v29sx2d3q6","6308dca0fefa374b1d697aba","fixation","img/fixation.png","null","","test","","","","","",""
"457.7000000476837","833334","pSARL_v2","pSARL_v29sx2d3q6","6308dca0fefa374b1d697aba","freq","img/orange_2bandit_b2.png","70","70","test","1","166","166","8","",""
"null","833688","pSARL_v2","pSARL_v29sx2d3q6","6308dca0fefa374b1d697aba","freq_resp","img/orange_2bandit_b.png","70","70","test","","","","8","",""
"null","833852","pSARL_v2","pSARL_v29sx2d3q6","6308dca0fefa374b1d697aba","fixation","img/fixation.png","null","","test","","","","","",""
"618.7000000476837","834477","pSARL_v2","pSARL_v29sx2d3q6","6308dca0fefa374b1d697aba","infreq","img/green_2bandit_b2.png","68","68","test","1","167","167","8","",""
"null","834672","pSARL_v2","pSARL_v29sx2d3q6","6308dca0fefa374b1d697aba","infreq_resp","img/green_2bandit_b.png","68","68","test","","","","8","",""
"null","834835","pSARL_v2","pSARL_v29sx2d3q6","6308dca0fefa374b1d697aba","fixation","img/fixation.png","null","","test","","","","","",""
"484.60000002384186","835326","pSARL_v2","pSARL_v29sx2d3q6","6308dca0fefa374b1d697aba","freq","img/orange_2bandit_b2.png","70","70","test","1","168","168","8","",""
"null","835653","pSARL_v2","pSARL_v29sx2d3q6","6308dca0fefa374b1d697aba","freq_resp","img/orange_2bandit_b.png","70","70","test","","","","8","",""
"null","835822","pSARL_v2","pSARL_v29sx2d3q6","6308dca0fefa374b1d697aba","fixation","img/fixation.png","null","","test","","","","","",""
"713.3999999761581","836542","pSARL_v2","pSARL_v29sx2d3q6","6308dca0fefa374b1d697aba","freq","img/orange_2bandit_b2.png","70","70","test","1","169","169","8","",""
"null","836643","pSARL_v2","pSARL_v29sx2d3q6","6308dca0fefa374b1d697aba","freq_resp","img/orange_2bandit_b.png","70","70","test","","","","8","",""
"null","836807","pSARL_v2","pSARL_v29sx2d3q6","6308dca0fefa374b1d697aba","fixation","img/fixation.png","null","","test","","","","","",""
"447.59999990463257","837260","pSARL_v2","pSARL_v29sx2d3q6","6308dca0fefa374b1d697aba","freq","img/orange_2bandit_b2.png","70","70","test","1","170","170","8","",""
"null","837623","pSARL_v2","pSARL_v29sx2d3q6","6308dca0fefa374b1d697aba","freq_resp","img/orange_2bandit_b.png","70","70","test","","","","8","",""
"null","837794","pSARL_v2","pSARL_v29sx2d3q6","6308dca0fefa374b1d697aba","fixation","img/fixation.png","null","","test","","","","","",""
"460.89999997615814","838261","pSARL_v2","pSARL_v29sx2d3q6","6308dca0fefa374b1d697aba","freq","img/orange_2bandit_b2.png","70","70","test","1","171","171","8","",""
"null","838608","pSARL_v2","pSARL_v29sx2d3q6","6308dca0fefa374b1d697aba","freq_resp","img/orange_2bandit_b.png","70","70","test","","","","8","",""
"null","838777","pSARL_v2","pSARL_v29sx2d3q6","6308dca0fefa374b1d697aba","fixation","img/fixation.png","null","","test","","","","","",""
"452.6999999284744","839235","pSARL_v2","pSARL_v29sx2d3q6","6308dca0fefa374b1d697aba","freq","img/orange_2bandit_b2.png","70","70","test","1","172","172","8","",""
"null","839594","pSARL_v2","pSARL_v29sx2d3q6","6308dca0fefa374b1d697aba","freq_resp","img/orange_2bandit_b.png","70","70","test","","","","8","",""
"null","839756","pSARL_v2","pSARL_v29sx2d3q6","6308dca0fefa374b1d697aba","fixation","img/fixation.png","null","","test","","","","","",""
"299.39999997615814","840062","pSARL_v2","pSARL_v29sx2d3q6","6308dca0fefa374b1d697aba","freq","img/orange_2bandit_b2.png","70","70","test","1","173","173","8","",""
"null","840576","pSARL_v2","pSARL_v29sx2d3q6","6308dca0fefa374b1d697aba","freq_resp","img/orange_2bandit_b.png","70","70","test","","","","8","",""
"null","840740","pSARL_v2","pSARL_v29sx2d3q6","6308dca0fefa374b1d697aba","fixation","img/fixation.png","null","","test","","","","","",""
"651.3999999761581","841398","pSARL_v2","pSARL_v29sx2d3q6","6308dca0fefa374b1d697aba","freq","img/orange_2bandit_b2.png","70","70","test","1","174","174","8","",""
"null","841559","pSARL_v2","pSARL_v29sx2d3q6","6308dca0fefa374b1d697aba","freq_resp","img/orange_2bandit_b.png","70","70","test","","","","8","",""
"null","841725","pSARL_v2","pSARL_v29sx2d3q6","6308dca0fefa374b1d697aba","fixation","img/fixation.png","null","","test","","","","","",""
"570.5","842302","pSARL_v2","pSARL_v29sx2d3q6","6308dca0fefa374b1d697aba","freq","img/orange_2bandit_b2.png","70","70","test","1","175","175","8","",""
"null","842543","pSARL_v2","pSARL_v29sx2d3q6","6308dca0fefa374b1d697aba","freq_resp","img/orange_2bandit_b.png","70","70","test","","","","8","",""
"null","842714","pSARL_v2","pSARL_v29sx2d3q6","6308dca0fefa374b1d697aba","fixation","img/fixation.png","null","","test","","","","","",""
"1100.1000000238419","843818","pSARL_v2","pSARL_v29sx2d3q6","6308dca0fefa374b1d697aba","reward","img/slot.png","74","","test","","","","","",""
"null","844582","pSARL_v2","pSARL_v29sx2d3q6","6308dca0fefa374b1d697aba","points","<div class=""verylowPoints""> -4 </div>","null","na","test","","","","8","-4","7"
"545.3999999761581","845134","pSARL_v2","pSARL_v29sx2d3q6","6308dca0fefa374b1d697aba","freq","img/orange_2bandit_b2.png","70","70","test","1","176","176","9","",""
"null","845400","pSARL_v2","pSARL_v29sx2d3q6","6308dca0fefa374b1d697aba","freq_resp","img/orange_2bandit_b.png","70","70","test","","","","9","",""
"null","845560","pSARL_v2","pSARL_v29sx2d3q6","6308dca0fefa374b1d697aba","fixation","img/fixation.png","null","","test","","","","","",""
"775.3000000715256","846342","pSARL_v2","pSARL_v29sx2d3q6","6308dca0fefa374b1d697aba","freq","img/orange_2bandit_b2.png","70","70","test","1","177","177","9","",""
"null","846370","pSARL_v2","pSARL_v29sx2d3q6","6308dca0fefa374b1d697aba","freq_resp","img/orange_2bandit_b.png","70","70","test","","","","9","",""
"null","846534","pSARL_v2","pSARL_v29sx2d3q6","6308dca0fefa374b1d697aba","fixation","img/fixation.png","null","","test","","","","","",""
"544.2999999523163","847082","pSARL_v2","pSARL_v29sx2d3q6","6308dca0fefa374b1d697aba","freq","img/orange_2bandit_b2.png","70","70","test","1","178","178","9","",""
"null","847346","pSARL_v2","pSARL_v29sx2d3q6","6308dca0fefa374b1d697aba","freq_resp","img/orange_2bandit_b.png","70","70","test","","","","9","",""
"null","847515","pSARL_v2","pSARL_v29sx2d3q6","6308dca0fefa374b1d697aba","fixation","img/fixation.png","null","","test","","","","","",""
"579.8999999761581","848101","pSARL_v2","pSARL_v29sx2d3q6","6308dca0fefa374b1d697aba","infreq","img/green_2bandit_b2.png","68","68","test","1","179","179","9","",""
"null","848333","pSARL_v2","pSARL_v29sx2d3q6","6308dca0fefa374b1d697aba","infreq_resp","img/green_2bandit_b.png","68","68","test","","","","9","",""
"null","848503","pSARL_v2","pSARL_v29sx2d3q6","6308dca0fefa374b1d697aba","fixation","img/fixation.png","null","","test","","","","","",""
"572.7000000476837","849082","pSARL_v2","pSARL_v29sx2d3q6","6308dca0fefa374b1d697aba","freq","img/orange_2bandit_b2.png","70","70","test","1","180","180","9","",""
"null","849316","pSARL_v2","pSARL_v29sx2d3q6","6308dca0fefa374b1d697aba","freq_resp","img/orange_2bandit_b.png","70","70","test","","","","9","",""
"null","849488","pSARL_v2","pSARL_v29sx2d3q6","6308dca0fefa374b1d697aba","fixation","img/fixation.png","null","","test","","","","","",""
"456","849950","pSARL_v2","pSARL_v29sx2d3q6","6308dca0fefa374b1d697aba","freq","img/orange_2bandit_b2.png","70","70","test","1","181","181","9","",""
"null","850304","pSARL_v2","pSARL_v29sx2d3q6","6308dca0fefa374b1d697aba","freq_resp","img/orange_2bandit_b.png","70","70","test","","","","9","",""
"null","850466","pSARL_v2","pSARL_v29sx2d3q6","6308dca0fefa374b1d697aba","fixation","img/fixation.png","null","","test","","","","","",""
"257.2999999523163","850727","pSARL_v2","pSARL_v29sx2d3q6","6308dca0fefa374b1d697aba","freq","img/orange_2bandit_b2.png","70","70","test","1","182","182","9","",""
"null","851290","pSARL_v2","pSARL_v29sx2d3q6","6308dca0fefa374b1d697aba","freq_resp","img/orange_2bandit_b.png","70","70","test","","","","9","",""
"null","851460","pSARL_v2","pSARL_v29sx2d3q6","6308dca0fefa374b1d697aba","fixation","img/fixation.png","null","","test","","","","","",""
"298.2999999523163","851766","pSARL_v2","pSARL_v29sx2d3q6","6308dca0fefa374b1d697aba","freq","img/orange_2bandit_b2.png","70","70","test","1","183","183","9","",""
"null","852275","pSARL_v2","pSARL_v29sx2d3q6","6308dca0fefa374b1d697aba","freq_resp","img/orange_2bandit_b.png","70","70","test","","","","9","",""
"null","852442","pSARL_v2","pSARL_v29sx2d3q6","6308dca0fefa374b1d697aba","fixation","img/fixation.png","null","","test","","","","","",""
"89.10000002384186","852539","pSARL_v2","pSARL_v29sx2d3q6","6308dca0fefa374b1d697aba","freq","img/orange_2bandit_b2.png","70","70","test","1","184","184","9","",""
"null","853261","pSARL_v2","pSARL_v29sx2d3q6","6308dca0fefa374b1d697aba","freq_resp","img/orange_2bandit_b.png","70","70","test","","","","9","",""
"null","853433","pSARL_v2","pSARL_v29sx2d3q6","6308dca0fefa374b1d697aba","fixation","img/fixation.png","null","","test","","","","","",""
"289.89999997615814","853730","pSARL_v2","pSARL_v29sx2d3q6","6308dca0fefa374b1d697aba","freq","img/orange_2bandit_b2.png","70","70","test","1","185","185","9","",""
"null","854246","pSARL_v2","pSARL_v29sx2d3q6","6308dca0fefa374b1d697aba","freq_resp","img/orange_2bandit_b.png","70","70","test","","","","9","",""
"null","854419","pSARL_v2","pSARL_v29sx2d3q6","6308dca0fefa374b1d697aba","fixation","img/fixation.png","null","","test","","","","","",""
"384.7000000476837","854809","pSARL_v2","pSARL_v29sx2d3q6","6308dca0fefa374b1d697aba","freq","img/orange_2bandit_b2.png","70","70","test","1","186","186","9","",""
"null","855234","pSARL_v2","pSARL_v29sx2d3q6","6308dca0fefa374b1d697aba","freq_resp","img/orange_2bandit_b.png","70","70","test","","","","9","",""
"null","855400","pSARL_v2","pSARL_v29sx2d3q6","6308dca0fefa374b1d697aba","fixation","img/fixation.png","null","","test","","","","","",""
"370.7999999523163","855778","pSARL_v2","pSARL_v29sx2d3q6","6308dca0fefa374b1d697aba","freq","img/orange_2bandit_b2.png","70","70","test","1","187","187","9","",""
"null","856222","pSARL_v2","pSARL_v29sx2d3q6","6308dca0fefa374b1d697aba","freq_resp","img/orange_2bandit_b.png","70","70","test","","","","9","",""
"null","856386","pSARL_v2","pSARL_v29sx2d3q6","6308dca0fefa374b1d697aba","fixation","img/fixation.png","null","","test","","","","","",""
"313.5","856706","pSARL_v2","pSARL_v29sx2d3q6","6308dca0fefa374b1d697aba","freq","img/orange_2bandit_b2.png","70","70","test","1","188","188","9","",""
"null","857201","pSARL_v2","pSARL_v29sx2d3q6","6308dca0fefa374b1d697aba","freq_resp","img/orange_2bandit_b.png","70","70","test","","","","9","",""
"null","857374","pSARL_v2","pSARL_v29sx2d3q6","6308dca0fefa374b1d697aba","fixation","img/fixation.png","null","","test","","","","","",""
"565.1000000238419","857946","pSARL_v2","pSARL_v29sx2d3q6","6308dca0fefa374b1d697aba","freq","img/orange_2bandit_b2.png","70","70","test","1","189","189","9","",""
"null","858190","pSARL_v2","pSARL_v29sx2d3q6","6308dca0fefa374b1d697aba","freq_resp","img/orange_2bandit_b.png","70","70","test","","","","9","",""
"null","858356","pSARL_v2","pSARL_v29sx2d3q6","6308dca0fefa374b1d697aba","fixation","img/fixation.png","null","","test","","","","","",""
"502.60000002384186","858866","pSARL_v2","pSARL_v29sx2d3q6","6308dca0fefa374b1d697aba","infreq","img/green_2bandit_b2.png","68","68","test","1","190","190","9","",""
"null","859177","pSARL_v2","pSARL_v29sx2d3q6","6308dca0fefa374b1d697aba","infreq_resp","img/green_2bandit_b.png","68","68","test","","","","9","",""
"null","859341","pSARL_v2","pSARL_v29sx2d3q6","6308dca0fefa374b1d697aba","fixation","img/fixation.png","null","","test","","","","","",""
"469.89999997615814","859817","pSARL_v2","pSARL_v29sx2d3q6","6308dca0fefa374b1d697aba","freq","img/orange_2bandit_b2.png","70","70","test","1","191","191","9","",""
"null","860161","pSARL_v2","pSARL_v29sx2d3q6","6308dca0fefa374b1d697aba","freq_resp","img/orange_2bandit_b.png","70","70","test","","","","9","",""
"null","860330","pSARL_v2","pSARL_v29sx2d3q6","6308dca0fefa374b1d697aba","fixation","img/fixation.png","null","","test","","","","","",""
"393.10000002384186","860729","pSARL_v2","pSARL_v29sx2d3q6","6308dca0fefa374b1d697aba","freq","img/orange_2bandit_b2.png","70","70","test","1","192","192","9","",""
"null","861149","pSARL_v2","pSARL_v29sx2d3q6","6308dca0fefa374b1d697aba","freq_resp","img/orange_2bandit_b.png","70","70","test","","","","9","",""
"null","861316","pSARL_v2","pSARL_v29sx2d3q6","6308dca0fefa374b1d697aba","fixation","img/fixation.png","null","","test","","","","","",""
"471.09999990463257","861793","pSARL_v2","pSARL_v29sx2d3q6","6308dca0fefa374b1d697aba","infreq","img/green_2bandit_b2.png","68","68","test","1","193","193","9","",""
"null","862133","pSARL_v2","pSARL_v29sx2d3q6","6308dca0fefa374b1d697aba","infreq_resp","img/green_2bandit_b.png","68","68","test","","","","9","",""
"null","862303","pSARL_v2","pSARL_v29sx2d3q6","6308dca0fefa374b1d697aba","fixation","img/fixation.png","null","","test","","","","","",""
"435.89999997615814","862742","pSARL_v2","pSARL_v29sx2d3q6","6308dca0fefa374b1d697aba","freq","img/orange_2bandit_b2.png","70","70","test","1","194","194","9","",""
"null","863120","pSARL_v2","pSARL_v29sx2d3q6","6308dca0fefa374b1d697aba","freq_resp","img/orange_2bandit_b.png","70","70","test","","","","9","",""
"null","863290","pSARL_v2","pSARL_v29sx2d3q6","6308dca0fefa374b1d697aba","fixation","img/fixation.png","null","","test","","","","","",""
"393.8000000715256","863690","pSARL_v2","pSARL_v29sx2d3q6","6308dca0fefa374b1d697aba","freq","img/orange_2bandit_b2.png","70","70","test","1","195","195","9","",""
"null","864105","pSARL_v2","pSARL_v29sx2d3q6","6308dca0fefa374b1d697aba","freq_resp","img/orange_2bandit_b.png","70","70","test","","","","9","",""
"null","864274","pSARL_v2","pSARL_v29sx2d3q6","6308dca0fefa374b1d697aba","fixation","img/fixation.png","null","","test","","","","","",""
"424.2999999523163","864705","pSARL_v2","pSARL_v29sx2d3q6","6308dca0fefa374b1d697aba","freq","img/orange_2bandit_b2.png","70","70","test","1","196","196","9","",""
"null","865093","pSARL_v2","pSARL_v29sx2d3q6","6308dca0fefa374b1d697aba","freq_resp","img/orange_2bandit_b.png","70","70","test","","","","9","",""
"null","865260","pSARL_v2","pSARL_v29sx2d3q6","6308dca0fefa374b1d697aba","fixation","img/fixation.png","null","","test","","","","","",""
"279.39999997615814","865545","pSARL_v2","pSARL_v29sx2d3q6","6308dca0fefa374b1d697aba","freq","img/orange_2bandit_b2.png","70","70","test","1","197","197","9","",""
"null","866076","pSARL_v2","pSARL_v29sx2d3q6","6308dca0fefa374b1d697aba","freq_resp","img/orange_2bandit_b.png","70","70","test","","","","9","",""
"null","866241","pSARL_v2","pSARL_v29sx2d3q6","6308dca0fefa374b1d697aba","fixation","img/fixation.png","null","","test","","","","","",""
"1050.6000000238419","867297","pSARL_v2","pSARL_v29sx2d3q6","6308dca0fefa374b1d697aba","reward","img/slot.png","74","","test","","","","","",""
"null","868066","pSARL_v2","pSARL_v29sx2d3q6","6308dca0fefa374b1d697aba","points","<div class=""verylowPoints""> -3 </div>","null","na","test","","","","9","-3","8"
"281.2999999523163","868353","pSARL_v2","pSARL_v29sx2d3q6","6308dca0fefa374b1d697aba","freq","img/orange_2bandit_b2.png","70","70","test","1","198","198","10","",""
"null","868884","pSARL_v2","pSARL_v29sx2d3q6","6308dca0fefa374b1d697aba","freq_resp","img/orange_2bandit_b.png","70","70","test","","","","10","",""
"null","869047","pSARL_v2","pSARL_v29sx2d3q6","6308dca0fefa374b1d697aba","fixation","img/fixation.png","null","","test","","","","","",""
"84.29999995231628","869138","pSARL_v2","pSARL_v29sx2d3q6","6308dca0fefa374b1d697aba","freq","img/orange_2bandit_b2.png","70","70","test","1","199","199","10","",""
"null","869871","pSARL_v2","pSARL_v29sx2d3q6","6308dca0fefa374b1d697aba","freq_resp","img/orange_2bandit_b.png","70","70","test","","","","10","",""
"null","870035","pSARL_v2","pSARL_v29sx2d3q6","6308dca0fefa374b1d697aba","fixation","img/fixation.png","null","","test","","","","","",""
"135.29999995231628","870178","pSARL_v2","pSARL_v29sx2d3q6","6308dca0fefa374b1d697aba","freq","img/orange_2bandit_b2.png","70","70","test","1","200","200","10","",""
"null","870851","pSARL_v2","pSARL_v29sx2d3q6","6308dca0fefa374b1d697aba","freq_resp","img/orange_2bandit_b.png","70","70","test","","","","10","",""
"null","871020","pSARL_v2","pSARL_v29sx2d3q6","6308dca0fefa374b1d697aba","fixation","img/fixation.png","null","","test","","","","","",""
"358.7000000476837","871386","pSARL_v2","pSARL_v29sx2d3q6","6308dca0fefa374b1d697aba","freq","img/orange_2bandit_b2.png","70","70","test","1","201","201","10","",""
"null","871837","pSARL_v2","pSARL_v29sx2d3q6","6308dca0fefa374b1d697aba","freq_resp","img/orange_2bandit_b.png","70","70","test","","","","10","",""
"null","872008","pSARL_v2","pSARL_v29sx2d3q6","6308dca0fefa374b1d697aba","fixation","img/fixation.png","null","","test","","","","","",""
"346.6999999284744","872362","pSARL_v2","pSARL_v29sx2d3q6","6308dca0fefa374b1d697aba","freq","img/orange_2bandit_b2.png","70","70","test","1","202","202","10","",""
"null","872822","pSARL_v2","pSARL_v29sx2d3q6","6308dca0fefa374b1d697aba","freq_resp","img/orange_2bandit_b.png","70","70","test","","","","10","",""
"null","872995","pSARL_v2","pSARL_v29sx2d3q6","6308dca0fefa374b1d697aba","fixation","img/fixation.png","null","","test","","","","","",""
"335.60000002384186","873337","pSARL_v2","pSARL_v29sx2d3q6","6308dca0fefa374b1d697aba","freq","img/orange_2bandit_b2.png","70","70","test","1","203","203","10","",""
"null","873809","pSARL_v2","pSARL_v29sx2d3q6","6308dca0fefa374b1d697aba","freq_resp","img/orange_2bandit_b.png","70","70","test","","","","10","",""
"null","873980","pSARL_v2","pSARL_v29sx2d3q6","6308dca0fefa374b1d697aba","fixation","img/fixation.png","null","","test","","","","","",""
"382.89999997615814","874367","pSARL_v2","pSARL_v29sx2d3q6","6308dca0fefa374b1d697aba","freq","img/orange_2bandit_b2.png","70","70","test","1","204","204","10","",""
"null","874795","pSARL_v2","pSARL_v29sx2d3q6","6308dca0fefa374b1d697aba","freq_resp","img/orange_2bandit_b.png","70","70","test","","","","10","",""
"null","874960","pSARL_v2","pSARL_v29sx2d3q6","6308dca0fefa374b1d697aba","fixation","img/fixation.png","null","","test","","","","","",""
"473.89999997615814","875438","pSARL_v2","pSARL_v29sx2d3q6","6308dca0fefa374b1d697aba","freq","img/orange_2bandit_b2.png","70","70","test","1","205","205","10","",""
"null","875780","pSARL_v2","pSARL_v29sx2d3q6","6308dca0fefa374b1d697aba","freq_resp","img/orange_2bandit_b.png","70","70","test","","","","10","",""
"null","875940","pSARL_v2","pSARL_v29sx2d3q6","6308dca0fefa374b1d697aba","fixation","img/fixation.png","null","","test","","","","","",""
"390.2999999523163","876334","pSARL_v2","pSARL_v29sx2d3q6","6308dca0fefa374b1d697aba","freq","img/orange_2bandit_b2.png","70","70","test","1","206","206","10","",""
"null","876758","pSARL_v2","pSARL_v29sx2d3q6","6308dca0fefa374b1d697aba","freq_resp","img/orange_2bandit_b.png","70","70","test","","","","10","",""
"null","876922","pSARL_v2","pSARL_v29sx2d3q6","6308dca0fefa374b1d697aba","fixation","img/fixation.png","null","","test","","","","","",""
