"rt","time_elapsed","expId","subject","prolificID","trialType","stimulus","key_press","corrresp","phase","corr","trialNum","attentionRunNum","blockNum","points","rlNum"
"3744.599999997765","3748","pSARL_v2","pSARL_v2757rh77p","629082739390703f993b12bd","","","","","","","","","","",""
"","6555","pSARL_v2","pSARL_v2757rh77p","629082739390703f993b12bd","fullscreen","","","","","","","","","",""
"72683.60000000149","79242","pSARL_v2","pSARL_v2757rh77p","629082739390703f993b12bd","","","","","","","","","","",""
"null","80049","pSARL_v2","pSARL_v2757rh77p","629082739390703f993b12bd","freqPrac","img/orange_2bandit_b2.png","null","70","prac","0","","","","",""
"null","81067","pSARL_v2","pSARL_v2757rh77p","629082739390703f993b12bd","feedback","img/tooSlow.png","null","na","prac","","","","","",""
"null","81223","pSARL_v2","pSARL_v2757rh77p","629082739390703f993b12bd","fixation","img/fixation.png","null","","prac","","","","","",""
"600","81827","pSARL_v2","pSARL_v2757rh77p","629082739390703f993b12bd","infreqPrac","img/green_2bandit_b2.png","68","68","prac","1","","","","",""
"600","82043","pSARL_v2","pSARL_v2757rh77p","629082739390703f993b12bd","infreqPrac_resp","img/green_2bandit_b.png","68","68","prac","","","","","",""
"null","82200","pSARL_v2","pSARL_v2757rh77p","629082739390703f993b12bd","fixation","img/fixation.png","null","","prac","","","","","",""
"null","83014","pSARL_v2","pSARL_v2757rh77p","629082739390703f993b12bd","freqPrac","img/orange_2bandit_b2.png","null","70","prac","0","","","","",""
"null","84020","pSARL_v2","pSARL_v2757rh77p","629082739390703f993b12bd","feedback","img/tooSlow.png","null","na","prac","","","","","",""
"null","84189","pSARL_v2","pSARL_v2757rh77p","629082739390703f993b12bd","fixation","img/fixation.png","null","","prac","","","","","",""
"null","84998","pSARL_v2","pSARL_v2757rh77p","629082739390703f993b12bd","infreqPrac","img/green_2bandit_b2.png","null","68","prac","0","","","","",""
"null","86004","pSARL_v2","pSARL_v2757rh77p","629082739390703f993b12bd","feedback","img/tooSlow.png","null","na","prac","","","","","",""
"null","86173","pSARL_v2","pSARL_v2757rh77p","629082739390703f993b12bd","fixation","img/fixation.png","null","","prac","","","","","",""
"502.19999999925494","86679","pSARL_v2","pSARL_v2757rh77p","629082739390703f993b12bd","infreqPrac","img/green_2bandit_b2.png","68","68","prac","1","","","","",""
"502.19999999925494","86985","pSARL_v2","pSARL_v2757rh77p","629082739390703f993b12bd","infreqPrac_resp","img/green_2bandit_b.png","68","68","prac","","","","","",""
"null","87140","pSARL_v2","pSARL_v2757rh77p","629082739390703f993b12bd","fixation","img/fixation.png","null","","prac","","","","","",""
"646.5","87790","pSARL_v2","pSARL_v2757rh77p","629082739390703f993b12bd","infreqPrac","img/green_2bandit_b2.png","68","68","prac","1","","","","",""
"646.5","87961","pSARL_v2","pSARL_v2757rh77p","629082739390703f993b12bd","infreqPrac_resp","img/green_2bandit_b.png","68","68","prac","","","","","",""
"null","88116","pSARL_v2","pSARL_v2757rh77p","629082739390703f993b12bd","fixation","img/fixation.png","null","","prac","","","","","",""
"646.6000000014901","88766","pSARL_v2","pSARL_v2757rh77p","629082739390703f993b12bd","freqPrac","img/orange_2bandit_b2.png","70","70","prac","1","","","","",""
"646.6000000014901","88937","pSARL_v2","pSARL_v2757rh77p","629082739390703f993b12bd","freqPrac_resp","img/orange_2bandit_b.png","70","70","prac","","","","","",""
"null","89093","pSARL_v2","pSARL_v2757rh77p","629082739390703f993b12bd","fixation","img/fixation.png","null","","prac","","","","","",""
"605.4000000022352","89704","pSARL_v2","pSARL_v2757rh77p","629082739390703f993b12bd","infreqPrac","img/green_2bandit_b2.png","68","68","prac","1","","","","",""
"605.4000000022352","89916","pSARL_v2","pSARL_v2757rh77p","629082739390703f993b12bd","infreqPrac_resp","img/green_2bandit_b.png","68","68","prac","","","","","",""
"null","90071","pSARL_v2","pSARL_v2757rh77p","629082739390703f993b12bd","fixation","img/fixation.png","null","","prac","","","","","",""
"470.30000000074506","90545","pSARL_v2","pSARL_v2757rh77p","629082739390703f993b12bd","freqPrac","img/orange_2bandit_b2.png","70","70","prac","1","","","","",""
"470.30000000074506","90892","pSARL_v2","pSARL_v2757rh77p","629082739390703f993b12bd","freqPrac_resp","img/orange_2bandit_b.png","70","70","prac","","","","","",""
"null","91051","pSARL_v2","pSARL_v2757rh77p","629082739390703f993b12bd","fixation","img/fixation.png","null","","prac","","","","","",""
"450.19999999925494","91505","pSARL_v2","pSARL_v2757rh77p","629082739390703f993b12bd","freqPrac","img/orange_2bandit_b2.png","70","70","prac","1","","","","",""
"450.19999999925494","91867","pSARL_v2","pSARL_v2757rh77p","629082739390703f993b12bd","freqPrac_resp","img/orange_2bandit_b.png","70","70","prac","","","","","",""
"null","92026","pSARL_v2","pSARL_v2757rh77p","629082739390703f993b12bd","fixation","img/fixation.png","null","","prac","","","","","",""
"18515.199999999255","110544","pSARL_v2","pSARL_v2757rh77p","629082739390703f993b12bd","","","","","prac","","","","","",""
"517.3999999985099","111066","pSARL_v2","pSARL_v2757rh77p","629082739390703f993b12bd","rewardPractice","img/slot.png","74","","prac","","","","","",""
"null","111837","pSARL_v2","pSARL_v2757rh77p","629082739390703f993b12bd","feedback","<div class=""veryhighPoints""> +15 </div>","null","na","prac","","","","","",""
"null","111994","pSARL_v2","pSARL_v2757rh77p","629082739390703f993b12bd","fixation","img/fixation.png","null","","prac","","","","","",""
"16357.79999999702","128355","pSARL_v2","pSARL_v2757rh77p","629082739390703f993b12bd","","","","","prac","","","","","",""
"692.1000000014901","129052","pSARL_v2","pSARL_v2757rh77p","629082739390703f993b12bd","freq","img/orange_2bandit_b2.png","68","70","test","0","1","1","1","",""
"null","129167","pSARL_v2","pSARL_v2757rh77p","629082739390703f993b12bd","freq_resp","img/orange_2bandit_b.png","68","70","test","","","","1","",""
"null","129331","pSARL_v2","pSARL_v2757rh77p","629082739390703f993b12bd","fixation","img/fixation.png","null","","test","","","","","",""
"671.3000000007451","130007","pSARL_v2","pSARL_v2757rh77p","629082739390703f993b12bd","freq","img/orange_2bandit_b2.png","70","70","test","1","2","2","1","",""
"null","130146","pSARL_v2","pSARL_v2757rh77p","629082739390703f993b12bd","freq_resp","img/orange_2bandit_b.png","70","70","test","","","","1","",""
"null","130302","pSARL_v2","pSARL_v2757rh77p","629082739390703f993b12bd","fixation","img/fixation.png","null","","test","","","","","",""
"543.7999999970198","130849","pSARL_v2","pSARL_v2757rh77p","629082739390703f993b12bd","freq","img/orange_2bandit_b2.png","70","70","test","1","3","3","1","",""
"null","131117","pSARL_v2","pSARL_v2757rh77p","629082739390703f993b12bd","freq_resp","img/orange_2bandit_b.png","70","70","test","","","","1","",""
"null","131288","pSARL_v2","pSARL_v2757rh77p","629082739390703f993b12bd","fixation","img/fixation.png","null","","test","","","","","",""
"497.3999999985099","131790","pSARL_v2","pSARL_v2757rh77p","629082739390703f993b12bd","freq","img/orange_2bandit_b2.png","70","70","test","1","4","4","1","",""
"null","132104","pSARL_v2","pSARL_v2757rh77p","629082739390703f993b12bd","freq_resp","img/orange_2bandit_b.png","70","70","test","","","","1","",""
"null","132261","pSARL_v2","pSARL_v2757rh77p","629082739390703f993b12bd","fixation","img/fixation.png","null","","test","","","","","",""
"551.7000000029802","132816","pSARL_v2","pSARL_v2757rh77p","629082739390703f993b12bd","freq","img/orange_2bandit_b2.png","70","70","test","1","5","5","1","",""
"null","133078","pSARL_v2","pSARL_v2757rh77p","629082739390703f993b12bd","freq_resp","img/orange_2bandit_b.png","70","70","test","","","","1","",""
"null","133235","pSARL_v2","pSARL_v2757rh77p","629082739390703f993b12bd","fixation","img/fixation.png","null","","test","","","","","",""
"411.8999999985099","133652","pSARL_v2","pSARL_v2757rh77p","629082739390703f993b12bd","freq","img/orange_2bandit_b2.png","70","70","test","1","6","6","1","",""
"null","134052","pSARL_v2","pSARL_v2757rh77p","629082739390703f993b12bd","freq_resp","img/orange_2bandit_b.png","70","70","test","","","","1","",""
"null","134222","pSARL_v2","pSARL_v2757rh77p","629082739390703f993b12bd","fixation","img/fixation.png","null","","test","","","","","",""
"null","135036","pSARL_v2","pSARL_v2757rh77p","629082739390703f993b12bd","infreq","img/green_2bandit_b2.png","null","68","test","0","7","7","1","",""
"null","135194","pSARL_v2","pSARL_v2757rh77p","629082739390703f993b12bd","fixation","img/fixation.png","null","","test","","","","","",""
"null","136012","pSARL_v2","pSARL_v2757rh77p","629082739390703f993b12bd","freq","img/orange_2bandit_b2.png","null","70","test","0","8","8","1","",""
"null","136168","pSARL_v2","pSARL_v2757rh77p","629082739390703f993b12bd","fixation","img/fixation.png","null","","test","","","","","",""
"53.80000000074506","136226","pSARL_v2","pSARL_v2757rh77p","629082739390703f993b12bd","freq","img/orange_2bandit_b2.png","70","70","test","1","9","9","1","",""
"null","136976","pSARL_v2","pSARL_v2757rh77p","629082739390703f993b12bd","freq_resp","img/orange_2bandit_b.png","70","70","test","","","","1","",""
"null","137132","pSARL_v2","pSARL_v2757rh77p","629082739390703f993b12bd","fixation","img/fixation.png","null","","test","","","","","",""
"554.3999999985099","137690","pSARL_v2","pSARL_v2757rh77p","629082739390703f993b12bd","freq","img/orange_2bandit_b2.png","70","70","test","1","10","10","1","",""
"null","137949","pSARL_v2","pSARL_v2757rh77p","629082739390703f993b12bd","freq_resp","img/orange_2bandit_b.png","70","70","test","","","","1","",""
"null","138119","pSARL_v2","pSARL_v2757rh77p","629082739390703f993b12bd","fixation","img/fixation.png","null","","test","","","","","",""
"490.8999999985099","138614","pSARL_v2","pSARL_v2757rh77p","629082739390703f993b12bd","freq","img/orange_2bandit_b2.png","70","70","test","1","11","11","1","",""
"null","138928","pSARL_v2","pSARL_v2757rh77p","629082739390703f993b12bd","freq_resp","img/orange_2bandit_b.png","70","70","test","","","","1","",""
"null","139086","pSARL_v2","pSARL_v2757rh77p","629082739390703f993b12bd","fixation","img/fixation.png","null","","test","","","","","",""
"372.5","139464","pSARL_v2","pSARL_v2757rh77p","629082739390703f993b12bd","freq","img/orange_2bandit_b2.png","70","70","test","1","12","12","1","",""
"null","139899","pSARL_v2","pSARL_v2757rh77p","629082739390703f993b12bd","freq_resp","img/orange_2bandit_b.png","70","70","test","","","","1","",""
"null","140056","pSARL_v2","pSARL_v2757rh77p","629082739390703f993b12bd","fixation","img/fixation.png","null","","test","","","","","",""
"295.29999999701977","140355","pSARL_v2","pSARL_v2757rh77p","629082739390703f993b12bd","freq","img/orange_2bandit_b2.png","70","70","test","1","13","13","1","",""
"null","140871","pSARL_v2","pSARL_v2757rh77p","629082739390703f993b12bd","freq_resp","img/orange_2bandit_b.png","70","70","test","","","","1","",""
"null","141028","pSARL_v2","pSARL_v2757rh77p","629082739390703f993b12bd","fixation","img/fixation.png","null","","test","","","","","",""
"268","141300","pSARL_v2","pSARL_v2757rh77p","629082739390703f993b12bd","infreq","img/green_2bandit_b2.png","70","68","test","0","14","14","1","",""
"null","141837","pSARL_v2","pSARL_v2757rh77p","629082739390703f993b12bd","infreq_resp","img/green_2bandit_b.png","70","68","test","","","","1","",""
"null","142008","pSARL_v2","pSARL_v2757rh77p","629082739390703f993b12bd","fixation","img/fixation.png","null","","test","","","","","",""
"433.19999999925494","142447","pSARL_v2","pSARL_v2757rh77p","629082739390703f993b12bd","freq","img/orange_2bandit_b2.png","70","70","test","1","15","15","1","",""
"null","142824","pSARL_v2","pSARL_v2757rh77p","629082739390703f993b12bd","freq_resp","img/orange_2bandit_b.png","70","70","test","","","","1","",""
"null","142978","pSARL_v2","pSARL_v2757rh77p","629082739390703f993b12bd","fixation","img/fixation.png","null","","test","","","","","",""
"322","143305","pSARL_v2","pSARL_v2757rh77p","629082739390703f993b12bd","freq","img/orange_2bandit_b2.png","70","70","test","1","16","16","1","",""
"null","143806","pSARL_v2","pSARL_v2757rh77p","629082739390703f993b12bd","freq_resp","img/orange_2bandit_b.png","70","70","test","","","","1","",""
"null","143962","pSARL_v2","pSARL_v2757rh77p","629082739390703f993b12bd","fixation","img/fixation.png","null","","test","","","","","",""
"285.8999999985099","144251","pSARL_v2","pSARL_v2757rh77p","629082739390703f993b12bd","freq","img/orange_2bandit_b2.png","70","70","test","1","17","17","1","",""
"null","144770","pSARL_v2","pSARL_v2757rh77p","629082739390703f993b12bd","freq_resp","img/orange_2bandit_b.png","70","70","test","","","","1","",""
"null","144927","pSARL_v2","pSARL_v2757rh77p","629082739390703f993b12bd","fixation","img/fixation.png","null","","test","","","","","",""
"468.4000000022352","145400","pSARL_v2","pSARL_v2757rh77p","629082739390703f993b12bd","infreq","img/green_2bandit_b2.png","68","68","test","1","18","18","1","",""
"null","145745","pSARL_v2","pSARL_v2757rh77p","629082739390703f993b12bd","infreq_resp","img/green_2bandit_b.png","68","68","test","","","","1","",""
"null","145915","pSARL_v2","pSARL_v2757rh77p","629082739390703f993b12bd","fixation","img/fixation.png","null","","test","","","","","",""
"459.30000000074506","146380","pSARL_v2","pSARL_v2757rh77p","629082739390703f993b12bd","freq","img/orange_2bandit_b2.png","70","70","test","1","19","19","1","",""
"null","146727","pSARL_v2","pSARL_v2757rh77p","629082739390703f993b12bd","freq_resp","img/orange_2bandit_b.png","70","70","test","","","","1","",""
"null","146897","pSARL_v2","pSARL_v2757rh77p","629082739390703f993b12bd","fixation","img/fixation.png","null","","test","","","","","",""
"420.69999999925494","147323","pSARL_v2","pSARL_v2757rh77p","629082739390703f993b12bd","freq","img/orange_2bandit_b2.png","70","70","test","1","20","20","1","",""
"null","147712","pSARL_v2","pSARL_v2757rh77p","629082739390703f993b12bd","freq_resp","img/orange_2bandit_b.png","70","70","test","","","","1","",""
"null","147867","pSARL_v2","pSARL_v2757rh77p","629082739390703f993b12bd","fixation","img/fixation.png","null","","test","","","","","",""
"351","148222","pSARL_v2","pSARL_v2757rh77p","629082739390703f993b12bd","freq","img/orange_2bandit_b2.png","70","70","test","1","21","21","1","",""
"null","148680","pSARL_v2","pSARL_v2757rh77p","629082739390703f993b12bd","freq_resp","img/orange_2bandit_b.png","70","70","test","","","","1","",""
"null","148836","pSARL_v2","pSARL_v2757rh77p","629082739390703f993b12bd","fixation","img/fixation.png","null","","test","","","","","",""
"null","149650","pSARL_v2","pSARL_v2757rh77p","629082739390703f993b12bd","freq","img/orange_2bandit_b2.png","null","70","test","0","22","22","1","",""
"null","149805","pSARL_v2","pSARL_v2757rh77p","629082739390703f993b12bd","fixation","img/fixation.png","null","","test","","","","","",""
"472.69999999925494","150282","pSARL_v2","pSARL_v2757rh77p","629082739390703f993b12bd","freq","img/orange_2bandit_b2.png","70","70","test","1","23","23","1","",""
"null","150628","pSARL_v2","pSARL_v2757rh77p","629082739390703f993b12bd","freq_resp","img/orange_2bandit_b.png","70","70","test","","","","1","",""
"null","150786","pSARL_v2","pSARL_v2757rh77p","629082739390703f993b12bd","fixation","img/fixation.png","null","","test","","","","","",""
"630.0999999977648","151420","pSARL_v2","pSARL_v2757rh77p","629082739390703f993b12bd","freq","img/orange_2bandit_b2.png","70","70","test","1","24","24","1","",""
"null","151599","pSARL_v2","pSARL_v2757rh77p","629082739390703f993b12bd","freq_resp","img/orange_2bandit_b.png","70","70","test","","","","1","",""
"null","151756","pSARL_v2","pSARL_v2757rh77p","629082739390703f993b12bd","fixation","img/fixation.png","null","","test","","","","","",""
"763.1000000014901","152523","pSARL_v2","pSARL_v2757rh77p","629082739390703f993b12bd","reward","img/slot.png","74","","test","","","","","",""
"null","153286","pSARL_v2","pSARL_v2757rh77p","629082739390703f993b12bd","points","<div class=""verylowPoints""> -6 </div>","null","na","test","","","","1","-6","0"
"null","154095","pSARL_v2","pSARL_v2757rh77p","629082739390703f993b12bd","freq","img/orange_2bandit_b2.png","null","70","test","0","25","25","2","",""
"null","154250","pSARL_v2","pSARL_v2757rh77p","629082739390703f993b12bd","fixation","img/fixation.png","null","","test","","","","","",""
"36.5","154291","pSARL_v2","pSARL_v2757rh77p","629082739390703f993b12bd","freq","img/orange_2bandit_b2.png","68","70","test","0","26","26","2","",""
"null","155064","pSARL_v2","pSARL_v2757rh77p","629082739390703f993b12bd","freq_resp","img/orange_2bandit_b.png","68","70","test","","","","2","",""
"null","155221","pSARL_v2","pSARL_v2757rh77p","629082739390703f993b12bd","fixation","img/fixation.png","null","","test","","","","","",""
"612.8000000007451","155838","pSARL_v2","pSARL_v2757rh77p","629082739390703f993b12bd","freq","img/orange_2bandit_b2.png","70","70","test","1","27","27","2","",""
"null","156041","pSARL_v2","pSARL_v2757rh77p","629082739390703f993b12bd","freq_resp","img/orange_2bandit_b.png","70","70","test","","","","2","",""
"null","156211","pSARL_v2","pSARL_v2757rh77p","629082739390703f993b12bd","fixation","img/fixation.png","null","","test","","","","","",""
"415.8999999985099","156632","pSARL_v2","pSARL_v2757rh77p","629082739390703f993b12bd","freq","img/orange_2bandit_b2.png","70","70","test","1","28","28","2","",""
"null","157031","pSARL_v2","pSARL_v2757rh77p","629082739390703f993b12bd","freq_resp","img/orange_2bandit_b.png","70","70","test","","","","2","",""
"null","157187","pSARL_v2","pSARL_v2757rh77p","629082739390703f993b12bd","fixation","img/fixation.png","null","","test","","","","","",""
"623.1999999992549","157814","pSARL_v2","pSARL_v2757rh77p","629082739390703f993b12bd","infreq","img/green_2bandit_b2.png","68","68","test","1","29","29","2","",""
"null","157997","pSARL_v2","pSARL_v2757rh77p","629082739390703f993b12bd","infreq_resp","img/green_2bandit_b.png","68","68","test","","","","2","",""
"null","158168","pSARL_v2","pSARL_v2757rh77p","629082739390703f993b12bd","fixation","img/fixation.png","null","","test","","","","","",""
"487","158659","pSARL_v2","pSARL_v2757rh77p","629082739390703f993b12bd","freq","img/orange_2bandit_b2.png","70","70","test","1","30","30","2","",""
"null","158984","pSARL_v2","pSARL_v2757rh77p","629082739390703f993b12bd","freq_resp","img/orange_2bandit_b.png","70","70","test","","","","2","",""
"null","159155","pSARL_v2","pSARL_v2757rh77p","629082739390703f993b12bd","fixation","img/fixation.png","null","","test","","","","","",""
"555.4000000022352","159715","pSARL_v2","pSARL_v2757rh77p","629082739390703f993b12bd","infreq","img/green_2bandit_b2.png","68","68","test","1","31","31","2","",""
"null","159973","pSARL_v2","pSARL_v2757rh77p","629082739390703f993b12bd","infreq_resp","img/green_2bandit_b.png","68","68","test","","","","2","",""
"null","160129","pSARL_v2","pSARL_v2757rh77p","629082739390703f993b12bd","fixation","img/fixation.png","null","","test","","","","","",""
"354.19999999925494","160488","pSARL_v2","pSARL_v2757rh77p","629082739390703f993b12bd","freq","img/orange_2bandit_b2.png","70","70","test","1","32","32","2","",""
"null","160949","pSARL_v2","pSARL_v2757rh77p","629082739390703f993b12bd","freq_resp","img/orange_2bandit_b.png","70","70","test","","","","2","",""
"null","161105","pSARL_v2","pSARL_v2757rh77p","629082739390703f993b12bd","fixation","img/fixation.png","null","","test","","","","","",""
"316.9000000022352","161427","pSARL_v2","pSARL_v2757rh77p","629082739390703f993b12bd","freq","img/orange_2bandit_b2.png","70","70","test","1","33","33","2","",""
"null","161915","pSARL_v2","pSARL_v2757rh77p","629082739390703f993b12bd","freq_resp","img/orange_2bandit_b.png","70","70","test","","","","2","",""
"null","162070","pSARL_v2","pSARL_v2757rh77p","629082739390703f993b12bd","fixation","img/fixation.png","null","","test","","","","","",""
"266.20000000298023","162341","pSARL_v2","pSARL_v2757rh77p","629082739390703f993b12bd","freq","img/orange_2bandit_b2.png","70","70","test","1","34","34","2","",""
"null","162889","pSARL_v2","pSARL_v2757rh77p","629082739390703f993b12bd","freq_resp","img/orange_2bandit_b.png","70","70","test","","","","2","",""
"null","163048","pSARL_v2","pSARL_v2757rh77p","629082739390703f993b12bd","fixation","img/fixation.png","null","","test","","","","","",""
"246.19999999925494","163298","pSARL_v2","pSARL_v2757rh77p","629082739390703f993b12bd","freq","img/orange_2bandit_b2.png","70","70","test","1","35","35","2","",""
"null","163867","pSARL_v2","pSARL_v2757rh77p","629082739390703f993b12bd","freq_resp","img/orange_2bandit_b.png","70","70","test","","","","2","",""
"null","164026","pSARL_v2","pSARL_v2757rh77p","629082739390703f993b12bd","fixation","img/fixation.png","null","","test","","","","","",""
"312.0999999977648","164343","pSARL_v2","pSARL_v2757rh77p","629082739390703f993b12bd","freq","img/orange_2bandit_b2.png","70","70","test","1","36","36","2","",""
"null","164849","pSARL_v2","pSARL_v2757rh77p","629082739390703f993b12bd","freq_resp","img/orange_2bandit_b.png","70","70","test","","","","2","",""
"null","165010","pSARL_v2","pSARL_v2757rh77p","629082739390703f993b12bd","fixation","img/fixation.png","null","","test","","","","","",""
"281.19999999925494","165296","pSARL_v2","pSARL_v2757rh77p","629082739390703f993b12bd","freq","img/orange_2bandit_b2.png","70","70","test","1","37","37","2","",""
"null","165824","pSARL_v2","pSARL_v2757rh77p","629082739390703f993b12bd","freq_resp","img/orange_2bandit_b.png","70","70","test","","","","2","",""
"null","165980","pSARL_v2","pSARL_v2757rh77p","629082739390703f993b12bd","fixation","img/fixation.png","null","","test","","","","","",""
"295.19999999925494","166280","pSARL_v2","pSARL_v2757rh77p","629082739390703f993b12bd","freq","img/orange_2bandit_b2.png","70","70","test","1","38","38","2","",""
"null","166792","pSARL_v2","pSARL_v2757rh77p","629082739390703f993b12bd","freq_resp","img/orange_2bandit_b.png","70","70","test","","","","2","",""
"null","166961","pSARL_v2","pSARL_v2757rh77p","629082739390703f993b12bd","fixation","img/fixation.png","null","","test","","","","","",""
"388.5","167353","pSARL_v2","pSARL_v2757rh77p","629082739390703f993b12bd","freq","img/orange_2bandit_b2.png","70","70","test","1","39","39","2","",""
"null","167774","pSARL_v2","pSARL_v2757rh77p","629082739390703f993b12bd","freq_resp","img/orange_2bandit_b.png","70","70","test","","","","2","",""
"null","167930","pSARL_v2","pSARL_v2757rh77p","629082739390703f993b12bd","fixation","img/fixation.png","null","","test","","","","","",""
"364.9000000022352","168300","pSARL_v2","pSARL_v2757rh77p","629082739390703f993b12bd","freq","img/orange_2bandit_b2.png","70","70","test","1","40","40","2","",""
"null","168744","pSARL_v2","pSARL_v2757rh77p","629082739390703f993b12bd","freq_resp","img/orange_2bandit_b.png","70","70","test","","","","2","",""
"null","168901","pSARL_v2","pSARL_v2757rh77p","629082739390703f993b12bd","fixation","img/fixation.png","null","","test","","","","","",""
"354.69999999925494","169260","pSARL_v2","pSARL_v2757rh77p","629082739390703f993b12bd","freq","img/orange_2bandit_b2.png","70","70","test","1","41","41","2","",""
"null","169714","pSARL_v2","pSARL_v2757rh77p","629082739390703f993b12bd","freq_resp","img/orange_2bandit_b.png","70","70","test","","","","2","",""
"null","169884","pSARL_v2","pSARL_v2757rh77p","629082739390703f993b12bd","fixation","img/fixation.png","null","","test","","","","","",""
"348.29999999701977","170237","pSARL_v2","pSARL_v2757rh77p","629082739390703f993b12bd","freq","img/orange_2bandit_b2.png","70","70","test","1","42","42","2","",""
"null","170706","pSARL_v2","pSARL_v2757rh77p","629082739390703f993b12bd","freq_resp","img/orange_2bandit_b.png","70","70","test","","","","2","",""
"null","170862","pSARL_v2","pSARL_v2757rh77p","629082739390703f993b12bd","fixation","img/fixation.png","null","","test","","","","","",""
"306.79999999701977","171173","pSARL_v2","pSARL_v2757rh77p","629082739390703f993b12bd","freq","img/orange_2bandit_b2.png","70","70","test","1","43","43","2","",""
"null","171674","pSARL_v2","pSARL_v2757rh77p","629082739390703f993b12bd","freq_resp","img/orange_2bandit_b.png","70","70","test","","","","2","",""
"null","171831","pSARL_v2","pSARL_v2757rh77p","629082739390703f993b12bd","fixation","img/fixation.png","null","","test","","","","","",""
"236.60000000149012","172072","pSARL_v2","pSARL_v2757rh77p","629082739390703f993b12bd","freq","img/orange_2bandit_b2.png","70","70","test","1","44","44","2","",""
"null","172640","pSARL_v2","pSARL_v2757rh77p","629082739390703f993b12bd","freq_resp","img/orange_2bandit_b.png","70","70","test","","","","2","",""
"null","172795","pSARL_v2","pSARL_v2757rh77p","629082739390703f993b12bd","fixation","img/fixation.png","null","","test","","","","","",""
"205.69999999925494","173004","pSARL_v2","pSARL_v2757rh77p","629082739390703f993b12bd","freq","img/orange_2bandit_b2.png","70","70","test","1","45","45","2","",""
"null","173616","pSARL_v2","pSARL_v2757rh77p","629082739390703f993b12bd","freq_resp","img/orange_2bandit_b.png","70","70","test","","","","2","",""
"null","173787","pSARL_v2","pSARL_v2757rh77p","629082739390703f993b12bd","fixation","img/fixation.png","null","","test","","","","","",""
"308.29999999701977","174100","pSARL_v2","pSARL_v2757rh77p","629082739390703f993b12bd","freq","img/orange_2bandit_b2.png","70","70","test","1","46","46","2","",""
"null","174596","pSARL_v2","pSARL_v2757rh77p","629082739390703f993b12bd","freq_resp","img/orange_2bandit_b.png","70","70","test","","","","2","",""
"null","174764","pSARL_v2","pSARL_v2757rh77p","629082739390703f993b12bd","fixation","img/fixation.png","null","","test","","","","","",""
"342.79999999701977","175111","pSARL_v2","pSARL_v2757rh77p","629082739390703f993b12bd","freq","img/orange_2bandit_b2.png","70","70","test","1","47","47","2","",""
"null","175573","pSARL_v2","pSARL_v2757rh77p","629082739390703f993b12bd","freq_resp","img/orange_2bandit_b.png","70","70","test","","","","2","",""
"null","175729","pSARL_v2","pSARL_v2757rh77p","629082739390703f993b12bd","fixation","img/fixation.png","null","","test","","","","","",""
"343.5","176076","pSARL_v2","pSARL_v2757rh77p","629082739390703f993b12bd","freq","img/orange_2bandit_b2.png","70","70","test","1","48","48","2","",""
"null","176552","pSARL_v2","pSARL_v2757rh77p","629082739390703f993b12bd","freq_resp","img/orange_2bandit_b.png","70","70","test","","","","2","",""
"null","176709","pSARL_v2","pSARL_v2757rh77p","629082739390703f993b12bd","fixation","img/fixation.png","null","","test","","","","","",""
"689.1999999992549","177401","pSARL_v2","pSARL_v2757rh77p","629082739390703f993b12bd","reward","img/slot.png","74","","test","","","","","",""
"null","178166","pSARL_v2","pSARL_v2757rh77p","629082739390703f993b12bd","points","<div class=""verylowPoints""> -11 </div>","null","na","test","","","","2","-11","1"
"null","178973","pSARL_v2","pSARL_v2757rh77p","629082739390703f993b12bd","freq","img/orange_2bandit_b2.png","null","70","test","0","49","49","3","",""
"null","179128","pSARL_v2","pSARL_v2757rh77p","629082739390703f993b12bd","fixation","img/fixation.png","null","","test","","","","","",""
"79.69999999925494","179211","pSARL_v2","pSARL_v2757rh77p","629082739390703f993b12bd","infreq","img/green_2bandit_b2.png","70","68","test","0","50","50","3","",""
"null","179949","pSARL_v2","pSARL_v2757rh77p","629082739390703f993b12bd","infreq_resp","img/green_2bandit_b.png","70","68","test","","","","3","",""
"null","180120","pSARL_v2","pSARL_v2757rh77p","629082739390703f993b12bd","fixation","img/fixation.png","null","","test","","","","","",""
"494.3999999985099","180619","pSARL_v2","pSARL_v2757rh77p","629082739390703f993b12bd","freq","img/orange_2bandit_b2.png","70","70","test","1","51","51","3","",""
"null","180929","pSARL_v2","pSARL_v2757rh77p","629082739390703f993b12bd","freq_resp","img/orange_2bandit_b.png","70","70","test","","","","3","",""
"null","181086","pSARL_v2","pSARL_v2757rh77p","629082739390703f993b12bd","fixation","img/fixation.png","null","","test","","","","","",""
"469.3999999985099","181560","pSARL_v2","pSARL_v2757rh77p","629082739390703f993b12bd","freq","img/orange_2bandit_b2.png","70","70","test","1","52","52","3","",""
"null","181900","pSARL_v2","pSARL_v2757rh77p","629082739390703f993b12bd","freq_resp","img/orange_2bandit_b.png","70","70","test","","","","3","",""
"null","182062","pSARL_v2","pSARL_v2757rh77p","629082739390703f993b12bd","fixation","img/fixation.png","null","","test","","","","","",""
"381.1000000014901","182448","pSARL_v2","pSARL_v2757rh77p","629082739390703f993b12bd","freq","img/orange_2bandit_b2.png","70","70","test","1","53","53","3","",""
"null","182885","pSARL_v2","pSARL_v2757rh77p","629082739390703f993b12bd","freq_resp","img/orange_2bandit_b.png","70","70","test","","","","3","",""
"null","183048","pSARL_v2","pSARL_v2757rh77p","629082739390703f993b12bd","fixation","img/fixation.png","null","","test","","","","","",""
"310.1000000014901","183364","pSARL_v2","pSARL_v2757rh77p","629082739390703f993b12bd","infreq","img/green_2bandit_b2.png","70","68","test","0","54","54","3","",""
"null","183869","pSARL_v2","pSARL_v2757rh77p","629082739390703f993b12bd","infreq_resp","img/green_2bandit_b.png","70","68","test","","","","3","",""
"null","184029","pSARL_v2","pSARL_v2757rh77p","629082739390703f993b12bd","fixation","img/fixation.png","null","","test","","","","","",""
"372.80000000074506","184406","pSARL_v2","pSARL_v2757rh77p","629082739390703f993b12bd","freq","img/orange_2bandit_b2.png","70","70","test","1","55","55","3","",""
"null","184845","pSARL_v2","pSARL_v2757rh77p","629082739390703f993b12bd","freq_resp","img/orange_2bandit_b.png","70","70","test","","","","3","",""
"null","185000","pSARL_v2","pSARL_v2757rh77p","629082739390703f993b12bd","fixation","img/fixation.png","null","","test","","","","","",""
"335.1000000014901","185339","pSARL_v2","pSARL_v2757rh77p","629082739390703f993b12bd","freq","img/orange_2bandit_b2.png","70","70","test","1","56","56","3","",""
"null","185821","pSARL_v2","pSARL_v2757rh77p","629082739390703f993b12bd","freq_resp","img/orange_2bandit_b.png","70","70","test","","","","3","",""
"null","185989","pSARL_v2","pSARL_v2757rh77p","629082739390703f993b12bd","fixation","img/fixation.png","null","","test","","","","","",""
"311.29999999701977","186304","pSARL_v2","pSARL_v2757rh77p","629082739390703f993b12bd","freq","img/orange_2bandit_b2.png","70","70","test","1","57","57","3","",""
"null","186806","pSARL_v2","pSARL_v2757rh77p","629082739390703f993b12bd","freq_resp","img/orange_2bandit_b.png","70","70","test","","","","3","",""
"null","186965","pSARL_v2","pSARL_v2757rh77p","629082739390703f993b12bd","fixation","img/fixation.png","null","","test","","","","","",""
"285.6000000014901","187254","pSARL_v2","pSARL_v2757rh77p","629082739390703f993b12bd","freq","img/orange_2bandit_b2.png","70","70","test","1","58","58","3","",""
"null","187772","pSARL_v2","pSARL_v2757rh77p","629082739390703f993b12bd","freq_resp","img/orange_2bandit_b.png","70","70","test","","","","3","",""
"null","187929","pSARL_v2","pSARL_v2757rh77p","629082739390703f993b12bd","fixation","img/fixation.png","null","","test","","","","","",""
"269.5","188202","pSARL_v2","pSARL_v2757rh77p","629082739390703f993b12bd","freq","img/orange_2bandit_b2.png","70","70","test","1","59","59","3","",""
"null","188744","pSARL_v2","pSARL_v2757rh77p","629082739390703f993b12bd","freq_resp","img/orange_2bandit_b.png","70","70","test","","","","3","",""
"null","188902","pSARL_v2","pSARL_v2757rh77p","629082739390703f993b12bd","fixation","img/fixation.png","null","","test","","","","","",""
"251.40000000223517","189157","pSARL_v2","pSARL_v2757rh77p","629082739390703f993b12bd","freq","img/orange_2bandit_b2.png","70","70","test","1","60","60","3","",""
"null","189722","pSARL_v2","pSARL_v2757rh77p","629082739390703f993b12bd","freq_resp","img/orange_2bandit_b.png","70","70","test","","","","3","",""
"null","189885","pSARL_v2","pSARL_v2757rh77p","629082739390703f993b12bd","fixation","img/fixation.png","null","","test","","","","","",""
"212.80000000074506","190102","pSARL_v2","pSARL_v2757rh77p","629082739390703f993b12bd","freq","img/orange_2bandit_b2.png","70","70","test","1","61","61","3","",""
"null","190697","pSARL_v2","pSARL_v2757rh77p","629082739390703f993b12bd","freq_resp","img/orange_2bandit_b.png","70","70","test","","","","3","",""
"null","190868","pSARL_v2","pSARL_v2757rh77p","629082739390703f993b12bd","fixation","img/fixation.png","null","","test","","","","","",""
"367.69999999925494","191239","pSARL_v2","pSARL_v2757rh77p","629082739390703f993b12bd","freq","img/orange_2bandit_b2.png","70","70","test","1","62","62","3","",""
"null","191678","pSARL_v2","pSARL_v2757rh77p","629082739390703f993b12bd","freq_resp","img/orange_2bandit_b.png","70","70","test","","","","3","",""
"null","191834","pSARL_v2","pSARL_v2757rh77p","629082739390703f993b12bd","fixation","img/fixation.png","null","","test","","","","","",""
"273.19999999925494","192111","pSARL_v2","pSARL_v2757rh77p","629082739390703f993b12bd","freq","img/orange_2bandit_b2.png","70","70","test","1","63","63","3","",""
"null","192646","pSARL_v2","pSARL_v2757rh77p","629082739390703f993b12bd","freq_resp","img/orange_2bandit_b.png","70","70","test","","","","3","",""
"null","192803","pSARL_v2","pSARL_v2757rh77p","629082739390703f993b12bd","fixation","img/fixation.png","null","","test","","","","","",""
"314","193121","pSARL_v2","pSARL_v2757rh77p","629082739390703f993b12bd","freq","img/orange_2bandit_b2.png","70","70","test","1","64","64","3","",""
"null","193616","pSARL_v2","pSARL_v2757rh77p","629082739390703f993b12bd","freq_resp","img/orange_2bandit_b.png","70","70","test","","","","3","",""
"null","193772","pSARL_v2","pSARL_v2757rh77p","629082739390703f993b12bd","fixation","img/fixation.png","null","","test","","","","","",""
"275.30000000074506","194052","pSARL_v2","pSARL_v2757rh77p","629082739390703f993b12bd","freq","img/orange_2bandit_b2.png","70","70","test","1","65","65","3","",""
"null","194588","pSARL_v2","pSARL_v2757rh77p","629082739390703f993b12bd","freq_resp","img/orange_2bandit_b.png","70","70","test","","","","3","",""
"null","194745","pSARL_v2","pSARL_v2757rh77p","629082739390703f993b12bd","fixation","img/fixation.png","null","","test","","","","","",""
"261.80000000074506","195012","pSARL_v2","pSARL_v2757rh77p","629082739390703f993b12bd","freq","img/orange_2bandit_b2.png","70","70","test","1","66","66","3","",""
"null","195562","pSARL_v2","pSARL_v2757rh77p","629082739390703f993b12bd","freq_resp","img/orange_2bandit_b.png","70","70","test","","","","3","",""
"null","195716","pSARL_v2","pSARL_v2757rh77p","629082739390703f993b12bd","fixation","img/fixation.png","null","","test","","","","","",""
"274.80000000074506","195996","pSARL_v2","pSARL_v2757rh77p","629082739390703f993b12bd","freq","img/orange_2bandit_b2.png","70","70","test","1","67","67","3","",""
"null","196529","pSARL_v2","pSARL_v2757rh77p","629082739390703f993b12bd","freq_resp","img/orange_2bandit_b.png","70","70","test","","","","3","",""
"null","196684","pSARL_v2","pSARL_v2757rh77p","629082739390703f993b12bd","fixation","img/fixation.png","null","","test","","","","","",""
"546","197234","pSARL_v2","pSARL_v2757rh77p","629082739390703f993b12bd","reward","img/slot.png","74","","test","","","","","",""
"null","197993","pSARL_v2","pSARL_v2757rh77p","629082739390703f993b12bd","points","<div class=""verylowPoints""> -7 </div>","null","na","test","","","","3","-7","2"
"null","198810","pSARL_v2","pSARL_v2757rh77p","629082739390703f993b12bd","freq","img/orange_2bandit_b2.png","null","70","test","0","68","68","4","",""
"null","198967","pSARL_v2","pSARL_v2757rh77p","629082739390703f993b12bd","fixation","img/fixation.png","null","","test","","","","","",""
"20.099999997764826","198991","pSARL_v2","pSARL_v2757rh77p","629082739390703f993b12bd","freq","img/orange_2bandit_b2.png","68","70","test","0","69","69","4","",""
"null","199785","pSARL_v2","pSARL_v2757rh77p","629082739390703f993b12bd","freq_resp","img/orange_2bandit_b.png","68","70","test","","","","4","",""
"null","199940","pSARL_v2","pSARL_v2757rh77p","629082739390703f993b12bd","fixation","img/fixation.png","null","","test","","","","","",""
"546.1999999992549","200491","pSARL_v2","pSARL_v2757rh77p","629082739390703f993b12bd","freq","img/orange_2bandit_b2.png","70","70","test","1","70","70","4","",""
"null","200756","pSARL_v2","pSARL_v2757rh77p","629082739390703f993b12bd","freq_resp","img/orange_2bandit_b.png","70","70","test","","","","4","",""
"null","200927","pSARL_v2","pSARL_v2757rh77p","629082739390703f993b12bd","fixation","img/fixation.png","null","","test","","","","","",""
"null","201743","pSARL_v2","pSARL_v2757rh77p","629082739390703f993b12bd","freq","img/orange_2bandit_b2.png","null","70","test","0","71","71","4","",""
"null","201898","pSARL_v2","pSARL_v2757rh77p","629082739390703f993b12bd","fixation","img/fixation.png","null","","test","","","","","",""
"28.5","201930","pSARL_v2","pSARL_v2757rh77p","629082739390703f993b12bd","freq","img/orange_2bandit_b2.png","70","70","test","1","72","72","4","",""
"null","202714","pSARL_v2","pSARL_v2757rh77p","629082739390703f993b12bd","freq_resp","img/orange_2bandit_b.png","70","70","test","","","","4","",""
"null","202869","pSARL_v2","pSARL_v2757rh77p","629082739390703f993b12bd","fixation","img/fixation.png","null","","test","","","","","",""
"511.69999999925494","203385","pSARL_v2","pSARL_v2757rh77p","629082739390703f993b12bd","freq","img/orange_2bandit_b2.png","70","70","test","1","73","73","4","",""
"null","203679","pSARL_v2","pSARL_v2757rh77p","629082739390703f993b12bd","freq_resp","img/orange_2bandit_b.png","70","70","test","","","","4","",""
"null","203836","pSARL_v2","pSARL_v2757rh77p","629082739390703f993b12bd","fixation","img/fixation.png","null","","test","","","","","",""
"560.1999999992549","204402","pSARL_v2","pSARL_v2757rh77p","629082739390703f993b12bd","freq","img/orange_2bandit_b2.png","70","70","test","1","74","74","4","",""
"null","204650","pSARL_v2","pSARL_v2757rh77p","629082739390703f993b12bd","freq_resp","img/orange_2bandit_b.png","70","70","test","","","","4","",""
"null","204807","pSARL_v2","pSARL_v2757rh77p","629082739390703f993b12bd","fixation","img/fixation.png","null","","test","","","","","",""
"574.8000000007451","205387","pSARL_v2","pSARL_v2757rh77p","629082739390703f993b12bd","infreq","img/green_2bandit_b2.png","68","68","test","1","75","75","4","",""
"null","205620","pSARL_v2","pSARL_v2757rh77p","629082739390703f993b12bd","infreq_resp","img/green_2bandit_b.png","68","68","test","","","","4","",""
"null","205775","pSARL_v2","pSARL_v2757rh77p","629082739390703f993b12bd","fixation","img/fixation.png","null","","test","","","","","",""
"483.3999999985099","206262","pSARL_v2","pSARL_v2757rh77p","629082739390703f993b12bd","freq","img/orange_2bandit_b2.png","70","70","test","1","76","76","4","",""
"null","206591","pSARL_v2","pSARL_v2757rh77p","629082739390703f993b12bd","freq_resp","img/orange_2bandit_b.png","70","70","test","","","","4","",""
"null","206761","pSARL_v2","pSARL_v2757rh77p","629082739390703f993b12bd","fixation","img/fixation.png","null","","test","","","","","",""
"336.80000000074506","207102","pSARL_v2","pSARL_v2757rh77p","629082739390703f993b12bd","freq","img/orange_2bandit_b2.png","70","70","test","1","77","77","4","",""
"null","207571","pSARL_v2","pSARL_v2757rh77p","629082739390703f993b12bd","freq_resp","img/orange_2bandit_b.png","70","70","test","","","","4","",""
"null","207729","pSARL_v2","pSARL_v2757rh77p","629082739390703f993b12bd","fixation","img/fixation.png","null","","test","","","","","",""
"494","208228","pSARL_v2","pSARL_v2757rh77p","629082739390703f993b12bd","infreq","img/green_2bandit_b2.png","68","68","test","1","78","78","4","",""
"null","208541","pSARL_v2","pSARL_v2757rh77p","629082739390703f993b12bd","infreq_resp","img/green_2bandit_b.png","68","68","test","","","","4","",""
"null","208711","pSARL_v2","pSARL_v2757rh77p","629082739390703f993b12bd","fixation","img/fixation.png","null","","test","","","","","",""
"348.69999999925494","209064","pSARL_v2","pSARL_v2757rh77p","629082739390703f993b12bd","freq","img/orange_2bandit_b2.png","70","70","test","1","79","79","4","",""
"null","209521","pSARL_v2","pSARL_v2757rh77p","629082739390703f993b12bd","freq_resp","img/orange_2bandit_b.png","70","70","test","","","","4","",""
"null","209692","pSARL_v2","pSARL_v2757rh77p","629082739390703f993b12bd","fixation","img/fixation.png","null","","test","","","","","",""
"291.69999999925494","209988","pSARL_v2","pSARL_v2757rh77p","629082739390703f993b12bd","freq","img/orange_2bandit_b2.png","70","70","test","1","80","80","4","",""
"null","210510","pSARL_v2","pSARL_v2757rh77p","629082739390703f993b12bd","freq_resp","img/orange_2bandit_b.png","70","70","test","","","","4","",""
"null","210677","pSARL_v2","pSARL_v2757rh77p","629082739390703f993b12bd","fixation","img/fixation.png","null","","test","","","","","",""
"681.3000000007451","211362","pSARL_v2","pSARL_v2757rh77p","629082739390703f993b12bd","freq","img/orange_2bandit_b2.png","70","70","test","1","81","81","4","",""
"null","211498","pSARL_v2","pSARL_v2757rh77p","629082739390703f993b12bd","freq_resp","img/orange_2bandit_b.png","70","70","test","","","","4","",""
"null","211655","pSARL_v2","pSARL_v2757rh77p","629082739390703f993b12bd","fixation","img/fixation.png","null","","test","","","","","",""
"717.5999999977648","212376","pSARL_v2","pSARL_v2757rh77p","629082739390703f993b12bd","freq","img/orange_2bandit_b2.png","70","70","test","1","82","82","4","",""
"null","212472","pSARL_v2","pSARL_v2757rh77p","629082739390703f993b12bd","freq_resp","img/orange_2bandit_b.png","70","70","test","","","","4","",""
"null","212631","pSARL_v2","pSARL_v2757rh77p","629082739390703f993b12bd","fixation","img/fixation.png","null","","test","","","","","",""
"462","213096","pSARL_v2","pSARL_v2757rh77p","629082739390703f993b12bd","freq","img/orange_2bandit_b2.png","70","70","test","1","83","83","4","",""
"null","213446","pSARL_v2","pSARL_v2757rh77p","629082739390703f993b12bd","freq_resp","img/orange_2bandit_b.png","70","70","test","","","","4","",""
"null","213602","pSARL_v2","pSARL_v2757rh77p","629082739390703f993b12bd","fixation","img/fixation.png","null","","test","","","","","",""
"267.79999999701977","213873","pSARL_v2","pSARL_v2757rh77p","629082739390703f993b12bd","freq","img/orange_2bandit_b2.png","70","70","test","1","84","84","4","",""
"null","214418","pSARL_v2","pSARL_v2757rh77p","629082739390703f993b12bd","freq_resp","img/orange_2bandit_b.png","70","70","test","","","","4","",""
"null","214575","pSARL_v2","pSARL_v2757rh77p","629082739390703f993b12bd","fixation","img/fixation.png","null","","test","","","","","",""
"222","214802","pSARL_v2","pSARL_v2757rh77p","629082739390703f993b12bd","freq","img/orange_2bandit_b2.png","70","70","test","1","85","85","4","",""
"null","215390","pSARL_v2","pSARL_v2757rh77p","629082739390703f993b12bd","freq_resp","img/orange_2bandit_b.png","70","70","test","","","","4","",""
"null","215546","pSARL_v2","pSARL_v2757rh77p","629082739390703f993b12bd","fixation","img/fixation.png","null","","test","","","","","",""
"257.3999999985099","215809","pSARL_v2","pSARL_v2757rh77p","629082739390703f993b12bd","freq","img/orange_2bandit_b2.png","70","70","test","1","86","86","4","",""
"null","216359","pSARL_v2","pSARL_v2757rh77p","629082739390703f993b12bd","freq_resp","img/orange_2bandit_b.png","70","70","test","","","","4","",""
"null","216528","pSARL_v2","pSARL_v2757rh77p","629082739390703f993b12bd","fixation","img/fixation.png","null","","test","","","","","",""
"421.19999999925494","216954","pSARL_v2","pSARL_v2757rh77p","629082739390703f993b12bd","freq","img/orange_2bandit_b2.png","70","70","test","1","87","87","4","",""
"null","217345","pSARL_v2","pSARL_v2757rh77p","629082739390703f993b12bd","freq_resp","img/orange_2bandit_b.png","70","70","test","","","","4","",""
"null","217515","pSARL_v2","pSARL_v2757rh77p","629082739390703f993b12bd","fixation","img/fixation.png","null","","test","","","","","",""
"338.5999999977648","217858","pSARL_v2","pSARL_v2757rh77p","629082739390703f993b12bd","freq","img/orange_2bandit_b2.png","70","70","test","1","88","88","4","",""
"null","218327","pSARL_v2","pSARL_v2757rh77p","629082739390703f993b12bd","freq_resp","img/orange_2bandit_b.png","70","70","test","","","","4","",""
"null","218498","pSARL_v2","pSARL_v2757rh77p","629082739390703f993b12bd","fixation","img/fixation.png","null","","test","","","","","",""
"316.5","218819","pSARL_v2","pSARL_v2757rh77p","629082739390703f993b12bd","freq","img/orange_2bandit_b2.png","70","70","test","1","89","89","4","",""
"null","219322","pSARL_v2","pSARL_v2757rh77p","629082739390703f993b12bd","freq_resp","img/orange_2bandit_b.png","70","70","test","","","","4","",""
"null","219478","pSARL_v2","pSARL_v2757rh77p","629082739390703f993b12bd","fixation","img/fixation.png","null","","test","","","","","",""
"321.0999999977648","219804","pSARL_v2","pSARL_v2757rh77p","629082739390703f993b12bd","freq","img/orange_2bandit_b2.png","70","70","test","1","90","90","4","",""
"null","220292","pSARL_v2","pSARL_v2757rh77p","629082739390703f993b12bd","freq_resp","img/orange_2bandit_b.png","70","70","test","","","","4","",""
"null","220447","pSARL_v2","pSARL_v2757rh77p","629082739390703f993b12bd","fixation","img/fixation.png","null","","test","","","","","",""
"437.9000000022352","220889","pSARL_v2","pSARL_v2757rh77p","629082739390703f993b12bd","reward","img/slot.png","74","","test","","","","","",""
"null","221649","pSARL_v2","pSARL_v2757rh77p","629082739390703f993b12bd","points","<div class=""verylowPoints""> -3 </div>","null","na","test","","","","4","-3","3"
"684.5999999977648","222337","pSARL_v2","pSARL_v2757rh77p","629082739390703f993b12bd","freq","img/orange_2bandit_b2.png","70","70","test","1","91","91","5","",""
"null","222465","pSARL_v2","pSARL_v2757rh77p","629082739390703f993b12bd","freq_resp","img/orange_2bandit_b.png","70","70","test","","","","5","",""
"null","222626","pSARL_v2","pSARL_v2757rh77p","629082739390703f993b12bd","fixation","img/fixation.png","null","","test","","","","","",""
"455.5","223086","pSARL_v2","pSARL_v2757rh77p","629082739390703f993b12bd","freq","img/orange_2bandit_b2.png","70","70","test","1","92","92","5","",""
"null","223452","pSARL_v2","pSARL_v2757rh77p","629082739390703f993b12bd","freq_resp","img/orange_2bandit_b.png","70","70","test","","","","5","",""
"null","223620","pSARL_v2","pSARL_v2757rh77p","629082739390703f993b12bd","fixation","img/fixation.png","null","","test","","","","","",""
"374.19999999925494","223999","pSARL_v2","pSARL_v2757rh77p","629082739390703f993b12bd","freq","img/orange_2bandit_b2.png","70","70","test","1","93","93","5","",""
"null","224437","pSARL_v2","pSARL_v2757rh77p","629082739390703f993b12bd","freq_resp","img/orange_2bandit_b.png","70","70","test","","","","5","",""
"null","224607","pSARL_v2","pSARL_v2757rh77p","629082739390703f993b12bd","fixation","img/fixation.png","null","","test","","","","","",""
"290.69999999925494","224901","pSARL_v2","pSARL_v2757rh77p","629082739390703f993b12bd","freq","img/orange_2bandit_b2.png","70","70","test","1","94","94","5","",""
"null","225420","pSARL_v2","pSARL_v2757rh77p","629082739390703f993b12bd","freq_resp","img/orange_2bandit_b.png","70","70","test","","","","5","",""
"null","225576","pSARL_v2","pSARL_v2757rh77p","629082739390703f993b12bd","fixation","img/fixation.png","null","","test","","","","","",""
"146.60000000149012","225728","pSARL_v2","pSARL_v2757rh77p","629082739390703f993b12bd","freq","img/orange_2bandit_b2.png","70","70","test","1","95","95","5","",""
"null","226389","pSARL_v2","pSARL_v2757rh77p","629082739390703f993b12bd","freq_resp","img/orange_2bandit_b.png","70","70","test","","","","5","",""
"null","226547","pSARL_v2","pSARL_v2757rh77p","629082739390703f993b12bd","fixation","img/fixation.png","null","","test","","","","","",""
"106.70000000298023","226657","pSARL_v2","pSARL_v2757rh77p","629082739390703f993b12bd","freq","img/orange_2bandit_b2.png","70","70","test","1","96","96","5","",""
"null","227358","pSARL_v2","pSARL_v2757rh77p","629082739390703f993b12bd","freq_resp","img/orange_2bandit_b.png","70","70","test","","","","5","",""
"null","227529","pSARL_v2","pSARL_v2757rh77p","629082739390703f993b12bd","fixation","img/fixation.png","null","","test","","","","","",""
"58.5","227591","pSARL_v2","pSARL_v2757rh77p","629082739390703f993b12bd","freq","img/orange_2bandit_b2.png","70","70","test","1","97","97","5","",""
"null","228346","pSARL_v2","pSARL_v2757rh77p","629082739390703f993b12bd","freq_resp","img/orange_2bandit_b.png","70","70","test","","","","5","",""
"null","228502","pSARL_v2","pSARL_v2757rh77p","629082739390703f993b12bd","fixation","img/fixation.png","null","","test","","","","","",""
"87.69999999925494","228593","pSARL_v2","pSARL_v2757rh77p","629082739390703f993b12bd","infreq","img/green_2bandit_b2.png","70","68","test","0","98","98","5","",""
"null","229319","pSARL_v2","pSARL_v2757rh77p","629082739390703f993b12bd","infreq_resp","img/green_2bandit_b.png","70","68","test","","","","5","",""
"null","229490","pSARL_v2","pSARL_v2757rh77p","629082739390703f993b12bd","fixation","img/fixation.png","null","","test","","","","","",""
"137.69999999925494","229631","pSARL_v2","pSARL_v2757rh77p","629082739390703f993b12bd","freq","img/orange_2bandit_b2.png","70","70","test","1","99","99","5","",""
"null","230313","pSARL_v2","pSARL_v2757rh77p","629082739390703f993b12bd","freq_resp","img/orange_2bandit_b.png","70","70","test","","","","5","",""
"null","230484","pSARL_v2","pSARL_v2757rh77p","629082739390703f993b12bd","fixation","img/fixation.png","null","","test","","","","","",""
"309.5","230797","pSARL_v2","pSARL_v2757rh77p","629082739390703f993b12bd","freq","img/orange_2bandit_b2.png","70","70","test","1","100","100","5","",""
"null","231299","pSARL_v2","pSARL_v2757rh77p","629082739390703f993b12bd","freq_resp","img/orange_2bandit_b.png","70","70","test","","","","5","",""
"null","231455","pSARL_v2","pSARL_v2757rh77p","629082739390703f993b12bd","fixation","img/fixation.png","null","","test","","","","","",""
"237.30000000074506","231697","pSARL_v2","pSARL_v2757rh77p","629082739390703f993b12bd","freq","img/orange_2bandit_b2.png","70","70","test","1","101","101","5","",""
"null","232270","pSARL_v2","pSARL_v2757rh77p","629082739390703f993b12bd","freq_resp","img/orange_2bandit_b.png","70","70","test","","","","5","",""
"null","232425","pSARL_v2","pSARL_v2757rh77p","629082739390703f993b12bd","fixation","img/fixation.png","null","","test","","","","","",""
"202.89999999850988","232633","pSARL_v2","pSARL_v2757rh77p","629082739390703f993b12bd","freq","img/orange_2bandit_b2.png","70","70","test","1","102","102","5","",""
"null","233236","pSARL_v2","pSARL_v2757rh77p","629082739390703f993b12bd","freq_resp","img/orange_2bandit_b.png","70","70","test","","","","5","",""
"null","233391","pSARL_v2","pSARL_v2757rh77p","629082739390703f993b12bd","fixation","img/fixation.png","null","","test","","","","","",""
"188.59999999776483","233584","pSARL_v2","pSARL_v2757rh77p","629082739390703f993b12bd","freq","img/orange_2bandit_b2.png","70","70","test","1","103","103","5","",""
"null","234205","pSARL_v2","pSARL_v2757rh77p","629082739390703f993b12bd","freq_resp","img/orange_2bandit_b.png","70","70","test","","","","5","",""
"null","234376","pSARL_v2","pSARL_v2757rh77p","629082739390703f993b12bd","fixation","img/fixation.png","null","","test","","","","","",""
"228.60000000149012","234609","pSARL_v2","pSARL_v2757rh77p","629082739390703f993b12bd","freq","img/orange_2bandit_b2.png","70","70","test","1","104","104","5","",""
"null","235191","pSARL_v2","pSARL_v2757rh77p","629082739390703f993b12bd","freq_resp","img/orange_2bandit_b.png","70","70","test","","","","5","",""
"null","235350","pSARL_v2","pSARL_v2757rh77p","629082739390703f993b12bd","fixation","img/fixation.png","null","","test","","","","","",""
"371.0999999977648","235726","pSARL_v2","pSARL_v2757rh77p","629082739390703f993b12bd","freq","img/orange_2bandit_b2.png","70","70","test","1","105","105","5","",""
"null","236170","pSARL_v2","pSARL_v2757rh77p","629082739390703f993b12bd","freq_resp","img/orange_2bandit_b.png","70","70","test","","","","5","",""
"null","236340","pSARL_v2","pSARL_v2757rh77p","629082739390703f993b12bd","fixation","img/fixation.png","null","","test","","","","","",""
"305.5999999977648","236649","pSARL_v2","pSARL_v2757rh77p","629082739390703f993b12bd","freq","img/orange_2bandit_b2.png","70","70","test","1","106","106","5","",""
"null","237153","pSARL_v2","pSARL_v2757rh77p","629082739390703f993b12bd","freq_resp","img/orange_2bandit_b.png","70","70","test","","","","5","",""
"null","237313","pSARL_v2","pSARL_v2757rh77p","629082739390703f993b12bd","fixation","img/fixation.png","null","","test","","","","","",""
"379.5","237697","pSARL_v2","pSARL_v2757rh77p","629082739390703f993b12bd","freq","img/orange_2bandit_b2.png","70","70","test","1","107","107","5","",""
"null","238133","pSARL_v2","pSARL_v2757rh77p","629082739390703f993b12bd","freq_resp","img/orange_2bandit_b.png","70","70","test","","","","5","",""
"null","238288","pSARL_v2","pSARL_v2757rh77p","629082739390703f993b12bd","fixation","img/fixation.png","null","","test","","","","","",""
"328.5999999977648","238621","pSARL_v2","pSARL_v2757rh77p","629082739390703f993b12bd","freq","img/orange_2bandit_b2.png","70","70","test","1","108","108","5","",""
"null","239103","pSARL_v2","pSARL_v2757rh77p","629082739390703f993b12bd","freq_resp","img/orange_2bandit_b.png","70","70","test","","","","5","",""
"null","239274","pSARL_v2","pSARL_v2757rh77p","629082739390703f993b12bd","fixation","img/fixation.png","null","","test","","","","","",""
"366","239644","pSARL_v2","pSARL_v2757rh77p","629082739390703f993b12bd","freq","img/orange_2bandit_b2.png","70","70","test","1","109","109","5","",""
"null","240094","pSARL_v2","pSARL_v2757rh77p","629082739390703f993b12bd","freq_resp","img/orange_2bandit_b.png","70","70","test","","","","5","",""
"null","240263","pSARL_v2","pSARL_v2757rh77p","629082739390703f993b12bd","fixation","img/fixation.png","null","","test","","","","","",""
"571.8000000007451","240839","pSARL_v2","pSARL_v2757rh77p","629082739390703f993b12bd","infreq","img/green_2bandit_b2.png","68","68","test","1","110","110","5","",""
"null","241074","pSARL_v2","pSARL_v2757rh77p","629082739390703f993b12bd","infreq_resp","img/green_2bandit_b.png","68","68","test","","","","5","",""
"null","241245","pSARL_v2","pSARL_v2757rh77p","629082739390703f993b12bd","fixation","img/fixation.png","null","","test","","","","","",""
"473.6000000014901","241724","pSARL_v2","pSARL_v2757rh77p","629082739390703f993b12bd","freq","img/orange_2bandit_b2.png","70","70","test","1","111","111","5","",""
"null","242056","pSARL_v2","pSARL_v2757rh77p","629082739390703f993b12bd","freq_resp","img/orange_2bandit_b.png","70","70","test","","","","5","",""
"null","242226","pSARL_v2","pSARL_v2757rh77p","629082739390703f993b12bd","fixation","img/fixation.png","null","","test","","","","","",""
"335.5","242566","pSARL_v2","pSARL_v2757rh77p","629082739390703f993b12bd","freq","img/orange_2bandit_b2.png","70","70","test","1","112","112","5","",""
"null","243047","pSARL_v2","pSARL_v2757rh77p","629082739390703f993b12bd","freq_resp","img/orange_2bandit_b.png","70","70","test","","","","5","",""
"null","243217","pSARL_v2","pSARL_v2757rh77p","629082739390703f993b12bd","fixation","img/fixation.png","null","","test","","","","","",""
"475.30000000074506","243697","pSARL_v2","pSARL_v2757rh77p","629082739390703f993b12bd","reward","img/slot.png","74","","test","","","","","",""
"null","244463","pSARL_v2","pSARL_v2757rh77p","629082739390703f993b12bd","points","<div class=""veryhighPoints""> +1 </div>","null","na","test","","","","5","1","4"
"586.1000000014901","245054","pSARL_v2","pSARL_v2757rh77p","629082739390703f993b12bd","freq","img/orange_2bandit_b2.png","70","70","test","1","113","113","6","",""
"null","245273","pSARL_v2","pSARL_v2757rh77p","629082739390703f993b12bd","freq_resp","img/orange_2bandit_b.png","70","70","test","","","","6","",""
"null","245430","pSARL_v2","pSARL_v2757rh77p","629082739390703f993b12bd","fixation","img/fixation.png","null","","test","","","","","",""
"513.2000000029802","245947","pSARL_v2","pSARL_v2757rh77p","629082739390703f993b12bd","freq","img/orange_2bandit_b2.png","70","70","test","1","114","114","6","",""
"null","246243","pSARL_v2","pSARL_v2757rh77p","629082739390703f993b12bd","freq_resp","img/orange_2bandit_b.png","70","70","test","","","","6","",""
"null","246414","pSARL_v2","pSARL_v2757rh77p","629082739390703f993b12bd","fixation","img/fixation.png","null","","test","","","","","",""
"414.29999999701977","246833","pSARL_v2","pSARL_v2757rh77p","629082739390703f993b12bd","freq","img/orange_2bandit_b2.png","70","70","test","1","115","115","6","",""
"null","247229","pSARL_v2","pSARL_v2757rh77p","629082739390703f993b12bd","freq_resp","img/orange_2bandit_b.png","70","70","test","","","","6","",""
"null","247385","pSARL_v2","pSARL_v2757rh77p","629082739390703f993b12bd","fixation","img/fixation.png","null","","test","","","","","",""
"327.9000000022352","247717","pSARL_v2","pSARL_v2757rh77p","629082739390703f993b12bd","freq","img/orange_2bandit_b2.png","70","70","test","1","116","116","6","",""
"null","248196","pSARL_v2","pSARL_v2757rh77p","629082739390703f993b12bd","freq_resp","img/orange_2bandit_b.png","70","70","test","","","","6","",""
"null","248351","pSARL_v2","pSARL_v2757rh77p","629082739390703f993b12bd","fixation","img/fixation.png","null","","test","","","","","",""
"255.19999999925494","248610","pSARL_v2","pSARL_v2757rh77p","629082739390703f993b12bd","freq","img/orange_2bandit_b2.png","70","70","test","1","117","117","6","",""
"null","249162","pSARL_v2","pSARL_v2757rh77p","629082739390703f993b12bd","freq_resp","img/orange_2bandit_b.png","70","70","test","","","","6","",""
"null","249318","pSARL_v2","pSARL_v2757rh77p","629082739390703f993b12bd","fixation","img/fixation.png","null","","test","","","","","",""
"274.9000000022352","249598","pSARL_v2","pSARL_v2757rh77p","629082739390703f993b12bd","freq","img/orange_2bandit_b2.png","70","70","test","1","118","118","6","",""
"null","250135","pSARL_v2","pSARL_v2757rh77p","629082739390703f993b12bd","freq_resp","img/orange_2bandit_b.png","70","70","test","","","","6","",""
"null","250300","pSARL_v2","pSARL_v2757rh77p","629082739390703f993b12bd","fixation","img/fixation.png","null","","test","","","","","",""
"419.70000000298023","250725","pSARL_v2","pSARL_v2757rh77p","629082739390703f993b12bd","freq","img/orange_2bandit_b2.png","70","70","test","1","119","119","6","",""
"null","251119","pSARL_v2","pSARL_v2757rh77p","629082739390703f993b12bd","freq_resp","img/orange_2bandit_b.png","70","70","test","","","","6","",""
"null","251290","pSARL_v2","pSARL_v2757rh77p","629082739390703f993b12bd","fixation","img/fixation.png","null","","test","","","","","",""
"356.5999999977648","251651","pSARL_v2","pSARL_v2757rh77p","629082739390703f993b12bd","freq","img/orange_2bandit_b2.png","70","70","test","1","120","120","6","",""
"null","252103","pSARL_v2","pSARL_v2757rh77p","629082739390703f993b12bd","freq_resp","img/orange_2bandit_b.png","70","70","test","","","","6","",""
"null","252259","pSARL_v2","pSARL_v2757rh77p","629082739390703f993b12bd","fixation","img/fixation.png","null","","test","","","","","",""
"266.9000000022352","252530","pSARL_v2","pSARL_v2757rh77p","629082739390703f993b12bd","freq","img/orange_2bandit_b2.png","70","70","test","1","121","121","6","",""
"null","253069","pSARL_v2","pSARL_v2757rh77p","629082739390703f993b12bd","freq_resp","img/orange_2bandit_b.png","70","70","test","","","","6","",""
"null","253241","pSARL_v2","pSARL_v2757rh77p","629082739390703f993b12bd","fixation","img/fixation.png","null","","test","","","","","",""
"348.69999999925494","253594","pSARL_v2","pSARL_v2757rh77p","629082739390703f993b12bd","freq","img/orange_2bandit_b2.png","70","70","test","1","122","122","6","",""
"null","254066","pSARL_v2","pSARL_v2757rh77p","629082739390703f993b12bd","freq_resp","img/orange_2bandit_b.png","70","70","test","","","","6","",""
"null","254222","pSARL_v2","pSARL_v2757rh77p","629082739390703f993b12bd","fixation","img/fixation.png","null","","test","","","","","",""
"278.69999999925494","254506","pSARL_v2","pSARL_v2757rh77p","629082739390703f993b12bd","freq","img/orange_2bandit_b2.png","70","70","test","1","123","123","6","",""
"null","255041","pSARL_v2","pSARL_v2757rh77p","629082739390703f993b12bd","freq_resp","img/orange_2bandit_b.png","70","70","test","","","","6","",""
"null","255209","pSARL_v2","pSARL_v2757rh77p","629082739390703f993b12bd","fixation","img/fixation.png","null","","test","","","","","",""
"336.3999999985099","255551","pSARL_v2","pSARL_v2757rh77p","629082739390703f993b12bd","freq","img/orange_2bandit_b2.png","70","70","test","1","124","124","6","",""
"null","256021","pSARL_v2","pSARL_v2757rh77p","629082739390703f993b12bd","freq_resp","img/orange_2bandit_b.png","70","70","test","","","","6","",""
"null","256177","pSARL_v2","pSARL_v2757rh77p","629082739390703f993b12bd","fixation","img/fixation.png","null","","test","","","","","",""
"449.8999999985099","256631","pSARL_v2","pSARL_v2757rh77p","629082739390703f993b12bd","freq","img/orange_2bandit_b2.png","70","70","test","1","125","125","6","",""
"null","257001","pSARL_v2","pSARL_v2757rh77p","629082739390703f993b12bd","freq_resp","img/orange_2bandit_b.png","70","70","test","","","","6","",""
"null","257171","pSARL_v2","pSARL_v2757rh77p","629082739390703f993b12bd","fixation","img/fixation.png","null","","test","","","","","",""
"525.5","257701","pSARL_v2","pSARL_v2757rh77p","629082739390703f993b12bd","infreq","img/green_2bandit_b2.png","68","68","test","1","126","126","6","",""
"null","257994","pSARL_v2","pSARL_v2757rh77p","629082739390703f993b12bd","infreq_resp","img/green_2bandit_b.png","68","68","test","","","","6","",""
"null","258164","pSARL_v2","pSARL_v2757rh77p","629082739390703f993b12bd","fixation","img/fixation.png","null","","test","","","","","",""
"436.19999999925494","258604","pSARL_v2","pSARL_v2757rh77p","629082739390703f993b12bd","freq","img/orange_2bandit_b2.png","70","70","test","1","127","127","6","",""
"null","258973","pSARL_v2","pSARL_v2757rh77p","629082739390703f993b12bd","freq_resp","img/orange_2bandit_b.png","70","70","test","","","","6","",""
"null","259136","pSARL_v2","pSARL_v2757rh77p","629082739390703f993b12bd","fixation","img/fixation.png","null","","test","","","","","",""
"570.3000000007451","259710","pSARL_v2","pSARL_v2757rh77p","629082739390703f993b12bd","infreq","img/green_2bandit_b2.png","68","68","test","1","128","128","6","",""
"null","259951","pSARL_v2","pSARL_v2757rh77p","629082739390703f993b12bd","infreq_resp","img/green_2bandit_b.png","68","68","test","","","","6","",""
"null","260107","pSARL_v2","pSARL_v2757rh77p","629082739390703f993b12bd","fixation","img/fixation.png","null","","test","","","","","",""
"699.5999999977648","260810","pSARL_v2","pSARL_v2757rh77p","629082739390703f993b12bd","freq","img/orange_2bandit_b2.png","70","70","test","1","129","129","6","",""
"null","260933","pSARL_v2","pSARL_v2757rh77p","629082739390703f993b12bd","freq_resp","img/orange_2bandit_b.png","70","70","test","","","","6","",""
"null","261103","pSARL_v2","pSARL_v2757rh77p","629082739390703f993b12bd","fixation","img/fixation.png","null","","test","","","","","",""
"568.8999999985099","261676","pSARL_v2","pSARL_v2757rh77p","629082739390703f993b12bd","infreq","img/green_2bandit_b2.png","68","68","test","1","130","130","6","",""
"null","261917","pSARL_v2","pSARL_v2757rh77p","629082739390703f993b12bd","infreq_resp","img/green_2bandit_b.png","68","68","test","","","","6","",""
"null","262073","pSARL_v2","pSARL_v2757rh77p","629082739390703f993b12bd","fixation","img/fixation.png","null","","test","","","","","",""
"382.80000000074506","262461","pSARL_v2","pSARL_v2757rh77p","629082739390703f993b12bd","freq","img/orange_2bandit_b2.png","70","70","test","1","131","131","6","",""
"null","262889","pSARL_v2","pSARL_v2757rh77p","629082739390703f993b12bd","freq_resp","img/orange_2bandit_b.png","70","70","test","","","","6","",""
"null","263047","pSARL_v2","pSARL_v2757rh77p","629082739390703f993b12bd","fixation","img/fixation.png","null","","test","","","","","",""
"269.6000000014901","263320","pSARL_v2","pSARL_v2757rh77p","629082739390703f993b12bd","freq","img/orange_2bandit_b2.png","70","70","test","1","132","132","6","",""
"null","263868","pSARL_v2","pSARL_v2757rh77p","629082739390703f993b12bd","freq_resp","img/orange_2bandit_b.png","70","70","test","","","","6","",""
"null","264026","pSARL_v2","pSARL_v2757rh77p","629082739390703f993b12bd","fixation","img/fixation.png","null","","test","","","","","",""
"310.6000000014901","264341","pSARL_v2","pSARL_v2757rh77p","629082739390703f993b12bd","freq","img/orange_2bandit_b2.png","70","70","test","1","133","133","6","",""
"null","264846","pSARL_v2","pSARL_v2757rh77p","629082739390703f993b12bd","freq_resp","img/orange_2bandit_b.png","70","70","test","","","","6","",""
"null","265002","pSARL_v2","pSARL_v2757rh77p","629082739390703f993b12bd","fixation","img/fixation.png","null","","test","","","","","",""
"270.0999999977648","265276","pSARL_v2","pSARL_v2757rh77p","629082739390703f993b12bd","freq","img/orange_2bandit_b2.png","70","70","test","1","134","134","6","",""
"null","265825","pSARL_v2","pSARL_v2757rh77p","629082739390703f993b12bd","freq_resp","img/orange_2bandit_b.png","70","70","test","","","","6","",""
"null","265982","pSARL_v2","pSARL_v2757rh77p","629082739390703f993b12bd","fixation","img/fixation.png","null","","test","","","","","",""
"236.5","266223","pSARL_v2","pSARL_v2757rh77p","629082739390703f993b12bd","freq","img/orange_2bandit_b2.png","70","70","test","1","135","135","6","",""
"null","266794","pSARL_v2","pSARL_v2757rh77p","629082739390703f993b12bd","freq_resp","img/orange_2bandit_b.png","70","70","test","","","","6","",""
"null","266951","pSARL_v2","pSARL_v2757rh77p","629082739390703f993b12bd","fixation","img/fixation.png","null","","test","","","","","",""
"317.1000000014901","267273","pSARL_v2","pSARL_v2757rh77p","629082739390703f993b12bd","freq","img/orange_2bandit_b2.png","70","70","test","1","136","136","6","",""
"null","267767","pSARL_v2","pSARL_v2757rh77p","629082739390703f993b12bd","freq_resp","img/orange_2bandit_b.png","70","70","test","","","","6","",""
"null","267938","pSARL_v2","pSARL_v2757rh77p","629082739390703f993b12bd","fixation","img/fixation.png","null","","test","","","","","",""
"286.69999999925494","268230","pSARL_v2","pSARL_v2757rh77p","629082739390703f993b12bd","freq","img/orange_2bandit_b2.png","70","70","test","1","137","137","6","",""
"null","268748","pSARL_v2","pSARL_v2757rh77p","629082739390703f993b12bd","freq_resp","img/orange_2bandit_b.png","70","70","test","","","","6","",""
"null","268904","pSARL_v2","pSARL_v2757rh77p","629082739390703f993b12bd","fixation","img/fixation.png","null","","test","","","","","",""
"359","269268","pSARL_v2","pSARL_v2757rh77p","629082739390703f993b12bd","freq","img/orange_2bandit_b2.png","70","70","test","1","138","138","6","",""
"null","269717","pSARL_v2","pSARL_v2757rh77p","629082739390703f993b12bd","freq_resp","img/orange_2bandit_b.png","70","70","test","","","","6","",""
"null","269886","pSARL_v2","pSARL_v2757rh77p","629082739390703f993b12bd","fixation","img/fixation.png","null","","test","","","","","",""
"529.4000000022352","270419","pSARL_v2","pSARL_v2757rh77p","629082739390703f993b12bd","reward","img/slot.png","74","","test","","","","","",""
"null","271186","pSARL_v2","pSARL_v2757rh77p","629082739390703f993b12bd","points","<div class=""verylowPoints""> -7 </div>","null","na","test","","","","6","-7","5"
"486.80000000074506","271678","pSARL_v2","pSARL_v2757rh77p","629082739390703f993b12bd","freq","img/orange_2bandit_b2.png","70","70","test","1","139","139","7","",""
"null","272002","pSARL_v2","pSARL_v2757rh77p","629082739390703f993b12bd","freq_resp","img/orange_2bandit_b.png","70","70","test","","","","7","",""
"null","272157","pSARL_v2","pSARL_v2757rh77p","629082739390703f993b12bd","fixation","img/fixation.png","null","","test","","","","","",""
"358.4000000022352","272520","pSARL_v2","pSARL_v2757rh77p","629082739390703f993b12bd","freq","img/orange_2bandit_b2.png","70","70","test","1","140","140","7","",""
"null","272973","pSARL_v2","pSARL_v2757rh77p","629082739390703f993b12bd","freq_resp","img/orange_2bandit_b.png","70","70","test","","","","7","",""
"null","273143","pSARL_v2","pSARL_v2757rh77p","629082739390703f993b12bd","fixation","img/fixation.png","null","","test","","","","","",""
"303.5","273451","pSARL_v2","pSARL_v2757rh77p","629082739390703f993b12bd","freq","img/orange_2bandit_b2.png","70","70","test","1","141","141","7","",""
"null","273955","pSARL_v2","pSARL_v2757rh77p","629082739390703f993b12bd","freq_resp","img/orange_2bandit_b.png","70","70","test","","","","7","",""
"null","274114","pSARL_v2","pSARL_v2757rh77p","629082739390703f993b12bd","fixation","img/fixation.png","null","","test","","","","","",""
"320.3999999985099","274439","pSARL_v2","pSARL_v2757rh77p","629082739390703f993b12bd","freq","img/orange_2bandit_b2.png","70","70","test","1","142","142","7","",""
"null","274934","pSARL_v2","pSARL_v2757rh77p","629082739390703f993b12bd","freq_resp","img/orange_2bandit_b.png","70","70","test","","","","7","",""
"null","275105","pSARL_v2","pSARL_v2757rh77p","629082739390703f993b12bd","fixation","img/fixation.png","null","","test","","","","","",""
"279.69999999925494","275389","pSARL_v2","pSARL_v2757rh77p","629082739390703f993b12bd","freq","img/orange_2bandit_b2.png","70","70","test","1","143","143","7","",""
"null","275923","pSARL_v2","pSARL_v2757rh77p","629082739390703f993b12bd","freq_resp","img/orange_2bandit_b.png","70","70","test","","","","7","",""
"null","276080","pSARL_v2","pSARL_v2757rh77p","629082739390703f993b12bd","fixation","img/fixation.png","null","","test","","","","","",""
"225.70000000298023","276309","pSARL_v2","pSARL_v2757rh77p","629082739390703f993b12bd","freq","img/orange_2bandit_b2.png","70","70","test","1","144","144","7","",""
"null","276890","pSARL_v2","pSARL_v2757rh77p","629082739390703f993b12bd","freq_resp","img/orange_2bandit_b.png","70","70","test","","","","7","",""
"null","277047","pSARL_v2","pSARL_v2757rh77p","629082739390703f993b12bd","fixation","img/fixation.png","null","","test","","","","","",""
"222.10000000149012","277273","pSARL_v2","pSARL_v2757rh77p","629082739390703f993b12bd","freq","img/orange_2bandit_b2.png","70","70","test","1","145","145","7","",""
"null","277868","pSARL_v2","pSARL_v2757rh77p","629082739390703f993b12bd","freq_resp","img/orange_2bandit_b.png","70","70","test","","","","7","",""
"null","278030","pSARL_v2","pSARL_v2757rh77p","629082739390703f993b12bd","fixation","img/fixation.png","null","","test","","","","","",""
"306.5","278341","pSARL_v2","pSARL_v2757rh77p","629082739390703f993b12bd","freq","img/orange_2bandit_b2.png","70","70","test","1","146","146","7","",""
"null","278841","pSARL_v2","pSARL_v2757rh77p","629082739390703f993b12bd","freq_resp","img/orange_2bandit_b.png","70","70","test","","","","7","",""
"null","279002","pSARL_v2","pSARL_v2757rh77p","629082739390703f993b12bd","fixation","img/fixation.png","null","","test","","","","","",""
"261.6000000014901","279267","pSARL_v2","pSARL_v2757rh77p","629082739390703f993b12bd","freq","img/orange_2bandit_b2.png","70","70","test","1","147","147","7","",""
"null","279822","pSARL_v2","pSARL_v2757rh77p","629082739390703f993b12bd","freq_resp","img/orange_2bandit_b.png","70","70","test","","","","7","",""
"null","279993","pSARL_v2","pSARL_v2757rh77p","629082739390703f993b12bd","fixation","img/fixation.png","null","","test","","","","","",""
"317.3999999985099","280315","pSARL_v2","pSARL_v2757rh77p","629082739390703f993b12bd","freq","img/orange_2bandit_b2.png","70","70","test","1","148","148","7","",""
"null","280803","pSARL_v2","pSARL_v2757rh77p","629082739390703f993b12bd","freq_resp","img/orange_2bandit_b.png","70","70","test","","","","7","",""
"null","280958","pSARL_v2","pSARL_v2757rh77p","629082739390703f993b12bd","fixation","img/fixation.png","null","","test","","","","","",""
"262.6000000014901","281226","pSARL_v2","pSARL_v2757rh77p","629082739390703f993b12bd","freq","img/orange_2bandit_b2.png","70","70","test","1","149","149","7","",""
"null","281776","pSARL_v2","pSARL_v2757rh77p","629082739390703f993b12bd","freq_resp","img/orange_2bandit_b.png","70","70","test","","","","7","",""
"null","281931","pSARL_v2","pSARL_v2757rh77p","629082739390703f993b12bd","fixation","img/fixation.png","null","","test","","","","","",""
"233.20000000298023","282169","pSARL_v2","pSARL_v2757rh77p","629082739390703f993b12bd","freq","img/orange_2bandit_b2.png","70","70","test","1","150","150","7","",""
"null","282742","pSARL_v2","pSARL_v2757rh77p","629082739390703f993b12bd","freq_resp","img/orange_2bandit_b.png","70","70","test","","","","7","",""
"null","282898","pSARL_v2","pSARL_v2757rh77p","629082739390703f993b12bd","fixation","img/fixation.png","null","","test","","","","","",""
"505.30000000074506","283407","pSARL_v2","pSARL_v2757rh77p","629082739390703f993b12bd","freq","img/orange_2bandit_b2.png","70","70","test","1","151","151","7","",""
"null","283707","pSARL_v2","pSARL_v2757rh77p","629082739390703f993b12bd","freq_resp","img/orange_2bandit_b.png","70","70","test","","","","7","",""
"null","283863","pSARL_v2","pSARL_v2757rh77p","629082739390703f993b12bd","fixation","img/fixation.png","null","","test","","","","","",""
"346.3999999985099","284213","pSARL_v2","pSARL_v2757rh77p","629082739390703f993b12bd","freq","img/orange_2bandit_b2.png","70","70","test","1","152","152","7","",""
"null","284680","pSARL_v2","pSARL_v2757rh77p","629082739390703f993b12bd","freq_resp","img/orange_2bandit_b.png","70","70","test","","","","7","",""
"null","284837","pSARL_v2","pSARL_v2757rh77p","629082739390703f993b12bd","fixation","img/fixation.png","null","","test","","","","","",""
"344.0999999977648","285185","pSARL_v2","pSARL_v2757rh77p","629082739390703f993b12bd","freq","img/orange_2bandit_b2.png","70","70","test","1","153","153","7","",""
"null","285646","pSARL_v2","pSARL_v2757rh77p","629082739390703f993b12bd","freq_resp","img/orange_2bandit_b.png","70","70","test","","","","7","",""
"null","285806","pSARL_v2","pSARL_v2757rh77p","629082739390703f993b12bd","fixation","img/fixation.png","null","","test","","","","","",""
"339.5","286149","pSARL_v2","pSARL_v2757rh77p","629082739390703f993b12bd","freq","img/orange_2bandit_b2.png","70","70","test","1","154","154","7","",""
"null","286620","pSARL_v2","pSARL_v2757rh77p","629082739390703f993b12bd","freq_resp","img/orange_2bandit_b.png","70","70","test","","","","7","",""
"null","286777","pSARL_v2","pSARL_v2757rh77p","629082739390703f993b12bd","fixation","img/fixation.png","null","","test","","","","","",""
"301.6000000014901","287084","pSARL_v2","pSARL_v2757rh77p","629082739390703f993b12bd","freq","img/orange_2bandit_b2.png","70","70","test","1","155","155","7","",""
"null","287588","pSARL_v2","pSARL_v2757rh77p","629082739390703f993b12bd","freq_resp","img/orange_2bandit_b.png","70","70","test","","","","7","",""
"null","287756","pSARL_v2","pSARL_v2757rh77p","629082739390703f993b12bd","fixation","img/fixation.png","null","","test","","","","","",""
"330.8999999985099","288092","pSARL_v2","pSARL_v2757rh77p","629082739390703f993b12bd","freq","img/orange_2bandit_b2.png","70","70","test","1","156","156","7","",""
"null","288580","pSARL_v2","pSARL_v2757rh77p","629082739390703f993b12bd","freq_resp","img/orange_2bandit_b.png","70","70","test","","","","7","",""
"null","288752","pSARL_v2","pSARL_v2757rh77p","629082739390703f993b12bd","fixation","img/fixation.png","null","","test","","","","","",""
"295.19999999925494","289052","pSARL_v2","pSARL_v2757rh77p","629082739390703f993b12bd","freq","img/orange_2bandit_b2.png","70","70","test","1","157","157","7","",""
"null","289571","pSARL_v2","pSARL_v2757rh77p","629082739390703f993b12bd","freq_resp","img/orange_2bandit_b.png","70","70","test","","","","7","",""
"null","289743","pSARL_v2","pSARL_v2757rh77p","629082739390703f993b12bd","fixation","img/fixation.png","null","","test","","","","","",""
"324.4000000022352","290071","pSARL_v2","pSARL_v2757rh77p","629082739390703f993b12bd","freq","img/orange_2bandit_b2.png","70","70","test","1","158","158","7","",""
"null","290558","pSARL_v2","pSARL_v2757rh77p","629082739390703f993b12bd","freq_resp","img/orange_2bandit_b.png","70","70","test","","","","7","",""
"null","290727","pSARL_v2","pSARL_v2757rh77p","629082739390703f993b12bd","fixation","img/fixation.png","null","","test","","","","","",""
"323","291055","pSARL_v2","pSARL_v2757rh77p","629082739390703f993b12bd","freq","img/orange_2bandit_b2.png","70","70","test","1","159","159","7","",""
"null","291543","pSARL_v2","pSARL_v2757rh77p","629082739390703f993b12bd","freq_resp","img/orange_2bandit_b.png","70","70","test","","","","7","",""
"null","291714","pSARL_v2","pSARL_v2757rh77p","629082739390703f993b12bd","fixation","img/fixation.png","null","","test","","","","","",""
"301.8999999985099","292020","pSARL_v2","pSARL_v2757rh77p","629082739390703f993b12bd","freq","img/orange_2bandit_b2.png","70","70","test","1","160","160","7","",""
"null","292529","pSARL_v2","pSARL_v2757rh77p","629082739390703f993b12bd","freq_resp","img/orange_2bandit_b.png","70","70","test","","","","7","",""
"null","292700","pSARL_v2","pSARL_v2757rh77p","629082739390703f993b12bd","fixation","img/fixation.png","null","","test","","","","","",""
"266.70000000298023","292972","pSARL_v2","pSARL_v2757rh77p","629082739390703f993b12bd","infreq","img/green_2bandit_b2.png","70","68","test","0","161","161","7","",""
"null","293514","pSARL_v2","pSARL_v2757rh77p","629082739390703f993b12bd","infreq_resp","img/green_2bandit_b.png","70","68","test","","","","7","",""
"null","293670","pSARL_v2","pSARL_v2757rh77p","629082739390703f993b12bd","fixation","img/fixation.png","null","","test","","","","","",""
"216.5","293892","pSARL_v2","pSARL_v2757rh77p","629082739390703f993b12bd","infreq","img/green_2bandit_b2.png","70","68","test","0","162","162","7","",""
"null","294492","pSARL_v2","pSARL_v2757rh77p","629082739390703f993b12bd","infreq_resp","img/green_2bandit_b.png","70","68","test","","","","7","",""
"null","294650","pSARL_v2","pSARL_v2757rh77p","629082739390703f993b12bd","fixation","img/fixation.png","null","","test","","","","","",""
"530.1999999992549","295184","pSARL_v2","pSARL_v2757rh77p","629082739390703f993b12bd","freq","img/orange_2bandit_b2.png","70","70","test","1","163","163","7","",""
"null","295463","pSARL_v2","pSARL_v2757rh77p","629082739390703f993b12bd","freq_resp","img/orange_2bandit_b.png","70","70","test","","","","7","",""
"null","295619","pSARL_v2","pSARL_v2757rh77p","629082739390703f993b12bd","fixation","img/fixation.png","null","","test","","","","","",""
"455.5","296078","pSARL_v2","pSARL_v2757rh77p","629082739390703f993b12bd","reward","img/slot.png","74","","test","","","","","",""
"null","296845","pSARL_v2","pSARL_v2757rh77p","629082739390703f993b12bd","points","<div class=""verylowPoints""> -6 </div>","null","na","test","","","","7","-6","6"
"462.30000000074506","297313","pSARL_v2","pSARL_v2757rh77p","629082739390703f993b12bd","freq","img/orange_2bandit_b2.png","70","70","test","1","164","164","8","",""
"null","297656","pSARL_v2","pSARL_v2757rh77p","629082739390703f993b12bd","freq_resp","img/orange_2bandit_b.png","70","70","test","","","","8","",""
"null","297820","pSARL_v2","pSARL_v2757rh77p","629082739390703f993b12bd","fixation","img/fixation.png","null","","test","","","","","",""
"330.0999999977648","298155","pSARL_v2","pSARL_v2757rh77p","629082739390703f993b12bd","freq","img/orange_2bandit_b2.png","70","70","test","1","165","165","8","",""
"null","298644","pSARL_v2","pSARL_v2757rh77p","629082739390703f993b12bd","freq_resp","img/orange_2bandit_b.png","70","70","test","","","","8","",""
"null","298815","pSARL_v2","pSARL_v2757rh77p","629082739390703f993b12bd","fixation","img/fixation.png","null","","test","","","","","",""
"268.69999999925494","299089","pSARL_v2","pSARL_v2757rh77p","629082739390703f993b12bd","freq","img/orange_2bandit_b2.png","70","70","test","1","166","166","8","",""
"null","299637","pSARL_v2","pSARL_v2757rh77p","629082739390703f993b12bd","freq_resp","img/orange_2bandit_b.png","70","70","test","","","","8","",""
"null","299794","pSARL_v2","pSARL_v2757rh77p","629082739390703f993b12bd","fixation","img/fixation.png","null","","test","","","","","",""
"241.60000000149012","300040","pSARL_v2","pSARL_v2757rh77p","629082739390703f993b12bd","freq","img/orange_2bandit_b2.png","70","70","test","1","167","167","8","",""
"null","300608","pSARL_v2","pSARL_v2757rh77p","629082739390703f993b12bd","freq_resp","img/orange_2bandit_b.png","70","70","test","","","","8","",""
"null","300766","pSARL_v2","pSARL_v2757rh77p","629082739390703f993b12bd","fixation","img/fixation.png","null","","test","","","","","",""
"187.19999999925494","300958","pSARL_v2","pSARL_v2757rh77p","629082739390703f993b12bd","freq","img/orange_2bandit_b2.png","70","70","test","1","168","168","8","",""
"null","301580","pSARL_v2","pSARL_v2757rh77p","629082739390703f993b12bd","freq_resp","img/orange_2bandit_b.png","70","70","test","","","","8","",""
"null","301749","pSARL_v2","pSARL_v2757rh77p","629082739390703f993b12bd","fixation","img/fixation.png","null","","test","","","","","",""
"127.20000000298023","301880","pSARL_v2","pSARL_v2757rh77p","629082739390703f993b12bd","freq","img/orange_2bandit_b2.png","70","70","test","1","169","169","8","",""
"null","302566","pSARL_v2","pSARL_v2757rh77p","629082739390703f993b12bd","freq_resp","img/orange_2bandit_b.png","70","70","test","","","","8","",""
"null","302738","pSARL_v2","pSARL_v2757rh77p","629082739390703f993b12bd","fixation","img/fixation.png","null","","test","","","","","",""
"104.80000000074506","302847","pSARL_v2","pSARL_v2757rh77p","629082739390703f993b12bd","freq","img/orange_2bandit_b2.png","70","70","test","1","170","170","8","",""
"null","303550","pSARL_v2","pSARL_v2757rh77p","629082739390703f993b12bd","freq_resp","img/orange_2bandit_b.png","70","70","test","","","","8","",""
"null","303721","pSARL_v2","pSARL_v2757rh77p","629082739390703f993b12bd","fixation","img/fixation.png","null","","test","","","","","",""
"76.5","303802","pSARL_v2","pSARL_v2757rh77p","629082739390703f993b12bd","freq","img/orange_2bandit_b2.png","70","70","test","1","171","171","8","",""
"null","304539","pSARL_v2","pSARL_v2757rh77p","629082739390703f993b12bd","freq_resp","img/orange_2bandit_b.png","70","70","test","","","","8","",""
"null","304695","pSARL_v2","pSARL_v2757rh77p","629082739390703f993b12bd","fixation","img/fixation.png","null","","test","","","","","",""
"102","304801","pSARL_v2","pSARL_v2757rh77p","629082739390703f993b12bd","freq","img/orange_2bandit_b2.png","70","70","test","1","172","172","8","",""
"null","305511","pSARL_v2","pSARL_v2757rh77p","629082739390703f993b12bd","freq_resp","img/orange_2bandit_b.png","70","70","test","","","","8","",""
"null","305681","pSARL_v2","pSARL_v2757rh77p","629082739390703f993b12bd","fixation","img/fixation.png","null","","test","","","","","",""
"91.40000000223517","305776","pSARL_v2","pSARL_v2757rh77p","629082739390703f993b12bd","infreq","img/green_2bandit_b2.png","70","68","test","0","173","173","8","",""
"null","306493","pSARL_v2","pSARL_v2757rh77p","629082739390703f993b12bd","infreq_resp","img/green_2bandit_b.png","70","68","test","","","","8","",""
"null","306650","pSARL_v2","pSARL_v2757rh77p","629082739390703f993b12bd","fixation","img/fixation.png","null","","test","","","","","",""
"335","306988","pSARL_v2","pSARL_v2757rh77p","629082739390703f993b12bd","freq","img/orange_2bandit_b2.png","70","70","test","1","174","174","8","",""
"null","307463","pSARL_v2","pSARL_v2757rh77p","629082739390703f993b12bd","freq_resp","img/orange_2bandit_b.png","70","70","test","","","","8","",""
"null","307621","pSARL_v2","pSARL_v2757rh77p","629082739390703f993b12bd","fixation","img/fixation.png","null","","test","","","","","",""
"475","308100","pSARL_v2","pSARL_v2757rh77p","629082739390703f993b12bd","infreq","img/green_2bandit_b2.png","68","68","test","1","175","175","8","",""
"null","308435","pSARL_v2","pSARL_v2757rh77p","629082739390703f993b12bd","infreq_resp","img/green_2bandit_b.png","68","68","test","","","","8","",""
"null","308592","pSARL_v2","pSARL_v2757rh77p","629082739390703f993b12bd","fixation","img/fixation.png","null","","test","","","","","",""
"539.0999999977648","309135","pSARL_v2","pSARL_v2757rh77p","629082739390703f993b12bd","freq","img/orange_2bandit_b2.png","70","70","test","1","176","176","8","",""
"null","309406","pSARL_v2","pSARL_v2757rh77p","629082739390703f993b12bd","freq_resp","img/orange_2bandit_b.png","70","70","test","","","","8","",""
"null","309561","pSARL_v2","pSARL_v2757rh77p","629082739390703f993b12bd","fixation","img/fixation.png","null","","test","","","","","",""
"473.80000000074506","310040","pSARL_v2","pSARL_v2757rh77p","629082739390703f993b12bd","freq","img/orange_2bandit_b2.png","70","70","test","1","177","177","8","",""
"null","310373","pSARL_v2","pSARL_v2757rh77p","629082739390703f993b12bd","freq_resp","img/orange_2bandit_b.png","70","70","test","","","","8","",""
"null","310543","pSARL_v2","pSARL_v2757rh77p","629082739390703f993b12bd","fixation","img/fixation.png","null","","test","","","","","",""
"508.1000000014901","311056","pSARL_v2","pSARL_v2757rh77p","629082739390703f993b12bd","freq","img/orange_2bandit_b2.png","70","70","test","1","178","178","8","",""
"null","311367","pSARL_v2","pSARL_v2757rh77p","629082739390703f993b12bd","freq_resp","img/orange_2bandit_b.png","70","70","test","","","","8","",""
"null","311537","pSARL_v2","pSARL_v2757rh77p","629082739390703f993b12bd","fixation","img/fixation.png","null","","test","","","","","",""
"458.69999999925494","312000","pSARL_v2","pSARL_v2757rh77p","629082739390703f993b12bd","freq","img/orange_2bandit_b2.png","70","70","test","1","179","179","8","",""
"null","312351","pSARL_v2","pSARL_v2757rh77p","629082739390703f993b12bd","freq_resp","img/orange_2bandit_b.png","70","70","test","","","","8","",""
"null","312521","pSARL_v2","pSARL_v2757rh77p","629082739390703f993b12bd","fixation","img/fixation.png","null","","test","","","","","",""
"470","312996","pSARL_v2","pSARL_v2757rh77p","629082739390703f993b12bd","freq","img/orange_2bandit_b2.png","70","70","test","1","180","180","8","",""
"null","313332","pSARL_v2","pSARL_v2757rh77p","629082739390703f993b12bd","freq_resp","img/orange_2bandit_b.png","70","70","test","","","","8","",""
"null","313488","pSARL_v2","pSARL_v2757rh77p","629082739390703f993b12bd","fixation","img/fixation.png","null","","test","","","","","",""
"447.8999999985099","313941","pSARL_v2","pSARL_v2757rh77p","629082739390703f993b12bd","freq","img/orange_2bandit_b2.png","70","70","test","1","181","181","8","",""
"null","314301","pSARL_v2","pSARL_v2757rh77p","629082739390703f993b12bd","freq_resp","img/orange_2bandit_b.png","70","70","test","","","","8","",""
"null","314472","pSARL_v2","pSARL_v2757rh77p","629082739390703f993b12bd","fixation","img/fixation.png","null","","test","","","","","",""
"468.80000000074506","314946","pSARL_v2","pSARL_v2757rh77p","629082739390703f993b12bd","freq","img/orange_2bandit_b2.png","70","70","test","1","182","182","8","",""
"null","315292","pSARL_v2","pSARL_v2757rh77p","629082739390703f993b12bd","freq_resp","img/orange_2bandit_b.png","70","70","test","","","","8","",""
"null","315449","pSARL_v2","pSARL_v2757rh77p","629082739390703f993b12bd","fixation","img/fixation.png","null","","test","","","","","",""
"495.5","315950","pSARL_v2","pSARL_v2757rh77p","629082739390703f993b12bd","freq","img/orange_2bandit_b2.png","70","70","test","1","183","183","8","",""
"null","316263","pSARL_v2","pSARL_v2757rh77p","629082739390703f993b12bd","freq_resp","img/orange_2bandit_b.png","70","70","test","","","","8","",""
"null","316432","pSARL_v2","pSARL_v2757rh77p","629082739390703f993b12bd","fixation","img/fixation.png","null","","test","","","","","",""
"493.80000000074506","316930","pSARL_v2","pSARL_v2757rh77p","629082739390703f993b12bd","freq","img/orange_2bandit_b2.png","70","70","test","1","184","184","8","",""
"null","317243","pSARL_v2","pSARL_v2757rh77p","629082739390703f993b12bd","freq_resp","img/orange_2bandit_b.png","70","70","test","","","","8","",""
"null","317399","pSARL_v2","pSARL_v2757rh77p","629082739390703f993b12bd","fixation","img/fixation.png","null","","test","","","","","",""
"479.9000000022352","317883","pSARL_v2","pSARL_v2757rh77p","629082739390703f993b12bd","infreq","img/green_2bandit_b2.png","68","68","test","1","185","185","8","",""
"null","318222","pSARL_v2","pSARL_v2757rh77p","629082739390703f993b12bd","infreq_resp","img/green_2bandit_b.png","68","68","test","","","","8","",""
"null","318391","pSARL_v2","pSARL_v2757rh77p","629082739390703f993b12bd","fixation","img/fixation.png","null","","test","","","","","",""
"455.5","318850","pSARL_v2","pSARL_v2757rh77p","629082739390703f993b12bd","freq","img/orange_2bandit_b2.png","70","70","test","1","186","186","8","",""
"null","319201","pSARL_v2","pSARL_v2757rh77p","629082739390703f993b12bd","freq_resp","img/orange_2bandit_b.png","70","70","test","","","","8","",""
"null","319358","pSARL_v2","pSARL_v2757rh77p","629082739390703f993b12bd","fixation","img/fixation.png","null","","test","","","","","",""
"432.5","319796","pSARL_v2","pSARL_v2757rh77p","629082739390703f993b12bd","freq","img/orange_2bandit_b2.png","70","70","test","1","187","187","8","",""
"null","320180","pSARL_v2","pSARL_v2757rh77p","629082739390703f993b12bd","freq_resp","img/orange_2bandit_b.png","70","70","test","","","","8","",""
"null","320348","pSARL_v2","pSARL_v2757rh77p","629082739390703f993b12bd","fixation","img/fixation.png","null","","test","","","","","",""
"444.30000000074506","320796","pSARL_v2","pSARL_v2757rh77p","629082739390703f993b12bd","freq","img/orange_2bandit_b2.png","70","70","test","1","188","188","8","",""
"null","321160","pSARL_v2","pSARL_v2757rh77p","629082739390703f993b12bd","freq_resp","img/orange_2bandit_b.png","70","70","test","","","","8","",""
"null","321316","pSARL_v2","pSARL_v2757rh77p","629082739390703f993b12bd","fixation","img/fixation.png","null","","test","","","","","",""
"486.0999999977648","321807","pSARL_v2","pSARL_v2757rh77p","629082739390703f993b12bd","reward","img/slot.png","74","","test","","","","","",""
"null","322571","pSARL_v2","pSARL_v2757rh77p","629082739390703f993b12bd","points","<div class=""verylowPoints""> -4 </div>","null","na","test","","","","8","-4","7"
"618.8999999985099","323195","pSARL_v2","pSARL_v2757rh77p","629082739390703f993b12bd","freq","img/orange_2bandit_b2.png","70","70","test","1","189","189","9","",""
"null","323383","pSARL_v2","pSARL_v2757rh77p","629082739390703f993b12bd","freq_resp","img/orange_2bandit_b.png","70","70","test","","","","9","",""
"null","323552","pSARL_v2","pSARL_v2757rh77p","629082739390703f993b12bd","fixation","img/fixation.png","null","","test","","","","","",""
"560.5","324116","pSARL_v2","pSARL_v2757rh77p","629082739390703f993b12bd","freq","img/orange_2bandit_b2.png","70","70","test","1","190","190","9","",""
"null","324368","pSARL_v2","pSARL_v2757rh77p","629082739390703f993b12bd","freq_resp","img/orange_2bandit_b.png","70","70","test","","","","9","",""
"null","324524","pSARL_v2","pSARL_v2757rh77p","629082739390703f993b12bd","fixation","img/fixation.png","null","","test","","","","","",""
"449.3999999985099","324978","pSARL_v2","pSARL_v2757rh77p","629082739390703f993b12bd","freq","img/orange_2bandit_b2.png","70","70","test","1","191","191","9","",""
"null","325340","pSARL_v2","pSARL_v2757rh77p","629082739390703f993b12bd","freq_resp","img/orange_2bandit_b.png","70","70","test","","","","9","",""
"null","325508","pSARL_v2","pSARL_v2757rh77p","629082739390703f993b12bd","fixation","img/fixation.png","null","","test","","","","","",""
"351","325864","pSARL_v2","pSARL_v2757rh77p","629082739390703f993b12bd","freq","img/orange_2bandit_b2.png","70","70","test","1","192","192","9","",""
"null","326324","pSARL_v2","pSARL_v2757rh77p","629082739390703f993b12bd","freq_resp","img/orange_2bandit_b.png","70","70","test","","","","9","",""
"null","326479","pSARL_v2","pSARL_v2757rh77p","629082739390703f993b12bd","fixation","img/fixation.png","null","","test","","","","","",""
"336.80000000074506","326821","pSARL_v2","pSARL_v2757rh77p","629082739390703f993b12bd","freq","img/orange_2bandit_b2.png","70","70","test","1","193","193","9","",""
"null","327293","pSARL_v2","pSARL_v2757rh77p","629082739390703f993b12bd","freq_resp","img/orange_2bandit_b.png","70","70","test","","","","9","",""
"null","327449","pSARL_v2","pSARL_v2757rh77p","629082739390703f993b12bd","fixation","img/fixation.png","null","","test","","","","","",""
"381","327834","pSARL_v2","pSARL_v2757rh77p","629082739390703f993b12bd","freq","img/orange_2bandit_b2.png","70","70","test","1","194","194","9","",""
"null","328263","pSARL_v2","pSARL_v2757rh77p","629082739390703f993b12bd","freq_resp","img/orange_2bandit_b.png","70","70","test","","","","9","",""
"null","328431","pSARL_v2","pSARL_v2757rh77p","629082739390703f993b12bd","fixation","img/fixation.png","null","","test","","","","","",""
"329.1000000014901","328765","pSARL_v2","pSARL_v2757rh77p","629082739390703f993b12bd","infreq","img/green_2bandit_b2.png","70","68","test","0","195","195","9","",""
"null","329251","pSARL_v2","pSARL_v2757rh77p","629082739390703f993b12bd","infreq_resp","img/green_2bandit_b.png","70","68","test","","","","9","",""
"null","329408","pSARL_v2","pSARL_v2757rh77p","629082739390703f993b12bd","fixation","img/fixation.png","null","","test","","","","","",""
"365.6000000014901","329778","pSARL_v2","pSARL_v2757rh77p","629082739390703f993b12bd","freq","img/orange_2bandit_b2.png","70","70","test","1","196","196","9","",""
"null","330229","pSARL_v2","pSARL_v2757rh77p","629082739390703f993b12bd","freq_resp","img/orange_2bandit_b.png","70","70","test","","","","9","",""
"null","330398","pSARL_v2","pSARL_v2757rh77p","629082739390703f993b12bd","fixation","img/fixation.png","null","","test","","","","","",""
"408.8999999985099","330811","pSARL_v2","pSARL_v2757rh77p","629082739390703f993b12bd","freq","img/orange_2bandit_b2.png","70","70","test","1","197","197","9","",""
"null","331217","pSARL_v2","pSARL_v2757rh77p","629082739390703f993b12bd","freq_resp","img/orange_2bandit_b.png","70","70","test","","","","9","",""
"null","331387","pSARL_v2","pSARL_v2757rh77p","629082739390703f993b12bd","fixation","img/fixation.png","null","","test","","","","","",""
"352.9000000022352","331744","pSARL_v2","pSARL_v2757rh77p","629082739390703f993b12bd","freq","img/orange_2bandit_b2.png","70","70","test","1","198","198","9","",""
"null","332209","pSARL_v2","pSARL_v2757rh77p","629082739390703f993b12bd","freq_resp","img/orange_2bandit_b.png","70","70","test","","","","9","",""
"null","332366","pSARL_v2","pSARL_v2757rh77p","629082739390703f993b12bd","fixation","img/fixation.png","null","","test","","","","","",""
"399","332769","pSARL_v2","pSARL_v2757rh77p","629082739390703f993b12bd","freq","img/orange_2bandit_b2.png","70","70","test","1","199","199","9","",""
"null","333183","pSARL_v2","pSARL_v2757rh77p","629082739390703f993b12bd","freq_resp","img/orange_2bandit_b.png","70","70","test","","","","9","",""
"null","333340","pSARL_v2","pSARL_v2757rh77p","629082739390703f993b12bd","fixation","img/fixation.png","null","","test","","","","","",""
"344.3999999985099","333689","pSARL_v2","pSARL_v2757rh77p","629082739390703f993b12bd","freq","img/orange_2bandit_b2.png","70","70","test","1","200","200","9","",""
"null","334151","pSARL_v2","pSARL_v2757rh77p","629082739390703f993b12bd","freq_resp","img/orange_2bandit_b.png","70","70","test","","","","9","",""
"null","334306","pSARL_v2","pSARL_v2757rh77p","629082739390703f993b12bd","fixation","img/fixation.png","null","","test","","","","","",""
"307.19999999925494","334618","pSARL_v2","pSARL_v2757rh77p","629082739390703f993b12bd","freq","img/orange_2bandit_b2.png","70","70","test","1","201","201","9","",""
"null","335122","pSARL_v2","pSARL_v2757rh77p","629082739390703f993b12bd","freq_resp","img/orange_2bandit_b.png","70","70","test","","","","9","",""
"null","335277","pSARL_v2","pSARL_v2757rh77p","629082739390703f993b12bd","fixation","img/fixation.png","null","","test","","","","","",""
"311.70000000298023","335592","pSARL_v2","pSARL_v2757rh77p","629082739390703f993b12bd","freq","img/orange_2bandit_b2.png","70","70","test","1","202","202","9","",""
"null","336096","pSARL_v2","pSARL_v2757rh77p","629082739390703f993b12bd","freq_resp","img/orange_2bandit_b.png","70","70","test","","","","9","",""
"null","336265","pSARL_v2","pSARL_v2757rh77p","629082739390703f993b12bd","fixation","img/fixation.png","null","","test","","","","","",""
"505","336775","pSARL_v2","pSARL_v2757rh77p","629082739390703f993b12bd","infreq","img/green_2bandit_b2.png","68","68","test","1","203","203","9","",""
"null","337077","pSARL_v2","pSARL_v2757rh77p","629082739390703f993b12bd","infreq_resp","img/green_2bandit_b.png","68","68","test","","","","9","",""
"null","337247","pSARL_v2","pSARL_v2757rh77p","629082739390703f993b12bd","fixation","img/fixation.png","null","","test","","","","","",""
"442.8999999985099","337693","pSARL_v2","pSARL_v2757rh77p","629082739390703f993b12bd","freq","img/orange_2bandit_b2.png","70","70","test","1","204","204","9","",""
"null","338066","pSARL_v2","pSARL_v2757rh77p","629082739390703f993b12bd","freq_resp","img/orange_2bandit_b.png","70","70","test","","","","9","",""
"null","338235","pSARL_v2","pSARL_v2757rh77p","629082739390703f993b12bd","fixation","img/fixation.png","null","","test","","","","","",""
"349","338589","pSARL_v2","pSARL_v2757rh77p","629082739390703f993b12bd","freq","img/orange_2bandit_b2.png","70","70","test","1","205","205","9","",""
"null","339057","pSARL_v2","pSARL_v2757rh77p","629082739390703f993b12bd","freq_resp","img/orange_2bandit_b.png","70","70","test","","","","9","",""
"null","339214","pSARL_v2","pSARL_v2757rh77p","629082739390703f993b12bd","fixation","img/fixation.png","null","","test","","","","","",""
"285.30000000074506","339504","pSARL_v2","pSARL_v2757rh77p","629082739390703f993b12bd","freq","img/orange_2bandit_b2.png","70","70","test","1","206","206","9","",""
"null","340037","pSARL_v2","pSARL_v2757rh77p","629082739390703f993b12bd","freq_resp","img/orange_2bandit_b.png","70","70","test","","","","9","",""
"null","340209","pSARL_v2","pSARL_v2757rh77p","629082739390703f993b12bd","fixation","img/fixation.png","null","","test","","","","","",""
"306.9000000022352","340520","pSARL_v2","pSARL_v2757rh77p","629082739390703f993b12bd","freq","img/orange_2bandit_b2.png","70","70","test","1","207","207","9","",""
"null","341031","pSARL_v2","pSARL_v2757rh77p","629082739390703f993b12bd","freq_resp","img/orange_2bandit_b.png","70","70","test","","","","9","",""
"null","341188","pSARL_v2","pSARL_v2757rh77p","629082739390703f993b12bd","fixation","img/fixation.png","null","","test","","","","","",""
"307","341500","pSARL_v2","pSARL_v2757rh77p","629082739390703f993b12bd","freq","img/orange_2bandit_b2.png","70","70","test","1","208","208","9","",""
"null","342007","pSARL_v2","pSARL_v2757rh77p","629082739390703f993b12bd","freq_resp","img/orange_2bandit_b.png","70","70","test","","","","9","",""
"null","342173","pSARL_v2","pSARL_v2757rh77p","629082739390703f993b12bd","fixation","img/fixation.png","null","","test","","","","","",""
