"rt","time_elapsed","expId","subject","prolificID","trialType","stimulus","key_press","corrresp","phase","corr","trialNum","attentionRunNum","blockNum","points","rlNum"
"10320.399999976158","10336","pSARL_v2","pSARL_v2rs50mwso","59014ee029f42300013cc5b7","","","","","","","","","","",""
"","15268","pSARL_v2","pSARL_v2rs50mwso","59014ee029f42300013cc5b7","fullscreen","","","","","","","","","",""
"172644","187932","pSARL_v2","pSARL_v2rs50mwso","59014ee029f42300013cc5b7","","","","","","","","","","",""
"null","188748","pSARL_v2","pSARL_v2rs50mwso","59014ee029f42300013cc5b7","freqPrac","img/orange_2bandit_a2.png","null","70","prac","0","","","","",""
"null","189759","pSARL_v2","pSARL_v2rs50mwso","59014ee029f42300013cc5b7","feedback","img/tooSlow.png","null","na","prac","","","","","",""
"null","189933","pSARL_v2","pSARL_v2rs50mwso","59014ee029f42300013cc5b7","fixation","img/fixation.png","null","","prac","","","","","",""
"455.89999997615814","190398","pSARL_v2","pSARL_v2rs50mwso","59014ee029f42300013cc5b7","infreqPrac","img/green_2bandit_a2.png","68","68","prac","1","","","","",""
"455.89999997615814","190763","pSARL_v2","pSARL_v2rs50mwso","59014ee029f42300013cc5b7","infreqPrac_resp","img/green_2bandit_a.png","68","68","prac","","","","","",""
"null","190925","pSARL_v2","pSARL_v2rs50mwso","59014ee029f42300013cc5b7","fixation","img/fixation.png","null","","prac","","","","","",""
"667.8000000119209","191602","pSARL_v2","pSARL_v2rs50mwso","59014ee029f42300013cc5b7","freqPrac","img/orange_2bandit_a2.png","68","70","prac","0","","","","",""
"667.8000000119209","191744","pSARL_v2","pSARL_v2rs50mwso","59014ee029f42300013cc5b7","freqPrac_resp","img/orange_2bandit_a.png","68","70","prac","","","","","",""
"null","192763","pSARL_v2","pSARL_v2rs50mwso","59014ee029f42300013cc5b7","feedback","img/wrongKey.png","null","na","prac","","","","","",""
"null","192922","pSARL_v2","pSARL_v2rs50mwso","59014ee029f42300013cc5b7","fixation","img/fixation.png","null","","prac","","","","","",""
"429.69999998807907","193361","pSARL_v2","pSARL_v2rs50mwso","59014ee029f42300013cc5b7","infreqPrac","img/green_2bandit_a2.png","68","68","prac","1","","","","",""
"429.69999998807907","193742","pSARL_v2","pSARL_v2rs50mwso","59014ee029f42300013cc5b7","infreqPrac_resp","img/green_2bandit_a.png","68","68","prac","","","","","",""
"null","193917","pSARL_v2","pSARL_v2rs50mwso","59014ee029f42300013cc5b7","fixation","img/fixation.png","null","","prac","","","","","",""
"430.5999999642372","194355","pSARL_v2","pSARL_v2rs50mwso","59014ee029f42300013cc5b7","infreqPrac","img/green_2bandit_a2.png","68","68","prac","1","","","","",""
"430.5999999642372","194753","pSARL_v2","pSARL_v2rs50mwso","59014ee029f42300013cc5b7","infreqPrac_resp","img/green_2bandit_a.png","68","68","prac","","","","","",""
"null","194923","pSARL_v2","pSARL_v2rs50mwso","59014ee029f42300013cc5b7","fixation","img/fixation.png","null","","prac","","","","","",""
"331.10000002384186","195263","pSARL_v2","pSARL_v2rs50mwso","59014ee029f42300013cc5b7","infreqPrac","img/green_2bandit_a2.png","68","68","prac","1","","","","",""
"331.10000002384186","195747","pSARL_v2","pSARL_v2rs50mwso","59014ee029f42300013cc5b7","infreqPrac_resp","img/green_2bandit_a.png","68","68","prac","","","","","",""
"null","195918","pSARL_v2","pSARL_v2rs50mwso","59014ee029f42300013cc5b7","fixation","img/fixation.png","null","","prac","","","","","",""
"382.0999999642372","196308","pSARL_v2","pSARL_v2rs50mwso","59014ee029f42300013cc5b7","freqPrac","img/orange_2bandit_a2.png","70","70","prac","1","","","","",""
"382.0999999642372","196752","pSARL_v2","pSARL_v2rs50mwso","59014ee029f42300013cc5b7","freqPrac_resp","img/orange_2bandit_a.png","70","70","prac","","","","","",""
"null","196923","pSARL_v2","pSARL_v2rs50mwso","59014ee029f42300013cc5b7","fixation","img/fixation.png","null","","prac","","","","","",""
"442.60000002384186","197374","pSARL_v2","pSARL_v2rs50mwso","59014ee029f42300013cc5b7","infreqPrac","img/green_2bandit_a2.png","68","68","prac","1","","","","",""
"442.60000002384186","197756","pSARL_v2","pSARL_v2rs50mwso","59014ee029f42300013cc5b7","infreqPrac_resp","img/green_2bandit_a.png","68","68","prac","","","","","",""
"null","197931","pSARL_v2","pSARL_v2rs50mwso","59014ee029f42300013cc5b7","fixation","img/fixation.png","null","","prac","","","","","",""
"502.5999999642372","198442","pSARL_v2","pSARL_v2rs50mwso","59014ee029f42300013cc5b7","freqPrac","img/orange_2bandit_a2.png","70","70","prac","1","","","","",""
"502.5999999642372","198751","pSARL_v2","pSARL_v2rs50mwso","59014ee029f42300013cc5b7","freqPrac_resp","img/orange_2bandit_a.png","70","70","prac","","","","","",""
"null","198912","pSARL_v2","pSARL_v2rs50mwso","59014ee029f42300013cc5b7","fixation","img/fixation.png","null","","prac","","","","","",""
"328.89999997615814","199249","pSARL_v2","pSARL_v2rs50mwso","59014ee029f42300013cc5b7","freqPrac","img/orange_2bandit_a2.png","70","70","prac","1","","","","",""
"328.89999997615814","199739","pSARL_v2","pSARL_v2rs50mwso","59014ee029f42300013cc5b7","freqPrac_resp","img/orange_2bandit_a.png","70","70","prac","","","","","",""
"null","199915","pSARL_v2","pSARL_v2rs50mwso","59014ee029f42300013cc5b7","fixation","img/fixation.png","null","","prac","","","","","",""
"25797.399999976158","225724","pSARL_v2","pSARL_v2rs50mwso","59014ee029f42300013cc5b7","","","","","prac","","","","","",""
"628.3999999761581","226360","pSARL_v2","pSARL_v2rs50mwso","59014ee029f42300013cc5b7","rewardPractice","img/slot.png","74","","prac","","","","","",""
"null","227135","pSARL_v2","pSARL_v2rs50mwso","59014ee029f42300013cc5b7","feedback","<div class=""veryhighPoints""> +15 </div>","null","na","prac","","","","","",""
"null","227294","pSARL_v2","pSARL_v2rs50mwso","59014ee029f42300013cc5b7","fixation","img/fixation.png","null","","prac","","","","","",""
"15204.5","242506","pSARL_v2","pSARL_v2rs50mwso","59014ee029f42300013cc5b7","","","","","prac","","","","","",""
"422","242935","pSARL_v2","pSARL_v2rs50mwso","59014ee029f42300013cc5b7","freq","img/orange_2bandit_a2.png","70","70","test","1","1","1","1","",""
"null","243326","pSARL_v2","pSARL_v2rs50mwso","59014ee029f42300013cc5b7","freq_resp","img/orange_2bandit_a.png","70","70","test","","","","1","",""
"null","243493","pSARL_v2","pSARL_v2rs50mwso","59014ee029f42300013cc5b7","fixation","img/fixation.png","null","","test","","","","","",""
"334.9000000357628","243836","pSARL_v2","pSARL_v2rs50mwso","59014ee029f42300013cc5b7","freq","img/orange_2bandit_a2.png","70","70","test","1","2","2","1","",""
"null","244320","pSARL_v2","pSARL_v2rs50mwso","59014ee029f42300013cc5b7","freq_resp","img/orange_2bandit_a.png","70","70","test","","","","1","",""
"null","244494","pSARL_v2","pSARL_v2rs50mwso","59014ee029f42300013cc5b7","fixation","img/fixation.png","null","","test","","","","","",""
"390.30000001192093","244893","pSARL_v2","pSARL_v2rs50mwso","59014ee029f42300013cc5b7","freq","img/orange_2bandit_a2.png","70","70","test","1","3","3","1","",""
"null","245315","pSARL_v2","pSARL_v2rs50mwso","59014ee029f42300013cc5b7","freq_resp","img/orange_2bandit_a.png","70","70","test","","","","1","",""
"null","245487","pSARL_v2","pSARL_v2rs50mwso","59014ee029f42300013cc5b7","fixation","img/fixation.png","null","","test","","","","","",""
"342","245837","pSARL_v2","pSARL_v2rs50mwso","59014ee029f42300013cc5b7","freq","img/orange_2bandit_a2.png","70","70","test","1","4","4","1","",""
"null","246325","pSARL_v2","pSARL_v2rs50mwso","59014ee029f42300013cc5b7","freq_resp","img/orange_2bandit_a.png","70","70","test","","","","1","",""
"null","246484","pSARL_v2","pSARL_v2rs50mwso","59014ee029f42300013cc5b7","fixation","img/fixation.png","null","","test","","","","","",""
"479.5","246972","pSARL_v2","pSARL_v2rs50mwso","59014ee029f42300013cc5b7","freq","img/orange_2bandit_a2.png","70","70","test","1","5","5","1","",""
"null","247310","pSARL_v2","pSARL_v2rs50mwso","59014ee029f42300013cc5b7","freq_resp","img/orange_2bandit_a.png","70","70","test","","","","1","",""
"null","247473","pSARL_v2","pSARL_v2rs50mwso","59014ee029f42300013cc5b7","fixation","img/fixation.png","null","","test","","","","","",""
"291.19999998807907","247772","pSARL_v2","pSARL_v2rs50mwso","59014ee029f42300013cc5b7","freq","img/orange_2bandit_a2.png","70","70","test","1","6","6","1","",""
"null","248302","pSARL_v2","pSARL_v2rs50mwso","59014ee029f42300013cc5b7","freq_resp","img/orange_2bandit_a.png","70","70","test","","","","1","",""
"null","248463","pSARL_v2","pSARL_v2rs50mwso","59014ee029f42300013cc5b7","fixation","img/fixation.png","null","","test","","","","","",""
"262.0999999642372","248733","pSARL_v2","pSARL_v2rs50mwso","59014ee029f42300013cc5b7","freq","img/orange_2bandit_a2.png","70","70","test","1","7","7","1","",""
"null","249295","pSARL_v2","pSARL_v2rs50mwso","59014ee029f42300013cc5b7","freq_resp","img/orange_2bandit_a.png","70","70","test","","","","1","",""
"null","249454","pSARL_v2","pSARL_v2rs50mwso","59014ee029f42300013cc5b7","fixation","img/fixation.png","null","","test","","","","","",""
"199.39999997615814","249660","pSARL_v2","pSARL_v2rs50mwso","59014ee029f42300013cc5b7","freq","img/orange_2bandit_a2.png","70","70","test","1","8","8","1","",""
"null","250270","pSARL_v2","pSARL_v2rs50mwso","59014ee029f42300013cc5b7","freq_resp","img/orange_2bandit_a.png","70","70","test","","","","1","",""
"null","250431","pSARL_v2","pSARL_v2rs50mwso","59014ee029f42300013cc5b7","fixation","img/fixation.png","null","","test","","","","","",""
"285.39999997615814","250725","pSARL_v2","pSARL_v2rs50mwso","59014ee029f42300013cc5b7","infreq","img/green_2bandit_a2.png","70","68","test","0","9","9","1","",""
"null","251252","pSARL_v2","pSARL_v2rs50mwso","59014ee029f42300013cc5b7","infreq_resp","img/green_2bandit_a.png","70","68","test","","","","1","",""
"null","251422","pSARL_v2","pSARL_v2rs50mwso","59014ee029f42300013cc5b7","fixation","img/fixation.png","null","","test","","","","","",""
"489.7999999523163","251921","pSARL_v2","pSARL_v2rs50mwso","59014ee029f42300013cc5b7","freq","img/orange_2bandit_a2.png","70","70","test","1","10","10","1","",""
"null","252247","pSARL_v2","pSARL_v2rs50mwso","59014ee029f42300013cc5b7","freq_resp","img/orange_2bandit_a.png","70","70","test","","","","1","",""
"null","252415","pSARL_v2","pSARL_v2rs50mwso","59014ee029f42300013cc5b7","fixation","img/fixation.png","null","","test","","","","","",""
"343.5","252767","pSARL_v2","pSARL_v2rs50mwso","59014ee029f42300013cc5b7","freq","img/orange_2bandit_a2.png","70","70","test","1","11","11","1","",""
"null","253235","pSARL_v2","pSARL_v2rs50mwso","59014ee029f42300013cc5b7","freq_resp","img/orange_2bandit_a.png","70","70","test","","","","1","",""
"null","253410","pSARL_v2","pSARL_v2rs50mwso","59014ee029f42300013cc5b7","fixation","img/fixation.png","null","","test","","","","","",""
"317.5","253736","pSARL_v2","pSARL_v2rs50mwso","59014ee029f42300013cc5b7","freq","img/orange_2bandit_a2.png","70","70","test","1","12","12","1","",""
"null","254238","pSARL_v2","pSARL_v2rs50mwso","59014ee029f42300013cc5b7","freq_resp","img/orange_2bandit_a.png","70","70","test","","","","1","",""
"null","254400","pSARL_v2","pSARL_v2rs50mwso","59014ee029f42300013cc5b7","fixation","img/fixation.png","null","","test","","","","","",""
"304.39999997615814","254714","pSARL_v2","pSARL_v2rs50mwso","59014ee029f42300013cc5b7","freq","img/orange_2bandit_a2.png","70","70","test","1","13","13","1","",""
"null","255233","pSARL_v2","pSARL_v2rs50mwso","59014ee029f42300013cc5b7","freq_resp","img/orange_2bandit_a.png","70","70","test","","","","1","",""
"null","255405","pSARL_v2","pSARL_v2rs50mwso","59014ee029f42300013cc5b7","fixation","img/fixation.png","null","","test","","","","","",""
"239.80000001192093","255654","pSARL_v2","pSARL_v2rs50mwso","59014ee029f42300013cc5b7","freq","img/orange_2bandit_a2.png","70","70","test","1","14","14","1","",""
"null","256224","pSARL_v2","pSARL_v2rs50mwso","59014ee029f42300013cc5b7","freq_resp","img/orange_2bandit_a.png","70","70","test","","","","1","",""
"null","256384","pSARL_v2","pSARL_v2rs50mwso","59014ee029f42300013cc5b7","fixation","img/fixation.png","null","","test","","","","","",""
"172.0999999642372","256565","pSARL_v2","pSARL_v2rs50mwso","59014ee029f42300013cc5b7","freq","img/orange_2bandit_a2.png","70","70","test","1","15","15","1","",""
"null","257202","pSARL_v2","pSARL_v2rs50mwso","59014ee029f42300013cc5b7","freq_resp","img/orange_2bandit_a.png","70","70","test","","","","1","",""
"null","257381","pSARL_v2","pSARL_v2rs50mwso","59014ee029f42300013cc5b7","fixation","img/fixation.png","null","","test","","","","","",""
"247.10000002384186","257637","pSARL_v2","pSARL_v2rs50mwso","59014ee029f42300013cc5b7","freq","img/orange_2bandit_a2.png","70","70","test","1","16","16","1","",""
"null","258206","pSARL_v2","pSARL_v2rs50mwso","59014ee029f42300013cc5b7","freq_resp","img/orange_2bandit_a.png","70","70","test","","","","1","",""
"null","258366","pSARL_v2","pSARL_v2rs50mwso","59014ee029f42300013cc5b7","fixation","img/fixation.png","null","","test","","","","","",""
"155.69999998807907","258531","pSARL_v2","pSARL_v2rs50mwso","59014ee029f42300013cc5b7","infreq","img/green_2bandit_a2.png","70","68","test","0","17","17","1","",""
"null","259198","pSARL_v2","pSARL_v2rs50mwso","59014ee029f42300013cc5b7","infreq_resp","img/green_2bandit_a.png","70","68","test","","","","1","",""
"null","259358","pSARL_v2","pSARL_v2rs50mwso","59014ee029f42300013cc5b7","fixation","img/fixation.png","null","","test","","","","","",""
"455.80000001192093","259822","pSARL_v2","pSARL_v2rs50mwso","59014ee029f42300013cc5b7","freq","img/orange_2bandit_a2.png","70","70","test","1","18","18","1","",""
"null","260175","pSARL_v2","pSARL_v2rs50mwso","59014ee029f42300013cc5b7","freq_resp","img/orange_2bandit_a.png","70","70","test","","","","1","",""
"null","260335","pSARL_v2","pSARL_v2rs50mwso","59014ee029f42300013cc5b7","fixation","img/fixation.png","null","","test","","","","","",""
"312.0999999642372","260656","pSARL_v2","pSARL_v2rs50mwso","59014ee029f42300013cc5b7","freq","img/orange_2bandit_a2.png","70","70","test","1","19","19","1","",""
"null","261167","pSARL_v2","pSARL_v2rs50mwso","59014ee029f42300013cc5b7","freq_resp","img/orange_2bandit_a.png","70","70","test","","","","1","",""
"null","261334","pSARL_v2","pSARL_v2rs50mwso","59014ee029f42300013cc5b7","fixation","img/fixation.png","null","","test","","","","","",""
"474.69999998807907","261817","pSARL_v2","pSARL_v2rs50mwso","59014ee029f42300013cc5b7","reward","img/slot.png","74","","test","","","","","",""
"null","262591","pSARL_v2","pSARL_v2rs50mwso","59014ee029f42300013cc5b7","points","<div class=""verylowPoints""> -6 </div>","null","na","test","","","","1","-6","0"
"602.0999999642372","263202","pSARL_v2","pSARL_v2rs50mwso","59014ee029f42300013cc5b7","freq","img/orange_2bandit_a2.png","70","70","test","1","20","20","2","",""
"null","263422","pSARL_v2","pSARL_v2rs50mwso","59014ee029f42300013cc5b7","freq_resp","img/orange_2bandit_a.png","70","70","test","","","","2","",""
"null","263585","pSARL_v2","pSARL_v2rs50mwso","59014ee029f42300013cc5b7","fixation","img/fixation.png","null","","test","","","","","",""
"370.30000001192093","263965","pSARL_v2","pSARL_v2rs50mwso","59014ee029f42300013cc5b7","freq","img/orange_2bandit_a2.png","70","70","test","1","21","21","2","",""
"null","264415","pSARL_v2","pSARL_v2rs50mwso","59014ee029f42300013cc5b7","freq_resp","img/orange_2bandit_a.png","70","70","test","","","","2","",""
"null","264575","pSARL_v2","pSARL_v2rs50mwso","59014ee029f42300013cc5b7","fixation","img/fixation.png","null","","test","","","","","",""
"339","264922","pSARL_v2","pSARL_v2rs50mwso","59014ee029f42300013cc5b7","freq","img/orange_2bandit_a2.png","70","70","test","1","22","22","2","",""
"null","265405","pSARL_v2","pSARL_v2rs50mwso","59014ee029f42300013cc5b7","freq_resp","img/orange_2bandit_a.png","70","70","test","","","","2","",""
"null","265566","pSARL_v2","pSARL_v2rs50mwso","59014ee029f42300013cc5b7","fixation","img/fixation.png","null","","test","","","","","",""
"290.80000001192093","265866","pSARL_v2","pSARL_v2rs50mwso","59014ee029f42300013cc5b7","freq","img/orange_2bandit_a2.png","70","70","test","1","23","23","2","",""
"null","266405","pSARL_v2","pSARL_v2rs50mwso","59014ee029f42300013cc5b7","freq_resp","img/orange_2bandit_a.png","70","70","test","","","","2","",""
"null","266574","pSARL_v2","pSARL_v2rs50mwso","59014ee029f42300013cc5b7","fixation","img/fixation.png","null","","test","","","","","",""
"302.5","266885","pSARL_v2","pSARL_v2rs50mwso","59014ee029f42300013cc5b7","freq","img/orange_2bandit_a2.png","70","70","test","1","24","24","2","",""
"null","267392","pSARL_v2","pSARL_v2rs50mwso","59014ee029f42300013cc5b7","freq_resp","img/orange_2bandit_a.png","70","70","test","","","","2","",""
"null","267566","pSARL_v2","pSARL_v2rs50mwso","59014ee029f42300013cc5b7","fixation","img/fixation.png","null","","test","","","","","",""
"181.19999998807907","267756","pSARL_v2","pSARL_v2rs50mwso","59014ee029f42300013cc5b7","infreq","img/green_2bandit_a2.png","70","68","test","0","25","25","2","",""
"null","268383","pSARL_v2","pSARL_v2rs50mwso","59014ee029f42300013cc5b7","infreq_resp","img/green_2bandit_a.png","70","68","test","","","","2","",""
"null","268541","pSARL_v2","pSARL_v2rs50mwso","59014ee029f42300013cc5b7","fixation","img/fixation.png","null","","test","","","","","",""
"545.6999999880791","269095","pSARL_v2","pSARL_v2rs50mwso","59014ee029f42300013cc5b7","freq","img/orange_2bandit_a2.png","70","70","test","1","26","26","2","",""
"null","269360","pSARL_v2","pSARL_v2rs50mwso","59014ee029f42300013cc5b7","freq_resp","img/orange_2bandit_a.png","70","70","test","","","","2","",""
"null","269534","pSARL_v2","pSARL_v2rs50mwso","59014ee029f42300013cc5b7","fixation","img/fixation.png","null","","test","","","","","",""
"312.5","269855","pSARL_v2","pSARL_v2rs50mwso","59014ee029f42300013cc5b7","freq","img/orange_2bandit_a2.png","70","70","test","1","27","27","2","",""
"null","270367","pSARL_v2","pSARL_v2rs50mwso","59014ee029f42300013cc5b7","freq_resp","img/orange_2bandit_a.png","70","70","test","","","","2","",""
"null","270525","pSARL_v2","pSARL_v2rs50mwso","59014ee029f42300013cc5b7","fixation","img/fixation.png","null","","test","","","","","",""
"307.69999998807907","270841","pSARL_v2","pSARL_v2rs50mwso","59014ee029f42300013cc5b7","freq","img/orange_2bandit_a2.png","70","70","test","1","28","28","2","",""
"null","271361","pSARL_v2","pSARL_v2rs50mwso","59014ee029f42300013cc5b7","freq_resp","img/orange_2bandit_a.png","70","70","test","","","","2","",""
"null","271534","pSARL_v2","pSARL_v2rs50mwso","59014ee029f42300013cc5b7","fixation","img/fixation.png","null","","test","","","","","",""
"265.69999998807907","271808","pSARL_v2","pSARL_v2rs50mwso","59014ee029f42300013cc5b7","freq","img/orange_2bandit_a2.png","70","70","test","1","29","29","2","",""
"null","272365","pSARL_v2","pSARL_v2rs50mwso","59014ee029f42300013cc5b7","freq_resp","img/orange_2bandit_a.png","70","70","test","","","","2","",""
"null","272527","pSARL_v2","pSARL_v2rs50mwso","59014ee029f42300013cc5b7","fixation","img/fixation.png","null","","test","","","","","",""
"305.30000001192093","272839","pSARL_v2","pSARL_v2rs50mwso","59014ee029f42300013cc5b7","freq","img/orange_2bandit_a2.png","70","70","test","1","30","30","2","",""
"null","273349","pSARL_v2","pSARL_v2rs50mwso","59014ee029f42300013cc5b7","freq_resp","img/orange_2bandit_a.png","70","70","test","","","","2","",""
"null","273524","pSARL_v2","pSARL_v2rs50mwso","59014ee029f42300013cc5b7","fixation","img/fixation.png","null","","test","","","","","",""
"292.89999997615814","273825","pSARL_v2","pSARL_v2rs50mwso","59014ee029f42300013cc5b7","freq","img/orange_2bandit_a2.png","70","70","test","1","31","31","2","",""
"null","274357","pSARL_v2","pSARL_v2rs50mwso","59014ee029f42300013cc5b7","freq_resp","img/orange_2bandit_a.png","70","70","test","","","","2","",""
"null","274517","pSARL_v2","pSARL_v2rs50mwso","59014ee029f42300013cc5b7","fixation","img/fixation.png","null","","test","","","","","",""
"326.69999998807907","274852","pSARL_v2","pSARL_v2rs50mwso","59014ee029f42300013cc5b7","freq","img/orange_2bandit_a2.png","70","70","test","1","32","32","2","",""
"null","275348","pSARL_v2","pSARL_v2rs50mwso","59014ee029f42300013cc5b7","freq_resp","img/orange_2bandit_a.png","70","70","test","","","","2","",""
"null","275518","pSARL_v2","pSARL_v2rs50mwso","59014ee029f42300013cc5b7","fixation","img/fixation.png","null","","test","","","","","",""
"231.5","275758","pSARL_v2","pSARL_v2rs50mwso","59014ee029f42300013cc5b7","freq","img/orange_2bandit_a2.png","70","70","test","1","33","33","2","",""
"null","276342","pSARL_v2","pSARL_v2rs50mwso","59014ee029f42300013cc5b7","freq_resp","img/orange_2bandit_a.png","70","70","test","","","","2","",""
"null","276514","pSARL_v2","pSARL_v2rs50mwso","59014ee029f42300013cc5b7","fixation","img/fixation.png","null","","test","","","","","",""
"290.4000000357628","276813","pSARL_v2","pSARL_v2rs50mwso","59014ee029f42300013cc5b7","freq","img/orange_2bandit_a2.png","70","70","test","1","34","34","2","",""
"null","277342","pSARL_v2","pSARL_v2rs50mwso","59014ee029f42300013cc5b7","freq_resp","img/orange_2bandit_a.png","70","70","test","","","","2","",""
"null","277503","pSARL_v2","pSARL_v2rs50mwso","59014ee029f42300013cc5b7","fixation","img/fixation.png","null","","test","","","","","",""
"173.69999998807907","277686","pSARL_v2","pSARL_v2rs50mwso","59014ee029f42300013cc5b7","freq","img/orange_2bandit_a2.png","70","70","test","1","35","35","2","",""
"null","278339","pSARL_v2","pSARL_v2rs50mwso","59014ee029f42300013cc5b7","freq_resp","img/orange_2bandit_a.png","70","70","test","","","","2","",""
"null","278511","pSARL_v2","pSARL_v2rs50mwso","59014ee029f42300013cc5b7","fixation","img/fixation.png","null","","test","","","","","",""
"407.5","278927","pSARL_v2","pSARL_v2rs50mwso","59014ee029f42300013cc5b7","freq","img/orange_2bandit_a2.png","70","70","test","1","36","36","2","",""
"null","279330","pSARL_v2","pSARL_v2rs50mwso","59014ee029f42300013cc5b7","freq_resp","img/orange_2bandit_a.png","70","70","test","","","","2","",""
"null","279490","pSARL_v2","pSARL_v2rs50mwso","59014ee029f42300013cc5b7","fixation","img/fixation.png","null","","test","","","","","",""
"299","279799","pSARL_v2","pSARL_v2rs50mwso","59014ee029f42300013cc5b7","freq","img/orange_2bandit_a2.png","70","70","test","1","37","37","2","",""
"null","280315","pSARL_v2","pSARL_v2rs50mwso","59014ee029f42300013cc5b7","freq_resp","img/orange_2bandit_a.png","70","70","test","","","","2","",""
"null","280475","pSARL_v2","pSARL_v2rs50mwso","59014ee029f42300013cc5b7","fixation","img/fixation.png","null","","test","","","","","",""
"417.30000001192093","280901","pSARL_v2","pSARL_v2rs50mwso","59014ee029f42300013cc5b7","infreq","img/green_2bandit_a2.png","68","68","test","1","38","38","2","",""
"null","281295","pSARL_v2","pSARL_v2rs50mwso","59014ee029f42300013cc5b7","infreq_resp","img/green_2bandit_a.png","68","68","test","","","","2","",""
"null","281467","pSARL_v2","pSARL_v2rs50mwso","59014ee029f42300013cc5b7","fixation","img/fixation.png","null","","test","","","","","",""
"395.69999998807907","281875","pSARL_v2","pSARL_v2rs50mwso","59014ee029f42300013cc5b7","freq","img/orange_2bandit_a2.png","70","70","test","1","39","39","2","",""
"null","282299","pSARL_v2","pSARL_v2rs50mwso","59014ee029f42300013cc5b7","freq_resp","img/orange_2bandit_a.png","70","70","test","","","","2","",""
"null","282460","pSARL_v2","pSARL_v2rs50mwso","59014ee029f42300013cc5b7","fixation","img/fixation.png","null","","test","","","","","",""
"405.10000002384186","282874","pSARL_v2","pSARL_v2rs50mwso","59014ee029f42300013cc5b7","freq","img/orange_2bandit_a2.png","70","70","test","1","40","40","2","",""
"null","283293","pSARL_v2","pSARL_v2rs50mwso","59014ee029f42300013cc5b7","freq_resp","img/orange_2bandit_a.png","70","70","test","","","","2","",""
"null","283459","pSARL_v2","pSARL_v2rs50mwso","59014ee029f42300013cc5b7","fixation","img/fixation.png","null","","test","","","","","",""
"423.30000001192093","283891","pSARL_v2","pSARL_v2rs50mwso","59014ee029f42300013cc5b7","reward","img/slot.png","74","","test","","","","","",""
"null","284651","pSARL_v2","pSARL_v2rs50mwso","59014ee029f42300013cc5b7","points","<div class=""verylowPoints""> -11 </div>","null","na","test","","","","2","-11","1"
"773.4000000357628","285433","pSARL_v2","pSARL_v2rs50mwso","59014ee029f42300013cc5b7","freq","img/orange_2bandit_a2.png","70","70","test","1","41","41","3","",""
"null","285472","pSARL_v2","pSARL_v2rs50mwso","59014ee029f42300013cc5b7","freq_resp","img/orange_2bandit_a.png","70","70","test","","","","3","",""
"null","285644","pSARL_v2","pSARL_v2rs50mwso","59014ee029f42300013cc5b7","fixation","img/fixation.png","null","","test","","","","","",""
"386.10000002384186","286038","pSARL_v2","pSARL_v2rs50mwso","59014ee029f42300013cc5b7","freq","img/orange_2bandit_a2.png","70","70","test","1","42","42","3","",""
"null","286463","pSARL_v2","pSARL_v2rs50mwso","59014ee029f42300013cc5b7","freq_resp","img/orange_2bandit_a.png","70","70","test","","","","3","",""
"null","286622","pSARL_v2","pSARL_v2rs50mwso","59014ee029f42300013cc5b7","fixation","img/fixation.png","null","","test","","","","","",""
"356.7000000476837","286987","pSARL_v2","pSARL_v2rs50mwso","59014ee029f42300013cc5b7","freq","img/orange_2bandit_a2.png","70","70","test","1","43","43","3","",""
"null","287451","pSARL_v2","pSARL_v2rs50mwso","59014ee029f42300013cc5b7","freq_resp","img/orange_2bandit_a.png","70","70","test","","","","3","",""
"null","287611","pSARL_v2","pSARL_v2rs50mwso","59014ee029f42300013cc5b7","fixation","img/fixation.png","null","","test","","","","","",""
"306.5","287927","pSARL_v2","pSARL_v2rs50mwso","59014ee029f42300013cc5b7","freq","img/orange_2bandit_a2.png","70","70","test","1","44","44","3","",""
"null","288432","pSARL_v2","pSARL_v2rs50mwso","59014ee029f42300013cc5b7","freq_resp","img/orange_2bandit_a.png","70","70","test","","","","3","",""
"null","288593","pSARL_v2","pSARL_v2rs50mwso","59014ee029f42300013cc5b7","fixation","img/fixation.png","null","","test","","","","","",""
"382.30000001192093","288983","pSARL_v2","pSARL_v2rs50mwso","59014ee029f42300013cc5b7","infreq","img/green_2bandit_a2.png","68","68","test","1","45","45","3","",""
"null","289410","pSARL_v2","pSARL_v2rs50mwso","59014ee029f42300013cc5b7","infreq_resp","img/green_2bandit_a.png","68","68","test","","","","3","",""
"null","289579","pSARL_v2","pSARL_v2rs50mwso","59014ee029f42300013cc5b7","fixation","img/fixation.png","null","","test","","","","","",""
"548.3000000119209","290136","pSARL_v2","pSARL_v2rs50mwso","59014ee029f42300013cc5b7","freq","img/orange_2bandit_a2.png","70","70","test","1","46","46","3","",""
"null","290397","pSARL_v2","pSARL_v2rs50mwso","59014ee029f42300013cc5b7","freq_resp","img/orange_2bandit_a.png","70","70","test","","","","3","",""
"null","290572","pSARL_v2","pSARL_v2rs50mwso","59014ee029f42300013cc5b7","fixation","img/fixation.png","null","","test","","","","","",""
"311.2999999523163","290893","pSARL_v2","pSARL_v2rs50mwso","59014ee029f42300013cc5b7","freq","img/orange_2bandit_a2.png","70","70","test","1","47","47","3","",""
"null","291404","pSARL_v2","pSARL_v2rs50mwso","59014ee029f42300013cc5b7","freq_resp","img/orange_2bandit_a.png","70","70","test","","","","3","",""
"null","291564","pSARL_v2","pSARL_v2rs50mwso","59014ee029f42300013cc5b7","fixation","img/fixation.png","null","","test","","","","","",""
"241.5","291814","pSARL_v2","pSARL_v2rs50mwso","59014ee029f42300013cc5b7","freq","img/orange_2bandit_a2.png","70","70","test","1","48","48","3","",""
"null","292395","pSARL_v2","pSARL_v2rs50mwso","59014ee029f42300013cc5b7","freq_resp","img/orange_2bandit_a.png","70","70","test","","","","3","",""
"null","292555","pSARL_v2","pSARL_v2rs50mwso","59014ee029f42300013cc5b7","fixation","img/fixation.png","null","","test","","","","","",""
"275.7000000476837","292840","pSARL_v2","pSARL_v2rs50mwso","59014ee029f42300013cc5b7","freq","img/orange_2bandit_a2.png","70","70","test","1","49","49","3","",""
"null","293379","pSARL_v2","pSARL_v2rs50mwso","59014ee029f42300013cc5b7","freq_resp","img/orange_2bandit_a.png","70","70","test","","","","3","",""
"null","293547","pSARL_v2","pSARL_v2rs50mwso","59014ee029f42300013cc5b7","fixation","img/fixation.png","null","","test","","","","","",""
"255.80000001192093","293812","pSARL_v2","pSARL_v2rs50mwso","59014ee029f42300013cc5b7","infreq","img/green_2bandit_a2.png","70","68","test","0","50","50","3","",""
"null","294370","pSARL_v2","pSARL_v2rs50mwso","59014ee029f42300013cc5b7","infreq_resp","img/green_2bandit_a.png","70","68","test","","","","3","",""
"null","294540","pSARL_v2","pSARL_v2rs50mwso","59014ee029f42300013cc5b7","fixation","img/fixation.png","null","","test","","","","","",""
"179.10000002384186","294727","pSARL_v2","pSARL_v2rs50mwso","59014ee029f42300013cc5b7","freq","img/orange_2bandit_a2.png","70","70","test","1","51","51","3","",""
"null","295372","pSARL_v2","pSARL_v2rs50mwso","59014ee029f42300013cc5b7","freq_resp","img/orange_2bandit_a.png","70","70","test","","","","3","",""
"null","295531","pSARL_v2","pSARL_v2rs50mwso","59014ee029f42300013cc5b7","fixation","img/fixation.png","null","","test","","","","","",""
"135.5999999642372","295676","pSARL_v2","pSARL_v2rs50mwso","59014ee029f42300013cc5b7","freq","img/orange_2bandit_a2.png","70","70","test","1","52","52","3","",""
"null","296364","pSARL_v2","pSARL_v2rs50mwso","59014ee029f42300013cc5b7","freq_resp","img/orange_2bandit_a.png","70","70","test","","","","3","",""
"null","296524","pSARL_v2","pSARL_v2rs50mwso","59014ee029f42300013cc5b7","fixation","img/fixation.png","null","","test","","","","","",""
"206.5","296740","pSARL_v2","pSARL_v2rs50mwso","59014ee029f42300013cc5b7","freq","img/orange_2bandit_a2.png","70","70","test","1","53","53","3","",""
"null","297355","pSARL_v2","pSARL_v2rs50mwso","59014ee029f42300013cc5b7","freq_resp","img/orange_2bandit_a.png","70","70","test","","","","3","",""
"null","297515","pSARL_v2","pSARL_v2rs50mwso","59014ee029f42300013cc5b7","fixation","img/fixation.png","null","","test","","","","","",""
"158.39999997615814","297682","pSARL_v2","pSARL_v2rs50mwso","59014ee029f42300013cc5b7","freq","img/orange_2bandit_a2.png","70","70","test","1","54","54","3","",""
"null","298347","pSARL_v2","pSARL_v2rs50mwso","59014ee029f42300013cc5b7","freq_resp","img/orange_2bandit_a.png","70","70","test","","","","3","",""
"null","298510","pSARL_v2","pSARL_v2rs50mwso","59014ee029f42300013cc5b7","fixation","img/fixation.png","null","","test","","","","","",""
"242.19999998807907","298762","pSARL_v2","pSARL_v2rs50mwso","59014ee029f42300013cc5b7","freq","img/orange_2bandit_a2.png","70","70","test","1","55","55","3","",""
"null","299330","pSARL_v2","pSARL_v2rs50mwso","59014ee029f42300013cc5b7","freq_resp","img/orange_2bandit_a.png","70","70","test","","","","3","",""
"null","299499","pSARL_v2","pSARL_v2rs50mwso","59014ee029f42300013cc5b7","fixation","img/fixation.png","null","","test","","","","","",""
"322.80000001192093","299830","pSARL_v2","pSARL_v2rs50mwso","59014ee029f42300013cc5b7","freq","img/orange_2bandit_a2.png","70","70","test","1","56","56","3","",""
"null","300317","pSARL_v2","pSARL_v2rs50mwso","59014ee029f42300013cc5b7","freq_resp","img/orange_2bandit_a.png","70","70","test","","","","3","",""
"null","300482","pSARL_v2","pSARL_v2rs50mwso","59014ee029f42300013cc5b7","fixation","img/fixation.png","null","","test","","","","","",""
"311.19999998807907","300802","pSARL_v2","pSARL_v2rs50mwso","59014ee029f42300013cc5b7","freq","img/orange_2bandit_a2.png","70","70","test","1","57","57","3","",""
"null","301308","pSARL_v2","pSARL_v2rs50mwso","59014ee029f42300013cc5b7","freq_resp","img/orange_2bandit_a.png","70","70","test","","","","3","",""
"null","301472","pSARL_v2","pSARL_v2rs50mwso","59014ee029f42300013cc5b7","fixation","img/fixation.png","null","","test","","","","","",""
"428.5","301910","pSARL_v2","pSARL_v2rs50mwso","59014ee029f42300013cc5b7","infreq","img/green_2bandit_a2.png","68","68","test","1","58","58","3","",""
"null","302303","pSARL_v2","pSARL_v2rs50mwso","59014ee029f42300013cc5b7","infreq_resp","img/green_2bandit_a.png","68","68","test","","","","3","",""
"null","302464","pSARL_v2","pSARL_v2rs50mwso","59014ee029f42300013cc5b7","fixation","img/fixation.png","null","","test","","","","","",""
"311.60000002384186","302783","pSARL_v2","pSARL_v2rs50mwso","59014ee029f42300013cc5b7","freq","img/orange_2bandit_a2.png","70","70","test","1","59","59","3","",""
"null","303292","pSARL_v2","pSARL_v2rs50mwso","59014ee029f42300013cc5b7","freq_resp","img/orange_2bandit_a.png","70","70","test","","","","3","",""
"null","303456","pSARL_v2","pSARL_v2rs50mwso","59014ee029f42300013cc5b7","fixation","img/fixation.png","null","","test","","","","","",""
"364.39999997615814","303829","pSARL_v2","pSARL_v2rs50mwso","59014ee029f42300013cc5b7","freq","img/orange_2bandit_a2.png","70","70","test","1","60","60","3","",""
"null","304283","pSARL_v2","pSARL_v2rs50mwso","59014ee029f42300013cc5b7","freq_resp","img/orange_2bandit_a.png","70","70","test","","","","3","",""
"null","304449","pSARL_v2","pSARL_v2rs50mwso","59014ee029f42300013cc5b7","fixation","img/fixation.png","null","","test","","","","","",""
"155.80000001192093","304613","pSARL_v2","pSARL_v2rs50mwso","59014ee029f42300013cc5b7","freq","img/orange_2bandit_a2.png","70","70","test","1","61","61","3","",""
"null","305276","pSARL_v2","pSARL_v2rs50mwso","59014ee029f42300013cc5b7","freq_resp","img/orange_2bandit_a.png","70","70","test","","","","3","",""
"null","305442","pSARL_v2","pSARL_v2rs50mwso","59014ee029f42300013cc5b7","fixation","img/fixation.png","null","","test","","","","","",""
"174.70000004768372","305626","pSARL_v2","pSARL_v2rs50mwso","59014ee029f42300013cc5b7","freq","img/orange_2bandit_a2.png","70","70","test","1","62","62","3","",""
"null","306267","pSARL_v2","pSARL_v2rs50mwso","59014ee029f42300013cc5b7","freq_resp","img/orange_2bandit_a.png","70","70","test","","","","3","",""
"null","306427","pSARL_v2","pSARL_v2rs50mwso","59014ee029f42300013cc5b7","fixation","img/fixation.png","null","","test","","","","","",""
"299","306735","pSARL_v2","pSARL_v2rs50mwso","59014ee029f42300013cc5b7","freq","img/orange_2bandit_a2.png","70","70","test","1","63","63","3","",""
"null","307259","pSARL_v2","pSARL_v2rs50mwso","59014ee029f42300013cc5b7","freq_resp","img/orange_2bandit_a.png","70","70","test","","","","3","",""
"null","307419","pSARL_v2","pSARL_v2rs50mwso","59014ee029f42300013cc5b7","fixation","img/fixation.png","null","","test","","","","","",""
"327.89999997615814","307756","pSARL_v2","pSARL_v2rs50mwso","59014ee029f42300013cc5b7","freq","img/orange_2bandit_a2.png","70","70","test","1","64","64","3","",""
"null","308243","pSARL_v2","pSARL_v2rs50mwso","59014ee029f42300013cc5b7","freq_resp","img/orange_2bandit_a.png","70","70","test","","","","3","",""
"null","308411","pSARL_v2","pSARL_v2rs50mwso","59014ee029f42300013cc5b7","fixation","img/fixation.png","null","","test","","","","","",""
"316","308735","pSARL_v2","pSARL_v2rs50mwso","59014ee029f42300013cc5b7","freq","img/orange_2bandit_a2.png","70","70","test","1","65","65","3","",""
"null","309232","pSARL_v2","pSARL_v2rs50mwso","59014ee029f42300013cc5b7","freq_resp","img/orange_2bandit_a.png","70","70","test","","","","3","",""
"null","309394","pSARL_v2","pSARL_v2rs50mwso","59014ee029f42300013cc5b7","fixation","img/fixation.png","null","","test","","","","","",""
"204.70000004768372","309608","pSARL_v2","pSARL_v2rs50mwso","59014ee029f42300013cc5b7","freq","img/orange_2bandit_a2.png","70","70","test","1","66","66","3","",""
"null","310219","pSARL_v2","pSARL_v2rs50mwso","59014ee029f42300013cc5b7","freq_resp","img/orange_2bandit_a.png","70","70","test","","","","3","",""
"null","310385","pSARL_v2","pSARL_v2rs50mwso","59014ee029f42300013cc5b7","fixation","img/fixation.png","null","","test","","","","","",""
"619.3999999761581","311013","pSARL_v2","pSARL_v2rs50mwso","59014ee029f42300013cc5b7","reward","img/slot.png","74","","test","","","","","",""
"null","311772","pSARL_v2","pSARL_v2rs50mwso","59014ee029f42300013cc5b7","points","<div class=""verylowPoints""> -7 </div>","null","na","test","","","","3","-7","2"
"682.1000000238419","312463","pSARL_v2","pSARL_v2rs50mwso","59014ee029f42300013cc5b7","freq","img/orange_2bandit_a2.png","70","70","test","1","67","67","4","",""
"null","312603","pSARL_v2","pSARL_v2rs50mwso","59014ee029f42300013cc5b7","freq_resp","img/orange_2bandit_a.png","70","70","test","","","","4","",""
"null","312764","pSARL_v2","pSARL_v2rs50mwso","59014ee029f42300013cc5b7","fixation","img/fixation.png","null","","test","","","","","",""
"469.10000002384186","313242","pSARL_v2","pSARL_v2rs50mwso","59014ee029f42300013cc5b7","freq","img/orange_2bandit_a2.png","70","70","test","1","68","68","4","",""
"null","313585","pSARL_v2","pSARL_v2rs50mwso","59014ee029f42300013cc5b7","freq_resp","img/orange_2bandit_a.png","70","70","test","","","","4","",""
"null","313756","pSARL_v2","pSARL_v2rs50mwso","59014ee029f42300013cc5b7","fixation","img/fixation.png","null","","test","","","","","",""
"206.80000001192093","313972","pSARL_v2","pSARL_v2rs50mwso","59014ee029f42300013cc5b7","freq","img/orange_2bandit_a2.png","70","70","test","1","69","69","4","",""
"null","314577","pSARL_v2","pSARL_v2rs50mwso","59014ee029f42300013cc5b7","freq_resp","img/orange_2bandit_a.png","70","70","test","","","","4","",""
"null","314740","pSARL_v2","pSARL_v2rs50mwso","59014ee029f42300013cc5b7","fixation","img/fixation.png","null","","test","","","","","",""
"307.19999998807907","315054","pSARL_v2","pSARL_v2rs50mwso","59014ee029f42300013cc5b7","freq","img/orange_2bandit_a2.png","70","70","test","1","70","70","4","",""
"null","315563","pSARL_v2","pSARL_v2rs50mwso","59014ee029f42300013cc5b7","freq_resp","img/orange_2bandit_a.png","70","70","test","","","","4","",""
"null","315725","pSARL_v2","pSARL_v2rs50mwso","59014ee029f42300013cc5b7","fixation","img/fixation.png","null","","test","","","","","",""
"302.19999998807907","316036","pSARL_v2","pSARL_v2rs50mwso","59014ee029f42300013cc5b7","freq","img/orange_2bandit_a2.png","70","70","test","1","71","71","4","",""
"null","316543","pSARL_v2","pSARL_v2rs50mwso","59014ee029f42300013cc5b7","freq_resp","img/orange_2bandit_a.png","70","70","test","","","","4","",""
"null","316703","pSARL_v2","pSARL_v2rs50mwso","59014ee029f42300013cc5b7","fixation","img/fixation.png","null","","test","","","","","",""
"299.80000001192093","317012","pSARL_v2","pSARL_v2rs50mwso","59014ee029f42300013cc5b7","freq","img/orange_2bandit_a2.png","70","70","test","1","72","72","4","",""
"null","317531","pSARL_v2","pSARL_v2rs50mwso","59014ee029f42300013cc5b7","freq_resp","img/orange_2bandit_a.png","70","70","test","","","","4","",""
"null","317693","pSARL_v2","pSARL_v2rs50mwso","59014ee029f42300013cc5b7","fixation","img/fixation.png","null","","test","","","","","",""
"177.30000001192093","317878","pSARL_v2","pSARL_v2rs50mwso","59014ee029f42300013cc5b7","freq","img/orange_2bandit_a2.png","70","70","test","1","73","73","4","",""
"null","318524","pSARL_v2","pSARL_v2rs50mwso","59014ee029f42300013cc5b7","freq_resp","img/orange_2bandit_a.png","70","70","test","","","","4","",""
"null","318688","pSARL_v2","pSARL_v2rs50mwso","59014ee029f42300013cc5b7","fixation","img/fixation.png","null","","test","","","","","",""
"210.30000001192093","318908","pSARL_v2","pSARL_v2rs50mwso","59014ee029f42300013cc5b7","freq","img/orange_2bandit_a2.png","70","70","test","1","74","74","4","",""
"null","319516","pSARL_v2","pSARL_v2rs50mwso","59014ee029f42300013cc5b7","freq_resp","img/orange_2bandit_a.png","70","70","test","","","","4","",""
"null","319675","pSARL_v2","pSARL_v2rs50mwso","59014ee029f42300013cc5b7","fixation","img/fixation.png","null","","test","","","","","",""
"211.5","319895","pSARL_v2","pSARL_v2rs50mwso","59014ee029f42300013cc5b7","freq","img/orange_2bandit_a2.png","70","70","test","1","75","75","4","",""
"null","320497","pSARL_v2","pSARL_v2rs50mwso","59014ee029f42300013cc5b7","freq_resp","img/orange_2bandit_a.png","70","70","test","","","","4","",""
"null","320670","pSARL_v2","pSARL_v2rs50mwso","59014ee029f42300013cc5b7","fixation","img/fixation.png","null","","test","","","","","",""
"394.19999998807907","321073","pSARL_v2","pSARL_v2rs50mwso","59014ee029f42300013cc5b7","infreq","img/green_2bandit_a2.png","68","68","test","1","76","76","4","",""
"null","321499","pSARL_v2","pSARL_v2rs50mwso","59014ee029f42300013cc5b7","infreq_resp","img/green_2bandit_a.png","68","68","test","","","","4","",""
"null","321660","pSARL_v2","pSARL_v2rs50mwso","59014ee029f42300013cc5b7","fixation","img/fixation.png","null","","test","","","","","",""
"295.69999998807907","321964","pSARL_v2","pSARL_v2rs50mwso","59014ee029f42300013cc5b7","freq","img/orange_2bandit_a2.png","70","70","test","1","77","77","4","",""
"null","322477","pSARL_v2","pSARL_v2rs50mwso","59014ee029f42300013cc5b7","freq_resp","img/orange_2bandit_a.png","70","70","test","","","","4","",""
"null","322651","pSARL_v2","pSARL_v2rs50mwso","59014ee029f42300013cc5b7","fixation","img/fixation.png","null","","test","","","","","",""
"260.69999998807907","322922","pSARL_v2","pSARL_v2rs50mwso","59014ee029f42300013cc5b7","freq","img/orange_2bandit_a2.png","70","70","test","1","78","78","4","",""
"null","323483","pSARL_v2","pSARL_v2rs50mwso","59014ee029f42300013cc5b7","freq_resp","img/orange_2bandit_a.png","70","70","test","","","","4","",""
"null","323643","pSARL_v2","pSARL_v2rs50mwso","59014ee029f42300013cc5b7","fixation","img/fixation.png","null","","test","","","","","",""
"154.89999997615814","323807","pSARL_v2","pSARL_v2rs50mwso","59014ee029f42300013cc5b7","freq","img/orange_2bandit_a2.png","70","70","test","1","79","79","4","",""
"null","324476","pSARL_v2","pSARL_v2rs50mwso","59014ee029f42300013cc5b7","freq_resp","img/orange_2bandit_a.png","70","70","test","","","","4","",""
"null","324635","pSARL_v2","pSARL_v2rs50mwso","59014ee029f42300013cc5b7","fixation","img/fixation.png","null","","test","","","","","",""
"147.60000002384186","324792","pSARL_v2","pSARL_v2rs50mwso","59014ee029f42300013cc5b7","freq","img/orange_2bandit_a2.png","70","70","test","1","80","80","4","",""
"null","325452","pSARL_v2","pSARL_v2rs50mwso","59014ee029f42300013cc5b7","freq_resp","img/orange_2bandit_a.png","70","70","test","","","","4","",""
"null","325630","pSARL_v2","pSARL_v2rs50mwso","59014ee029f42300013cc5b7","fixation","img/fixation.png","null","","test","","","","","",""
"328.30000001192093","325967","pSARL_v2","pSARL_v2rs50mwso","59014ee029f42300013cc5b7","freq","img/orange_2bandit_a2.png","70","70","test","1","81","81","4","",""
"null","326460","pSARL_v2","pSARL_v2rs50mwso","59014ee029f42300013cc5b7","freq_resp","img/orange_2bandit_a.png","70","70","test","","","","4","",""
"null","326619","pSARL_v2","pSARL_v2rs50mwso","59014ee029f42300013cc5b7","fixation","img/fixation.png","null","","test","","","","","",""
"190.5","326818","pSARL_v2","pSARL_v2rs50mwso","59014ee029f42300013cc5b7","freq","img/orange_2bandit_a2.png","70","70","test","1","82","82","4","",""
"null","327451","pSARL_v2","pSARL_v2rs50mwso","59014ee029f42300013cc5b7","freq_resp","img/orange_2bandit_a.png","70","70","test","","","","4","",""
"null","327615","pSARL_v2","pSARL_v2rs50mwso","59014ee029f42300013cc5b7","fixation","img/fixation.png","null","","test","","","","","",""
"90.5","327714","pSARL_v2","pSARL_v2rs50mwso","59014ee029f42300013cc5b7","freq","img/orange_2bandit_a2.png","70","70","test","1","83","83","4","",""
"null","328434","pSARL_v2","pSARL_v2rs50mwso","59014ee029f42300013cc5b7","freq_resp","img/orange_2bandit_a.png","70","70","test","","","","4","",""
"null","328609","pSARL_v2","pSARL_v2rs50mwso","59014ee029f42300013cc5b7","fixation","img/fixation.png","null","","test","","","","","",""
"115.40000003576279","328733","pSARL_v2","pSARL_v2rs50mwso","59014ee029f42300013cc5b7","freq","img/orange_2bandit_a2.png","70","70","test","1","84","84","4","",""
"null","329439","pSARL_v2","pSARL_v2rs50mwso","59014ee029f42300013cc5b7","freq_resp","img/orange_2bandit_a.png","70","70","test","","","","4","",""
"null","329611","pSARL_v2","pSARL_v2rs50mwso","59014ee029f42300013cc5b7","fixation","img/fixation.png","null","","test","","","","","",""
"186.19999998807907","329807","pSARL_v2","pSARL_v2rs50mwso","59014ee029f42300013cc5b7","freq","img/orange_2bandit_a2.png","70","70","test","1","85","85","4","",""
"null","330443","pSARL_v2","pSARL_v2rs50mwso","59014ee029f42300013cc5b7","freq_resp","img/orange_2bandit_a.png","70","70","test","","","","4","",""
"null","330610","pSARL_v2","pSARL_v2rs50mwso","59014ee029f42300013cc5b7","fixation","img/fixation.png","null","","test","","","","","",""
"361.19999998807907","330980","pSARL_v2","pSARL_v2rs50mwso","59014ee029f42300013cc5b7","infreq","img/green_2bandit_a2.png","68","68","test","1","86","86","4","",""
"null","331442","pSARL_v2","pSARL_v2rs50mwso","59014ee029f42300013cc5b7","infreq_resp","img/green_2bandit_a.png","68","68","test","","","","4","",""
"null","331611","pSARL_v2","pSARL_v2rs50mwso","59014ee029f42300013cc5b7","fixation","img/fixation.png","null","","test","","","","","",""
"271.7999999523163","331892","pSARL_v2","pSARL_v2rs50mwso","59014ee029f42300013cc5b7","freq","img/orange_2bandit_a2.png","70","70","test","1","87","87","4","",""
"null","332431","pSARL_v2","pSARL_v2rs50mwso","59014ee029f42300013cc5b7","freq_resp","img/orange_2bandit_a.png","70","70","test","","","","4","",""
"null","332594","pSARL_v2","pSARL_v2rs50mwso","59014ee029f42300013cc5b7","fixation","img/fixation.png","null","","test","","","","","",""
"95","332699","pSARL_v2","pSARL_v2rs50mwso","59014ee029f42300013cc5b7","freq","img/orange_2bandit_a2.png","70","70","test","1","88","88","4","",""
"null","333426","pSARL_v2","pSARL_v2rs50mwso","59014ee029f42300013cc5b7","freq_resp","img/orange_2bandit_a.png","70","70","test","","","","4","",""
"null","333584","pSARL_v2","pSARL_v2rs50mwso","59014ee029f42300013cc5b7","fixation","img/fixation.png","null","","test","","","","","",""
"517","334110","pSARL_v2","pSARL_v2rs50mwso","59014ee029f42300013cc5b7","reward","img/slot.png","74","","test","","","","","",""
"null","334875","pSARL_v2","pSARL_v2rs50mwso","59014ee029f42300013cc5b7","points","<div class=""verylowPoints""> -3 </div>","null","na","test","","","","4","-3","3"
"414.80000001192093","335298","pSARL_v2","pSARL_v2rs50mwso","59014ee029f42300013cc5b7","freq","img/orange_2bandit_a2.png","70","70","test","1","89","89","5","",""
"null","335708","pSARL_v2","pSARL_v2rs50mwso","59014ee029f42300013cc5b7","freq_resp","img/orange_2bandit_a.png","70","70","test","","","","5","",""
"null","335867","pSARL_v2","pSARL_v2rs50mwso","59014ee029f42300013cc5b7","fixation","img/fixation.png","null","","test","","","","","",""
"308.19999998807907","336184","pSARL_v2","pSARL_v2rs50mwso","59014ee029f42300013cc5b7","freq","img/orange_2bandit_a2.png","70","70","test","1","90","90","5","",""
"null","336688","pSARL_v2","pSARL_v2rs50mwso","59014ee029f42300013cc5b7","freq_resp","img/orange_2bandit_a.png","70","70","test","","","","5","",""
"null","336862","pSARL_v2","pSARL_v2rs50mwso","59014ee029f42300013cc5b7","fixation","img/fixation.png","null","","test","","","","","",""
"94.90000003576279","336966","pSARL_v2","pSARL_v2rs50mwso","59014ee029f42300013cc5b7","freq","img/orange_2bandit_a2.png","70","70","test","1","91","91","5","",""
"null","337693","pSARL_v2","pSARL_v2rs50mwso","59014ee029f42300013cc5b7","freq_resp","img/orange_2bandit_a.png","70","70","test","","","","5","",""
"null","337867","pSARL_v2","pSARL_v2rs50mwso","59014ee029f42300013cc5b7","fixation","img/fixation.png","null","","test","","","","","",""
"80.29999995231628","337957","pSARL_v2","pSARL_v2rs50mwso","59014ee029f42300013cc5b7","freq","img/orange_2bandit_a2.png","70","70","test","1","92","92","5","",""
"null","338701","pSARL_v2","pSARL_v2rs50mwso","59014ee029f42300013cc5b7","freq_resp","img/orange_2bandit_a.png","70","70","test","","","","5","",""
"null","338875","pSARL_v2","pSARL_v2rs50mwso","59014ee029f42300013cc5b7","fixation","img/fixation.png","null","","test","","","","","",""
"170.5","339055","pSARL_v2","pSARL_v2rs50mwso","59014ee029f42300013cc5b7","freq","img/orange_2bandit_a2.png","70","70","test","1","93","93","5","",""
"null","339710","pSARL_v2","pSARL_v2rs50mwso","59014ee029f42300013cc5b7","freq_resp","img/orange_2bandit_a.png","70","70","test","","","","5","",""
"null","339870","pSARL_v2","pSARL_v2rs50mwso","59014ee029f42300013cc5b7","fixation","img/fixation.png","null","","test","","","","","",""
"246.5999999642372","340128","pSARL_v2","pSARL_v2rs50mwso","59014ee029f42300013cc5b7","freq","img/orange_2bandit_a2.png","70","70","test","1","94","94","5","",""
"null","340703","pSARL_v2","pSARL_v2rs50mwso","59014ee029f42300013cc5b7","freq_resp","img/orange_2bandit_a.png","70","70","test","","","","5","",""
"null","340864","pSARL_v2","pSARL_v2rs50mwso","59014ee029f42300013cc5b7","fixation","img/fixation.png","null","","test","","","","","",""
"192.70000004768372","341064","pSARL_v2","pSARL_v2rs50mwso","59014ee029f42300013cc5b7","freq","img/orange_2bandit_a2.png","70","70","test","1","95","95","5","",""
"null","341695","pSARL_v2","pSARL_v2rs50mwso","59014ee029f42300013cc5b7","freq_resp","img/orange_2bandit_a.png","70","70","test","","","","5","",""
"null","341854","pSARL_v2","pSARL_v2rs50mwso","59014ee029f42300013cc5b7","fixation","img/fixation.png","null","","test","","","","","",""
"152.19999998807907","342015","pSARL_v2","pSARL_v2rs50mwso","59014ee029f42300013cc5b7","freq","img/orange_2bandit_a2.png","70","70","test","1","96","96","5","",""
"null","342685","pSARL_v2","pSARL_v2rs50mwso","59014ee029f42300013cc5b7","freq_resp","img/orange_2bandit_a.png","70","70","test","","","","5","",""
"null","342846","pSARL_v2","pSARL_v2rs50mwso","59014ee029f42300013cc5b7","fixation","img/fixation.png","null","","test","","","","","",""
"159.39999997615814","343014","pSARL_v2","pSARL_v2rs50mwso","59014ee029f42300013cc5b7","freq","img/orange_2bandit_a2.png","70","70","test","1","97","97","5","",""
"null","343679","pSARL_v2","pSARL_v2rs50mwso","59014ee029f42300013cc5b7","freq_resp","img/orange_2bandit_a.png","70","70","test","","","","5","",""
"null","343840","pSARL_v2","pSARL_v2rs50mwso","59014ee029f42300013cc5b7","fixation","img/fixation.png","null","","test","","","","","",""
"196.60000002384186","344045","pSARL_v2","pSARL_v2rs50mwso","59014ee029f42300013cc5b7","freq","img/orange_2bandit_a2.png","70","70","test","1","98","98","5","",""
"null","344670","pSARL_v2","pSARL_v2rs50mwso","59014ee029f42300013cc5b7","freq_resp","img/orange_2bandit_a.png","70","70","test","","","","5","",""
"null","344831","pSARL_v2","pSARL_v2rs50mwso","59014ee029f42300013cc5b7","fixation","img/fixation.png","null","","test","","","","","",""
"202.39999997615814","345043","pSARL_v2","pSARL_v2rs50mwso","59014ee029f42300013cc5b7","freq","img/orange_2bandit_a2.png","70","70","test","1","99","99","5","",""
"null","345662","pSARL_v2","pSARL_v2rs50mwso","59014ee029f42300013cc5b7","freq_resp","img/orange_2bandit_a.png","70","70","test","","","","5","",""
"null","345823","pSARL_v2","pSARL_v2rs50mwso","59014ee029f42300013cc5b7","fixation","img/fixation.png","null","","test","","","","","",""
"151.10000002384186","345982","pSARL_v2","pSARL_v2rs50mwso","59014ee029f42300013cc5b7","freq","img/orange_2bandit_a2.png","70","70","test","1","100","100","5","",""
"null","346662","pSARL_v2","pSARL_v2rs50mwso","59014ee029f42300013cc5b7","freq_resp","img/orange_2bandit_a.png","70","70","test","","","","5","",""
"null","346831","pSARL_v2","pSARL_v2rs50mwso","59014ee029f42300013cc5b7","fixation","img/fixation.png","null","","test","","","","","",""
"163.4000000357628","347003","pSARL_v2","pSARL_v2rs50mwso","59014ee029f42300013cc5b7","freq","img/orange_2bandit_a2.png","70","70","test","1","101","101","5","",""
"null","347662","pSARL_v2","pSARL_v2rs50mwso","59014ee029f42300013cc5b7","freq_resp","img/orange_2bandit_a.png","70","70","test","","","","5","",""
"null","347825","pSARL_v2","pSARL_v2rs50mwso","59014ee029f42300013cc5b7","fixation","img/fixation.png","null","","test","","","","","",""
"171.30000001192093","348006","pSARL_v2","pSARL_v2rs50mwso","59014ee029f42300013cc5b7","freq","img/orange_2bandit_a2.png","70","70","test","1","102","102","5","",""
"null","348654","pSARL_v2","pSARL_v2rs50mwso","59014ee029f42300013cc5b7","freq_resp","img/orange_2bandit_a.png","70","70","test","","","","5","",""
"null","348815","pSARL_v2","pSARL_v2rs50mwso","59014ee029f42300013cc5b7","fixation","img/fixation.png","null","","test","","","","","",""
"151.10000002384186","348976","pSARL_v2","pSARL_v2rs50mwso","59014ee029f42300013cc5b7","freq","img/orange_2bandit_a2.png","70","70","test","1","103","103","5","",""
"null","349647","pSARL_v2","pSARL_v2rs50mwso","59014ee029f42300013cc5b7","freq_resp","img/orange_2bandit_a.png","70","70","test","","","","5","",""
"null","349807","pSARL_v2","pSARL_v2rs50mwso","59014ee029f42300013cc5b7","fixation","img/fixation.png","null","","test","","","","","",""
"181.9000000357628","349997","pSARL_v2","pSARL_v2rs50mwso","59014ee029f42300013cc5b7","infreq","img/green_2bandit_a2.png","70","68","test","0","104","104","5","",""
"null","350643","pSARL_v2","pSARL_v2rs50mwso","59014ee029f42300013cc5b7","infreq_resp","img/green_2bandit_a.png","70","68","test","","","","5","",""
"null","350818","pSARL_v2","pSARL_v2rs50mwso","59014ee029f42300013cc5b7","fixation","img/fixation.png","null","","test","","","","","",""
"500.10000002384186","351327","pSARL_v2","pSARL_v2rs50mwso","59014ee029f42300013cc5b7","infreq","img/green_2bandit_a2.png","68","68","test","1","105","105","5","",""
"null","351646","pSARL_v2","pSARL_v2rs50mwso","59014ee029f42300013cc5b7","infreq_resp","img/green_2bandit_a.png","68","68","test","","","","5","",""
"null","351807","pSARL_v2","pSARL_v2rs50mwso","59014ee029f42300013cc5b7","fixation","img/fixation.png","null","","test","","","","","",""
"443.39999997615814","352259","pSARL_v2","pSARL_v2rs50mwso","59014ee029f42300013cc5b7","freq","img/orange_2bandit_a2.png","70","70","test","1","106","106","5","",""
"null","352625","pSARL_v2","pSARL_v2rs50mwso","59014ee029f42300013cc5b7","freq_resp","img/orange_2bandit_a.png","70","70","test","","","","5","",""
"null","352787","pSARL_v2","pSARL_v2rs50mwso","59014ee029f42300013cc5b7","fixation","img/fixation.png","null","","test","","","","","",""
"315.0999999642372","353111","pSARL_v2","pSARL_v2rs50mwso","59014ee029f42300013cc5b7","freq","img/orange_2bandit_a2.png","70","70","test","1","107","107","5","",""
"null","353621","pSARL_v2","pSARL_v2rs50mwso","59014ee029f42300013cc5b7","freq_resp","img/orange_2bandit_a.png","70","70","test","","","","5","",""
"null","353781","pSARL_v2","pSARL_v2rs50mwso","59014ee029f42300013cc5b7","fixation","img/fixation.png","null","","test","","","","","",""
"1211.1000000238419","355001","pSARL_v2","pSARL_v2rs50mwso","59014ee029f42300013cc5b7","reward","img/slot.png","74","","test","","","","","",""
"null","355775","pSARL_v2","pSARL_v2rs50mwso","59014ee029f42300013cc5b7","points","<div class=""veryhighPoints""> +1 </div>","null","na","test","","","","5","1","4"
"568.6000000238419","356352","pSARL_v2","pSARL_v2rs50mwso","59014ee029f42300013cc5b7","freq","img/orange_2bandit_a2.png","70","70","test","1","108","108","6","",""
"null","356609","pSARL_v2","pSARL_v2rs50mwso","59014ee029f42300013cc5b7","freq_resp","img/orange_2bandit_a.png","70","70","test","","","","6","",""
"null","356770","pSARL_v2","pSARL_v2rs50mwso","59014ee029f42300013cc5b7","fixation","img/fixation.png","null","","test","","","","","",""
"458.80000001192093","357239","pSARL_v2","pSARL_v2rs50mwso","59014ee029f42300013cc5b7","infreq","img/green_2bandit_a2.png","68","68","test","1","109","109","6","",""
"null","357598","pSARL_v2","pSARL_v2rs50mwso","59014ee029f42300013cc5b7","infreq_resp","img/green_2bandit_a.png","68","68","test","","","","6","",""
"null","357760","pSARL_v2","pSARL_v2rs50mwso","59014ee029f42300013cc5b7","fixation","img/fixation.png","null","","test","","","","","",""
"305.30000001192093","358075","pSARL_v2","pSARL_v2rs50mwso","59014ee029f42300013cc5b7","freq","img/orange_2bandit_a2.png","70","70","test","1","110","110","6","",""
"null","358578","pSARL_v2","pSARL_v2rs50mwso","59014ee029f42300013cc5b7","freq_resp","img/orange_2bandit_a.png","70","70","test","","","","6","",""
"null","358751","pSARL_v2","pSARL_v2rs50mwso","59014ee029f42300013cc5b7","fixation","img/fixation.png","null","","test","","","","","",""
"326","359085","pSARL_v2","pSARL_v2rs50mwso","59014ee029f42300013cc5b7","freq","img/orange_2bandit_a2.png","70","70","test","1","111","111","6","",""
"null","359582","pSARL_v2","pSARL_v2rs50mwso","59014ee029f42300013cc5b7","freq_resp","img/orange_2bandit_a.png","70","70","test","","","","6","",""
"null","359745","pSARL_v2","pSARL_v2rs50mwso","59014ee029f42300013cc5b7","fixation","img/fixation.png","null","","test","","","","","",""
"304.9000000357628","360059","pSARL_v2","pSARL_v2rs50mwso","59014ee029f42300013cc5b7","freq","img/orange_2bandit_a2.png","70","70","test","1","112","112","6","",""
"null","360575","pSARL_v2","pSARL_v2rs50mwso","59014ee029f42300013cc5b7","freq_resp","img/orange_2bandit_a.png","70","70","test","","","","6","",""
"null","360736","pSARL_v2","pSARL_v2rs50mwso","59014ee029f42300013cc5b7","fixation","img/fixation.png","null","","test","","","","","",""
"166.4000000357628","360911","pSARL_v2","pSARL_v2rs50mwso","59014ee029f42300013cc5b7","freq","img/orange_2bandit_a2.png","70","70","test","1","113","113","6","",""
"null","361567","pSARL_v2","pSARL_v2rs50mwso","59014ee029f42300013cc5b7","freq_resp","img/orange_2bandit_a.png","70","70","test","","","","6","",""
"null","361726","pSARL_v2","pSARL_v2rs50mwso","59014ee029f42300013cc5b7","fixation","img/fixation.png","null","","test","","","","","",""
"326.7999999523163","362062","pSARL_v2","pSARL_v2rs50mwso","59014ee029f42300013cc5b7","freq","img/orange_2bandit_a2.png","70","70","test","1","114","114","6","",""
"null","362559","pSARL_v2","pSARL_v2rs50mwso","59014ee029f42300013cc5b7","freq_resp","img/orange_2bandit_a.png","70","70","test","","","","6","",""
"null","362719","pSARL_v2","pSARL_v2rs50mwso","59014ee029f42300013cc5b7","fixation","img/fixation.png","null","","test","","","","","",""
"226.5","362956","pSARL_v2","pSARL_v2rs50mwso","59014ee029f42300013cc5b7","freq","img/orange_2bandit_a2.png","70","70","test","1","115","115","6","",""
"null","363550","pSARL_v2","pSARL_v2rs50mwso","59014ee029f42300013cc5b7","freq_resp","img/orange_2bandit_a.png","70","70","test","","","","6","",""
"null","363710","pSARL_v2","pSARL_v2rs50mwso","59014ee029f42300013cc5b7","fixation","img/fixation.png","null","","test","","","","","",""
"233.39999997615814","363952","pSARL_v2","pSARL_v2rs50mwso","59014ee029f42300013cc5b7","freq","img/orange_2bandit_a2.png","70","70","test","1","116","116","6","",""
"null","364543","pSARL_v2","pSARL_v2rs50mwso","59014ee029f42300013cc5b7","freq_resp","img/orange_2bandit_a.png","70","70","test","","","","6","",""
"null","364702","pSARL_v2","pSARL_v2rs50mwso","59014ee029f42300013cc5b7","fixation","img/fixation.png","null","","test","","","","","",""
"124.59999996423721","364835","pSARL_v2","pSARL_v2rs50mwso","59014ee029f42300013cc5b7","freq","img/orange_2bandit_a2.png","70","70","test","1","117","117","6","",""
"null","365534","pSARL_v2","pSARL_v2rs50mwso","59014ee029f42300013cc5b7","freq_resp","img/orange_2bandit_a.png","70","70","test","","","","6","",""
"null","365694","pSARL_v2","pSARL_v2rs50mwso","59014ee029f42300013cc5b7","fixation","img/fixation.png","null","","test","","","","","",""
"154.60000002384186","365858","pSARL_v2","pSARL_v2rs50mwso","59014ee029f42300013cc5b7","freq","img/orange_2bandit_a2.png","70","70","test","1","118","118","6","",""
"null","366512","pSARL_v2","pSARL_v2rs50mwso","59014ee029f42300013cc5b7","freq_resp","img/orange_2bandit_a.png","70","70","test","","","","6","",""
"null","366686","pSARL_v2","pSARL_v2rs50mwso","59014ee029f42300013cc5b7","fixation","img/fixation.png","null","","test","","","","","",""
"181.80000001192093","366877","pSARL_v2","pSARL_v2rs50mwso","59014ee029f42300013cc5b7","freq","img/orange_2bandit_a2.png","70","70","test","1","119","119","6","",""
"null","367518","pSARL_v2","pSARL_v2rs50mwso","59014ee029f42300013cc5b7","freq_resp","img/orange_2bandit_a.png","70","70","test","","","","6","",""
"null","367678","pSARL_v2","pSARL_v2rs50mwso","59014ee029f42300013cc5b7","fixation","img/fixation.png","null","","test","","","","","",""
"165.39999997615814","367852","pSARL_v2","pSARL_v2rs50mwso","59014ee029f42300013cc5b7","freq","img/orange_2bandit_a2.png","70","70","test","1","120","120","6","",""
"null","368512","pSARL_v2","pSARL_v2rs50mwso","59014ee029f42300013cc5b7","freq_resp","img/orange_2bandit_a.png","70","70","test","","","","6","",""
"null","368675","pSARL_v2","pSARL_v2rs50mwso","59014ee029f42300013cc5b7","fixation","img/fixation.png","null","","test","","","","","",""
"156.80000001192093","368841","pSARL_v2","pSARL_v2rs50mwso","59014ee029f42300013cc5b7","infreq","img/green_2bandit_a2.png","70","68","test","0","121","121","6","",""
"null","369503","pSARL_v2","pSARL_v2rs50mwso","59014ee029f42300013cc5b7","infreq_resp","img/green_2bandit_a.png","70","68","test","","","","6","",""
"null","369670","pSARL_v2","pSARL_v2rs50mwso","59014ee029f42300013cc5b7","fixation","img/fixation.png","null","","test","","","","","",""
"458.19999998807907","370137","pSARL_v2","pSARL_v2rs50mwso","59014ee029f42300013cc5b7","infreq","img/green_2bandit_a2.png","68","68","test","1","122","122","6","",""
"null","370494","pSARL_v2","pSARL_v2rs50mwso","59014ee029f42300013cc5b7","infreq_resp","img/green_2bandit_a.png","68","68","test","","","","6","",""
"null","370658","pSARL_v2","pSARL_v2rs50mwso","59014ee029f42300013cc5b7","fixation","img/fixation.png","null","","test","","","","","",""
"450.7000000476837","371118","pSARL_v2","pSARL_v2rs50mwso","59014ee029f42300013cc5b7","freq","img/orange_2bandit_a2.png","70","70","test","1","123","123","6","",""
"null","371489","pSARL_v2","pSARL_v2rs50mwso","59014ee029f42300013cc5b7","freq_resp","img/orange_2bandit_a.png","70","70","test","","","","6","",""
"null","371662","pSARL_v2","pSARL_v2rs50mwso","59014ee029f42300013cc5b7","fixation","img/fixation.png","null","","test","","","","","",""
"314.5","371983","pSARL_v2","pSARL_v2rs50mwso","59014ee029f42300013cc5b7","freq","img/orange_2bandit_a2.png","70","70","test","1","124","124","6","",""
"null","372479","pSARL_v2","pSARL_v2rs50mwso","59014ee029f42300013cc5b7","freq_resp","img/orange_2bandit_a.png","70","70","test","","","","6","",""
"null","372655","pSARL_v2","pSARL_v2rs50mwso","59014ee029f42300013cc5b7","fixation","img/fixation.png","null","","test","","","","","",""
"306","372969","pSARL_v2","pSARL_v2rs50mwso","59014ee029f42300013cc5b7","freq","img/orange_2bandit_a2.png","70","70","test","1","125","125","6","",""
"null","373492","pSARL_v2","pSARL_v2rs50mwso","59014ee029f42300013cc5b7","freq_resp","img/orange_2bandit_a.png","70","70","test","","","","6","",""
"null","373662","pSARL_v2","pSARL_v2rs50mwso","59014ee029f42300013cc5b7","fixation","img/fixation.png","null","","test","","","","","",""
"259.89999997615814","373930","pSARL_v2","pSARL_v2rs50mwso","59014ee029f42300013cc5b7","freq","img/orange_2bandit_a2.png","70","70","test","1","126","126","6","",""
"null","374481","pSARL_v2","pSARL_v2rs50mwso","59014ee029f42300013cc5b7","freq_resp","img/orange_2bandit_a.png","70","70","test","","","","6","",""
"null","374655","pSARL_v2","pSARL_v2rs50mwso","59014ee029f42300013cc5b7","fixation","img/fixation.png","null","","test","","","","","",""
"198.0999999642372","374862","pSARL_v2","pSARL_v2rs50mwso","59014ee029f42300013cc5b7","freq","img/orange_2bandit_a2.png","70","70","test","1","127","127","6","",""
"null","375493","pSARL_v2","pSARL_v2rs50mwso","59014ee029f42300013cc5b7","freq_resp","img/orange_2bandit_a.png","70","70","test","","","","6","",""
"null","375668","pSARL_v2","pSARL_v2rs50mwso","59014ee029f42300013cc5b7","fixation","img/fixation.png","null","","test","","","","","",""
"450.5","376128","pSARL_v2","pSARL_v2rs50mwso","59014ee029f42300013cc5b7","reward","img/slot.png","74","","test","","","","","",""
"null","376894","pSARL_v2","pSARL_v2rs50mwso","59014ee029f42300013cc5b7","points","<div class=""verylowPoints""> -7 </div>","null","na","test","","","","6","-7","5"
"499.39999997615814","377402","pSARL_v2","pSARL_v2rs50mwso","59014ee029f42300013cc5b7","freq","img/orange_2bandit_a2.png","70","70","test","1","128","128","7","",""
"null","377721","pSARL_v2","pSARL_v2rs50mwso","59014ee029f42300013cc5b7","freq_resp","img/orange_2bandit_a.png","70","70","test","","","","7","",""
"null","377888","pSARL_v2","pSARL_v2rs50mwso","59014ee029f42300013cc5b7","fixation","img/fixation.png","null","","test","","","","","",""
"208.69999998807907","378105","pSARL_v2","pSARL_v2rs50mwso","59014ee029f42300013cc5b7","freq","img/orange_2bandit_a2.png","70","70","test","1","129","129","7","",""
"null","378718","pSARL_v2","pSARL_v2rs50mwso","59014ee029f42300013cc5b7","freq_resp","img/orange_2bandit_a.png","70","70","test","","","","7","",""
"null","378878","pSARL_v2","pSARL_v2rs50mwso","59014ee029f42300013cc5b7","fixation","img/fixation.png","null","","test","","","","","",""
"158.19999998807907","379044","pSARL_v2","pSARL_v2rs50mwso","59014ee029f42300013cc5b7","freq","img/orange_2bandit_a2.png","70","70","test","1","130","130","7","",""
"null","379718","pSARL_v2","pSARL_v2rs50mwso","59014ee029f42300013cc5b7","freq_resp","img/orange_2bandit_a.png","70","70","test","","","","7","",""
"null","379887","pSARL_v2","pSARL_v2rs50mwso","59014ee029f42300013cc5b7","fixation","img/fixation.png","null","","test","","","","","",""
"189.60000002384186","380085","pSARL_v2","pSARL_v2rs50mwso","59014ee029f42300013cc5b7","freq","img/orange_2bandit_a2.png","70","70","test","1","131","131","7","",""
"null","380718","pSARL_v2","pSARL_v2rs50mwso","59014ee029f42300013cc5b7","freq_resp","img/orange_2bandit_a.png","70","70","test","","","","7","",""
"null","380879","pSARL_v2","pSARL_v2rs50mwso","59014ee029f42300013cc5b7","fixation","img/fixation.png","null","","test","","","","","",""
"507.89999997615814","381396","pSARL_v2","pSARL_v2rs50mwso","59014ee029f42300013cc5b7","infreq","img/green_2bandit_a2.png","68","68","test","1","132","132","7","",""
"null","381717","pSARL_v2","pSARL_v2rs50mwso","59014ee029f42300013cc5b7","infreq_resp","img/green_2bandit_a.png","68","68","test","","","","7","",""
"null","381885","pSARL_v2","pSARL_v2rs50mwso","59014ee029f42300013cc5b7","fixation","img/fixation.png","null","","test","","","","","",""
"439.80000001192093","382334","pSARL_v2","pSARL_v2rs50mwso","59014ee029f42300013cc5b7","freq","img/orange_2bandit_a2.png","70","70","test","1","133","133","7","",""
"null","382719","pSARL_v2","pSARL_v2rs50mwso","59014ee029f42300013cc5b7","freq_resp","img/orange_2bandit_a.png","70","70","test","","","","7","",""
"null","382881","pSARL_v2","pSARL_v2rs50mwso","59014ee029f42300013cc5b7","fixation","img/fixation.png","null","","test","","","","","",""
"302.60000002384186","383192","pSARL_v2","pSARL_v2rs50mwso","59014ee029f42300013cc5b7","freq","img/orange_2bandit_a2.png","70","70","test","1","134","134","7","",""
"null","383710","pSARL_v2","pSARL_v2rs50mwso","59014ee029f42300013cc5b7","freq_resp","img/orange_2bandit_a.png","70","70","test","","","","7","",""
"null","383870","pSARL_v2","pSARL_v2rs50mwso","59014ee029f42300013cc5b7","fixation","img/fixation.png","null","","test","","","","","",""
"209.20000004768372","384089","pSARL_v2","pSARL_v2rs50mwso","59014ee029f42300013cc5b7","freq","img/orange_2bandit_a2.png","70","70","test","1","135","135","7","",""
"null","384702","pSARL_v2","pSARL_v2rs50mwso","59014ee029f42300013cc5b7","freq_resp","img/orange_2bandit_a.png","70","70","test","","","","7","",""
"null","384863","pSARL_v2","pSARL_v2rs50mwso","59014ee029f42300013cc5b7","fixation","img/fixation.png","null","","test","","","","","",""
"185.60000002384186","385058","pSARL_v2","pSARL_v2rs50mwso","59014ee029f42300013cc5b7","infreq","img/green_2bandit_a2.png","70","68","test","0","136","136","7","",""
"null","385694","pSARL_v2","pSARL_v2rs50mwso","59014ee029f42300013cc5b7","infreq_resp","img/green_2bandit_a.png","70","68","test","","","","7","",""
"null","385861","pSARL_v2","pSARL_v2rs50mwso","59014ee029f42300013cc5b7","fixation","img/fixation.png","null","","test","","","","","",""
"385.60000002384186","386257","pSARL_v2","pSARL_v2rs50mwso","59014ee029f42300013cc5b7","freq","img/orange_2bandit_a2.png","70","70","test","1","137","137","7","",""
"null","386689","pSARL_v2","pSARL_v2rs50mwso","59014ee029f42300013cc5b7","freq_resp","img/orange_2bandit_a.png","70","70","test","","","","7","",""
"null","386862","pSARL_v2","pSARL_v2rs50mwso","59014ee029f42300013cc5b7","fixation","img/fixation.png","null","","test","","","","","",""
"319.4000000357628","387190","pSARL_v2","pSARL_v2rs50mwso","59014ee029f42300013cc5b7","freq","img/orange_2bandit_a2.png","70","70","test","1","138","138","7","",""
"null","387695","pSARL_v2","pSARL_v2rs50mwso","59014ee029f42300013cc5b7","freq_resp","img/orange_2bandit_a.png","70","70","test","","","","7","",""
"null","387870","pSARL_v2","pSARL_v2rs50mwso","59014ee029f42300013cc5b7","fixation","img/fixation.png","null","","test","","","","","",""
"430.30000001192093","388309","pSARL_v2","pSARL_v2rs50mwso","59014ee029f42300013cc5b7","freq","img/orange_2bandit_a2.png","70","70","test","1","139","139","7","",""
"null","388702","pSARL_v2","pSARL_v2rs50mwso","59014ee029f42300013cc5b7","freq_resp","img/orange_2bandit_a.png","70","70","test","","","","7","",""
"null","388864","pSARL_v2","pSARL_v2rs50mwso","59014ee029f42300013cc5b7","fixation","img/fixation.png","null","","test","","","","","",""
"273","389145","pSARL_v2","pSARL_v2rs50mwso","59014ee029f42300013cc5b7","freq","img/orange_2bandit_a2.png","70","70","test","1","140","140","7","",""
"null","389685","pSARL_v2","pSARL_v2rs50mwso","59014ee029f42300013cc5b7","freq_resp","img/orange_2bandit_a.png","70","70","test","","","","7","",""
"null","389860","pSARL_v2","pSARL_v2rs50mwso","59014ee029f42300013cc5b7","fixation","img/fixation.png","null","","test","","","","","",""
"157.39999997615814","390026","pSARL_v2","pSARL_v2rs50mwso","59014ee029f42300013cc5b7","freq","img/orange_2bandit_a2.png","70","70","test","1","141","141","7","",""
"null","390686","pSARL_v2","pSARL_v2rs50mwso","59014ee029f42300013cc5b7","freq_resp","img/orange_2bandit_a.png","70","70","test","","","","7","",""
"null","390846","pSARL_v2","pSARL_v2rs50mwso","59014ee029f42300013cc5b7","fixation","img/fixation.png","null","","test","","","","","",""
"304.80000001192093","391159","pSARL_v2","pSARL_v2rs50mwso","59014ee029f42300013cc5b7","freq","img/orange_2bandit_a2.png","70","70","test","1","142","142","7","",""
"null","391666","pSARL_v2","pSARL_v2rs50mwso","59014ee029f42300013cc5b7","freq_resp","img/orange_2bandit_a.png","70","70","test","","","","7","",""
"null","391839","pSARL_v2","pSARL_v2rs50mwso","59014ee029f42300013cc5b7","fixation","img/fixation.png","null","","test","","","","","",""
"332","392179","pSARL_v2","pSARL_v2rs50mwso","59014ee029f42300013cc5b7","freq","img/orange_2bandit_a2.png","70","70","test","1","143","143","7","",""
"null","392675","pSARL_v2","pSARL_v2rs50mwso","59014ee029f42300013cc5b7","freq_resp","img/orange_2bandit_a.png","70","70","test","","","","7","",""
"null","392836","pSARL_v2","pSARL_v2rs50mwso","59014ee029f42300013cc5b7","fixation","img/fixation.png","null","","test","","","","","",""
"297.9000000357628","393143","pSARL_v2","pSARL_v2rs50mwso","59014ee029f42300013cc5b7","freq","img/orange_2bandit_a2.png","70","70","test","1","144","144","7","",""
"null","393662","pSARL_v2","pSARL_v2rs50mwso","59014ee029f42300013cc5b7","freq_resp","img/orange_2bandit_a.png","70","70","test","","","","7","",""
"null","393828","pSARL_v2","pSARL_v2rs50mwso","59014ee029f42300013cc5b7","fixation","img/fixation.png","null","","test","","","","","",""
"329.30000001192093","394166","pSARL_v2","pSARL_v2rs50mwso","59014ee029f42300013cc5b7","freq","img/orange_2bandit_a2.png","70","70","test","1","145","145","7","",""
"null","394658","pSARL_v2","pSARL_v2rs50mwso","59014ee029f42300013cc5b7","freq_resp","img/orange_2bandit_a.png","70","70","test","","","","7","",""
"null","394829","pSARL_v2","pSARL_v2rs50mwso","59014ee029f42300013cc5b7","fixation","img/fixation.png","null","","test","","","","","",""
"337.19999998807907","395175","pSARL_v2","pSARL_v2rs50mwso","59014ee029f42300013cc5b7","freq","img/orange_2bandit_a2.png","70","70","test","1","146","146","7","",""
"null","395647","pSARL_v2","pSARL_v2rs50mwso","59014ee029f42300013cc5b7","freq_resp","img/orange_2bandit_a.png","70","70","test","","","","7","",""
"null","395823","pSARL_v2","pSARL_v2rs50mwso","59014ee029f42300013cc5b7","fixation","img/fixation.png","null","","test","","","","","",""
"253.60000002384186","396085","pSARL_v2","pSARL_v2rs50mwso","59014ee029f42300013cc5b7","freq","img/orange_2bandit_a2.png","70","70","test","1","147","147","7","",""
"null","396657","pSARL_v2","pSARL_v2rs50mwso","59014ee029f42300013cc5b7","freq_resp","img/orange_2bandit_a.png","70","70","test","","","","7","",""
"null","396835","pSARL_v2","pSARL_v2rs50mwso","59014ee029f42300013cc5b7","fixation","img/fixation.png","null","","test","","","","","",""
"350.80000001192093","397194","pSARL_v2","pSARL_v2rs50mwso","59014ee029f42300013cc5b7","freq","img/orange_2bandit_a2.png","70","70","test","1","148","148","7","",""
"null","397667","pSARL_v2","pSARL_v2rs50mwso","59014ee029f42300013cc5b7","freq_resp","img/orange_2bandit_a.png","70","70","test","","","","7","",""
"null","397841","pSARL_v2","pSARL_v2rs50mwso","59014ee029f42300013cc5b7","fixation","img/fixation.png","null","","test","","","","","",""
"410.30000001192093","398260","pSARL_v2","pSARL_v2rs50mwso","59014ee029f42300013cc5b7","reward","img/slot.png","74","","test","","","","","",""
"null","399024","pSARL_v2","pSARL_v2rs50mwso","59014ee029f42300013cc5b7","points","<div class=""verylowPoints""> -6 </div>","null","na","test","","","","7","-6","6"
"443.39999997615814","399476","pSARL_v2","pSARL_v2rs50mwso","59014ee029f42300013cc5b7","freq","img/orange_2bandit_a2.png","70","70","test","1","149","149","8","",""
"null","399838","pSARL_v2","pSARL_v2rs50mwso","59014ee029f42300013cc5b7","freq_resp","img/orange_2bandit_a.png","70","70","test","","","","8","",""
"null","400008","pSARL_v2","pSARL_v2rs50mwso","59014ee029f42300013cc5b7","fixation","img/fixation.png","null","","test","","","","","",""
"326.19999998807907","400344","pSARL_v2","pSARL_v2rs50mwso","59014ee029f42300013cc5b7","freq","img/orange_2bandit_a2.png","70","70","test","1","150","150","8","",""
"null","400830","pSARL_v2","pSARL_v2rs50mwso","59014ee029f42300013cc5b7","freq_resp","img/orange_2bandit_a.png","70","70","test","","","","8","",""
"null","401000","pSARL_v2","pSARL_v2rs50mwso","59014ee029f42300013cc5b7","fixation","img/fixation.png","null","","test","","","","","",""
"324","401333","pSARL_v2","pSARL_v2rs50mwso","59014ee029f42300013cc5b7","freq","img/orange_2bandit_a2.png","70","70","test","1","151","151","8","",""
"null","401832","pSARL_v2","pSARL_v2rs50mwso","59014ee029f42300013cc5b7","freq_resp","img/orange_2bandit_a.png","70","70","test","","","","8","",""
"null","401995","pSARL_v2","pSARL_v2rs50mwso","59014ee029f42300013cc5b7","fixation","img/fixation.png","null","","test","","","","","",""
"319.80000001192093","402324","pSARL_v2","pSARL_v2rs50mwso","59014ee029f42300013cc5b7","freq","img/orange_2bandit_a2.png","70","70","test","1","152","152","8","",""
"null","402823","pSARL_v2","pSARL_v2rs50mwso","59014ee029f42300013cc5b7","freq_resp","img/orange_2bandit_a.png","70","70","test","","","","8","",""
"null","402983","pSARL_v2","pSARL_v2rs50mwso","59014ee029f42300013cc5b7","fixation","img/fixation.png","null","","test","","","","","",""
"367.19999998807907","403360","pSARL_v2","pSARL_v2rs50mwso","59014ee029f42300013cc5b7","freq","img/orange_2bandit_a2.png","70","70","test","1","153","153","8","",""
"null","403816","pSARL_v2","pSARL_v2rs50mwso","59014ee029f42300013cc5b7","freq_resp","img/orange_2bandit_a.png","70","70","test","","","","8","",""
"null","403975","pSARL_v2","pSARL_v2rs50mwso","59014ee029f42300013cc5b7","fixation","img/fixation.png","null","","test","","","","","",""
"351.80000001192093","404335","pSARL_v2","pSARL_v2rs50mwso","59014ee029f42300013cc5b7","freq","img/orange_2bandit_a2.png","70","70","test","1","154","154","8","",""
"null","404810","pSARL_v2","pSARL_v2rs50mwso","59014ee029f42300013cc5b7","freq_resp","img/orange_2bandit_a.png","70","70","test","","","","8","",""
"null","404969","pSARL_v2","pSARL_v2rs50mwso","59014ee029f42300013cc5b7","fixation","img/fixation.png","null","","test","","","","","",""
"433.39999997615814","405410","pSARL_v2","pSARL_v2rs50mwso","59014ee029f42300013cc5b7","freq","img/orange_2bandit_a2.png","70","70","test","1","155","155","8","",""
"null","405802","pSARL_v2","pSARL_v2rs50mwso","59014ee029f42300013cc5b7","freq_resp","img/orange_2bandit_a.png","70","70","test","","","","8","",""
"null","405961","pSARL_v2","pSARL_v2rs50mwso","59014ee029f42300013cc5b7","fixation","img/fixation.png","null","","test","","","","","",""
"213","406184","pSARL_v2","pSARL_v2rs50mwso","59014ee029f42300013cc5b7","freq","img/orange_2bandit_a2.png","70","70","test","1","156","156","8","",""
"null","406794","pSARL_v2","pSARL_v2rs50mwso","59014ee029f42300013cc5b7","freq_resp","img/orange_2bandit_a.png","70","70","test","","","","8","",""
"null","406969","pSARL_v2","pSARL_v2rs50mwso","59014ee029f42300013cc5b7","fixation","img/fixation.png","null","","test","","","","","",""
"127.69999998807907","407106","pSARL_v2","pSARL_v2rs50mwso","59014ee029f42300013cc5b7","freq","img/orange_2bandit_a2.png","70","70","test","1","157","157","8","",""
"null","407806","pSARL_v2","pSARL_v2rs50mwso","59014ee029f42300013cc5b7","freq_resp","img/orange_2bandit_a.png","70","70","test","","","","8","",""
"null","407975","pSARL_v2","pSARL_v2rs50mwso","59014ee029f42300013cc5b7","fixation","img/fixation.png","null","","test","","","","","",""
"168.9000000357628","408153","pSARL_v2","pSARL_v2rs50mwso","59014ee029f42300013cc5b7","infreq","img/green_2bandit_a2.png","70","68","test","0","158","158","8","",""
"null","408794","pSARL_v2","pSARL_v2rs50mwso","59014ee029f42300013cc5b7","infreq_resp","img/green_2bandit_a.png","70","68","test","","","","8","",""
"null","408967","pSARL_v2","pSARL_v2rs50mwso","59014ee029f42300013cc5b7","fixation","img/fixation.png","null","","test","","","","","",""
"411.30000001192093","409386","pSARL_v2","pSARL_v2rs50mwso","59014ee029f42300013cc5b7","freq","img/orange_2bandit_a2.png","70","70","test","1","159","159","8","",""
"null","409786","pSARL_v2","pSARL_v2rs50mwso","59014ee029f42300013cc5b7","freq_resp","img/orange_2bandit_a.png","70","70","test","","","","8","",""
"null","409965","pSARL_v2","pSARL_v2rs50mwso","59014ee029f42300013cc5b7","fixation","img/fixation.png","null","","test","","","","","",""
"290.60000002384186","410265","pSARL_v2","pSARL_v2rs50mwso","59014ee029f42300013cc5b7","freq","img/orange_2bandit_a2.png","70","70","test","1","160","160","8","",""
"null","410791","pSARL_v2","pSARL_v2rs50mwso","59014ee029f42300013cc5b7","freq_resp","img/orange_2bandit_a.png","70","70","test","","","","8","",""
"null","410953","pSARL_v2","pSARL_v2rs50mwso","59014ee029f42300013cc5b7","fixation","img/fixation.png","null","","test","","","","","",""
"275.80000001192093","411237","pSARL_v2","pSARL_v2rs50mwso","59014ee029f42300013cc5b7","freq","img/orange_2bandit_a2.png","70","70","test","1","161","161","8","",""
"null","411783","pSARL_v2","pSARL_v2rs50mwso","59014ee029f42300013cc5b7","freq_resp","img/orange_2bandit_a.png","70","70","test","","","","8","",""
"null","411943","pSARL_v2","pSARL_v2rs50mwso","59014ee029f42300013cc5b7","fixation","img/fixation.png","null","","test","","","","","",""
"192.5","412144","pSARL_v2","pSARL_v2rs50mwso","59014ee029f42300013cc5b7","freq","img/orange_2bandit_a2.png","70","70","test","1","162","162","8","",""
"null","412767","pSARL_v2","pSARL_v2rs50mwso","59014ee029f42300013cc5b7","freq_resp","img/orange_2bandit_a.png","70","70","test","","","","8","",""
"null","412927","pSARL_v2","pSARL_v2rs50mwso","59014ee029f42300013cc5b7","fixation","img/fixation.png","null","","test","","","","","",""
"157.10000002384186","413093","pSARL_v2","pSARL_v2rs50mwso","59014ee029f42300013cc5b7","freq","img/orange_2bandit_a2.png","70","70","test","1","163","163","8","",""
"null","413751","pSARL_v2","pSARL_v2rs50mwso","59014ee029f42300013cc5b7","freq_resp","img/orange_2bandit_a.png","70","70","test","","","","8","",""
"null","413923","pSARL_v2","pSARL_v2rs50mwso","59014ee029f42300013cc5b7","fixation","img/fixation.png","null","","test","","","","","",""
"171.19999998807907","414103","pSARL_v2","pSARL_v2rs50mwso","59014ee029f42300013cc5b7","freq","img/orange_2bandit_a2.png","70","70","test","1","164","164","8","",""
"null","414743","pSARL_v2","pSARL_v2rs50mwso","59014ee029f42300013cc5b7","freq_resp","img/orange_2bandit_a.png","70","70","test","","","","8","",""
"null","414904","pSARL_v2","pSARL_v2rs50mwso","59014ee029f42300013cc5b7","fixation","img/fixation.png","null","","test","","","","","",""
"324.39999997615814","415237","pSARL_v2","pSARL_v2rs50mwso","59014ee029f42300013cc5b7","freq","img/orange_2bandit_a2.png","70","70","test","1","165","165","8","",""
"null","415722","pSARL_v2","pSARL_v2rs50mwso","59014ee029f42300013cc5b7","freq_resp","img/orange_2bandit_a.png","70","70","test","","","","8","",""
"null","415896","pSARL_v2","pSARL_v2rs50mwso","59014ee029f42300013cc5b7","fixation","img/fixation.png","null","","test","","","","","",""
"314.30000001192093","416219","pSARL_v2","pSARL_v2rs50mwso","59014ee029f42300013cc5b7","freq","img/orange_2bandit_a2.png","70","70","test","1","166","166","8","",""
"null","416729","pSARL_v2","pSARL_v2rs50mwso","59014ee029f42300013cc5b7","freq_resp","img/orange_2bandit_a.png","70","70","test","","","","8","",""
"null","416894","pSARL_v2","pSARL_v2rs50mwso","59014ee029f42300013cc5b7","fixation","img/fixation.png","null","","test","","","","","",""
"185","417086","pSARL_v2","pSARL_v2rs50mwso","59014ee029f42300013cc5b7","freq","img/orange_2bandit_a2.png","70","70","test","1","167","167","8","",""
"null","417719","pSARL_v2","pSARL_v2rs50mwso","59014ee029f42300013cc5b7","freq_resp","img/orange_2bandit_a.png","70","70","test","","","","8","",""
"null","417880","pSARL_v2","pSARL_v2rs50mwso","59014ee029f42300013cc5b7","fixation","img/fixation.png","null","","test","","","","","",""
"240.9000000357628","418130","pSARL_v2","pSARL_v2rs50mwso","59014ee029f42300013cc5b7","freq","img/orange_2bandit_a2.png","70","70","test","1","168","168","8","",""
"null","418714","pSARL_v2","pSARL_v2rs50mwso","59014ee029f42300013cc5b7","freq_resp","img/orange_2bandit_a.png","70","70","test","","","","8","",""
"null","418888","pSARL_v2","pSARL_v2rs50mwso","59014ee029f42300013cc5b7","fixation","img/fixation.png","null","","test","","","","","",""
"354.69999998807907","419251","pSARL_v2","pSARL_v2rs50mwso","59014ee029f42300013cc5b7","freq","img/orange_2bandit_a2.png","70","70","test","1","169","169","8","",""
"null","419719","pSARL_v2","pSARL_v2rs50mwso","59014ee029f42300013cc5b7","freq_resp","img/orange_2bandit_a.png","70","70","test","","","","8","",""
"null","419883","pSARL_v2","pSARL_v2rs50mwso","59014ee029f42300013cc5b7","fixation","img/fixation.png","null","","test","","","","","",""
"410.9000000357628","420302","pSARL_v2","pSARL_v2rs50mwso","59014ee029f42300013cc5b7","infreq","img/green_2bandit_a2.png","68","68","test","1","170","170","8","",""
"null","420712","pSARL_v2","pSARL_v2rs50mwso","59014ee029f42300013cc5b7","infreq_resp","img/green_2bandit_a.png","68","68","test","","","","8","",""
"null","420871","pSARL_v2","pSARL_v2rs50mwso","59014ee029f42300013cc5b7","fixation","img/fixation.png","null","","test","","","","","",""
"351.30000001192093","421233","pSARL_v2","pSARL_v2rs50mwso","59014ee029f42300013cc5b7","freq","img/orange_2bandit_a2.png","70","70","test","1","171","171","8","",""
"null","421698","pSARL_v2","pSARL_v2rs50mwso","59014ee029f42300013cc5b7","freq_resp","img/orange_2bandit_a.png","70","70","test","","","","8","",""
"null","421863","pSARL_v2","pSARL_v2rs50mwso","59014ee029f42300013cc5b7","fixation","img/fixation.png","null","","test","","","","","",""
"212.39999997615814","422082","pSARL_v2","pSARL_v2rs50mwso","59014ee029f42300013cc5b7","freq","img/orange_2bandit_a2.png","70","70","test","1","172","172","8","",""
"null","422679","pSARL_v2","pSARL_v2rs50mwso","59014ee029f42300013cc5b7","freq_resp","img/orange_2bandit_a.png","70","70","test","","","","8","",""
"null","422839","pSARL_v2","pSARL_v2rs50mwso","59014ee029f42300013cc5b7","fixation","img/fixation.png","null","","test","","","","","",""
"294.69999998807907","423142","pSARL_v2","pSARL_v2rs50mwso","59014ee029f42300013cc5b7","freq","img/orange_2bandit_a2.png","70","70","test","1","173","173","8","",""
"null","423662","pSARL_v2","pSARL_v2rs50mwso","59014ee029f42300013cc5b7","freq_resp","img/orange_2bandit_a.png","70","70","test","","","","8","",""
"null","423837","pSARL_v2","pSARL_v2rs50mwso","59014ee029f42300013cc5b7","fixation","img/fixation.png","null","","test","","","","","",""
"484.30000001192093","424331","pSARL_v2","pSARL_v2rs50mwso","59014ee029f42300013cc5b7","reward","img/slot.png","74","","test","","","","","",""
"null","425101","pSARL_v2","pSARL_v2rs50mwso","59014ee029f42300013cc5b7","points","<div class=""verylowPoints""> -4 </div>","null","na","test","","","","8","-4","7"
"408","425519","pSARL_v2","pSARL_v2rs50mwso","59014ee029f42300013cc5b7","freq","img/orange_2bandit_a2.png","70","70","test","1","174","174","9","",""
"null","425931","pSARL_v2","pSARL_v2rs50mwso","59014ee029f42300013cc5b7","freq_resp","img/orange_2bandit_a.png","70","70","test","","","","9","",""
"null","426110","pSARL_v2","pSARL_v2rs50mwso","59014ee029f42300013cc5b7","fixation","img/fixation.png","null","","test","","","","","",""
"211","426330","pSARL_v2","pSARL_v2rs50mwso","59014ee029f42300013cc5b7","freq","img/orange_2bandit_a2.png","70","70","test","1","175","175","9","",""
"null","426942","pSARL_v2","pSARL_v2rs50mwso","59014ee029f42300013cc5b7","freq_resp","img/orange_2bandit_a.png","70","70","test","","","","9","",""
"null","427115","pSARL_v2","pSARL_v2rs50mwso","59014ee029f42300013cc5b7","fixation","img/fixation.png","null","","test","","","","","",""
"136.20000004768372","427259","pSARL_v2","pSARL_v2rs50mwso","59014ee029f42300013cc5b7","infreq","img/green_2bandit_a2.png","70","68","test","0","176","176","9","",""
"null","427951","pSARL_v2","pSARL_v2rs50mwso","59014ee029f42300013cc5b7","infreq_resp","img/green_2bandit_a.png","70","68","test","","","","9","",""
"null","428111","pSARL_v2","pSARL_v2rs50mwso","59014ee029f42300013cc5b7","fixation","img/fixation.png","null","","test","","","","","",""
"352.30000001192093","428473","pSARL_v2","pSARL_v2rs50mwso","59014ee029f42300013cc5b7","freq","img/orange_2bandit_a2.png","70","70","test","1","177","177","9","",""
"null","428941","pSARL_v2","pSARL_v2rs50mwso","59014ee029f42300013cc5b7","freq_resp","img/orange_2bandit_a.png","70","70","test","","","","9","",""
"null","429102","pSARL_v2","pSARL_v2rs50mwso","59014ee029f42300013cc5b7","fixation","img/fixation.png","null","","test","","","","","",""
"329.7999999523163","429441","pSARL_v2","pSARL_v2rs50mwso","59014ee029f42300013cc5b7","freq","img/orange_2bandit_a2.png","70","70","test","1","178","178","9","",""
"null","429931","pSARL_v2","pSARL_v2rs50mwso","59014ee029f42300013cc5b7","freq_resp","img/orange_2bandit_a.png","70","70","test","","","","9","",""
"null","430109","pSARL_v2","pSARL_v2rs50mwso","59014ee029f42300013cc5b7","fixation","img/fixation.png","null","","test","","","","","",""
"314.89999997615814","430431","pSARL_v2","pSARL_v2rs50mwso","59014ee029f42300013cc5b7","freq","img/orange_2bandit_a2.png","70","70","test","1","179","179","9","",""
"null","430943","pSARL_v2","pSARL_v2rs50mwso","59014ee029f42300013cc5b7","freq_resp","img/orange_2bandit_a.png","70","70","test","","","","9","",""
"null","431115","pSARL_v2","pSARL_v2rs50mwso","59014ee029f42300013cc5b7","fixation","img/fixation.png","null","","test","","","","","",""
"236.30000001192093","431361","pSARL_v2","pSARL_v2rs50mwso","59014ee029f42300013cc5b7","infreq","img/green_2bandit_a2.png","70","68","test","0","180","180","9","",""
"null","431945","pSARL_v2","pSARL_v2rs50mwso","59014ee029f42300013cc5b7","infreq_resp","img/green_2bandit_a.png","70","68","test","","","","9","",""
"null","432112","pSARL_v2","pSARL_v2rs50mwso","59014ee029f42300013cc5b7","fixation","img/fixation.png","null","","test","","","","","",""
"326.80000001192093","432449","pSARL_v2","pSARL_v2rs50mwso","59014ee029f42300013cc5b7","freq","img/orange_2bandit_a2.png","70","70","test","1","181","181","9","",""
"null","432941","pSARL_v2","pSARL_v2rs50mwso","59014ee029f42300013cc5b7","freq_resp","img/orange_2bandit_a.png","70","70","test","","","","9","",""
"null","433103","pSARL_v2","pSARL_v2rs50mwso","59014ee029f42300013cc5b7","fixation","img/fixation.png","null","","test","","","","","",""
"262.89999997615814","433374","pSARL_v2","pSARL_v2rs50mwso","59014ee029f42300013cc5b7","freq","img/orange_2bandit_a2.png","70","70","test","1","182","182","9","",""
"null","433928","pSARL_v2","pSARL_v2rs50mwso","59014ee029f42300013cc5b7","freq_resp","img/orange_2bandit_a.png","70","70","test","","","","9","",""
"null","434089","pSARL_v2","pSARL_v2rs50mwso","59014ee029f42300013cc5b7","fixation","img/fixation.png","null","","test","","","","","",""
"441","434539","pSARL_v2","pSARL_v2rs50mwso","59014ee029f42300013cc5b7","infreq","img/green_2bandit_a2.png","68","68","test","1","183","183","9","",""
"null","434908","pSARL_v2","pSARL_v2rs50mwso","59014ee029f42300013cc5b7","infreq_resp","img/green_2bandit_a.png","68","68","test","","","","9","",""
"null","435082","pSARL_v2","pSARL_v2rs50mwso","59014ee029f42300013cc5b7","fixation","img/fixation.png","null","","test","","","","","",""
"410.9000000357628","435501","pSARL_v2","pSARL_v2rs50mwso","59014ee029f42300013cc5b7","freq","img/orange_2bandit_a2.png","70","70","test","1","184","184","9","",""
"null","435902","pSARL_v2","pSARL_v2rs50mwso","59014ee029f42300013cc5b7","freq_resp","img/orange_2bandit_a.png","70","70","test","","","","9","",""
"null","436071","pSARL_v2","pSARL_v2rs50mwso","59014ee029f42300013cc5b7","fixation","img/fixation.png","null","","test","","","","","",""
"364","436444","pSARL_v2","pSARL_v2rs50mwso","59014ee029f42300013cc5b7","freq","img/orange_2bandit_a2.png","70","70","test","1","185","185","9","",""
"null","436903","pSARL_v2","pSARL_v2rs50mwso","59014ee029f42300013cc5b7","freq_resp","img/orange_2bandit_a.png","70","70","test","","","","9","",""
"null","437064","pSARL_v2","pSARL_v2rs50mwso","59014ee029f42300013cc5b7","fixation","img/fixation.png","null","","test","","","","","",""
"341.69999998807907","437415","pSARL_v2","pSARL_v2rs50mwso","59014ee029f42300013cc5b7","freq","img/orange_2bandit_a2.png","70","70","test","1","186","186","9","",""
"null","437883","pSARL_v2","pSARL_v2rs50mwso","59014ee029f42300013cc5b7","freq_resp","img/orange_2bandit_a.png","70","70","test","","","","9","",""
"null","438056","pSARL_v2","pSARL_v2rs50mwso","59014ee029f42300013cc5b7","fixation","img/fixation.png","null","","test","","","","","",""
"194.20000004768372","438259","pSARL_v2","pSARL_v2rs50mwso","59014ee029f42300013cc5b7","freq","img/orange_2bandit_a2.png","70","70","test","1","187","187","9","",""
"null","438887","pSARL_v2","pSARL_v2rs50mwso","59014ee029f42300013cc5b7","freq_resp","img/orange_2bandit_a.png","70","70","test","","","","9","",""
"null","439048","pSARL_v2","pSARL_v2rs50mwso","59014ee029f42300013cc5b7","fixation","img/fixation.png","null","","test","","","","","",""
"318.5","439375","pSARL_v2","pSARL_v2rs50mwso","59014ee029f42300013cc5b7","freq","img/orange_2bandit_a2.png","70","70","test","1","188","188","9","",""
"null","439880","pSARL_v2","pSARL_v2rs50mwso","59014ee029f42300013cc5b7","freq_resp","img/orange_2bandit_a.png","70","70","test","","","","9","",""
"null","440039","pSARL_v2","pSARL_v2rs50mwso","59014ee029f42300013cc5b7","fixation","img/fixation.png","null","","test","","","","","",""
"348.69999998807907","440397","pSARL_v2","pSARL_v2rs50mwso","59014ee029f42300013cc5b7","freq","img/orange_2bandit_a2.png","70","70","test","1","189","189","9","",""
"null","440872","pSARL_v2","pSARL_v2rs50mwso","59014ee029f42300013cc5b7","freq_resp","img/orange_2bandit_a.png","70","70","test","","","","9","",""
"null","441048","pSARL_v2","pSARL_v2rs50mwso","59014ee029f42300013cc5b7","fixation","img/fixation.png","null","","test","","","","","",""
"159","441216","pSARL_v2","pSARL_v2rs50mwso","59014ee029f42300013cc5b7","freq","img/orange_2bandit_a2.png","70","70","test","1","190","190","9","",""
"null","441880","pSARL_v2","pSARL_v2rs50mwso","59014ee029f42300013cc5b7","freq_resp","img/orange_2bandit_a.png","70","70","test","","","","9","",""
"null","442040","pSARL_v2","pSARL_v2rs50mwso","59014ee029f42300013cc5b7","fixation","img/fixation.png","null","","test","","","","","",""
"292.5","442341","pSARL_v2","pSARL_v2rs50mwso","59014ee029f42300013cc5b7","freq","img/orange_2bandit_a2.png","70","70","test","1","191","191","9","",""
"null","442872","pSARL_v2","pSARL_v2rs50mwso","59014ee029f42300013cc5b7","freq_resp","img/orange_2bandit_a.png","70","70","test","","","","9","",""
"null","443035","pSARL_v2","pSARL_v2rs50mwso","59014ee029f42300013cc5b7","fixation","img/fixation.png","null","","test","","","","","",""
"303","443347","pSARL_v2","pSARL_v2rs50mwso","59014ee029f42300013cc5b7","freq","img/orange_2bandit_a2.png","70","70","test","1","192","192","9","",""
"null","443864","pSARL_v2","pSARL_v2rs50mwso","59014ee029f42300013cc5b7","freq_resp","img/orange_2bandit_a.png","70","70","test","","","","9","",""
"null","444024","pSARL_v2","pSARL_v2rs50mwso","59014ee029f42300013cc5b7","fixation","img/fixation.png","null","","test","","","","","",""
"221.89999997615814","444254","pSARL_v2","pSARL_v2rs50mwso","59014ee029f42300013cc5b7","freq","img/orange_2bandit_a2.png","70","70","test","1","193","193","9","",""
"null","444847","pSARL_v2","pSARL_v2rs50mwso","59014ee029f42300013cc5b7","freq_resp","img/orange_2bandit_a.png","70","70","test","","","","9","",""
"null","445015","pSARL_v2","pSARL_v2rs50mwso","59014ee029f42300013cc5b7","fixation","img/fixation.png","null","","test","","","","","",""
"144","445166","pSARL_v2","pSARL_v2rs50mwso","59014ee029f42300013cc5b7","freq","img/orange_2bandit_a2.png","70","70","test","1","194","194","9","",""
"null","445831","pSARL_v2","pSARL_v2rs50mwso","59014ee029f42300013cc5b7","freq_resp","img/orange_2bandit_a.png","70","70","test","","","","9","",""
"null","445991","pSARL_v2","pSARL_v2rs50mwso","59014ee029f42300013cc5b7","fixation","img/fixation.png","null","","test","","","","","",""
"219.4000000357628","446219","pSARL_v2","pSARL_v2rs50mwso","59014ee029f42300013cc5b7","freq","img/orange_2bandit_a2.png","70","70","test","1","195","195","9","",""
"null","446808","pSARL_v2","pSARL_v2rs50mwso","59014ee029f42300013cc5b7","freq_resp","img/orange_2bandit_a.png","70","70","test","","","","9","",""
"null","446985","pSARL_v2","pSARL_v2rs50mwso","59014ee029f42300013cc5b7","fixation","img/fixation.png","null","","test","","","","","",""
"184.39999997615814","447180","pSARL_v2","pSARL_v2rs50mwso","59014ee029f42300013cc5b7","freq","img/orange_2bandit_a2.png","70","70","test","1","196","196","9","",""
"null","447816","pSARL_v2","pSARL_v2rs50mwso","59014ee029f42300013cc5b7","freq_resp","img/orange_2bandit_a.png","70","70","test","","","","9","",""
"null","447976","pSARL_v2","pSARL_v2rs50mwso","59014ee029f42300013cc5b7","fixation","img/fixation.png","null","","test","","","","","",""
"840.3000000119209","448824","pSARL_v2","pSARL_v2rs50mwso","59014ee029f42300013cc5b7","reward","img/slot.png","74","","test","","","","","",""
"null","449591","pSARL_v2","pSARL_v2rs50mwso","59014ee029f42300013cc5b7","points","<div class=""verylowPoints""> -3 </div>","null","na","test","","","","9","-3","8"
"497.10000002384186","450100","pSARL_v2","pSARL_v2rs50mwso","59014ee029f42300013cc5b7","freq","img/orange_2bandit_a2.png","70","70","test","1","197","197","10","",""
"null","450424","pSARL_v2","pSARL_v2rs50mwso","59014ee029f42300013cc5b7","freq_resp","img/orange_2bandit_a.png","70","70","test","","","","10","",""
"null","450585","pSARL_v2","pSARL_v2rs50mwso","59014ee029f42300013cc5b7","fixation","img/fixation.png","null","","test","","","","","",""
"327.4000000357628","450921","pSARL_v2","pSARL_v2rs50mwso","59014ee029f42300013cc5b7","freq","img/orange_2bandit_a2.png","70","70","test","1","198","198","10","",""
"null","451415","pSARL_v2","pSARL_v2rs50mwso","59014ee029f42300013cc5b7","freq_resp","img/orange_2bandit_a.png","70","70","test","","","","10","",""
"null","451575","pSARL_v2","pSARL_v2rs50mwso","59014ee029f42300013cc5b7","fixation","img/fixation.png","null","","test","","","","","",""
"309.2999999523163","451892","pSARL_v2","pSARL_v2rs50mwso","59014ee029f42300013cc5b7","freq","img/orange_2bandit_a2.png","70","70","test","1","199","199","10","",""
"null","452392","pSARL_v2","pSARL_v2rs50mwso","59014ee029f42300013cc5b7","freq_resp","img/orange_2bandit_a.png","70","70","test","","","","10","",""
"null","452559","pSARL_v2","pSARL_v2rs50mwso","59014ee029f42300013cc5b7","fixation","img/fixation.png","null","","test","","","","","",""
"297.80000001192093","452866","pSARL_v2","pSARL_v2rs50mwso","59014ee029f42300013cc5b7","freq","img/orange_2bandit_a2.png","70","70","test","1","200","200","10","",""
"null","453383","pSARL_v2","pSARL_v2rs50mwso","59014ee029f42300013cc5b7","freq_resp","img/orange_2bandit_a.png","70","70","test","","","","10","",""
"null","453545","pSARL_v2","pSARL_v2rs50mwso","59014ee029f42300013cc5b7","fixation","img/fixation.png","null","","test","","","","","",""
"161","453713","pSARL_v2","pSARL_v2rs50mwso","59014ee029f42300013cc5b7","freq","img/orange_2bandit_a2.png","70","70","test","1","201","201","10","",""
"null","454375","pSARL_v2","pSARL_v2rs50mwso","59014ee029f42300013cc5b7","freq_resp","img/orange_2bandit_a.png","70","70","test","","","","10","",""
"null","454543","pSARL_v2","pSARL_v2rs50mwso","59014ee029f42300013cc5b7","fixation","img/fixation.png","null","","test","","","","","",""
"213.89999997615814","454764","pSARL_v2","pSARL_v2rs50mwso","59014ee029f42300013cc5b7","freq","img/orange_2bandit_a2.png","70","70","test","1","202","202","10","",""
"null","455367","pSARL_v2","pSARL_v2rs50mwso","59014ee029f42300013cc5b7","freq_resp","img/orange_2bandit_a.png","70","70","test","","","","10","",""
"null","455530","pSARL_v2","pSARL_v2rs50mwso","59014ee029f42300013cc5b7","fixation","img/fixation.png","null","","test","","","","","",""
"163.10000002384186","455701","pSARL_v2","pSARL_v2rs50mwso","59014ee029f42300013cc5b7","freq","img/orange_2bandit_a2.png","70","70","test","1","203","203","10","",""
"null","456359","pSARL_v2","pSARL_v2rs50mwso","59014ee029f42300013cc5b7","freq_resp","img/orange_2bandit_a.png","70","70","test","","","","10","",""
"null","456521","pSARL_v2","pSARL_v2rs50mwso","59014ee029f42300013cc5b7","fixation","img/fixation.png","null","","test","","","","","",""
"171.0999999642372","456701","pSARL_v2","pSARL_v2rs50mwso","59014ee029f42300013cc5b7","freq","img/orange_2bandit_a2.png","70","70","test","1","204","204","10","",""
"null","457351","pSARL_v2","pSARL_v2rs50mwso","59014ee029f42300013cc5b7","freq_resp","img/orange_2bandit_a.png","70","70","test","","","","10","",""
"null","457512","pSARL_v2","pSARL_v2rs50mwso","59014ee029f42300013cc5b7","fixation","img/fixation.png","null","","test","","","","","",""
