"rt","time_elapsed","expId","subject","prolificID","trialType","stimulus","key_press","corrresp","phase","corr","trialNum","attentionRunNum","blockNum","points","rlNum"
"8572.40000000596","8577","pSARL_v2","pSARL_v207m4cy8z","5e38e79295ff561112eae457","","","","","","","","","","",""
"","11194","pSARL_v2","pSARL_v207m4cy8z","5e38e79295ff561112eae457","fullscreen","","","","","","","","","",""
"360499.1000000015","371697","pSARL_v2","pSARL_v207m4cy8z","5e38e79295ff561112eae457","","","","","","","","","","",""
"731.1000000014901","372431","pSARL_v2","pSARL_v207m4cy8z","5e38e79295ff561112eae457","freqPrac","img/orange_2bandit_b2.png","70","70","prac","1","","","","",""
"731.1000000014901","372515","pSARL_v2","pSARL_v207m4cy8z","5e38e79295ff561112eae457","freqPrac_resp","img/orange_2bandit_b.png","70","70","prac","","","","","",""
"null","372670","pSARL_v2","pSARL_v207m4cy8z","5e38e79295ff561112eae457","fixation","img/fixation.png","null","","prac","","","","","",""
"422.29999999701977","373095","pSARL_v2","pSARL_v207m4cy8z","5e38e79295ff561112eae457","infreqPrac","img/green_2bandit_b2.png","68","68","prac","1","","","","",""
"422.29999999701977","373478","pSARL_v2","pSARL_v207m4cy8z","5e38e79295ff561112eae457","infreqPrac_resp","img/green_2bandit_b.png","68","68","prac","","","","","",""
"null","373632","pSARL_v2","pSARL_v207m4cy8z","5e38e79295ff561112eae457","fixation","img/fixation.png","null","","prac","","","","","",""
"355.69999999552965","373991","pSARL_v2","pSARL_v207m4cy8z","5e38e79295ff561112eae457","freqPrac","img/orange_2bandit_b2.png","70","70","prac","1","","","","",""
"355.69999999552965","374439","pSARL_v2","pSARL_v207m4cy8z","5e38e79295ff561112eae457","freqPrac_resp","img/orange_2bandit_b.png","70","70","prac","","","","","",""
"null","374596","pSARL_v2","pSARL_v207m4cy8z","5e38e79295ff561112eae457","fixation","img/fixation.png","null","","prac","","","","","",""
"520.4000000059605","375118","pSARL_v2","pSARL_v207m4cy8z","5e38e79295ff561112eae457","infreqPrac","img/green_2bandit_b2.png","68","68","prac","1","","","","",""
"520.4000000059605","375406","pSARL_v2","pSARL_v207m4cy8z","5e38e79295ff561112eae457","infreqPrac_resp","img/green_2bandit_b.png","68","68","prac","","","","","",""
"null","375562","pSARL_v2","pSARL_v207m4cy8z","5e38e79295ff561112eae457","fixation","img/fixation.png","null","","prac","","","","","",""
"411.1000000014901","375975","pSARL_v2","pSARL_v207m4cy8z","5e38e79295ff561112eae457","infreqPrac","img/green_2bandit_b2.png","68","68","prac","1","","","","",""
"411.1000000014901","376378","pSARL_v2","pSARL_v207m4cy8z","5e38e79295ff561112eae457","infreqPrac_resp","img/green_2bandit_b.png","68","68","prac","","","","","",""
"null","376534","pSARL_v2","pSARL_v207m4cy8z","5e38e79295ff561112eae457","fixation","img/fixation.png","null","","prac","","","","","",""
"318.69999999552965","376855","pSARL_v2","pSARL_v207m4cy8z","5e38e79295ff561112eae457","infreqPrac","img/green_2bandit_b2.png","68","68","prac","1","","","","",""
"318.69999999552965","377353","pSARL_v2","pSARL_v207m4cy8z","5e38e79295ff561112eae457","infreqPrac_resp","img/green_2bandit_b.png","68","68","prac","","","","","",""
"null","377508","pSARL_v2","pSARL_v207m4cy8z","5e38e79295ff561112eae457","fixation","img/fixation.png","null","","prac","","","","","",""
"271.80000000447035","377783","pSARL_v2","pSARL_v207m4cy8z","5e38e79295ff561112eae457","freqPrac","img/orange_2bandit_b2.png","70","70","prac","1","","","","",""
"271.80000000447035","378323","pSARL_v2","pSARL_v207m4cy8z","5e38e79295ff561112eae457","freqPrac_resp","img/orange_2bandit_b.png","70","70","prac","","","","","",""
"null","378482","pSARL_v2","pSARL_v207m4cy8z","5e38e79295ff561112eae457","fixation","img/fixation.png","null","","prac","","","","","",""
"345.70000000298023","378830","pSARL_v2","pSARL_v207m4cy8z","5e38e79295ff561112eae457","infreqPrac","img/green_2bandit_b2.png","68","68","prac","1","","","","",""
"345.70000000298023","379302","pSARL_v2","pSARL_v207m4cy8z","5e38e79295ff561112eae457","infreqPrac_resp","img/green_2bandit_b.png","68","68","prac","","","","","",""
"null","379458","pSARL_v2","pSARL_v207m4cy8z","5e38e79295ff561112eae457","fixation","img/fixation.png","null","","prac","","","","","",""
"338.1000000014901","379798","pSARL_v2","pSARL_v207m4cy8z","5e38e79295ff561112eae457","freqPrac","img/orange_2bandit_b2.png","70","70","prac","1","","","","",""
"338.1000000014901","380273","pSARL_v2","pSARL_v207m4cy8z","5e38e79295ff561112eae457","freqPrac_resp","img/orange_2bandit_b.png","70","70","prac","","","","","",""
"null","380429","pSARL_v2","pSARL_v207m4cy8z","5e38e79295ff561112eae457","fixation","img/fixation.png","null","","prac","","","","","",""
"376","380807","pSARL_v2","pSARL_v207m4cy8z","5e38e79295ff561112eae457","freqPrac","img/orange_2bandit_b2.png","70","70","prac","1","","","","",""
"376","381245","pSARL_v2","pSARL_v207m4cy8z","5e38e79295ff561112eae457","freqPrac_resp","img/orange_2bandit_b.png","70","70","prac","","","","","",""
"null","381402","pSARL_v2","pSARL_v207m4cy8z","5e38e79295ff561112eae457","fixation","img/fixation.png","null","","prac","","","","","",""
"37968.30000000447","419373","pSARL_v2","pSARL_v207m4cy8z","5e38e79295ff561112eae457","","","","","prac","","","","","",""
"564.9000000059605","419940","pSARL_v2","pSARL_v207m4cy8z","5e38e79295ff561112eae457","rewardPractice","img/slot.png","74","","prac","","","","","",""
"null","420705","pSARL_v2","pSARL_v207m4cy8z","5e38e79295ff561112eae457","feedback","<div class=""veryhighPoints""> +15 </div>","null","na","prac","","","","","",""
"null","420866","pSARL_v2","pSARL_v207m4cy8z","5e38e79295ff561112eae457","fixation","img/fixation.png","null","","prac","","","","","",""
"19559.89999999851","440428","pSARL_v2","pSARL_v207m4cy8z","5e38e79295ff561112eae457","","","","","prac","","","","","",""
"573.3000000044703","441004","pSARL_v2","pSARL_v207m4cy8z","5e38e79295ff561112eae457","freq","img/orange_2bandit_b2.png","70","70","test","1","1","1","1","",""
"null","441248","pSARL_v2","pSARL_v207m4cy8z","5e38e79295ff561112eae457","freq_resp","img/orange_2bandit_b.png","70","70","test","","","","1","",""
"null","441404","pSARL_v2","pSARL_v207m4cy8z","5e38e79295ff561112eae457","fixation","img/fixation.png","null","","test","","","","","",""
"341.30000000447035","441748","pSARL_v2","pSARL_v207m4cy8z","5e38e79295ff561112eae457","infreq","img/green_2bandit_b2.png","68","68","test","1","2","2","1","",""
"null","442211","pSARL_v2","pSARL_v207m4cy8z","5e38e79295ff561112eae457","infreq_resp","img/green_2bandit_b.png","68","68","test","","","","1","",""
"null","442366","pSARL_v2","pSARL_v207m4cy8z","5e38e79295ff561112eae457","fixation","img/fixation.png","null","","test","","","","","",""
"363.5","442732","pSARL_v2","pSARL_v207m4cy8z","5e38e79295ff561112eae457","freq","img/orange_2bandit_b2.png","70","70","test","1","3","3","1","",""
"null","443178","pSARL_v2","pSARL_v207m4cy8z","5e38e79295ff561112eae457","freq_resp","img/orange_2bandit_b.png","70","70","test","","","","1","",""
"null","443338","pSARL_v2","pSARL_v207m4cy8z","5e38e79295ff561112eae457","fixation","img/fixation.png","null","","test","","","","","",""
"311.20000000298023","443652","pSARL_v2","pSARL_v207m4cy8z","5e38e79295ff561112eae457","freq","img/orange_2bandit_b2.png","70","70","test","1","4","4","1","",""
"null","444144","pSARL_v2","pSARL_v207m4cy8z","5e38e79295ff561112eae457","freq_resp","img/orange_2bandit_b.png","70","70","test","","","","1","",""
"null","444302","pSARL_v2","pSARL_v207m4cy8z","5e38e79295ff561112eae457","fixation","img/fixation.png","null","","test","","","","","",""
"315","444620","pSARL_v2","pSARL_v207m4cy8z","5e38e79295ff561112eae457","freq","img/orange_2bandit_b2.png","70","70","test","1","5","5","1","",""
"null","445120","pSARL_v2","pSARL_v207m4cy8z","5e38e79295ff561112eae457","freq_resp","img/orange_2bandit_b.png","70","70","test","","","","1","",""
"null","445287","pSARL_v2","pSARL_v207m4cy8z","5e38e79295ff561112eae457","fixation","img/fixation.png","null","","test","","","","","",""
"306.5","445596","pSARL_v2","pSARL_v207m4cy8z","5e38e79295ff561112eae457","freq","img/orange_2bandit_b2.png","70","70","test","1","6","6","1","",""
"null","446095","pSARL_v2","pSARL_v207m4cy8z","5e38e79295ff561112eae457","freq_resp","img/orange_2bandit_b.png","70","70","test","","","","1","",""
"null","446248","pSARL_v2","pSARL_v207m4cy8z","5e38e79295ff561112eae457","fixation","img/fixation.png","null","","test","","","","","",""
"329.40000000596046","446580","pSARL_v2","pSARL_v207m4cy8z","5e38e79295ff561112eae457","freq","img/orange_2bandit_b2.png","70","70","test","1","7","7","1","",""
"null","447054","pSARL_v2","pSARL_v207m4cy8z","5e38e79295ff561112eae457","freq_resp","img/orange_2bandit_b.png","70","70","test","","","","1","",""
"null","447209","pSARL_v2","pSARL_v207m4cy8z","5e38e79295ff561112eae457","fixation","img/fixation.png","null","","test","","","","","",""
"295.69999999552965","447508","pSARL_v2","pSARL_v207m4cy8z","5e38e79295ff561112eae457","freq","img/orange_2bandit_b2.png","70","70","test","1","8","8","1","",""
"null","448025","pSARL_v2","pSARL_v207m4cy8z","5e38e79295ff561112eae457","freq_resp","img/orange_2bandit_b.png","70","70","test","","","","1","",""
"null","448181","pSARL_v2","pSARL_v207m4cy8z","5e38e79295ff561112eae457","fixation","img/fixation.png","null","","test","","","","","",""
"308.19999999552965","448491","pSARL_v2","pSARL_v207m4cy8z","5e38e79295ff561112eae457","freq","img/orange_2bandit_b2.png","70","70","test","1","9","9","1","",""
"null","449001","pSARL_v2","pSARL_v207m4cy8z","5e38e79295ff561112eae457","freq_resp","img/orange_2bandit_b.png","70","70","test","","","","1","",""
"null","449160","pSARL_v2","pSARL_v207m4cy8z","5e38e79295ff561112eae457","fixation","img/fixation.png","null","","test","","","","","",""
"281.3999999985099","449443","pSARL_v2","pSARL_v207m4cy8z","5e38e79295ff561112eae457","freq","img/orange_2bandit_b2.png","70","70","test","1","10","10","1","",""
"null","449971","pSARL_v2","pSARL_v207m4cy8z","5e38e79295ff561112eae457","freq_resp","img/orange_2bandit_b.png","70","70","test","","","","1","",""
"null","450125","pSARL_v2","pSARL_v207m4cy8z","5e38e79295ff561112eae457","fixation","img/fixation.png","null","","test","","","","","",""
"299.20000000298023","450427","pSARL_v2","pSARL_v207m4cy8z","5e38e79295ff561112eae457","infreq","img/green_2bandit_b2.png","68","68","test","1","11","11","1","",""
"null","450934","pSARL_v2","pSARL_v207m4cy8z","5e38e79295ff561112eae457","infreq_resp","img/green_2bandit_b.png","68","68","test","","","","1","",""
"null","451090","pSARL_v2","pSARL_v207m4cy8z","5e38e79295ff561112eae457","fixation","img/fixation.png","null","","test","","","","","",""
"351.8999999985099","451444","pSARL_v2","pSARL_v207m4cy8z","5e38e79295ff561112eae457","freq","img/orange_2bandit_b2.png","70","70","test","1","12","12","1","",""
"null","451903","pSARL_v2","pSARL_v207m4cy8z","5e38e79295ff561112eae457","freq_resp","img/orange_2bandit_b.png","70","70","test","","","","1","",""
"null","452061","pSARL_v2","pSARL_v207m4cy8z","5e38e79295ff561112eae457","fixation","img/fixation.png","null","","test","","","","","",""
"315.70000000298023","452379","pSARL_v2","pSARL_v207m4cy8z","5e38e79295ff561112eae457","freq","img/orange_2bandit_b2.png","70","70","test","1","13","13","1","",""
"null","452875","pSARL_v2","pSARL_v207m4cy8z","5e38e79295ff561112eae457","freq_resp","img/orange_2bandit_b.png","70","70","test","","","","1","",""
"null","453033","pSARL_v2","pSARL_v207m4cy8z","5e38e79295ff561112eae457","fixation","img/fixation.png","null","","test","","","","","",""
"311.6000000014901","453347","pSARL_v2","pSARL_v207m4cy8z","5e38e79295ff561112eae457","freq","img/orange_2bandit_b2.png","70","70","test","1","14","14","1","",""
"null","453840","pSARL_v2","pSARL_v207m4cy8z","5e38e79295ff561112eae457","freq_resp","img/orange_2bandit_b.png","70","70","test","","","","1","",""
"null","453995","pSARL_v2","pSARL_v207m4cy8z","5e38e79295ff561112eae457","fixation","img/fixation.png","null","","test","","","","","",""
"277.1000000014901","454275","pSARL_v2","pSARL_v207m4cy8z","5e38e79295ff561112eae457","freq","img/orange_2bandit_b2.png","70","70","test","1","15","15","1","",""
"null","454800","pSARL_v2","pSARL_v207m4cy8z","5e38e79295ff561112eae457","freq_resp","img/orange_2bandit_b.png","70","70","test","","","","1","",""
"null","454957","pSARL_v2","pSARL_v207m4cy8z","5e38e79295ff561112eae457","fixation","img/fixation.png","null","","test","","","","","",""
"299.8999999985099","455259","pSARL_v2","pSARL_v207m4cy8z","5e38e79295ff561112eae457","freq","img/orange_2bandit_b2.png","70","70","test","1","16","16","1","",""
"null","455769","pSARL_v2","pSARL_v207m4cy8z","5e38e79295ff561112eae457","freq_resp","img/orange_2bandit_b.png","70","70","test","","","","1","",""
"null","455925","pSARL_v2","pSARL_v207m4cy8z","5e38e79295ff561112eae457","fixation","img/fixation.png","null","","test","","","","","",""
"283.5","456211","pSARL_v2","pSARL_v207m4cy8z","5e38e79295ff561112eae457","freq","img/orange_2bandit_b2.png","70","70","test","1","17","17","1","",""
"null","456736","pSARL_v2","pSARL_v207m4cy8z","5e38e79295ff561112eae457","freq_resp","img/orange_2bandit_b.png","70","70","test","","","","1","",""
"null","456903","pSARL_v2","pSARL_v207m4cy8z","5e38e79295ff561112eae457","fixation","img/fixation.png","null","","test","","","","","",""
"306.3999999985099","457212","pSARL_v2","pSARL_v207m4cy8z","5e38e79295ff561112eae457","freq","img/orange_2bandit_b2.png","70","70","test","1","18","18","1","",""
"null","457714","pSARL_v2","pSARL_v207m4cy8z","5e38e79295ff561112eae457","freq_resp","img/orange_2bandit_b.png","70","70","test","","","","1","",""
"null","457871","pSARL_v2","pSARL_v207m4cy8z","5e38e79295ff561112eae457","fixation","img/fixation.png","null","","test","","","","","",""
"313.5","458187","pSARL_v2","pSARL_v207m4cy8z","5e38e79295ff561112eae457","freq","img/orange_2bandit_b2.png","70","70","test","1","19","19","1","",""
"null","458680","pSARL_v2","pSARL_v207m4cy8z","5e38e79295ff561112eae457","freq_resp","img/orange_2bandit_b.png","70","70","test","","","","1","",""
"null","458836","pSARL_v2","pSARL_v207m4cy8z","5e38e79295ff561112eae457","fixation","img/fixation.png","null","","test","","","","","",""
"292.79999999701977","459131","pSARL_v2","pSARL_v207m4cy8z","5e38e79295ff561112eae457","freq","img/orange_2bandit_b2.png","70","70","test","1","20","20","1","",""
"null","459647","pSARL_v2","pSARL_v207m4cy8z","5e38e79295ff561112eae457","freq_resp","img/orange_2bandit_b.png","70","70","test","","","","1","",""
"null","459803","pSARL_v2","pSARL_v207m4cy8z","5e38e79295ff561112eae457","fixation","img/fixation.png","null","","test","","","","","",""
"253.69999999552965","460059","pSARL_v2","pSARL_v207m4cy8z","5e38e79295ff561112eae457","freq","img/orange_2bandit_b2.png","70","70","test","1","21","21","1","",""
"null","460621","pSARL_v2","pSARL_v207m4cy8z","5e38e79295ff561112eae457","freq_resp","img/orange_2bandit_b.png","70","70","test","","","","1","",""
"null","460780","pSARL_v2","pSARL_v207m4cy8z","5e38e79295ff561112eae457","fixation","img/fixation.png","null","","test","","","","","",""
"292.6000000014901","461075","pSARL_v2","pSARL_v207m4cy8z","5e38e79295ff561112eae457","freq","img/orange_2bandit_b2.png","70","70","test","1","22","22","1","",""
"null","461592","pSARL_v2","pSARL_v207m4cy8z","5e38e79295ff561112eae457","freq_resp","img/orange_2bandit_b.png","70","70","test","","","","1","",""
"null","461751","pSARL_v2","pSARL_v207m4cy8z","5e38e79295ff561112eae457","fixation","img/fixation.png","null","","test","","","","","",""
"273.79999999701977","462028","pSARL_v2","pSARL_v207m4cy8z","5e38e79295ff561112eae457","freq","img/orange_2bandit_b2.png","70","70","test","1","23","23","1","",""
"null","462562","pSARL_v2","pSARL_v207m4cy8z","5e38e79295ff561112eae457","freq_resp","img/orange_2bandit_b.png","70","70","test","","","","1","",""
"null","462720","pSARL_v2","pSARL_v207m4cy8z","5e38e79295ff561112eae457","fixation","img/fixation.png","null","","test","","","","","",""
"280.1000000014901","463003","pSARL_v2","pSARL_v207m4cy8z","5e38e79295ff561112eae457","freq","img/orange_2bandit_b2.png","70","70","test","1","24","24","1","",""
"null","463536","pSARL_v2","pSARL_v207m4cy8z","5e38e79295ff561112eae457","freq_resp","img/orange_2bandit_b.png","70","70","test","","","","1","",""
"null","463692","pSARL_v2","pSARL_v207m4cy8z","5e38e79295ff561112eae457","fixation","img/fixation.png","null","","test","","","","","",""
"300.5","463995","pSARL_v2","pSARL_v207m4cy8z","5e38e79295ff561112eae457","freq","img/orange_2bandit_b2.png","70","70","test","1","25","25","1","",""
"null","464498","pSARL_v2","pSARL_v207m4cy8z","5e38e79295ff561112eae457","freq_resp","img/orange_2bandit_b.png","70","70","test","","","","1","",""
"null","464655","pSARL_v2","pSARL_v207m4cy8z","5e38e79295ff561112eae457","fixation","img/fixation.png","null","","test","","","","","",""
"273.40000000596046","464931","pSARL_v2","pSARL_v207m4cy8z","5e38e79295ff561112eae457","freq","img/orange_2bandit_b2.png","70","70","test","1","26","26","1","",""
"null","465473","pSARL_v2","pSARL_v207m4cy8z","5e38e79295ff561112eae457","freq_resp","img/orange_2bandit_b.png","70","70","test","","","","1","",""
"null","465626","pSARL_v2","pSARL_v207m4cy8z","5e38e79295ff561112eae457","fixation","img/fixation.png","null","","test","","","","","",""
"533.8000000044703","466163","pSARL_v2","pSARL_v207m4cy8z","5e38e79295ff561112eae457","reward","img/slot.png","74","","test","","","","","",""
"null","466927","pSARL_v2","pSARL_v207m4cy8z","5e38e79295ff561112eae457","points","<div class=""verylowPoints""> -6 </div>","null","na","test","","","","1","-6","0"
"586.1000000014901","467515","pSARL_v2","pSARL_v207m4cy8z","5e38e79295ff561112eae457","freq","img/orange_2bandit_b2.png","70","70","test","1","27","27","2","",""
"null","467746","pSARL_v2","pSARL_v207m4cy8z","5e38e79295ff561112eae457","freq_resp","img/orange_2bandit_b.png","70","70","test","","","","2","",""
"null","467903","pSARL_v2","pSARL_v207m4cy8z","5e38e79295ff561112eae457","fixation","img/fixation.png","null","","test","","","","","",""
"289.20000000298023","468195","pSARL_v2","pSARL_v207m4cy8z","5e38e79295ff561112eae457","freq","img/orange_2bandit_b2.png","70","70","test","1","28","28","2","",""
"null","468710","pSARL_v2","pSARL_v207m4cy8z","5e38e79295ff561112eae457","freq_resp","img/orange_2bandit_b.png","70","70","test","","","","2","",""
"null","468867","pSARL_v2","pSARL_v207m4cy8z","5e38e79295ff561112eae457","fixation","img/fixation.png","null","","test","","","","","",""
"268.6000000014901","469138","pSARL_v2","pSARL_v207m4cy8z","5e38e79295ff561112eae457","infreq","img/green_2bandit_b2.png","70","68","test","0","29","29","2","",""
"null","469681","pSARL_v2","pSARL_v207m4cy8z","5e38e79295ff561112eae457","infreq_resp","img/green_2bandit_b.png","70","68","test","","","","2","",""
"null","469837","pSARL_v2","pSARL_v207m4cy8z","5e38e79295ff561112eae457","fixation","img/fixation.png","null","","test","","","","","",""
"378.5","470219","pSARL_v2","pSARL_v207m4cy8z","5e38e79295ff561112eae457","freq","img/orange_2bandit_b2.png","70","70","test","1","30","30","2","",""
"null","470654","pSARL_v2","pSARL_v207m4cy8z","5e38e79295ff561112eae457","freq_resp","img/orange_2bandit_b.png","70","70","test","","","","2","",""
"null","470813","pSARL_v2","pSARL_v207m4cy8z","5e38e79295ff561112eae457","fixation","img/fixation.png","null","","test","","","","","",""
"323.8999999985099","471139","pSARL_v2","pSARL_v207m4cy8z","5e38e79295ff561112eae457","freq","img/orange_2bandit_b2.png","70","70","test","1","31","31","2","",""
"null","471632","pSARL_v2","pSARL_v207m4cy8z","5e38e79295ff561112eae457","freq_resp","img/orange_2bandit_b.png","70","70","test","","","","2","",""
"null","471786","pSARL_v2","pSARL_v207m4cy8z","5e38e79295ff561112eae457","fixation","img/fixation.png","null","","test","","","","","",""
"245.69999999552965","472034","pSARL_v2","pSARL_v207m4cy8z","5e38e79295ff561112eae457","freq","img/orange_2bandit_b2.png","70","70","test","1","32","32","2","",""
"null","472601","pSARL_v2","pSARL_v207m4cy8z","5e38e79295ff561112eae457","freq_resp","img/orange_2bandit_b.png","70","70","test","","","","2","",""
"null","472760","pSARL_v2","pSARL_v207m4cy8z","5e38e79295ff561112eae457","fixation","img/fixation.png","null","","test","","","","","",""
"231.5","472994","pSARL_v2","pSARL_v207m4cy8z","5e38e79295ff561112eae457","freq","img/orange_2bandit_b2.png","70","70","test","1","33","33","2","",""
"null","473580","pSARL_v2","pSARL_v207m4cy8z","5e38e79295ff561112eae457","freq_resp","img/orange_2bandit_b.png","70","70","test","","","","2","",""
"null","473737","pSARL_v2","pSARL_v207m4cy8z","5e38e79295ff561112eae457","fixation","img/fixation.png","null","","test","","","","","",""
"270.70000000298023","474010","pSARL_v2","pSARL_v207m4cy8z","5e38e79295ff561112eae457","freq","img/orange_2bandit_b2.png","70","70","test","1","34","34","2","",""
"null","474551","pSARL_v2","pSARL_v207m4cy8z","5e38e79295ff561112eae457","freq_resp","img/orange_2bandit_b.png","70","70","test","","","","2","",""
"null","474710","pSARL_v2","pSARL_v207m4cy8z","5e38e79295ff561112eae457","fixation","img/fixation.png","null","","test","","","","","",""
"321.90000000596046","475034","pSARL_v2","pSARL_v207m4cy8z","5e38e79295ff561112eae457","freq","img/orange_2bandit_b2.png","70","70","test","1","35","35","2","",""
"null","475523","pSARL_v2","pSARL_v207m4cy8z","5e38e79295ff561112eae457","freq_resp","img/orange_2bandit_b.png","70","70","test","","","","2","",""
"null","475682","pSARL_v2","pSARL_v207m4cy8z","5e38e79295ff561112eae457","fixation","img/fixation.png","null","","test","","","","","",""
"285.69999999552965","475970","pSARL_v2","pSARL_v207m4cy8z","5e38e79295ff561112eae457","freq","img/orange_2bandit_b2.png","70","70","test","1","36","36","2","",""
"null","476501","pSARL_v2","pSARL_v207m4cy8z","5e38e79295ff561112eae457","freq_resp","img/orange_2bandit_b.png","70","70","test","","","","2","",""
"null","476657","pSARL_v2","pSARL_v207m4cy8z","5e38e79295ff561112eae457","fixation","img/fixation.png","null","","test","","","","","",""
"286.80000000447035","476947","pSARL_v2","pSARL_v207m4cy8z","5e38e79295ff561112eae457","freq","img/orange_2bandit_b2.png","70","70","test","1","37","37","2","",""
"null","477475","pSARL_v2","pSARL_v207m4cy8z","5e38e79295ff561112eae457","freq_resp","img/orange_2bandit_b.png","70","70","test","","","","2","",""
"null","477632","pSARL_v2","pSARL_v207m4cy8z","5e38e79295ff561112eae457","fixation","img/fixation.png","null","","test","","","","","",""
"279","477914","pSARL_v2","pSARL_v207m4cy8z","5e38e79295ff561112eae457","freq","img/orange_2bandit_b2.png","70","70","test","1","38","38","2","",""
"null","478442","pSARL_v2","pSARL_v207m4cy8z","5e38e79295ff561112eae457","freq_resp","img/orange_2bandit_b.png","70","70","test","","","","2","",""
"null","478601","pSARL_v2","pSARL_v207m4cy8z","5e38e79295ff561112eae457","fixation","img/fixation.png","null","","test","","","","","",""
"399.29999999701977","479003","pSARL_v2","pSARL_v207m4cy8z","5e38e79295ff561112eae457","infreq","img/green_2bandit_b2.png","68","68","test","1","39","39","2","",""
"null","479421","pSARL_v2","pSARL_v207m4cy8z","5e38e79295ff561112eae457","infreq_resp","img/green_2bandit_b.png","68","68","test","","","","2","",""
"null","479576","pSARL_v2","pSARL_v207m4cy8z","5e38e79295ff561112eae457","fixation","img/fixation.png","null","","test","","","","","",""
"270.8999999985099","479850","pSARL_v2","pSARL_v207m4cy8z","5e38e79295ff561112eae457","freq","img/orange_2bandit_b2.png","70","70","test","1","40","40","2","",""
"null","480392","pSARL_v2","pSARL_v207m4cy8z","5e38e79295ff561112eae457","freq_resp","img/orange_2bandit_b.png","70","70","test","","","","2","",""
"null","480552","pSARL_v2","pSARL_v207m4cy8z","5e38e79295ff561112eae457","fixation","img/fixation.png","null","","test","","","","","",""
"254.89999999850988","480810","pSARL_v2","pSARL_v207m4cy8z","5e38e79295ff561112eae457","freq","img/orange_2bandit_b2.png","70","70","test","1","41","41","2","",""
"null","481362","pSARL_v2","pSARL_v207m4cy8z","5e38e79295ff561112eae457","freq_resp","img/orange_2bandit_b.png","70","70","test","","","","2","",""
"null","481520","pSARL_v2","pSARL_v207m4cy8z","5e38e79295ff561112eae457","fixation","img/fixation.png","null","","test","","","","","",""
"223.10000000149012","481746","pSARL_v2","pSARL_v207m4cy8z","5e38e79295ff561112eae457","freq","img/orange_2bandit_b2.png","70","70","test","1","42","42","2","",""
"null","482331","pSARL_v2","pSARL_v207m4cy8z","5e38e79295ff561112eae457","freq_resp","img/orange_2bandit_b.png","70","70","test","","","","2","",""
"null","482488","pSARL_v2","pSARL_v207m4cy8z","5e38e79295ff561112eae457","fixation","img/fixation.png","null","","test","","","","","",""
"127.39999999850988","482618","pSARL_v2","pSARL_v207m4cy8z","5e38e79295ff561112eae457","freq","img/orange_2bandit_b2.png","70","70","test","1","43","43","2","",""
"null","483303","pSARL_v2","pSARL_v207m4cy8z","5e38e79295ff561112eae457","freq_resp","img/orange_2bandit_b.png","70","70","test","","","","2","",""
"null","483460","pSARL_v2","pSARL_v207m4cy8z","5e38e79295ff561112eae457","fixation","img/fixation.png","null","","test","","","","","",""
"283.3999999985099","483746","pSARL_v2","pSARL_v207m4cy8z","5e38e79295ff561112eae457","freq","img/orange_2bandit_b2.png","70","70","test","1","44","44","2","",""
"null","484271","pSARL_v2","pSARL_v207m4cy8z","5e38e79295ff561112eae457","freq_resp","img/orange_2bandit_b.png","70","70","test","","","","2","",""
"null","484426","pSARL_v2","pSARL_v207m4cy8z","5e38e79295ff561112eae457","fixation","img/fixation.png","null","","test","","","","","",""
"237.10000000149012","484666","pSARL_v2","pSARL_v207m4cy8z","5e38e79295ff561112eae457","freq","img/orange_2bandit_b2.png","70","70","test","1","45","45","2","",""
"null","485245","pSARL_v2","pSARL_v207m4cy8z","5e38e79295ff561112eae457","freq_resp","img/orange_2bandit_b.png","70","70","test","","","","2","",""
"null","485403","pSARL_v2","pSARL_v207m4cy8z","5e38e79295ff561112eae457","fixation","img/fixation.png","null","","test","","","","","",""
"436.70000000298023","485842","pSARL_v2","pSARL_v207m4cy8z","5e38e79295ff561112eae457","reward","img/slot.png","74","","test","","","","","",""
"null","486607","pSARL_v2","pSARL_v207m4cy8z","5e38e79295ff561112eae457","points","<div class=""verylowPoints""> -11 </div>","null","na","test","","","","2","-11","1"
"368.79999999701977","486978","pSARL_v2","pSARL_v207m4cy8z","5e38e79295ff561112eae457","freq","img/orange_2bandit_b2.png","70","70","test","1","46","46","3","",""
"null","487412","pSARL_v2","pSARL_v207m4cy8z","5e38e79295ff561112eae457","freq_resp","img/orange_2bandit_b.png","70","70","test","","","","3","",""
"null","487567","pSARL_v2","pSARL_v207m4cy8z","5e38e79295ff561112eae457","fixation","img/fixation.png","null","","test","","","","","",""
"296.1000000014901","487866","pSARL_v2","pSARL_v207m4cy8z","5e38e79295ff561112eae457","freq","img/orange_2bandit_b2.png","70","70","test","1","47","47","3","",""
"null","488377","pSARL_v2","pSARL_v207m4cy8z","5e38e79295ff561112eae457","freq_resp","img/orange_2bandit_b.png","70","70","test","","","","3","",""
"null","488533","pSARL_v2","pSARL_v207m4cy8z","5e38e79295ff561112eae457","fixation","img/fixation.png","null","","test","","","","","",""
"234.30000000447035","488769","pSARL_v2","pSARL_v207m4cy8z","5e38e79295ff561112eae457","freq","img/orange_2bandit_b2.png","70","70","test","1","48","48","3","",""
"null","489343","pSARL_v2","pSARL_v207m4cy8z","5e38e79295ff561112eae457","freq_resp","img/orange_2bandit_b.png","70","70","test","","","","3","",""
"null","489499","pSARL_v2","pSARL_v207m4cy8z","5e38e79295ff561112eae457","fixation","img/fixation.png","null","","test","","","","","",""
"244.30000000447035","489746","pSARL_v2","pSARL_v207m4cy8z","5e38e79295ff561112eae457","freq","img/orange_2bandit_b2.png","70","70","test","1","49","49","3","",""
"null","490318","pSARL_v2","pSARL_v207m4cy8z","5e38e79295ff561112eae457","freq_resp","img/orange_2bandit_b.png","70","70","test","","","","3","",""
"null","490475","pSARL_v2","pSARL_v207m4cy8z","5e38e79295ff561112eae457","fixation","img/fixation.png","null","","test","","","","","",""
"243.80000000447035","490721","pSARL_v2","pSARL_v207m4cy8z","5e38e79295ff561112eae457","freq","img/orange_2bandit_b2.png","70","70","test","1","50","50","3","",""
"null","491286","pSARL_v2","pSARL_v207m4cy8z","5e38e79295ff561112eae457","freq_resp","img/orange_2bandit_b.png","70","70","test","","","","3","",""
"null","491443","pSARL_v2","pSARL_v207m4cy8z","5e38e79295ff561112eae457","fixation","img/fixation.png","null","","test","","","","","",""
"228.30000000447035","491674","pSARL_v2","pSARL_v207m4cy8z","5e38e79295ff561112eae457","freq","img/orange_2bandit_b2.png","70","70","test","1","51","51","3","",""
"null","492258","pSARL_v2","pSARL_v207m4cy8z","5e38e79295ff561112eae457","freq_resp","img/orange_2bandit_b.png","70","70","test","","","","3","",""
"null","492416","pSARL_v2","pSARL_v207m4cy8z","5e38e79295ff561112eae457","fixation","img/fixation.png","null","","test","","","","","",""
"263.3999999985099","492682","pSARL_v2","pSARL_v207m4cy8z","5e38e79295ff561112eae457","freq","img/orange_2bandit_b2.png","70","70","test","1","52","52","3","",""
"null","493236","pSARL_v2","pSARL_v207m4cy8z","5e38e79295ff561112eae457","freq_resp","img/orange_2bandit_b.png","70","70","test","","","","3","",""
"null","493396","pSARL_v2","pSARL_v207m4cy8z","5e38e79295ff561112eae457","fixation","img/fixation.png","null","","test","","","","","",""
"227","493625","pSARL_v2","pSARL_v207m4cy8z","5e38e79295ff561112eae457","freq","img/orange_2bandit_b2.png","70","70","test","1","53","53","3","",""
"null","494202","pSARL_v2","pSARL_v207m4cy8z","5e38e79295ff561112eae457","freq_resp","img/orange_2bandit_b.png","70","70","test","","","","3","",""
"null","494359","pSARL_v2","pSARL_v207m4cy8z","5e38e79295ff561112eae457","fixation","img/fixation.png","null","","test","","","","","",""
"232","494594","pSARL_v2","pSARL_v207m4cy8z","5e38e79295ff561112eae457","freq","img/orange_2bandit_b2.png","70","70","test","1","54","54","3","",""
"null","495172","pSARL_v2","pSARL_v207m4cy8z","5e38e79295ff561112eae457","freq_resp","img/orange_2bandit_b.png","70","70","test","","","","3","",""
"null","495326","pSARL_v2","pSARL_v207m4cy8z","5e38e79295ff561112eae457","fixation","img/fixation.png","null","","test","","","","","",""
"266","495594","pSARL_v2","pSARL_v207m4cy8z","5e38e79295ff561112eae457","freq","img/orange_2bandit_b2.png","70","70","test","1","55","55","3","",""
"null","496142","pSARL_v2","pSARL_v207m4cy8z","5e38e79295ff561112eae457","freq_resp","img/orange_2bandit_b.png","70","70","test","","","","3","",""
"null","496300","pSARL_v2","pSARL_v207m4cy8z","5e38e79295ff561112eae457","fixation","img/fixation.png","null","","test","","","","","",""
"218.5","496521","pSARL_v2","pSARL_v207m4cy8z","5e38e79295ff561112eae457","infreq","img/green_2bandit_b2.png","70","68","test","0","56","56","3","",""
"null","497115","pSARL_v2","pSARL_v207m4cy8z","5e38e79295ff561112eae457","infreq_resp","img/green_2bandit_b.png","70","68","test","","","","3","",""
"null","497272","pSARL_v2","pSARL_v207m4cy8z","5e38e79295ff561112eae457","fixation","img/fixation.png","null","","test","","","","","",""
"342.90000000596046","497618","pSARL_v2","pSARL_v207m4cy8z","5e38e79295ff561112eae457","freq","img/orange_2bandit_b2.png","70","70","test","1","57","57","3","",""
"null","498088","pSARL_v2","pSARL_v207m4cy8z","5e38e79295ff561112eae457","freq_resp","img/orange_2bandit_b.png","70","70","test","","","","3","",""
"null","498242","pSARL_v2","pSARL_v207m4cy8z","5e38e79295ff561112eae457","fixation","img/fixation.png","null","","test","","","","","",""
"276.6000000014901","498521","pSARL_v2","pSARL_v207m4cy8z","5e38e79295ff561112eae457","freq","img/orange_2bandit_b2.png","70","70","test","1","58","58","3","",""
"null","499062","pSARL_v2","pSARL_v207m4cy8z","5e38e79295ff561112eae457","freq_resp","img/orange_2bandit_b.png","70","70","test","","","","3","",""
"null","499216","pSARL_v2","pSARL_v207m4cy8z","5e38e79295ff561112eae457","fixation","img/fixation.png","null","","test","","","","","",""
"222.20000000298023","499441","pSARL_v2","pSARL_v207m4cy8z","5e38e79295ff561112eae457","freq","img/orange_2bandit_b2.png","70","70","test","1","59","59","3","",""
"null","500036","pSARL_v2","pSARL_v207m4cy8z","5e38e79295ff561112eae457","freq_resp","img/orange_2bandit_b.png","70","70","test","","","","3","",""
"null","500194","pSARL_v2","pSARL_v207m4cy8z","5e38e79295ff561112eae457","fixation","img/fixation.png","null","","test","","","","","",""
"260.5","500457","pSARL_v2","pSARL_v207m4cy8z","5e38e79295ff561112eae457","freq","img/orange_2bandit_b2.png","70","70","test","1","60","60","3","",""
"null","501005","pSARL_v2","pSARL_v207m4cy8z","5e38e79295ff561112eae457","freq_resp","img/orange_2bandit_b.png","70","70","test","","","","3","",""
"null","501160","pSARL_v2","pSARL_v207m4cy8z","5e38e79295ff561112eae457","fixation","img/fixation.png","null","","test","","","","","",""
"430.5","501593","pSARL_v2","pSARL_v207m4cy8z","5e38e79295ff561112eae457","infreq","img/green_2bandit_b2.png","68","68","test","1","61","61","3","",""
"null","501976","pSARL_v2","pSARL_v207m4cy8z","5e38e79295ff561112eae457","infreq_resp","img/green_2bandit_b.png","68","68","test","","","","3","",""
"null","502130","pSARL_v2","pSARL_v207m4cy8z","5e38e79295ff561112eae457","fixation","img/fixation.png","null","","test","","","","","",""
"275.69999999552965","502409","pSARL_v2","pSARL_v207m4cy8z","5e38e79295ff561112eae457","freq","img/orange_2bandit_b2.png","70","70","test","1","62","62","3","",""
"null","502938","pSARL_v2","pSARL_v207m4cy8z","5e38e79295ff561112eae457","freq_resp","img/orange_2bandit_b.png","70","70","test","","","","3","",""
"null","503095","pSARL_v2","pSARL_v207m4cy8z","5e38e79295ff561112eae457","fixation","img/fixation.png","null","","test","","","","","",""
"214.79999999701977","503313","pSARL_v2","pSARL_v207m4cy8z","5e38e79295ff561112eae457","freq","img/orange_2bandit_b2.png","70","70","test","1","63","63","3","",""
"null","503905","pSARL_v2","pSARL_v207m4cy8z","5e38e79295ff561112eae457","freq_resp","img/orange_2bandit_b.png","70","70","test","","","","3","",""
"null","504067","pSARL_v2","pSARL_v207m4cy8z","5e38e79295ff561112eae457","fixation","img/fixation.png","null","","test","","","","","",""
"219.29999999701977","504289","pSARL_v2","pSARL_v207m4cy8z","5e38e79295ff561112eae457","freq","img/orange_2bandit_b2.png","70","70","test","1","64","64","3","",""
"null","504881","pSARL_v2","pSARL_v207m4cy8z","5e38e79295ff561112eae457","freq_resp","img/orange_2bandit_b.png","70","70","test","","","","3","",""
"null","505049","pSARL_v2","pSARL_v207m4cy8z","5e38e79295ff561112eae457","fixation","img/fixation.png","null","","test","","","","","",""
"278.1000000014901","505329","pSARL_v2","pSARL_v207m4cy8z","5e38e79295ff561112eae457","freq","img/orange_2bandit_b2.png","70","70","test","1","65","65","3","",""
"null","505862","pSARL_v2","pSARL_v207m4cy8z","5e38e79295ff561112eae457","freq_resp","img/orange_2bandit_b.png","70","70","test","","","","3","",""
"null","506018","pSARL_v2","pSARL_v207m4cy8z","5e38e79295ff561112eae457","fixation","img/fixation.png","null","","test","","","","","",""
"291.80000000447035","506313","pSARL_v2","pSARL_v207m4cy8z","5e38e79295ff561112eae457","freq","img/orange_2bandit_b2.png","70","70","test","1","66","66","3","",""
"null","506837","pSARL_v2","pSARL_v207m4cy8z","5e38e79295ff561112eae457","freq_resp","img/orange_2bandit_b.png","70","70","test","","","","3","",""
"null","506994","pSARL_v2","pSARL_v207m4cy8z","5e38e79295ff561112eae457","fixation","img/fixation.png","null","","test","","","","","",""
"212.90000000596046","507209","pSARL_v2","pSARL_v207m4cy8z","5e38e79295ff561112eae457","freq","img/orange_2bandit_b2.png","70","70","test","1","67","67","3","",""
"null","507801","pSARL_v2","pSARL_v207m4cy8z","5e38e79295ff561112eae457","freq_resp","img/orange_2bandit_b.png","70","70","test","","","","3","",""
"null","507961","pSARL_v2","pSARL_v207m4cy8z","5e38e79295ff561112eae457","fixation","img/fixation.png","null","","test","","","","","",""
"260.90000000596046","508225","pSARL_v2","pSARL_v207m4cy8z","5e38e79295ff561112eae457","freq","img/orange_2bandit_b2.png","70","70","test","1","68","68","3","",""
"null","508773","pSARL_v2","pSARL_v207m4cy8z","5e38e79295ff561112eae457","freq_resp","img/orange_2bandit_b.png","70","70","test","","","","3","",""
"null","508931","pSARL_v2","pSARL_v207m4cy8z","5e38e79295ff561112eae457","fixation","img/fixation.png","null","","test","","","","","",""
"379.8999999985099","509313","pSARL_v2","pSARL_v207m4cy8z","5e38e79295ff561112eae457","infreq","img/green_2bandit_b2.png","68","68","test","1","69","69","3","",""
"null","509744","pSARL_v2","pSARL_v207m4cy8z","5e38e79295ff561112eae457","infreq_resp","img/green_2bandit_b.png","68","68","test","","","","3","",""
"null","509901","pSARL_v2","pSARL_v207m4cy8z","5e38e79295ff561112eae457","fixation","img/fixation.png","null","","test","","","","","",""
"233.20000000298023","510136","pSARL_v2","pSARL_v207m4cy8z","5e38e79295ff561112eae457","freq","img/orange_2bandit_b2.png","70","70","test","1","70","70","3","",""
"null","510708","pSARL_v2","pSARL_v207m4cy8z","5e38e79295ff561112eae457","freq_resp","img/orange_2bandit_b.png","70","70","test","","","","3","",""
"null","510866","pSARL_v2","pSARL_v207m4cy8z","5e38e79295ff561112eae457","fixation","img/fixation.png","null","","test","","","","","",""
"604.2000000029802","511472","pSARL_v2","pSARL_v207m4cy8z","5e38e79295ff561112eae457","reward","img/slot.png","74","","test","","","","","",""
"null","512225","pSARL_v2","pSARL_v207m4cy8z","5e38e79295ff561112eae457","points","<div class=""verylowPoints""> -7 </div>","null","na","test","","","","3","-7","2"
"428.8999999985099","512656","pSARL_v2","pSARL_v207m4cy8z","5e38e79295ff561112eae457","freq","img/orange_2bandit_b2.png","70","70","test","1","71","71","4","",""
"null","513034","pSARL_v2","pSARL_v207m4cy8z","5e38e79295ff561112eae457","freq_resp","img/orange_2bandit_b.png","70","70","test","","","","4","",""
"null","513189","pSARL_v2","pSARL_v207m4cy8z","5e38e79295ff561112eae457","fixation","img/fixation.png","null","","test","","","","","",""
"320.29999999701977","513512","pSARL_v2","pSARL_v207m4cy8z","5e38e79295ff561112eae457","freq","img/orange_2bandit_b2.png","70","70","test","1","72","72","4","",""
"null","513999","pSARL_v2","pSARL_v207m4cy8z","5e38e79295ff561112eae457","freq_resp","img/orange_2bandit_b.png","70","70","test","","","","4","",""
"null","514167","pSARL_v2","pSARL_v207m4cy8z","5e38e79295ff561112eae457","fixation","img/fixation.png","null","","test","","","","","",""
"248","514417","pSARL_v2","pSARL_v207m4cy8z","5e38e79295ff561112eae457","freq","img/orange_2bandit_b2.png","70","70","test","1","73","73","4","",""
"null","514974","pSARL_v2","pSARL_v207m4cy8z","5e38e79295ff561112eae457","freq_resp","img/orange_2bandit_b.png","70","70","test","","","","4","",""
"null","515131","pSARL_v2","pSARL_v207m4cy8z","5e38e79295ff561112eae457","fixation","img/fixation.png","null","","test","","","","","",""
"275.30000000447035","515408","pSARL_v2","pSARL_v207m4cy8z","5e38e79295ff561112eae457","freq","img/orange_2bandit_b2.png","70","70","test","1","74","74","4","",""
"null","515940","pSARL_v2","pSARL_v207m4cy8z","5e38e79295ff561112eae457","freq_resp","img/orange_2bandit_b.png","70","70","test","","","","4","",""
"null","516100","pSARL_v2","pSARL_v207m4cy8z","5e38e79295ff561112eae457","fixation","img/fixation.png","null","","test","","","","","",""
"273.29999999701977","516376","pSARL_v2","pSARL_v207m4cy8z","5e38e79295ff561112eae457","freq","img/orange_2bandit_b2.png","70","70","test","1","75","75","4","",""
"null","516915","pSARL_v2","pSARL_v207m4cy8z","5e38e79295ff561112eae457","freq_resp","img/orange_2bandit_b.png","70","70","test","","","","4","",""
"null","517075","pSARL_v2","pSARL_v207m4cy8z","5e38e79295ff561112eae457","fixation","img/fixation.png","null","","test","","","","","",""
"251","517328","pSARL_v2","pSARL_v207m4cy8z","5e38e79295ff561112eae457","freq","img/orange_2bandit_b2.png","70","70","test","1","76","76","4","",""
"null","517892","pSARL_v2","pSARL_v207m4cy8z","5e38e79295ff561112eae457","freq_resp","img/orange_2bandit_b.png","70","70","test","","","","4","",""
"null","518048","pSARL_v2","pSARL_v207m4cy8z","5e38e79295ff561112eae457","fixation","img/fixation.png","null","","test","","","","","",""
"269.8999999985099","518321","pSARL_v2","pSARL_v207m4cy8z","5e38e79295ff561112eae457","freq","img/orange_2bandit_b2.png","70","70","test","1","77","77","4","",""
"null","518866","pSARL_v2","pSARL_v207m4cy8z","5e38e79295ff561112eae457","freq_resp","img/orange_2bandit_b.png","70","70","test","","","","4","",""
"null","519026","pSARL_v2","pSARL_v207m4cy8z","5e38e79295ff561112eae457","fixation","img/fixation.png","null","","test","","","","","",""
"331.3999999985099","519360","pSARL_v2","pSARL_v207m4cy8z","5e38e79295ff561112eae457","infreq","img/green_2bandit_b2.png","68","68","test","1","78","78","4","",""
"null","519840","pSARL_v2","pSARL_v207m4cy8z","5e38e79295ff561112eae457","infreq_resp","img/green_2bandit_b.png","68","68","test","","","","4","",""
"null","519995","pSARL_v2","pSARL_v207m4cy8z","5e38e79295ff561112eae457","fixation","img/fixation.png","null","","test","","","","","",""
"242.30000000447035","520240","pSARL_v2","pSARL_v207m4cy8z","5e38e79295ff561112eae457","freq","img/orange_2bandit_b2.png","70","70","test","1","79","79","4","",""
"null","520810","pSARL_v2","pSARL_v207m4cy8z","5e38e79295ff561112eae457","freq_resp","img/orange_2bandit_b.png","70","70","test","","","","4","",""
"null","520966","pSARL_v2","pSARL_v207m4cy8z","5e38e79295ff561112eae457","fixation","img/fixation.png","null","","test","","","","","",""
"216.29999999701977","521185","pSARL_v2","pSARL_v207m4cy8z","5e38e79295ff561112eae457","infreq","img/green_2bandit_b2.png","70","68","test","0","80","80","4","",""
"null","521783","pSARL_v2","pSARL_v207m4cy8z","5e38e79295ff561112eae457","infreq_resp","img/green_2bandit_b.png","70","68","test","","","","4","",""
"null","521951","pSARL_v2","pSARL_v207m4cy8z","5e38e79295ff561112eae457","fixation","img/fixation.png","null","","test","","","","","",""
"295.09999999403954","522248","pSARL_v2","pSARL_v207m4cy8z","5e38e79295ff561112eae457","freq","img/orange_2bandit_b2.png","70","70","test","1","81","81","4","",""
"null","522769","pSARL_v2","pSARL_v207m4cy8z","5e38e79295ff561112eae457","freq_resp","img/orange_2bandit_b.png","70","70","test","","","","4","",""
"null","522925","pSARL_v2","pSARL_v207m4cy8z","5e38e79295ff561112eae457","fixation","img/fixation.png","null","","test","","","","","",""
"288.6000000014901","523216","pSARL_v2","pSARL_v207m4cy8z","5e38e79295ff561112eae457","freq","img/orange_2bandit_b2.png","70","70","test","1","82","82","4","",""
"null","523739","pSARL_v2","pSARL_v207m4cy8z","5e38e79295ff561112eae457","freq_resp","img/orange_2bandit_b.png","70","70","test","","","","4","",""
"null","523895","pSARL_v2","pSARL_v207m4cy8z","5e38e79295ff561112eae457","fixation","img/fixation.png","null","","test","","","","","",""
"286","524184","pSARL_v2","pSARL_v207m4cy8z","5e38e79295ff561112eae457","freq","img/orange_2bandit_b2.png","70","70","test","1","83","83","4","",""
"null","524708","pSARL_v2","pSARL_v207m4cy8z","5e38e79295ff561112eae457","freq_resp","img/orange_2bandit_b.png","70","70","test","","","","4","",""
"null","524868","pSARL_v2","pSARL_v207m4cy8z","5e38e79295ff561112eae457","fixation","img/fixation.png","null","","test","","","","","",""
"329","525199","pSARL_v2","pSARL_v207m4cy8z","5e38e79295ff561112eae457","freq","img/orange_2bandit_b2.png","70","70","test","1","84","84","4","",""
"null","525680","pSARL_v2","pSARL_v207m4cy8z","5e38e79295ff561112eae457","freq_resp","img/orange_2bandit_b.png","70","70","test","","","","4","",""
"null","525848","pSARL_v2","pSARL_v207m4cy8z","5e38e79295ff561112eae457","fixation","img/fixation.png","null","","test","","","","","",""
"293.70000000298023","526144","pSARL_v2","pSARL_v207m4cy8z","5e38e79295ff561112eae457","freq","img/orange_2bandit_b2.png","70","70","test","1","85","85","4","",""
"null","526663","pSARL_v2","pSARL_v207m4cy8z","5e38e79295ff561112eae457","freq_resp","img/orange_2bandit_b.png","70","70","test","","","","4","",""
"null","526820","pSARL_v2","pSARL_v207m4cy8z","5e38e79295ff561112eae457","fixation","img/fixation.png","null","","test","","","","","",""
"265.70000000298023","527088","pSARL_v2","pSARL_v207m4cy8z","5e38e79295ff561112eae457","freq","img/orange_2bandit_b2.png","70","70","test","1","86","86","4","",""
"null","527634","pSARL_v2","pSARL_v207m4cy8z","5e38e79295ff561112eae457","freq_resp","img/orange_2bandit_b.png","70","70","test","","","","4","",""
"null","527792","pSARL_v2","pSARL_v207m4cy8z","5e38e79295ff561112eae457","fixation","img/fixation.png","null","","test","","","","","",""
"285.1000000014901","528079","pSARL_v2","pSARL_v207m4cy8z","5e38e79295ff561112eae457","freq","img/orange_2bandit_b2.png","70","70","test","1","87","87","4","",""
"null","528605","pSARL_v2","pSARL_v207m4cy8z","5e38e79295ff561112eae457","freq_resp","img/orange_2bandit_b.png","70","70","test","","","","4","",""
"null","528763","pSARL_v2","pSARL_v207m4cy8z","5e38e79295ff561112eae457","fixation","img/fixation.png","null","","test","","","","","",""
"282.40000000596046","529047","pSARL_v2","pSARL_v207m4cy8z","5e38e79295ff561112eae457","freq","img/orange_2bandit_b2.png","70","70","test","1","88","88","4","",""
"null","529583","pSARL_v2","pSARL_v207m4cy8z","5e38e79295ff561112eae457","freq_resp","img/orange_2bandit_b.png","70","70","test","","","","4","",""
"null","529737","pSARL_v2","pSARL_v207m4cy8z","5e38e79295ff561112eae457","fixation","img/fixation.png","null","","test","","","","","",""
"268.1000000014901","530008","pSARL_v2","pSARL_v207m4cy8z","5e38e79295ff561112eae457","freq","img/orange_2bandit_b2.png","70","70","test","1","89","89","4","",""
"null","530557","pSARL_v2","pSARL_v207m4cy8z","5e38e79295ff561112eae457","freq_resp","img/orange_2bandit_b.png","70","70","test","","","","4","",""
"null","530715","pSARL_v2","pSARL_v207m4cy8z","5e38e79295ff561112eae457","fixation","img/fixation.png","null","","test","","","","","",""
"450.69999999552965","531168","pSARL_v2","pSARL_v207m4cy8z","5e38e79295ff561112eae457","reward","img/slot.png","74","","test","","","","","",""
"null","531925","pSARL_v2","pSARL_v207m4cy8z","5e38e79295ff561112eae457","points","<div class=""verylowPoints""> -3 </div>","null","na","test","","","","4","-3","3"
"328.3999999985099","532256","pSARL_v2","pSARL_v207m4cy8z","5e38e79295ff561112eae457","freq","img/orange_2bandit_b2.png","70","70","test","1","90","90","5","",""
"null","532735","pSARL_v2","pSARL_v207m4cy8z","5e38e79295ff561112eae457","freq_resp","img/orange_2bandit_b.png","70","70","test","","","","5","",""
"null","532891","pSARL_v2","pSARL_v207m4cy8z","5e38e79295ff561112eae457","fixation","img/fixation.png","null","","test","","","","","",""
"297.5","533191","pSARL_v2","pSARL_v207m4cy8z","5e38e79295ff561112eae457","freq","img/orange_2bandit_b2.png","70","70","test","1","91","91","5","",""
"null","533701","pSARL_v2","pSARL_v207m4cy8z","5e38e79295ff561112eae457","freq_resp","img/orange_2bandit_b.png","70","70","test","","","","5","",""
"null","533858","pSARL_v2","pSARL_v207m4cy8z","5e38e79295ff561112eae457","fixation","img/fixation.png","null","","test","","","","","",""
"387.5","534248","pSARL_v2","pSARL_v207m4cy8z","5e38e79295ff561112eae457","freq","img/orange_2bandit_b2.png","70","70","test","1","92","92","5","",""
"null","534677","pSARL_v2","pSARL_v207m4cy8z","5e38e79295ff561112eae457","freq_resp","img/orange_2bandit_b.png","70","70","test","","","","5","",""
"null","534833","pSARL_v2","pSARL_v207m4cy8z","5e38e79295ff561112eae457","fixation","img/fixation.png","null","","test","","","","","",""
"348.1000000014901","535184","pSARL_v2","pSARL_v207m4cy8z","5e38e79295ff561112eae457","infreq","img/green_2bandit_b2.png","68","68","test","1","93","93","5","",""
"null","535642","pSARL_v2","pSARL_v207m4cy8z","5e38e79295ff561112eae457","infreq_resp","img/green_2bandit_b.png","68","68","test","","","","5","",""
"null","535796","pSARL_v2","pSARL_v207m4cy8z","5e38e79295ff561112eae457","fixation","img/fixation.png","null","","test","","","","","",""
"297.19999999552965","536095","pSARL_v2","pSARL_v207m4cy8z","5e38e79295ff561112eae457","freq","img/orange_2bandit_b2.png","70","70","test","1","94","94","5","",""
"null","536611","pSARL_v2","pSARL_v207m4cy8z","5e38e79295ff561112eae457","freq_resp","img/orange_2bandit_b.png","70","70","test","","","","5","",""
"null","536767","pSARL_v2","pSARL_v207m4cy8z","5e38e79295ff561112eae457","fixation","img/fixation.png","null","","test","","","","","",""
"285.80000000447035","537055","pSARL_v2","pSARL_v207m4cy8z","5e38e79295ff561112eae457","freq","img/orange_2bandit_b2.png","70","70","test","1","95","95","5","",""
"null","537576","pSARL_v2","pSARL_v207m4cy8z","5e38e79295ff561112eae457","freq_resp","img/orange_2bandit_b.png","70","70","test","","","","5","",""
"null","537734","pSARL_v2","pSARL_v207m4cy8z","5e38e79295ff561112eae457","fixation","img/fixation.png","null","","test","","","","","",""
"262.59999999403954","537999","pSARL_v2","pSARL_v207m4cy8z","5e38e79295ff561112eae457","freq","img/orange_2bandit_b2.png","70","70","test","1","96","96","5","",""
"null","538550","pSARL_v2","pSARL_v207m4cy8z","5e38e79295ff561112eae457","freq_resp","img/orange_2bandit_b.png","70","70","test","","","","5","",""
"null","538708","pSARL_v2","pSARL_v207m4cy8z","5e38e79295ff561112eae457","fixation","img/fixation.png","null","","test","","","","","",""
"248.5","538959","pSARL_v2","pSARL_v207m4cy8z","5e38e79295ff561112eae457","freq","img/orange_2bandit_b2.png","70","70","test","1","97","97","5","",""
"null","539531","pSARL_v2","pSARL_v207m4cy8z","5e38e79295ff561112eae457","freq_resp","img/orange_2bandit_b.png","70","70","test","","","","5","",""
"null","539688","pSARL_v2","pSARL_v207m4cy8z","5e38e79295ff561112eae457","fixation","img/fixation.png","null","","test","","","","","",""
"261.29999999701977","539952","pSARL_v2","pSARL_v207m4cy8z","5e38e79295ff561112eae457","freq","img/orange_2bandit_b2.png","70","70","test","1","98","98","5","",""
"null","540493","pSARL_v2","pSARL_v207m4cy8z","5e38e79295ff561112eae457","freq_resp","img/orange_2bandit_b.png","70","70","test","","","","5","",""
"null","540648","pSARL_v2","pSARL_v207m4cy8z","5e38e79295ff561112eae457","fixation","img/fixation.png","null","","test","","","","","",""
"301.20000000298023","540951","pSARL_v2","pSARL_v207m4cy8z","5e38e79295ff561112eae457","freq","img/orange_2bandit_b2.png","70","70","test","1","99","99","5","",""
"null","541457","pSARL_v2","pSARL_v207m4cy8z","5e38e79295ff561112eae457","freq_resp","img/orange_2bandit_b.png","70","70","test","","","","5","",""
"null","541611","pSARL_v2","pSARL_v207m4cy8z","5e38e79295ff561112eae457","fixation","img/fixation.png","null","","test","","","","","",""
"306.1000000014901","541920","pSARL_v2","pSARL_v207m4cy8z","5e38e79295ff561112eae457","freq","img/orange_2bandit_b2.png","70","70","test","1","100","100","5","",""
"null","542430","pSARL_v2","pSARL_v207m4cy8z","5e38e79295ff561112eae457","freq_resp","img/orange_2bandit_b.png","70","70","test","","","","5","",""
"null","542587","pSARL_v2","pSARL_v207m4cy8z","5e38e79295ff561112eae457","fixation","img/fixation.png","null","","test","","","","","",""
"258.20000000298023","542848","pSARL_v2","pSARL_v207m4cy8z","5e38e79295ff561112eae457","freq","img/orange_2bandit_b2.png","70","70","test","1","101","101","5","",""
"null","543402","pSARL_v2","pSARL_v207m4cy8z","5e38e79295ff561112eae457","freq_resp","img/orange_2bandit_b.png","70","70","test","","","","5","",""
"null","543560","pSARL_v2","pSARL_v207m4cy8z","5e38e79295ff561112eae457","fixation","img/fixation.png","null","","test","","","","","",""
"396.20000000298023","543959","pSARL_v2","pSARL_v207m4cy8z","5e38e79295ff561112eae457","freq","img/orange_2bandit_b2.png","70","70","test","1","102","102","5","",""
"null","544373","pSARL_v2","pSARL_v207m4cy8z","5e38e79295ff561112eae457","freq_resp","img/orange_2bandit_b.png","70","70","test","","","","5","",""
"null","544532","pSARL_v2","pSARL_v207m4cy8z","5e38e79295ff561112eae457","fixation","img/fixation.png","null","","test","","","","","",""
"376.6000000014901","544911","pSARL_v2","pSARL_v207m4cy8z","5e38e79295ff561112eae457","freq","img/orange_2bandit_b2.png","70","70","test","1","103","103","5","",""
"null","545350","pSARL_v2","pSARL_v207m4cy8z","5e38e79295ff561112eae457","freq_resp","img/orange_2bandit_b.png","70","70","test","","","","5","",""
"null","545504","pSARL_v2","pSARL_v207m4cy8z","5e38e79295ff561112eae457","fixation","img/fixation.png","null","","test","","","","","",""
"396.6000000014901","545903","pSARL_v2","pSARL_v207m4cy8z","5e38e79295ff561112eae457","freq","img/orange_2bandit_b2.png","70","70","test","1","104","104","5","",""
"null","546320","pSARL_v2","pSARL_v207m4cy8z","5e38e79295ff561112eae457","freq_resp","img/orange_2bandit_b.png","70","70","test","","","","5","",""
"null","546477","pSARL_v2","pSARL_v207m4cy8z","5e38e79295ff561112eae457","fixation","img/fixation.png","null","","test","","","","","",""
"343.3999999985099","546823","pSARL_v2","pSARL_v207m4cy8z","5e38e79295ff561112eae457","freq","img/orange_2bandit_b2.png","70","70","test","1","105","105","5","",""
"null","547297","pSARL_v2","pSARL_v207m4cy8z","5e38e79295ff561112eae457","freq_resp","img/orange_2bandit_b.png","70","70","test","","","","5","",""
"null","547453","pSARL_v2","pSARL_v207m4cy8z","5e38e79295ff561112eae457","fixation","img/fixation.png","null","","test","","","","","",""
"367.6000000014901","547823","pSARL_v2","pSARL_v207m4cy8z","5e38e79295ff561112eae457","freq","img/orange_2bandit_b2.png","70","70","test","1","106","106","5","",""
"null","548264","pSARL_v2","pSARL_v207m4cy8z","5e38e79295ff561112eae457","freq_resp","img/orange_2bandit_b.png","70","70","test","","","","5","",""
"null","548419","pSARL_v2","pSARL_v207m4cy8z","5e38e79295ff561112eae457","fixation","img/fixation.png","null","","test","","","","","",""
"329.30000000447035","548751","pSARL_v2","pSARL_v207m4cy8z","5e38e79295ff561112eae457","freq","img/orange_2bandit_b2.png","70","70","test","1","107","107","5","",""
"null","549239","pSARL_v2","pSARL_v207m4cy8z","5e38e79295ff561112eae457","freq_resp","img/orange_2bandit_b.png","70","70","test","","","","5","",""
"null","549396","pSARL_v2","pSARL_v207m4cy8z","5e38e79295ff561112eae457","fixation","img/fixation.png","null","","test","","","","","",""
"272.70000000298023","549674","pSARL_v2","pSARL_v207m4cy8z","5e38e79295ff561112eae457","freq","img/orange_2bandit_b2.png","70","70","test","1","108","108","5","",""
"null","550214","pSARL_v2","pSARL_v207m4cy8z","5e38e79295ff561112eae457","freq_resp","img/orange_2bandit_b.png","70","70","test","","","","5","",""
"null","550370","pSARL_v2","pSARL_v207m4cy8z","5e38e79295ff561112eae457","fixation","img/fixation.png","null","","test","","","","","",""
"354","550727","pSARL_v2","pSARL_v207m4cy8z","5e38e79295ff561112eae457","infreq","img/green_2bandit_b2.png","68","68","test","1","109","109","5","",""
"null","551181","pSARL_v2","pSARL_v207m4cy8z","5e38e79295ff561112eae457","infreq_resp","img/green_2bandit_b.png","68","68","test","","","","5","",""
"null","551339","pSARL_v2","pSARL_v207m4cy8z","5e38e79295ff561112eae457","fixation","img/fixation.png","null","","test","","","","","",""
"224.80000000447035","551566","pSARL_v2","pSARL_v207m4cy8z","5e38e79295ff561112eae457","freq","img/orange_2bandit_b2.png","70","70","test","1","110","110","5","",""
"null","552150","pSARL_v2","pSARL_v207m4cy8z","5e38e79295ff561112eae457","freq_resp","img/orange_2bandit_b.png","70","70","test","","","","5","",""
"null","552308","pSARL_v2","pSARL_v207m4cy8z","5e38e79295ff561112eae457","fixation","img/fixation.png","null","","test","","","","","",""
"265.29999999701977","552575","pSARL_v2","pSARL_v207m4cy8z","5e38e79295ff561112eae457","freq","img/orange_2bandit_b2.png","70","70","test","1","111","111","5","",""
"null","553113","pSARL_v2","pSARL_v207m4cy8z","5e38e79295ff561112eae457","freq_resp","img/orange_2bandit_b.png","70","70","test","","","","5","",""
"null","553276","pSARL_v2","pSARL_v207m4cy8z","5e38e79295ff561112eae457","fixation","img/fixation.png","null","","test","","","","","",""
"240.30000000447035","553518","pSARL_v2","pSARL_v207m4cy8z","5e38e79295ff561112eae457","freq","img/orange_2bandit_b2.png","70","70","test","1","112","112","5","",""
"null","554085","pSARL_v2","pSARL_v207m4cy8z","5e38e79295ff561112eae457","freq_resp","img/orange_2bandit_b.png","70","70","test","","","","5","",""
"null","554257","pSARL_v2","pSARL_v207m4cy8z","5e38e79295ff561112eae457","fixation","img/fixation.png","null","","test","","","","","",""
"267.59999999403954","554527","pSARL_v2","pSARL_v207m4cy8z","5e38e79295ff561112eae457","freq","img/orange_2bandit_b2.png","70","70","test","1","113","113","5","",""
"null","555070","pSARL_v2","pSARL_v207m4cy8z","5e38e79295ff561112eae457","freq_resp","img/orange_2bandit_b.png","70","70","test","","","","5","",""
"null","555224","pSARL_v2","pSARL_v207m4cy8z","5e38e79295ff561112eae457","fixation","img/fixation.png","null","","test","","","","","",""
"291.5","555518","pSARL_v2","pSARL_v207m4cy8z","5e38e79295ff561112eae457","freq","img/orange_2bandit_b2.png","70","70","test","1","114","114","5","",""
"null","556038","pSARL_v2","pSARL_v207m4cy8z","5e38e79295ff561112eae457","freq_resp","img/orange_2bandit_b.png","70","70","test","","","","5","",""
"null","556191","pSARL_v2","pSARL_v207m4cy8z","5e38e79295ff561112eae457","fixation","img/fixation.png","null","","test","","","","","",""
"341.29999999701977","556535","pSARL_v2","pSARL_v207m4cy8z","5e38e79295ff561112eae457","freq","img/orange_2bandit_b2.png","70","70","test","1","115","115","5","",""
"null","557010","pSARL_v2","pSARL_v207m4cy8z","5e38e79295ff561112eae457","freq_resp","img/orange_2bandit_b.png","70","70","test","","","","5","",""
"null","557167","pSARL_v2","pSARL_v207m4cy8z","5e38e79295ff561112eae457","fixation","img/fixation.png","null","","test","","","","","",""
"444.19999999552965","557614","pSARL_v2","pSARL_v207m4cy8z","5e38e79295ff561112eae457","reward","img/slot.png","74","","test","","","","","",""
"null","558375","pSARL_v2","pSARL_v207m4cy8z","5e38e79295ff561112eae457","points","<div class=""veryhighPoints""> +1 </div>","null","na","test","","","","5","1","4"
"357.29999999701977","558735","pSARL_v2","pSARL_v207m4cy8z","5e38e79295ff561112eae457","freq","img/orange_2bandit_b2.png","70","70","test","1","116","116","6","",""
"null","559195","pSARL_v2","pSARL_v207m4cy8z","5e38e79295ff561112eae457","freq_resp","img/orange_2bandit_b.png","70","70","test","","","","6","",""
"null","559351","pSARL_v2","pSARL_v207m4cy8z","5e38e79295ff561112eae457","fixation","img/fixation.png","null","","test","","","","","",""
"340.5","559694","pSARL_v2","pSARL_v207m4cy8z","5e38e79295ff561112eae457","freq","img/orange_2bandit_b2.png","70","70","test","1","117","117","6","",""
"null","560165","pSARL_v2","pSARL_v207m4cy8z","5e38e79295ff561112eae457","freq_resp","img/orange_2bandit_b.png","70","70","test","","","","6","",""
"null","560336","pSARL_v2","pSARL_v207m4cy8z","5e38e79295ff561112eae457","fixation","img/fixation.png","null","","test","","","","","",""
"324.1000000014901","560663","pSARL_v2","pSARL_v207m4cy8z","5e38e79295ff561112eae457","freq","img/orange_2bandit_b2.png","70","70","test","1","118","118","6","",""
"null","561145","pSARL_v2","pSARL_v207m4cy8z","5e38e79295ff561112eae457","freq_resp","img/orange_2bandit_b.png","70","70","test","","","","6","",""
"null","561301","pSARL_v2","pSARL_v207m4cy8z","5e38e79295ff561112eae457","fixation","img/fixation.png","null","","test","","","","","",""
"334.29999999701977","561639","pSARL_v2","pSARL_v207m4cy8z","5e38e79295ff561112eae457","infreq","img/green_2bandit_b2.png","68","68","test","1","119","119","6","",""
"null","562121","pSARL_v2","pSARL_v207m4cy8z","5e38e79295ff561112eae457","infreq_resp","img/green_2bandit_b.png","68","68","test","","","","6","",""
"null","562279","pSARL_v2","pSARL_v207m4cy8z","5e38e79295ff561112eae457","fixation","img/fixation.png","null","","test","","","","","",""
"309.69999999552965","562591","pSARL_v2","pSARL_v207m4cy8z","5e38e79295ff561112eae457","freq","img/orange_2bandit_b2.png","70","70","test","1","120","120","6","",""
"null","563094","pSARL_v2","pSARL_v207m4cy8z","5e38e79295ff561112eae457","freq_resp","img/orange_2bandit_b.png","70","70","test","","","","6","",""
"null","563252","pSARL_v2","pSARL_v207m4cy8z","5e38e79295ff561112eae457","fixation","img/fixation.png","null","","test","","","","","",""
"247.70000000298023","563502","pSARL_v2","pSARL_v207m4cy8z","5e38e79295ff561112eae457","freq","img/orange_2bandit_b2.png","70","70","test","1","121","121","6","",""
"null","564065","pSARL_v2","pSARL_v207m4cy8z","5e38e79295ff561112eae457","freq_resp","img/orange_2bandit_b.png","70","70","test","","","","6","",""
"null","564226","pSARL_v2","pSARL_v207m4cy8z","5e38e79295ff561112eae457","fixation","img/fixation.png","null","","test","","","","","",""
"241.89999999850988","564470","pSARL_v2","pSARL_v207m4cy8z","5e38e79295ff561112eae457","freq","img/orange_2bandit_b2.png","70","70","test","1","122","122","6","",""
"null","565035","pSARL_v2","pSARL_v207m4cy8z","5e38e79295ff561112eae457","freq_resp","img/orange_2bandit_b.png","70","70","test","","","","6","",""
"null","565191","pSARL_v2","pSARL_v207m4cy8z","5e38e79295ff561112eae457","fixation","img/fixation.png","null","","test","","","","","",""
"252.39999999850988","565446","pSARL_v2","pSARL_v207m4cy8z","5e38e79295ff561112eae457","freq","img/orange_2bandit_b2.png","70","70","test","1","123","123","6","",""
"null","566008","pSARL_v2","pSARL_v207m4cy8z","5e38e79295ff561112eae457","freq_resp","img/orange_2bandit_b.png","70","70","test","","","","6","",""
"null","566163","pSARL_v2","pSARL_v207m4cy8z","5e38e79295ff561112eae457","fixation","img/fixation.png","null","","test","","","","","",""
"296.1000000014901","566462","pSARL_v2","pSARL_v207m4cy8z","5e38e79295ff561112eae457","freq","img/orange_2bandit_b2.png","70","70","test","1","124","124","6","",""
"null","566978","pSARL_v2","pSARL_v207m4cy8z","5e38e79295ff561112eae457","freq_resp","img/orange_2bandit_b.png","70","70","test","","","","6","",""
"null","567135","pSARL_v2","pSARL_v207m4cy8z","5e38e79295ff561112eae457","fixation","img/fixation.png","null","","test","","","","","",""
"372.20000000298023","567510","pSARL_v2","pSARL_v207m4cy8z","5e38e79295ff561112eae457","freq","img/orange_2bandit_b2.png","70","70","test","1","125","125","6","",""
"null","567949","pSARL_v2","pSARL_v207m4cy8z","5e38e79295ff561112eae457","freq_resp","img/orange_2bandit_b.png","70","70","test","","","","6","",""
"null","568108","pSARL_v2","pSARL_v207m4cy8z","5e38e79295ff561112eae457","fixation","img/fixation.png","null","","test","","","","","",""
"343.69999999552965","568454","pSARL_v2","pSARL_v207m4cy8z","5e38e79295ff561112eae457","freq","img/orange_2bandit_b2.png","70","70","test","1","126","126","6","",""
"null","568926","pSARL_v2","pSARL_v207m4cy8z","5e38e79295ff561112eae457","freq_resp","img/orange_2bandit_b.png","70","70","test","","","","6","",""
"null","569084","pSARL_v2","pSARL_v207m4cy8z","5e38e79295ff561112eae457","fixation","img/fixation.png","null","","test","","","","","",""
"359.29999999701977","569446","pSARL_v2","pSARL_v207m4cy8z","5e38e79295ff561112eae457","freq","img/orange_2bandit_b2.png","70","70","test","1","127","127","6","",""
"null","569897","pSARL_v2","pSARL_v207m4cy8z","5e38e79295ff561112eae457","freq_resp","img/orange_2bandit_b.png","70","70","test","","","","6","",""
"null","570053","pSARL_v2","pSARL_v207m4cy8z","5e38e79295ff561112eae457","fixation","img/fixation.png","null","","test","","","","","",""
"383.3999999985099","570438","pSARL_v2","pSARL_v207m4cy8z","5e38e79295ff561112eae457","infreq","img/green_2bandit_b2.png","68","68","test","1","128","128","6","",""
"null","570864","pSARL_v2","pSARL_v207m4cy8z","5e38e79295ff561112eae457","infreq_resp","img/green_2bandit_b.png","68","68","test","","","","6","",""
"null","571026","pSARL_v2","pSARL_v207m4cy8z","5e38e79295ff561112eae457","fixation","img/fixation.png","null","","test","","","","","",""
"257.79999999701977","571286","pSARL_v2","pSARL_v207m4cy8z","5e38e79295ff561112eae457","freq","img/orange_2bandit_b2.png","70","70","test","1","129","129","6","",""
"null","571838","pSARL_v2","pSARL_v207m4cy8z","5e38e79295ff561112eae457","freq_resp","img/orange_2bandit_b.png","70","70","test","","","","6","",""
"null","571994","pSARL_v2","pSARL_v207m4cy8z","5e38e79295ff561112eae457","fixation","img/fixation.png","null","","test","","","","","",""
"201.19999999552965","572198","pSARL_v2","pSARL_v207m4cy8z","5e38e79295ff561112eae457","freq","img/orange_2bandit_b2.png","70","70","test","1","130","130","6","",""
"null","572802","pSARL_v2","pSARL_v207m4cy8z","5e38e79295ff561112eae457","freq_resp","img/orange_2bandit_b.png","70","70","test","","","","6","",""
"null","572959","pSARL_v2","pSARL_v207m4cy8z","5e38e79295ff561112eae457","fixation","img/fixation.png","null","","test","","","","","",""
"268.09999999403954","573230","pSARL_v2","pSARL_v207m4cy8z","5e38e79295ff561112eae457","freq","img/orange_2bandit_b2.png","70","70","test","1","131","131","6","",""
"null","573774","pSARL_v2","pSARL_v207m4cy8z","5e38e79295ff561112eae457","freq_resp","img/orange_2bandit_b.png","70","70","test","","","","6","",""
"null","573928","pSARL_v2","pSARL_v207m4cy8z","5e38e79295ff561112eae457","fixation","img/fixation.png","null","","test","","","","","",""
"267.29999999701977","574198","pSARL_v2","pSARL_v207m4cy8z","5e38e79295ff561112eae457","freq","img/orange_2bandit_b2.png","70","70","test","1","132","132","6","",""
"null","574738","pSARL_v2","pSARL_v207m4cy8z","5e38e79295ff561112eae457","freq_resp","img/orange_2bandit_b.png","70","70","test","","","","6","",""
"null","574897","pSARL_v2","pSARL_v207m4cy8z","5e38e79295ff561112eae457","fixation","img/fixation.png","null","","test","","","","","",""
"258.5","575158","pSARL_v2","pSARL_v207m4cy8z","5e38e79295ff561112eae457","freq","img/orange_2bandit_b2.png","70","70","test","1","133","133","6","",""
"null","575713","pSARL_v2","pSARL_v207m4cy8z","5e38e79295ff561112eae457","freq_resp","img/orange_2bandit_b.png","70","70","test","","","","6","",""
"null","575868","pSARL_v2","pSARL_v207m4cy8z","5e38e79295ff561112eae457","fixation","img/fixation.png","null","","test","","","","","",""
"286.79999999701977","576158","pSARL_v2","pSARL_v207m4cy8z","5e38e79295ff561112eae457","freq","img/orange_2bandit_b2.png","70","70","test","1","134","134","6","",""
"null","576673","pSARL_v2","pSARL_v207m4cy8z","5e38e79295ff561112eae457","freq_resp","img/orange_2bandit_b.png","70","70","test","","","","6","",""
"null","576829","pSARL_v2","pSARL_v207m4cy8z","5e38e79295ff561112eae457","fixation","img/fixation.png","null","","test","","","","","",""
"293.6000000014901","577125","pSARL_v2","pSARL_v207m4cy8z","5e38e79295ff561112eae457","freq","img/orange_2bandit_b2.png","70","70","test","1","135","135","6","",""
"null","577648","pSARL_v2","pSARL_v207m4cy8z","5e38e79295ff561112eae457","freq_resp","img/orange_2bandit_b.png","70","70","test","","","","6","",""
"null","577805","pSARL_v2","pSARL_v207m4cy8z","5e38e79295ff561112eae457","fixation","img/fixation.png","null","","test","","","","","",""
"406.1000000014901","578213","pSARL_v2","pSARL_v207m4cy8z","5e38e79295ff561112eae457","reward","img/slot.png","74","","test","","","","","",""
"null","578969","pSARL_v2","pSARL_v207m4cy8z","5e38e79295ff561112eae457","points","<div class=""verylowPoints""> -7 </div>","null","na","test","","","","6","-7","5"
"322.5","579294","pSARL_v2","pSARL_v207m4cy8z","5e38e79295ff561112eae457","freq","img/orange_2bandit_b2.png","70","70","test","1","136","136","7","",""
"null","579774","pSARL_v2","pSARL_v207m4cy8z","5e38e79295ff561112eae457","freq_resp","img/orange_2bandit_b.png","70","70","test","","","","7","",""
"null","579932","pSARL_v2","pSARL_v207m4cy8z","5e38e79295ff561112eae457","fixation","img/fixation.png","null","","test","","","","","",""
"263","580198","pSARL_v2","pSARL_v207m4cy8z","5e38e79295ff561112eae457","freq","img/orange_2bandit_b2.png","70","70","test","1","137","137","7","",""
"null","580750","pSARL_v2","pSARL_v207m4cy8z","5e38e79295ff561112eae457","freq_resp","img/orange_2bandit_b.png","70","70","test","","","","7","",""
"null","580906","pSARL_v2","pSARL_v207m4cy8z","5e38e79295ff561112eae457","fixation","img/fixation.png","null","","test","","","","","",""
"281","581189","pSARL_v2","pSARL_v207m4cy8z","5e38e79295ff561112eae457","freq","img/orange_2bandit_b2.png","70","70","test","1","138","138","7","",""
"null","581727","pSARL_v2","pSARL_v207m4cy8z","5e38e79295ff561112eae457","freq_resp","img/orange_2bandit_b.png","70","70","test","","","","7","",""
"null","581884","pSARL_v2","pSARL_v207m4cy8z","5e38e79295ff561112eae457","fixation","img/fixation.png","null","","test","","","","","",""
"255.10000000149012","582141","pSARL_v2","pSARL_v207m4cy8z","5e38e79295ff561112eae457","freq","img/orange_2bandit_b2.png","70","70","test","1","139","139","7","",""
"null","582704","pSARL_v2","pSARL_v207m4cy8z","5e38e79295ff561112eae457","freq_resp","img/orange_2bandit_b.png","70","70","test","","","","7","",""
"null","582858","pSARL_v2","pSARL_v207m4cy8z","5e38e79295ff561112eae457","fixation","img/fixation.png","null","","test","","","","","",""
"321.5","583182","pSARL_v2","pSARL_v207m4cy8z","5e38e79295ff561112eae457","freq","img/orange_2bandit_b2.png","70","70","test","1","140","140","7","",""
"null","583670","pSARL_v2","pSARL_v207m4cy8z","5e38e79295ff561112eae457","freq_resp","img/orange_2bandit_b.png","70","70","test","","","","7","",""
"null","583835","pSARL_v2","pSARL_v207m4cy8z","5e38e79295ff561112eae457","fixation","img/fixation.png","null","","test","","","","","",""
"255.79999999701977","584093","pSARL_v2","pSARL_v207m4cy8z","5e38e79295ff561112eae457","freq","img/orange_2bandit_b2.png","70","70","test","1","141","141","7","",""
"null","584652","pSARL_v2","pSARL_v207m4cy8z","5e38e79295ff561112eae457","freq_resp","img/orange_2bandit_b.png","70","70","test","","","","7","",""
"null","584814","pSARL_v2","pSARL_v207m4cy8z","5e38e79295ff561112eae457","fixation","img/fixation.png","null","","test","","","","","",""
"316.70000000298023","585133","pSARL_v2","pSARL_v207m4cy8z","5e38e79295ff561112eae457","freq","img/orange_2bandit_b2.png","70","70","test","1","142","142","7","",""
"null","585624","pSARL_v2","pSARL_v207m4cy8z","5e38e79295ff561112eae457","freq_resp","img/orange_2bandit_b.png","70","70","test","","","","7","",""
"null","585783","pSARL_v2","pSARL_v207m4cy8z","5e38e79295ff561112eae457","fixation","img/fixation.png","null","","test","","","","","",""
"315","586102","pSARL_v2","pSARL_v207m4cy8z","5e38e79295ff561112eae457","freq","img/orange_2bandit_b2.png","70","70","test","1","143","143","7","",""
"null","586600","pSARL_v2","pSARL_v207m4cy8z","5e38e79295ff561112eae457","freq_resp","img/orange_2bandit_b.png","70","70","test","","","","7","",""
"null","586758","pSARL_v2","pSARL_v207m4cy8z","5e38e79295ff561112eae457","fixation","img/fixation.png","null","","test","","","","","",""
"397.69999999552965","587158","pSARL_v2","pSARL_v207m4cy8z","5e38e79295ff561112eae457","freq","img/orange_2bandit_b2.png","70","70","test","1","144","144","7","",""
"null","587573","pSARL_v2","pSARL_v207m4cy8z","5e38e79295ff561112eae457","freq_resp","img/orange_2bandit_b.png","70","70","test","","","","7","",""
"null","587730","pSARL_v2","pSARL_v207m4cy8z","5e38e79295ff561112eae457","fixation","img/fixation.png","null","","test","","","","","",""
"400.20000000298023","588133","pSARL_v2","pSARL_v207m4cy8z","5e38e79295ff561112eae457","freq","img/orange_2bandit_b2.png","70","70","test","1","145","145","7","",""
"null","588544","pSARL_v2","pSARL_v207m4cy8z","5e38e79295ff561112eae457","freq_resp","img/orange_2bandit_b.png","70","70","test","","","","7","",""
"null","588701","pSARL_v2","pSARL_v207m4cy8z","5e38e79295ff561112eae457","fixation","img/fixation.png","null","","test","","","","","",""
"381.70000000298023","589085","pSARL_v2","pSARL_v207m4cy8z","5e38e79295ff561112eae457","freq","img/orange_2bandit_b2.png","70","70","test","1","146","146","7","",""
"null","589515","pSARL_v2","pSARL_v207m4cy8z","5e38e79295ff561112eae457","freq_resp","img/orange_2bandit_b.png","70","70","test","","","","7","",""
"null","589670","pSARL_v2","pSARL_v207m4cy8z","5e38e79295ff561112eae457","fixation","img/fixation.png","null","","test","","","","","",""
"340.3999999985099","590013","pSARL_v2","pSARL_v207m4cy8z","5e38e79295ff561112eae457","freq","img/orange_2bandit_b2.png","70","70","test","1","147","147","7","",""
"null","590480","pSARL_v2","pSARL_v207m4cy8z","5e38e79295ff561112eae457","freq_resp","img/orange_2bandit_b.png","70","70","test","","","","7","",""
"null","590636","pSARL_v2","pSARL_v207m4cy8z","5e38e79295ff561112eae457","fixation","img/fixation.png","null","","test","","","","","",""
"278","590917","pSARL_v2","pSARL_v207m4cy8z","5e38e79295ff561112eae457","freq","img/orange_2bandit_b2.png","70","70","test","1","148","148","7","",""
"null","591443","pSARL_v2","pSARL_v207m4cy8z","5e38e79295ff561112eae457","freq_resp","img/orange_2bandit_b.png","70","70","test","","","","7","",""
"null","591601","pSARL_v2","pSARL_v207m4cy8z","5e38e79295ff561112eae457","fixation","img/fixation.png","null","","test","","","","","",""
"306.1000000014901","591909","pSARL_v2","pSARL_v207m4cy8z","5e38e79295ff561112eae457","freq","img/orange_2bandit_b2.png","70","70","test","1","149","149","7","",""
"null","592413","pSARL_v2","pSARL_v207m4cy8z","5e38e79295ff561112eae457","freq_resp","img/orange_2bandit_b.png","70","70","test","","","","7","",""
"null","592572","pSARL_v2","pSARL_v207m4cy8z","5e38e79295ff561112eae457","fixation","img/fixation.png","null","","test","","","","","",""
"414.6000000014901","592989","pSARL_v2","pSARL_v207m4cy8z","5e38e79295ff561112eae457","infreq","img/green_2bandit_b2.png","68","68","test","1","150","150","7","",""
"null","593384","pSARL_v2","pSARL_v207m4cy8z","5e38e79295ff561112eae457","infreq_resp","img/green_2bandit_b.png","68","68","test","","","","7","",""
"null","593542","pSARL_v2","pSARL_v207m4cy8z","5e38e79295ff561112eae457","fixation","img/fixation.png","null","","test","","","","","",""
"268.69999999552965","593813","pSARL_v2","pSARL_v207m4cy8z","5e38e79295ff561112eae457","freq","img/orange_2bandit_b2.png","70","70","test","1","151","151","7","",""
"null","594356","pSARL_v2","pSARL_v207m4cy8z","5e38e79295ff561112eae457","freq_resp","img/orange_2bandit_b.png","70","70","test","","","","7","",""
"null","594511","pSARL_v2","pSARL_v207m4cy8z","5e38e79295ff561112eae457","fixation","img/fixation.png","null","","test","","","","","",""
"243","594759","pSARL_v2","pSARL_v207m4cy8z","5e38e79295ff561112eae457","freq","img/orange_2bandit_b2.png","70","70","test","1","152","152","7","",""
"null","595320","pSARL_v2","pSARL_v207m4cy8z","5e38e79295ff561112eae457","freq_resp","img/orange_2bandit_b.png","70","70","test","","","","7","",""
"null","595476","pSARL_v2","pSARL_v207m4cy8z","5e38e79295ff561112eae457","fixation","img/fixation.png","null","","test","","","","","",""
"278","595757","pSARL_v2","pSARL_v207m4cy8z","5e38e79295ff561112eae457","freq","img/orange_2bandit_b2.png","70","70","test","1","153","153","7","",""
"null","596290","pSARL_v2","pSARL_v207m4cy8z","5e38e79295ff561112eae457","freq_resp","img/orange_2bandit_b.png","70","70","test","","","","7","",""
"null","596448","pSARL_v2","pSARL_v207m4cy8z","5e38e79295ff561112eae457","fixation","img/fixation.png","null","","test","","","","","",""
"282.30000000447035","596733","pSARL_v2","pSARL_v207m4cy8z","5e38e79295ff561112eae457","freq","img/orange_2bandit_b2.png","70","70","test","1","154","154","7","",""
"null","597262","pSARL_v2","pSARL_v207m4cy8z","5e38e79295ff561112eae457","freq_resp","img/orange_2bandit_b.png","70","70","test","","","","7","",""
"null","597421","pSARL_v2","pSARL_v207m4cy8z","5e38e79295ff561112eae457","fixation","img/fixation.png","null","","test","","","","","",""
"293.59999999403954","597717","pSARL_v2","pSARL_v207m4cy8z","5e38e79295ff561112eae457","freq","img/orange_2bandit_b2.png","70","70","test","1","155","155","7","",""
"null","598226","pSARL_v2","pSARL_v207m4cy8z","5e38e79295ff561112eae457","freq_resp","img/orange_2bandit_b.png","70","70","test","","","","7","",""
"null","598382","pSARL_v2","pSARL_v207m4cy8z","5e38e79295ff561112eae457","fixation","img/fixation.png","null","","test","","","","","",""
"307.79999999701977","598692","pSARL_v2","pSARL_v207m4cy8z","5e38e79295ff561112eae457","freq","img/orange_2bandit_b2.png","70","70","test","1","156","156","7","",""
"null","599194","pSARL_v2","pSARL_v207m4cy8z","5e38e79295ff561112eae457","freq_resp","img/orange_2bandit_b.png","70","70","test","","","","7","",""
"null","599353","pSARL_v2","pSARL_v207m4cy8z","5e38e79295ff561112eae457","fixation","img/fixation.png","null","","test","","","","","",""
"321.69999999552965","599677","pSARL_v2","pSARL_v207m4cy8z","5e38e79295ff561112eae457","infreq","img/green_2bandit_b2.png","68","68","test","1","157","157","7","",""
"null","600160","pSARL_v2","pSARL_v207m4cy8z","5e38e79295ff561112eae457","infreq_resp","img/green_2bandit_b.png","68","68","test","","","","7","",""
"null","600317","pSARL_v2","pSARL_v207m4cy8z","5e38e79295ff561112eae457","fixation","img/fixation.png","null","","test","","","","","",""
"164.80000000447035","600485","pSARL_v2","pSARL_v207m4cy8z","5e38e79295ff561112eae457","freq","img/orange_2bandit_b2.png","70","70","test","1","158","158","7","",""
"null","601125","pSARL_v2","pSARL_v207m4cy8z","5e38e79295ff561112eae457","freq_resp","img/orange_2bandit_b.png","70","70","test","","","","7","",""
"null","601284","pSARL_v2","pSARL_v207m4cy8z","5e38e79295ff561112eae457","fixation","img/fixation.png","null","","test","","","","","",""
"246.69999999552965","601533","pSARL_v2","pSARL_v207m4cy8z","5e38e79295ff561112eae457","freq","img/orange_2bandit_b2.png","70","70","test","1","159","159","7","",""
"null","602095","pSARL_v2","pSARL_v207m4cy8z","5e38e79295ff561112eae457","freq_resp","img/orange_2bandit_b.png","70","70","test","","","","7","",""
"null","602254","pSARL_v2","pSARL_v207m4cy8z","5e38e79295ff561112eae457","fixation","img/fixation.png","null","","test","","","","","",""
"444.29999999701977","602701","pSARL_v2","pSARL_v207m4cy8z","5e38e79295ff561112eae457","reward","img/slot.png","74","","test","","","","","",""
"null","603454","pSARL_v2","pSARL_v207m4cy8z","5e38e79295ff561112eae457","points","<div class=""verylowPoints""> -6 </div>","null","na","test","","","","7","-6","6"
"356.70000000298023","603813","pSARL_v2","pSARL_v207m4cy8z","5e38e79295ff561112eae457","freq","img/orange_2bandit_b2.png","70","70","test","1","160","160","8","",""
"null","604270","pSARL_v2","pSARL_v207m4cy8z","5e38e79295ff561112eae457","freq_resp","img/orange_2bandit_b.png","70","70","test","","","","8","",""
"null","604427","pSARL_v2","pSARL_v207m4cy8z","5e38e79295ff561112eae457","fixation","img/fixation.png","null","","test","","","","","",""
"351.1000000014901","604780","pSARL_v2","pSARL_v207m4cy8z","5e38e79295ff561112eae457","freq","img/orange_2bandit_b2.png","70","70","test","1","161","161","8","",""
"null","605246","pSARL_v2","pSARL_v207m4cy8z","5e38e79295ff561112eae457","freq_resp","img/orange_2bandit_b.png","70","70","test","","","","8","",""
"null","605406","pSARL_v2","pSARL_v207m4cy8z","5e38e79295ff561112eae457","fixation","img/fixation.png","null","","test","","","","","",""
"420.5","605829","pSARL_v2","pSARL_v207m4cy8z","5e38e79295ff561112eae457","infreq","img/green_2bandit_b2.png","68","68","test","1","162","162","8","",""
"null","606213","pSARL_v2","pSARL_v207m4cy8z","5e38e79295ff561112eae457","infreq_resp","img/green_2bandit_b.png","68","68","test","","","","8","",""
"null","606368","pSARL_v2","pSARL_v207m4cy8z","5e38e79295ff561112eae457","fixation","img/fixation.png","null","","test","","","","","",""
"241.90000000596046","606612","pSARL_v2","pSARL_v207m4cy8z","5e38e79295ff561112eae457","freq","img/orange_2bandit_b2.png","70","70","test","1","163","163","8","",""
"null","607182","pSARL_v2","pSARL_v207m4cy8z","5e38e79295ff561112eae457","freq_resp","img/orange_2bandit_b.png","70","70","test","","","","8","",""
"null","607340","pSARL_v2","pSARL_v207m4cy8z","5e38e79295ff561112eae457","fixation","img/fixation.png","null","","test","","","","","",""
"278.5","607621","pSARL_v2","pSARL_v207m4cy8z","5e38e79295ff561112eae457","freq","img/orange_2bandit_b2.png","70","70","test","1","164","164","8","",""
"null","608158","pSARL_v2","pSARL_v207m4cy8z","5e38e79295ff561112eae457","freq_resp","img/orange_2bandit_b.png","70","70","test","","","","8","",""
"null","608316","pSARL_v2","pSARL_v207m4cy8z","5e38e79295ff561112eae457","fixation","img/fixation.png","null","","test","","","","","",""
"253.20000000298023","608572","pSARL_v2","pSARL_v207m4cy8z","5e38e79295ff561112eae457","freq","img/orange_2bandit_b2.png","70","70","test","1","165","165","8","",""
"null","609127","pSARL_v2","pSARL_v207m4cy8z","5e38e79295ff561112eae457","freq_resp","img/orange_2bandit_b.png","70","70","test","","","","8","",""
"null","609282","pSARL_v2","pSARL_v207m4cy8z","5e38e79295ff561112eae457","fixation","img/fixation.png","null","","test","","","","","",""
"271.1000000014901","609556","pSARL_v2","pSARL_v207m4cy8z","5e38e79295ff561112eae457","freq","img/orange_2bandit_b2.png","70","70","test","1","166","166","8","",""
"null","610093","pSARL_v2","pSARL_v207m4cy8z","5e38e79295ff561112eae457","freq_resp","img/orange_2bandit_b.png","70","70","test","","","","8","",""
"null","610249","pSARL_v2","pSARL_v207m4cy8z","5e38e79295ff561112eae457","fixation","img/fixation.png","null","","test","","","","","",""
"351.8999999985099","610604","pSARL_v2","pSARL_v207m4cy8z","5e38e79295ff561112eae457","infreq","img/green_2bandit_b2.png","68","68","test","1","167","167","8","",""
"null","611056","pSARL_v2","pSARL_v207m4cy8z","5e38e79295ff561112eae457","infreq_resp","img/green_2bandit_b.png","68","68","test","","","","8","",""
"null","611217","pSARL_v2","pSARL_v207m4cy8z","5e38e79295ff561112eae457","fixation","img/fixation.png","null","","test","","","","","",""
"392.5","611612","pSARL_v2","pSARL_v207m4cy8z","5e38e79295ff561112eae457","infreq","img/green_2bandit_b2.png","68","68","test","1","168","168","8","",""
"null","612033","pSARL_v2","pSARL_v207m4cy8z","5e38e79295ff561112eae457","infreq_resp","img/green_2bandit_b.png","68","68","test","","","","8","",""
"null","612191","pSARL_v2","pSARL_v207m4cy8z","5e38e79295ff561112eae457","fixation","img/fixation.png","null","","test","","","","","",""
"321.79999999701977","612516","pSARL_v2","pSARL_v207m4cy8z","5e38e79295ff561112eae457","freq","img/orange_2bandit_b2.png","70","70","test","1","169","169","8","",""
"null","613007","pSARL_v2","pSARL_v207m4cy8z","5e38e79295ff561112eae457","freq_resp","img/orange_2bandit_b.png","70","70","test","","","","8","",""
"null","613164","pSARL_v2","pSARL_v207m4cy8z","5e38e79295ff561112eae457","fixation","img/fixation.png","null","","test","","","","","",""
"309.70000000298023","613477","pSARL_v2","pSARL_v207m4cy8z","5e38e79295ff561112eae457","freq","img/orange_2bandit_b2.png","70","70","test","1","170","170","8","",""
"null","613984","pSARL_v2","pSARL_v207m4cy8z","5e38e79295ff561112eae457","freq_resp","img/orange_2bandit_b.png","70","70","test","","","","8","",""
"null","614139","pSARL_v2","pSARL_v207m4cy8z","5e38e79295ff561112eae457","fixation","img/fixation.png","null","","test","","","","","",""
"270.3999999985099","614412","pSARL_v2","pSARL_v207m4cy8z","5e38e79295ff561112eae457","freq","img/orange_2bandit_b2.png","70","70","test","1","171","171","8","",""
"null","614946","pSARL_v2","pSARL_v207m4cy8z","5e38e79295ff561112eae457","freq_resp","img/orange_2bandit_b.png","70","70","test","","","","8","",""
"null","615102","pSARL_v2","pSARL_v207m4cy8z","5e38e79295ff561112eae457","fixation","img/fixation.png","null","","test","","","","","",""
"355.6000000014901","615460","pSARL_v2","pSARL_v207m4cy8z","5e38e79295ff561112eae457","freq","img/orange_2bandit_b2.png","70","70","test","1","172","172","8","",""
"null","615922","pSARL_v2","pSARL_v207m4cy8z","5e38e79295ff561112eae457","freq_resp","img/orange_2bandit_b.png","70","70","test","","","","8","",""
"null","616080","pSARL_v2","pSARL_v207m4cy8z","5e38e79295ff561112eae457","fixation","img/fixation.png","null","","test","","","","","",""
"298.19999999552965","616380","pSARL_v2","pSARL_v207m4cy8z","5e38e79295ff561112eae457","freq","img/orange_2bandit_b2.png","70","70","test","1","173","173","8","",""
"null","616896","pSARL_v2","pSARL_v207m4cy8z","5e38e79295ff561112eae457","freq_resp","img/orange_2bandit_b.png","70","70","test","","","","8","",""
"null","617054","pSARL_v2","pSARL_v207m4cy8z","5e38e79295ff561112eae457","fixation","img/fixation.png","null","","test","","","","","",""
"291.20000000298023","617348","pSARL_v2","pSARL_v207m4cy8z","5e38e79295ff561112eae457","freq","img/orange_2bandit_b2.png","70","70","test","1","174","174","8","",""
"null","617872","pSARL_v2","pSARL_v207m4cy8z","5e38e79295ff561112eae457","freq_resp","img/orange_2bandit_b.png","70","70","test","","","","8","",""
"null","618029","pSARL_v2","pSARL_v207m4cy8z","5e38e79295ff561112eae457","fixation","img/fixation.png","null","","test","","","","","",""
"277.1000000014901","618308","pSARL_v2","pSARL_v207m4cy8z","5e38e79295ff561112eae457","freq","img/orange_2bandit_b2.png","70","70","test","1","175","175","8","",""
"null","618842","pSARL_v2","pSARL_v207m4cy8z","5e38e79295ff561112eae457","freq_resp","img/orange_2bandit_b.png","70","70","test","","","","8","",""
"null","619002","pSARL_v2","pSARL_v207m4cy8z","5e38e79295ff561112eae457","fixation","img/fixation.png","null","","test","","","","","",""
"279.8999999985099","619284","pSARL_v2","pSARL_v207m4cy8z","5e38e79295ff561112eae457","freq","img/orange_2bandit_b2.png","70","70","test","1","176","176","8","",""
"null","619818","pSARL_v2","pSARL_v207m4cy8z","5e38e79295ff561112eae457","freq_resp","img/orange_2bandit_b.png","70","70","test","","","","8","",""
"null","619974","pSARL_v2","pSARL_v207m4cy8z","5e38e79295ff561112eae457","fixation","img/fixation.png","null","","test","","","","","",""
"267.29999999701977","620244","pSARL_v2","pSARL_v207m4cy8z","5e38e79295ff561112eae457","freq","img/orange_2bandit_b2.png","70","70","test","1","177","177","8","",""
"null","620792","pSARL_v2","pSARL_v207m4cy8z","5e38e79295ff561112eae457","freq_resp","img/orange_2bandit_b.png","70","70","test","","","","8","",""
"null","620949","pSARL_v2","pSARL_v207m4cy8z","5e38e79295ff561112eae457","fixation","img/fixation.png","null","","test","","","","","",""
"268.20000000298023","621220","pSARL_v2","pSARL_v207m4cy8z","5e38e79295ff561112eae457","freq","img/orange_2bandit_b2.png","70","70","test","1","178","178","8","",""
"null","621755","pSARL_v2","pSARL_v207m4cy8z","5e38e79295ff561112eae457","freq_resp","img/orange_2bandit_b.png","70","70","test","","","","8","",""
"null","621911","pSARL_v2","pSARL_v207m4cy8z","5e38e79295ff561112eae457","fixation","img/fixation.png","null","","test","","","","","",""
"290.5","622204","pSARL_v2","pSARL_v207m4cy8z","5e38e79295ff561112eae457","freq","img/orange_2bandit_b2.png","70","70","test","1","179","179","8","",""
"null","622729","pSARL_v2","pSARL_v207m4cy8z","5e38e79295ff561112eae457","freq_resp","img/orange_2bandit_b.png","70","70","test","","","","8","",""
"null","622888","pSARL_v2","pSARL_v207m4cy8z","5e38e79295ff561112eae457","fixation","img/fixation.png","null","","test","","","","","",""
"217.39999999850988","623108","pSARL_v2","pSARL_v207m4cy8z","5e38e79295ff561112eae457","freq","img/orange_2bandit_b2.png","70","70","test","1","180","180","8","",""
"null","623707","pSARL_v2","pSARL_v207m4cy8z","5e38e79295ff561112eae457","freq_resp","img/orange_2bandit_b.png","70","70","test","","","","8","",""
"null","623866","pSARL_v2","pSARL_v207m4cy8z","5e38e79295ff561112eae457","fixation","img/fixation.png","null","","test","","","","","",""
"263.3999999985099","624132","pSARL_v2","pSARL_v207m4cy8z","5e38e79295ff561112eae457","freq","img/orange_2bandit_b2.png","70","70","test","1","181","181","8","",""
"null","624673","pSARL_v2","pSARL_v207m4cy8z","5e38e79295ff561112eae457","freq_resp","img/orange_2bandit_b.png","70","70","test","","","","8","",""
"null","624829","pSARL_v2","pSARL_v207m4cy8z","5e38e79295ff561112eae457","fixation","img/fixation.png","null","","test","","","","","",""
"252.60000000149012","625084","pSARL_v2","pSARL_v207m4cy8z","5e38e79295ff561112eae457","freq","img/orange_2bandit_b2.png","70","70","test","1","182","182","8","",""
"null","625634","pSARL_v2","pSARL_v207m4cy8z","5e38e79295ff561112eae457","freq_resp","img/orange_2bandit_b.png","70","70","test","","","","8","",""
"null","625790","pSARL_v2","pSARL_v207m4cy8z","5e38e79295ff561112eae457","fixation","img/fixation.png","null","","test","","","","","",""
"523.2999999970198","626316","pSARL_v2","pSARL_v207m4cy8z","5e38e79295ff561112eae457","reward","img/slot.png","74","","test","","","","","",""
"null","627082","pSARL_v2","pSARL_v207m4cy8z","5e38e79295ff561112eae457","points","<div class=""verylowPoints""> -4 </div>","null","na","test","","","","8","-4","7"
"327.1000000014901","627412","pSARL_v2","pSARL_v207m4cy8z","5e38e79295ff561112eae457","freq","img/orange_2bandit_b2.png","70","70","test","1","183","183","9","",""
"null","627888","pSARL_v2","pSARL_v207m4cy8z","5e38e79295ff561112eae457","freq_resp","img/orange_2bandit_b.png","70","70","test","","","","9","",""
"null","628045","pSARL_v2","pSARL_v207m4cy8z","5e38e79295ff561112eae457","fixation","img/fixation.png","null","","test","","","","","",""
"300.09999999403954","628348","pSARL_v2","pSARL_v207m4cy8z","5e38e79295ff561112eae457","freq","img/orange_2bandit_b2.png","70","70","test","1","184","184","9","",""
"null","628854","pSARL_v2","pSARL_v207m4cy8z","5e38e79295ff561112eae457","freq_resp","img/orange_2bandit_b.png","70","70","test","","","","9","",""
"null","629010","pSARL_v2","pSARL_v207m4cy8z","5e38e79295ff561112eae457","fixation","img/fixation.png","null","","test","","","","","",""
"255.30000000447035","629267","pSARL_v2","pSARL_v207m4cy8z","5e38e79295ff561112eae457","freq","img/orange_2bandit_b2.png","70","70","test","1","185","185","9","",""
"null","629819","pSARL_v2","pSARL_v207m4cy8z","5e38e79295ff561112eae457","freq_resp","img/orange_2bandit_b.png","70","70","test","","","","9","",""
"null","629976","pSARL_v2","pSARL_v207m4cy8z","5e38e79295ff561112eae457","fixation","img/fixation.png","null","","test","","","","","",""
"266","630244","pSARL_v2","pSARL_v207m4cy8z","5e38e79295ff561112eae457","freq","img/orange_2bandit_b2.png","70","70","test","1","186","186","9","",""
"null","630787","pSARL_v2","pSARL_v207m4cy8z","5e38e79295ff561112eae457","freq_resp","img/orange_2bandit_b.png","70","70","test","","","","9","",""
"null","630942","pSARL_v2","pSARL_v207m4cy8z","5e38e79295ff561112eae457","fixation","img/fixation.png","null","","test","","","","","",""
"227.10000000149012","631171","pSARL_v2","pSARL_v207m4cy8z","5e38e79295ff561112eae457","freq","img/orange_2bandit_b2.png","70","70","test","1","187","187","9","",""
"null","631748","pSARL_v2","pSARL_v207m4cy8z","5e38e79295ff561112eae457","freq_resp","img/orange_2bandit_b.png","70","70","test","","","","9","",""
"null","631905","pSARL_v2","pSARL_v207m4cy8z","5e38e79295ff561112eae457","fixation","img/fixation.png","null","","test","","","","","",""
"376.6000000014901","632284","pSARL_v2","pSARL_v207m4cy8z","5e38e79295ff561112eae457","infreq","img/green_2bandit_b2.png","68","68","test","1","188","188","9","",""
"null","632723","pSARL_v2","pSARL_v207m4cy8z","5e38e79295ff561112eae457","infreq_resp","img/green_2bandit_b.png","68","68","test","","","","9","",""
"null","632879","pSARL_v2","pSARL_v207m4cy8z","5e38e79295ff561112eae457","fixation","img/fixation.png","null","","test","","","","","",""
"282","633163","pSARL_v2","pSARL_v207m4cy8z","5e38e79295ff561112eae457","freq","img/orange_2bandit_b2.png","70","70","test","1","189","189","9","",""
"null","633689","pSARL_v2","pSARL_v207m4cy8z","5e38e79295ff561112eae457","freq_resp","img/orange_2bandit_b.png","70","70","test","","","","9","",""
"null","633848","pSARL_v2","pSARL_v207m4cy8z","5e38e79295ff561112eae457","fixation","img/fixation.png","null","","test","","","","","",""
"281.80000000447035","634132","pSARL_v2","pSARL_v207m4cy8z","5e38e79295ff561112eae457","freq","img/orange_2bandit_b2.png","70","70","test","1","190","190","9","",""
"null","634656","pSARL_v2","pSARL_v207m4cy8z","5e38e79295ff561112eae457","freq_resp","img/orange_2bandit_b.png","70","70","test","","","","9","",""
"null","634814","pSARL_v2","pSARL_v207m4cy8z","5e38e79295ff561112eae457","fixation","img/fixation.png","null","","test","","","","","",""
"226.79999999701977","635043","pSARL_v2","pSARL_v207m4cy8z","5e38e79295ff561112eae457","freq","img/orange_2bandit_b2.png","70","70","test","1","191","191","9","",""
"null","635620","pSARL_v2","pSARL_v207m4cy8z","5e38e79295ff561112eae457","freq_resp","img/orange_2bandit_b.png","70","70","test","","","","9","",""
"null","635776","pSARL_v2","pSARL_v207m4cy8z","5e38e79295ff561112eae457","fixation","img/fixation.png","null","","test","","","","","",""
"120.5","635899","pSARL_v2","pSARL_v207m4cy8z","5e38e79295ff561112eae457","freq","img/orange_2bandit_b2.png","70","70","test","1","192","192","9","",""
"null","636595","pSARL_v2","pSARL_v207m4cy8z","5e38e79295ff561112eae457","freq_resp","img/orange_2bandit_b.png","70","70","test","","","","9","",""
"null","636750","pSARL_v2","pSARL_v207m4cy8z","5e38e79295ff561112eae457","fixation","img/fixation.png","null","","test","","","","","",""
"242.5","636995","pSARL_v2","pSARL_v207m4cy8z","5e38e79295ff561112eae457","freq","img/orange_2bandit_b2.png","70","70","test","1","193","193","9","",""
"null","637566","pSARL_v2","pSARL_v207m4cy8z","5e38e79295ff561112eae457","freq_resp","img/orange_2bandit_b.png","70","70","test","","","","9","",""
"null","637722","pSARL_v2","pSARL_v207m4cy8z","5e38e79295ff561112eae457","fixation","img/fixation.png","null","","test","","","","","",""
"271.6000000014901","637996","pSARL_v2","pSARL_v207m4cy8z","5e38e79295ff561112eae457","freq","img/orange_2bandit_b2.png","70","70","test","1","194","194","9","",""
"null","638537","pSARL_v2","pSARL_v207m4cy8z","5e38e79295ff561112eae457","freq_resp","img/orange_2bandit_b.png","70","70","test","","","","9","",""
"null","638691","pSARL_v2","pSARL_v207m4cy8z","5e38e79295ff561112eae457","fixation","img/fixation.png","null","","test","","","","","",""
"261.6000000014901","638955","pSARL_v2","pSARL_v207m4cy8z","5e38e79295ff561112eae457","freq","img/orange_2bandit_b2.png","70","70","test","1","195","195","9","",""
"null","639508","pSARL_v2","pSARL_v207m4cy8z","5e38e79295ff561112eae457","freq_resp","img/orange_2bandit_b.png","70","70","test","","","","9","",""
"null","639666","pSARL_v2","pSARL_v207m4cy8z","5e38e79295ff561112eae457","fixation","img/fixation.png","null","","test","","","","","",""
"270.30000000447035","639939","pSARL_v2","pSARL_v207m4cy8z","5e38e79295ff561112eae457","freq","img/orange_2bandit_b2.png","70","70","test","1","196","196","9","",""
"null","640482","pSARL_v2","pSARL_v207m4cy8z","5e38e79295ff561112eae457","freq_resp","img/orange_2bandit_b.png","70","70","test","","","","9","",""
"null","640636","pSARL_v2","pSARL_v207m4cy8z","5e38e79295ff561112eae457","fixation","img/fixation.png","null","","test","","","","","",""
"268.20000000298023","640907","pSARL_v2","pSARL_v207m4cy8z","5e38e79295ff561112eae457","freq","img/orange_2bandit_b2.png","70","70","test","1","197","197","9","",""
"null","641451","pSARL_v2","pSARL_v207m4cy8z","5e38e79295ff561112eae457","freq_resp","img/orange_2bandit_b.png","70","70","test","","","","9","",""
"null","641605","pSARL_v2","pSARL_v207m4cy8z","5e38e79295ff561112eae457","fixation","img/fixation.png","null","","test","","","","","",""
"252.09999999403954","641860","pSARL_v2","pSARL_v207m4cy8z","5e38e79295ff561112eae457","freq","img/orange_2bandit_b2.png","70","70","test","1","198","198","9","",""
"null","642425","pSARL_v2","pSARL_v207m4cy8z","5e38e79295ff561112eae457","freq_resp","img/orange_2bandit_b.png","70","70","test","","","","9","",""
"null","642581","pSARL_v2","pSARL_v207m4cy8z","5e38e79295ff561112eae457","fixation","img/fixation.png","null","","test","","","","","",""
"379.80000000447035","642963","pSARL_v2","pSARL_v207m4cy8z","5e38e79295ff561112eae457","infreq","img/green_2bandit_b2.png","68","68","test","1","199","199","9","",""
"null","643399","pSARL_v2","pSARL_v207m4cy8z","5e38e79295ff561112eae457","infreq_resp","img/green_2bandit_b.png","68","68","test","","","","9","",""
"null","643556","pSARL_v2","pSARL_v207m4cy8z","5e38e79295ff561112eae457","fixation","img/fixation.png","null","","test","","","","","",""
"309","643867","pSARL_v2","pSARL_v207m4cy8z","5e38e79295ff561112eae457","freq","img/orange_2bandit_b2.png","70","70","test","1","200","200","9","",""
"null","644363","pSARL_v2","pSARL_v207m4cy8z","5e38e79295ff561112eae457","freq_resp","img/orange_2bandit_b.png","70","70","test","","","","9","",""
"null","644521","pSARL_v2","pSARL_v207m4cy8z","5e38e79295ff561112eae457","fixation","img/fixation.png","null","","test","","","","","",""
"255.39999999850988","644779","pSARL_v2","pSARL_v207m4cy8z","5e38e79295ff561112eae457","freq","img/orange_2bandit_b2.png","70","70","test","1","201","201","9","",""
"null","645340","pSARL_v2","pSARL_v207m4cy8z","5e38e79295ff561112eae457","freq_resp","img/orange_2bandit_b.png","70","70","test","","","","9","",""
"null","645501","pSARL_v2","pSARL_v207m4cy8z","5e38e79295ff561112eae457","fixation","img/fixation.png","null","","test","","","","","",""
"251.70000000298023","645755","pSARL_v2","pSARL_v207m4cy8z","5e38e79295ff561112eae457","freq","img/orange_2bandit_b2.png","70","70","test","1","202","202","9","",""
"null","646318","pSARL_v2","pSARL_v207m4cy8z","5e38e79295ff561112eae457","freq_resp","img/orange_2bandit_b.png","70","70","test","","","","9","",""
"null","646475","pSARL_v2","pSARL_v207m4cy8z","5e38e79295ff561112eae457","fixation","img/fixation.png","null","","test","","","","","",""
"429.6000000014901","646907","pSARL_v2","pSARL_v207m4cy8z","5e38e79295ff561112eae457","reward","img/slot.png","74","","test","","","","","",""
"null","647667","pSARL_v2","pSARL_v207m4cy8z","5e38e79295ff561112eae457","points","<div class=""verylowPoints""> -3 </div>","null","na","test","","","","9","-3","8"
"333.3999999985099","648003","pSARL_v2","pSARL_v207m4cy8z","5e38e79295ff561112eae457","freq","img/orange_2bandit_b2.png","70","70","test","1","203","203","10","",""
"null","648479","pSARL_v2","pSARL_v207m4cy8z","5e38e79295ff561112eae457","freq_resp","img/orange_2bandit_b.png","70","70","test","","","","10","",""
"null","648637","pSARL_v2","pSARL_v207m4cy8z","5e38e79295ff561112eae457","fixation","img/fixation.png","null","","test","","","","","",""
"306.79999999701977","648947","pSARL_v2","pSARL_v207m4cy8z","5e38e79295ff561112eae457","freq","img/orange_2bandit_b2.png","70","70","test","1","204","204","10","",""
"null","649452","pSARL_v2","pSARL_v207m4cy8z","5e38e79295ff561112eae457","freq_resp","img/orange_2bandit_b.png","70","70","test","","","","10","",""
"null","649610","pSARL_v2","pSARL_v207m4cy8z","5e38e79295ff561112eae457","fixation","img/fixation.png","null","","test","","","","","",""
"310.6000000014901","649923","pSARL_v2","pSARL_v207m4cy8z","5e38e79295ff561112eae457","freq","img/orange_2bandit_b2.png","70","70","test","1","205","205","10","",""
