"rt","time_elapsed","expId","subject","prolificID","trialType","stimulus","key_press","corrresp","phase","corr","trialNum","attentionRunNum","blockNum","points","rlNum"
"4808.199999988079","4821","pSARL_v2","pSARL_v20m4jwt1c","6108bae61196a3bd6fc3a24b","","","","","","","","","","",""
"","7399","pSARL_v2","pSARL_v20m4jwt1c","6108bae61196a3bd6fc3a24b","fullscreen","","","","","","","","","",""
"48527.5","55929","pSARL_v2","pSARL_v20m4jwt1c","6108bae61196a3bd6fc3a24b","","","","","","","","","","",""
"null","56740","pSARL_v2","pSARL_v20m4jwt1c","6108bae61196a3bd6fc3a24b","freqPrac","img/orange_2bandit_a2.png","null","70","prac","0","","","","",""
"null","57748","pSARL_v2","pSARL_v20m4jwt1c","6108bae61196a3bd6fc3a24b","feedback","img/tooSlow.png","null","na","prac","","","","","",""
"null","57909","pSARL_v2","pSARL_v20m4jwt1c","6108bae61196a3bd6fc3a24b","fixation","img/fixation.png","null","","prac","","","","","",""
"null","58716","pSARL_v2","pSARL_v20m4jwt1c","6108bae61196a3bd6fc3a24b","infreqPrac","img/green_2bandit_a2.png","null","68","prac","0","","","","",""
"null","59724","pSARL_v2","pSARL_v20m4jwt1c","6108bae61196a3bd6fc3a24b","feedback","img/tooSlow.png","null","na","prac","","","","","",""
"null","59887","pSARL_v2","pSARL_v20m4jwt1c","6108bae61196a3bd6fc3a24b","fixation","img/fixation.png","null","","prac","","","","","",""
"433.5","60325","pSARL_v2","pSARL_v20m4jwt1c","6108bae61196a3bd6fc3a24b","freqPrac","img/orange_2bandit_a2.png","70","70","prac","1","","","","",""
"433.5","60700","pSARL_v2","pSARL_v20m4jwt1c","6108bae61196a3bd6fc3a24b","freqPrac_resp","img/orange_2bandit_a.png","70","70","prac","","","","","",""
"null","60860","pSARL_v2","pSARL_v20m4jwt1c","6108bae61196a3bd6fc3a24b","fixation","img/fixation.png","null","","prac","","","","","",""
"453.60000002384186","61318","pSARL_v2","pSARL_v20m4jwt1c","6108bae61196a3bd6fc3a24b","infreqPrac","img/green_2bandit_a2.png","68","68","prac","1","","","","",""
"453.60000002384186","61676","pSARL_v2","pSARL_v20m4jwt1c","6108bae61196a3bd6fc3a24b","infreqPrac_resp","img/green_2bandit_a.png","68","68","prac","","","","","",""
"null","61836","pSARL_v2","pSARL_v20m4jwt1c","6108bae61196a3bd6fc3a24b","fixation","img/fixation.png","null","","prac","","","","","",""
"423.4000000357628","62264","pSARL_v2","pSARL_v20m4jwt1c","6108bae61196a3bd6fc3a24b","infreqPrac","img/green_2bandit_a2.png","68","68","prac","1","","","","",""
"423.4000000357628","62654","pSARL_v2","pSARL_v20m4jwt1c","6108bae61196a3bd6fc3a24b","infreqPrac_resp","img/green_2bandit_a.png","68","68","prac","","","","","",""
"null","62812","pSARL_v2","pSARL_v20m4jwt1c","6108bae61196a3bd6fc3a24b","fixation","img/fixation.png","null","","prac","","","","","",""
"387.69999998807907","63204","pSARL_v2","pSARL_v20m4jwt1c","6108bae61196a3bd6fc3a24b","infreqPrac","img/green_2bandit_a2.png","68","68","prac","1","","","","",""
"387.69999998807907","63627","pSARL_v2","pSARL_v20m4jwt1c","6108bae61196a3bd6fc3a24b","infreqPrac_resp","img/green_2bandit_a.png","68","68","prac","","","","","",""
"null","63787","pSARL_v2","pSARL_v20m4jwt1c","6108bae61196a3bd6fc3a24b","fixation","img/fixation.png","null","","prac","","","","","",""
"339.69999998807907","64131","pSARL_v2","pSARL_v20m4jwt1c","6108bae61196a3bd6fc3a24b","freqPrac","img/orange_2bandit_a2.png","70","70","prac","1","","","","",""
"339.69999998807907","64603","pSARL_v2","pSARL_v20m4jwt1c","6108bae61196a3bd6fc3a24b","freqPrac_resp","img/orange_2bandit_a.png","70","70","prac","","","","","",""
"null","64763","pSARL_v2","pSARL_v20m4jwt1c","6108bae61196a3bd6fc3a24b","fixation","img/fixation.png","null","","prac","","","","","",""
"340.7000000476837","65108","pSARL_v2","pSARL_v20m4jwt1c","6108bae61196a3bd6fc3a24b","infreqPrac","img/green_2bandit_a2.png","68","68","prac","1","","","","",""
"340.7000000476837","65579","pSARL_v2","pSARL_v20m4jwt1c","6108bae61196a3bd6fc3a24b","infreqPrac_resp","img/green_2bandit_a.png","68","68","prac","","","","","",""
"null","65739","pSARL_v2","pSARL_v20m4jwt1c","6108bae61196a3bd6fc3a24b","fixation","img/fixation.png","null","","prac","","","","","",""
"496.80000001192093","66241","pSARL_v2","pSARL_v20m4jwt1c","6108bae61196a3bd6fc3a24b","freqPrac","img/orange_2bandit_a2.png","70","70","prac","1","","","","",""
"496.80000001192093","66556","pSARL_v2","pSARL_v20m4jwt1c","6108bae61196a3bd6fc3a24b","freqPrac_resp","img/orange_2bandit_a.png","70","70","prac","","","","","",""
"null","66717","pSARL_v2","pSARL_v20m4jwt1c","6108bae61196a3bd6fc3a24b","fixation","img/fixation.png","null","","prac","","","","","",""
"472.9000000357628","67195","pSARL_v2","pSARL_v20m4jwt1c","6108bae61196a3bd6fc3a24b","freqPrac","img/orange_2bandit_a2.png","70","70","prac","1","","","","",""
"472.9000000357628","67530","pSARL_v2","pSARL_v20m4jwt1c","6108bae61196a3bd6fc3a24b","freqPrac_resp","img/orange_2bandit_a.png","70","70","prac","","","","","",""
"null","67692","pSARL_v2","pSARL_v20m4jwt1c","6108bae61196a3bd6fc3a24b","fixation","img/fixation.png","null","","prac","","","","","",""
"13981","81676","pSARL_v2","pSARL_v20m4jwt1c","6108bae61196a3bd6fc3a24b","","","","","prac","","","","","",""
"1413.800000011921","83095","pSARL_v2","pSARL_v20m4jwt1c","6108bae61196a3bd6fc3a24b","rewardPractice","img/slot.png","74","","prac","","","","","",""
"null","83858","pSARL_v2","pSARL_v20m4jwt1c","6108bae61196a3bd6fc3a24b","feedback","<div class=""veryhighPoints""> +15 </div>","null","na","prac","","","","","",""
"null","84018","pSARL_v2","pSARL_v20m4jwt1c","6108bae61196a3bd6fc3a24b","fixation","img/fixation.png","null","","prac","","","","","",""
"6636.399999976158","90658","pSARL_v2","pSARL_v20m4jwt1c","6108bae61196a3bd6fc3a24b","","","","","prac","","","","","",""
"422.5","91085","pSARL_v2","pSARL_v20m4jwt1c","6108bae61196a3bd6fc3a24b","freq","img/orange_2bandit_a2.png","70","70","test","1","1","1","1","",""
"null","91473","pSARL_v2","pSARL_v20m4jwt1c","6108bae61196a3bd6fc3a24b","freq_resp","img/orange_2bandit_a.png","70","70","test","","","","1","",""
"null","91633","pSARL_v2","pSARL_v20m4jwt1c","6108bae61196a3bd6fc3a24b","fixation","img/fixation.png","null","","test","","","","","",""
"433.5","92071","pSARL_v2","pSARL_v20m4jwt1c","6108bae61196a3bd6fc3a24b","freq","img/orange_2bandit_a2.png","70","70","test","1","2","2","1","",""
"null","92452","pSARL_v2","pSARL_v20m4jwt1c","6108bae61196a3bd6fc3a24b","freq_resp","img/orange_2bandit_a.png","70","70","test","","","","1","",""
"null","92610","pSARL_v2","pSARL_v20m4jwt1c","6108bae61196a3bd6fc3a24b","fixation","img/fixation.png","null","","test","","","","","",""
"475.30000001192093","93090","pSARL_v2","pSARL_v20m4jwt1c","6108bae61196a3bd6fc3a24b","infreq","img/green_2bandit_a2.png","68","68","test","1","3","3","1","",""
"null","93426","pSARL_v2","pSARL_v20m4jwt1c","6108bae61196a3bd6fc3a24b","infreq_resp","img/green_2bandit_a.png","68","68","test","","","","1","",""
"null","93586","pSARL_v2","pSARL_v20m4jwt1c","6108bae61196a3bd6fc3a24b","fixation","img/fixation.png","null","","test","","","","","",""
"665.1999999880791","94256","pSARL_v2","pSARL_v20m4jwt1c","6108bae61196a3bd6fc3a24b","freq","img/orange_2bandit_a2.png","70","70","test","1","4","4","1","",""
"null","94402","pSARL_v2","pSARL_v20m4jwt1c","6108bae61196a3bd6fc3a24b","freq_resp","img/orange_2bandit_a.png","70","70","test","","","","1","",""
"null","94561","pSARL_v2","pSARL_v20m4jwt1c","6108bae61196a3bd6fc3a24b","fixation","img/fixation.png","null","","test","","","","","",""
"421.60000002384186","94987","pSARL_v2","pSARL_v20m4jwt1c","6108bae61196a3bd6fc3a24b","freq","img/orange_2bandit_a2.png","70","70","test","1","5","5","1","",""
"null","95377","pSARL_v2","pSARL_v20m4jwt1c","6108bae61196a3bd6fc3a24b","freq_resp","img/orange_2bandit_a.png","70","70","test","","","","1","",""
"null","95538","pSARL_v2","pSARL_v20m4jwt1c","6108bae61196a3bd6fc3a24b","fixation","img/fixation.png","null","","test","","","","","",""
"429.10000002384186","95972","pSARL_v2","pSARL_v20m4jwt1c","6108bae61196a3bd6fc3a24b","freq","img/orange_2bandit_a2.png","70","70","test","1","6","6","1","",""
"null","96354","pSARL_v2","pSARL_v20m4jwt1c","6108bae61196a3bd6fc3a24b","freq_resp","img/orange_2bandit_a.png","70","70","test","","","","1","",""
"null","96514","pSARL_v2","pSARL_v20m4jwt1c","6108bae61196a3bd6fc3a24b","fixation","img/fixation.png","null","","test","","","","","",""
"418","96936","pSARL_v2","pSARL_v20m4jwt1c","6108bae61196a3bd6fc3a24b","freq","img/orange_2bandit_a2.png","70","70","test","1","7","7","1","",""
"null","97329","pSARL_v2","pSARL_v20m4jwt1c","6108bae61196a3bd6fc3a24b","freq_resp","img/orange_2bandit_a.png","70","70","test","","","","1","",""
"null","97490","pSARL_v2","pSARL_v20m4jwt1c","6108bae61196a3bd6fc3a24b","fixation","img/fixation.png","null","","test","","","","","",""
"357.9000000357628","97853","pSARL_v2","pSARL_v20m4jwt1c","6108bae61196a3bd6fc3a24b","freq","img/orange_2bandit_a2.png","70","70","test","1","8","8","1","",""
"null","98307","pSARL_v2","pSARL_v20m4jwt1c","6108bae61196a3bd6fc3a24b","freq_resp","img/orange_2bandit_a.png","70","70","test","","","","1","",""
"null","98467","pSARL_v2","pSARL_v20m4jwt1c","6108bae61196a3bd6fc3a24b","fixation","img/fixation.png","null","","test","","","","","",""
"338.7000000476837","98810","pSARL_v2","pSARL_v20m4jwt1c","6108bae61196a3bd6fc3a24b","freq","img/orange_2bandit_a2.png","70","70","test","1","9","9","1","",""
"null","99281","pSARL_v2","pSARL_v20m4jwt1c","6108bae61196a3bd6fc3a24b","freq_resp","img/orange_2bandit_a.png","70","70","test","","","","1","",""
"null","99442","pSARL_v2","pSARL_v20m4jwt1c","6108bae61196a3bd6fc3a24b","fixation","img/fixation.png","null","","test","","","","","",""
"398.60000002384186","99845","pSARL_v2","pSARL_v20m4jwt1c","6108bae61196a3bd6fc3a24b","freq","img/orange_2bandit_a2.png","70","70","test","1","10","10","1","",""
"null","100258","pSARL_v2","pSARL_v20m4jwt1c","6108bae61196a3bd6fc3a24b","freq_resp","img/orange_2bandit_a.png","70","70","test","","","","1","",""
"null","100417","pSARL_v2","pSARL_v20m4jwt1c","6108bae61196a3bd6fc3a24b","fixation","img/fixation.png","null","","test","","","","","",""
"355.10000002384186","100777","pSARL_v2","pSARL_v20m4jwt1c","6108bae61196a3bd6fc3a24b","freq","img/orange_2bandit_a2.png","70","70","test","1","11","11","1","",""
"null","101233","pSARL_v2","pSARL_v20m4jwt1c","6108bae61196a3bd6fc3a24b","freq_resp","img/orange_2bandit_a.png","70","70","test","","","","1","",""
"null","101392","pSARL_v2","pSARL_v20m4jwt1c","6108bae61196a3bd6fc3a24b","fixation","img/fixation.png","null","","test","","","","","",""
"332.60000002384186","101729","pSARL_v2","pSARL_v20m4jwt1c","6108bae61196a3bd6fc3a24b","freq","img/orange_2bandit_a2.png","70","70","test","1","12","12","1","",""
"null","102209","pSARL_v2","pSARL_v20m4jwt1c","6108bae61196a3bd6fc3a24b","freq_resp","img/orange_2bandit_a.png","70","70","test","","","","1","",""
"null","102370","pSARL_v2","pSARL_v20m4jwt1c","6108bae61196a3bd6fc3a24b","fixation","img/fixation.png","null","","test","","","","","",""
"375.39999997615814","102750","pSARL_v2","pSARL_v20m4jwt1c","6108bae61196a3bd6fc3a24b","infreq","img/green_2bandit_a2.png","68","68","test","1","13","13","1","",""
"null","103185","pSARL_v2","pSARL_v20m4jwt1c","6108bae61196a3bd6fc3a24b","infreq_resp","img/green_2bandit_a.png","68","68","test","","","","1","",""
"null","103348","pSARL_v2","pSARL_v20m4jwt1c","6108bae61196a3bd6fc3a24b","fixation","img/fixation.png","null","","test","","","","","",""
"396.5","103749","pSARL_v2","pSARL_v20m4jwt1c","6108bae61196a3bd6fc3a24b","freq","img/orange_2bandit_a2.png","70","70","test","1","14","14","1","",""
"null","104162","pSARL_v2","pSARL_v20m4jwt1c","6108bae61196a3bd6fc3a24b","freq_resp","img/orange_2bandit_a.png","70","70","test","","","","1","",""
"null","104322","pSARL_v2","pSARL_v20m4jwt1c","6108bae61196a3bd6fc3a24b","fixation","img/fixation.png","null","","test","","","","","",""
"429.2000000476837","104756","pSARL_v2","pSARL_v20m4jwt1c","6108bae61196a3bd6fc3a24b","freq","img/orange_2bandit_a2.png","70","70","test","1","15","15","1","",""
"null","105138","pSARL_v2","pSARL_v20m4jwt1c","6108bae61196a3bd6fc3a24b","freq_resp","img/orange_2bandit_a.png","70","70","test","","","","1","",""
"null","105298","pSARL_v2","pSARL_v20m4jwt1c","6108bae61196a3bd6fc3a24b","fixation","img/fixation.png","null","","test","","","","","",""
"387.19999998807907","105689","pSARL_v2","pSARL_v20m4jwt1c","6108bae61196a3bd6fc3a24b","freq","img/orange_2bandit_a2.png","70","70","test","1","16","16","1","",""
"null","106113","pSARL_v2","pSARL_v20m4jwt1c","6108bae61196a3bd6fc3a24b","freq_resp","img/orange_2bandit_a.png","70","70","test","","","","1","",""
"null","106274","pSARL_v2","pSARL_v20m4jwt1c","6108bae61196a3bd6fc3a24b","fixation","img/fixation.png","null","","test","","","","","",""
"361","106639","pSARL_v2","pSARL_v20m4jwt1c","6108bae61196a3bd6fc3a24b","freq","img/orange_2bandit_a2.png","70","70","test","1","17","17","1","",""
"null","107089","pSARL_v2","pSARL_v20m4jwt1c","6108bae61196a3bd6fc3a24b","freq_resp","img/orange_2bandit_a.png","70","70","test","","","","1","",""
"null","107249","pSARL_v2","pSARL_v20m4jwt1c","6108bae61196a3bd6fc3a24b","fixation","img/fixation.png","null","","test","","","","","",""
"312.10000002384186","107566","pSARL_v2","pSARL_v20m4jwt1c","6108bae61196a3bd6fc3a24b","freq","img/orange_2bandit_a2.png","70","70","test","1","18","18","1","",""
"null","108065","pSARL_v2","pSARL_v20m4jwt1c","6108bae61196a3bd6fc3a24b","freq_resp","img/orange_2bandit_a.png","70","70","test","","","","1","",""
"null","108225","pSARL_v2","pSARL_v20m4jwt1c","6108bae61196a3bd6fc3a24b","fixation","img/fixation.png","null","","test","","","","","",""
"364.60000002384186","108594","pSARL_v2","pSARL_v20m4jwt1c","6108bae61196a3bd6fc3a24b","freq","img/orange_2bandit_a2.png","70","70","test","1","19","19","1","",""
"null","109041","pSARL_v2","pSARL_v20m4jwt1c","6108bae61196a3bd6fc3a24b","freq_resp","img/orange_2bandit_a.png","70","70","test","","","","1","",""
"null","109202","pSARL_v2","pSARL_v20m4jwt1c","6108bae61196a3bd6fc3a24b","fixation","img/fixation.png","null","","test","","","","","",""
"1411.1000000238419","110617","pSARL_v2","pSARL_v20m4jwt1c","6108bae61196a3bd6fc3a24b","reward","img/slot.png","74","","test","","","","","",""
"null","111377","pSARL_v2","pSARL_v20m4jwt1c","6108bae61196a3bd6fc3a24b","points","<div class=""verylowPoints""> -6 </div>","null","na","test","","","","1","-6","0"
"575.8000000119209","111958","pSARL_v2","pSARL_v20m4jwt1c","6108bae61196a3bd6fc3a24b","freq","img/orange_2bandit_a2.png","70","70","test","1","20","20","2","",""
"null","112192","pSARL_v2","pSARL_v20m4jwt1c","6108bae61196a3bd6fc3a24b","freq_resp","img/orange_2bandit_a.png","70","70","test","","","","2","",""
"null","112354","pSARL_v2","pSARL_v20m4jwt1c","6108bae61196a3bd6fc3a24b","fixation","img/fixation.png","null","","test","","","","","",""
"449","112807","pSARL_v2","pSARL_v20m4jwt1c","6108bae61196a3bd6fc3a24b","freq","img/orange_2bandit_a2.png","70","70","test","1","21","21","2","",""
"null","113170","pSARL_v2","pSARL_v20m4jwt1c","6108bae61196a3bd6fc3a24b","freq_resp","img/orange_2bandit_a.png","70","70","test","","","","2","",""
"null","113329","pSARL_v2","pSARL_v20m4jwt1c","6108bae61196a3bd6fc3a24b","fixation","img/fixation.png","null","","test","","","","","",""
"324.4000000357628","113658","pSARL_v2","pSARL_v20m4jwt1c","6108bae61196a3bd6fc3a24b","freq","img/orange_2bandit_a2.png","70","70","test","1","22","22","2","",""
"null","114146","pSARL_v2","pSARL_v20m4jwt1c","6108bae61196a3bd6fc3a24b","freq_resp","img/orange_2bandit_a.png","70","70","test","","","","2","",""
"null","114304","pSARL_v2","pSARL_v20m4jwt1c","6108bae61196a3bd6fc3a24b","fixation","img/fixation.png","null","","test","","","","","",""
"327.2999999523163","114638","pSARL_v2","pSARL_v20m4jwt1c","6108bae61196a3bd6fc3a24b","freq","img/orange_2bandit_a2.png","70","70","test","1","23","23","2","",""
"null","115120","pSARL_v2","pSARL_v20m4jwt1c","6108bae61196a3bd6fc3a24b","freq_resp","img/orange_2bandit_a.png","70","70","test","","","","2","",""
"null","115281","pSARL_v2","pSARL_v20m4jwt1c","6108bae61196a3bd6fc3a24b","fixation","img/fixation.png","null","","test","","","","","",""
"419.39999997615814","115705","pSARL_v2","pSARL_v20m4jwt1c","6108bae61196a3bd6fc3a24b","freq","img/orange_2bandit_a2.png","70","70","test","1","24","24","2","",""
"null","116097","pSARL_v2","pSARL_v20m4jwt1c","6108bae61196a3bd6fc3a24b","freq_resp","img/orange_2bandit_a.png","70","70","test","","","","2","",""
"null","116257","pSARL_v2","pSARL_v20m4jwt1c","6108bae61196a3bd6fc3a24b","fixation","img/fixation.png","null","","test","","","","","",""
"323.9000000357628","116585","pSARL_v2","pSARL_v20m4jwt1c","6108bae61196a3bd6fc3a24b","freq","img/orange_2bandit_a2.png","70","70","test","1","25","25","2","",""
"null","117073","pSARL_v2","pSARL_v20m4jwt1c","6108bae61196a3bd6fc3a24b","freq_resp","img/orange_2bandit_a.png","70","70","test","","","","2","",""
"null","117233","pSARL_v2","pSARL_v20m4jwt1c","6108bae61196a3bd6fc3a24b","fixation","img/fixation.png","null","","test","","","","","",""
"308.10000002384186","117546","pSARL_v2","pSARL_v20m4jwt1c","6108bae61196a3bd6fc3a24b","freq","img/orange_2bandit_a2.png","70","70","test","1","26","26","2","",""
"null","118049","pSARL_v2","pSARL_v20m4jwt1c","6108bae61196a3bd6fc3a24b","freq_resp","img/orange_2bandit_a.png","70","70","test","","","","2","",""
"null","118209","pSARL_v2","pSARL_v20m4jwt1c","6108bae61196a3bd6fc3a24b","fixation","img/fixation.png","null","","test","","","","","",""
"380.80000001192093","118594","pSARL_v2","pSARL_v20m4jwt1c","6108bae61196a3bd6fc3a24b","freq","img/orange_2bandit_a2.png","70","70","test","1","27","27","2","",""
"null","119025","pSARL_v2","pSARL_v20m4jwt1c","6108bae61196a3bd6fc3a24b","freq_resp","img/orange_2bandit_a.png","70","70","test","","","","2","",""
"null","119185","pSARL_v2","pSARL_v20m4jwt1c","6108bae61196a3bd6fc3a24b","fixation","img/fixation.png","null","","test","","","","","",""
"327.69999998807907","119517","pSARL_v2","pSARL_v20m4jwt1c","6108bae61196a3bd6fc3a24b","freq","img/orange_2bandit_a2.png","70","70","test","1","28","28","2","",""
"null","120000","pSARL_v2","pSARL_v20m4jwt1c","6108bae61196a3bd6fc3a24b","freq_resp","img/orange_2bandit_a.png","70","70","test","","","","2","",""
"null","120160","pSARL_v2","pSARL_v20m4jwt1c","6108bae61196a3bd6fc3a24b","fixation","img/fixation.png","null","","test","","","","","",""
"424.5","120589","pSARL_v2","pSARL_v20m4jwt1c","6108bae61196a3bd6fc3a24b","freq","img/orange_2bandit_a2.png","70","70","test","1","29","29","2","",""
"null","120976","pSARL_v2","pSARL_v20m4jwt1c","6108bae61196a3bd6fc3a24b","freq_resp","img/orange_2bandit_a.png","70","70","test","","","","2","",""
"null","121137","pSARL_v2","pSARL_v20m4jwt1c","6108bae61196a3bd6fc3a24b","fixation","img/fixation.png","null","","test","","","","","",""
"370.7999999523163","121512","pSARL_v2","pSARL_v20m4jwt1c","6108bae61196a3bd6fc3a24b","freq","img/orange_2bandit_a2.png","70","70","test","1","30","30","2","",""
"null","121952","pSARL_v2","pSARL_v20m4jwt1c","6108bae61196a3bd6fc3a24b","freq_resp","img/orange_2bandit_a.png","70","70","test","","","","2","",""
"null","122113","pSARL_v2","pSARL_v20m4jwt1c","6108bae61196a3bd6fc3a24b","fixation","img/fixation.png","null","","test","","","","","",""
"312.0999999642372","122430","pSARL_v2","pSARL_v20m4jwt1c","6108bae61196a3bd6fc3a24b","freq","img/orange_2bandit_a2.png","70","70","test","1","31","31","2","",""
"null","122930","pSARL_v2","pSARL_v20m4jwt1c","6108bae61196a3bd6fc3a24b","freq_resp","img/orange_2bandit_a.png","70","70","test","","","","2","",""
"null","123090","pSARL_v2","pSARL_v20m4jwt1c","6108bae61196a3bd6fc3a24b","fixation","img/fixation.png","null","","test","","","","","",""
"282.5","123377","pSARL_v2","pSARL_v20m4jwt1c","6108bae61196a3bd6fc3a24b","freq","img/orange_2bandit_a2.png","70","70","test","1","32","32","2","",""
"null","123904","pSARL_v2","pSARL_v20m4jwt1c","6108bae61196a3bd6fc3a24b","freq_resp","img/orange_2bandit_a.png","70","70","test","","","","2","",""
"null","124067","pSARL_v2","pSARL_v20m4jwt1c","6108bae61196a3bd6fc3a24b","fixation","img/fixation.png","null","","test","","","","","",""
"515.0999999642372","124586","pSARL_v2","pSARL_v20m4jwt1c","6108bae61196a3bd6fc3a24b","infreq","img/green_2bandit_a2.png","68","68","test","1","33","33","2","",""
"null","124880","pSARL_v2","pSARL_v20m4jwt1c","6108bae61196a3bd6fc3a24b","infreq_resp","img/green_2bandit_a.png","68","68","test","","","","2","",""
"null","125041","pSARL_v2","pSARL_v20m4jwt1c","6108bae61196a3bd6fc3a24b","fixation","img/fixation.png","null","","test","","","","","",""
"404.69999998807907","125450","pSARL_v2","pSARL_v20m4jwt1c","6108bae61196a3bd6fc3a24b","freq","img/orange_2bandit_a2.png","70","70","test","1","34","34","2","",""
"null","125856","pSARL_v2","pSARL_v20m4jwt1c","6108bae61196a3bd6fc3a24b","freq_resp","img/orange_2bandit_a.png","70","70","test","","","","2","",""
"null","126016","pSARL_v2","pSARL_v20m4jwt1c","6108bae61196a3bd6fc3a24b","fixation","img/fixation.png","null","","test","","","","","",""
"399.39999997615814","126420","pSARL_v2","pSARL_v20m4jwt1c","6108bae61196a3bd6fc3a24b","freq","img/orange_2bandit_a2.png","70","70","test","1","35","35","2","",""
"null","126833","pSARL_v2","pSARL_v20m4jwt1c","6108bae61196a3bd6fc3a24b","freq_resp","img/orange_2bandit_a.png","70","70","test","","","","2","",""
"null","126993","pSARL_v2","pSARL_v20m4jwt1c","6108bae61196a3bd6fc3a24b","fixation","img/fixation.png","null","","test","","","","","",""
"528.8000000119209","127526","pSARL_v2","pSARL_v20m4jwt1c","6108bae61196a3bd6fc3a24b","freq","img/orange_2bandit_a2.png","70","70","test","1","36","36","2","",""
"null","127808","pSARL_v2","pSARL_v20m4jwt1c","6108bae61196a3bd6fc3a24b","freq_resp","img/orange_2bandit_a.png","70","70","test","","","","2","",""
"null","127968","pSARL_v2","pSARL_v20m4jwt1c","6108bae61196a3bd6fc3a24b","fixation","img/fixation.png","null","","test","","","","","",""
"353.30000001192093","128326","pSARL_v2","pSARL_v20m4jwt1c","6108bae61196a3bd6fc3a24b","freq","img/orange_2bandit_a2.png","70","70","test","1","37","37","2","",""
"null","128784","pSARL_v2","pSARL_v20m4jwt1c","6108bae61196a3bd6fc3a24b","freq_resp","img/orange_2bandit_a.png","70","70","test","","","","2","",""
"null","128944","pSARL_v2","pSARL_v20m4jwt1c","6108bae61196a3bd6fc3a24b","fixation","img/fixation.png","null","","test","","","","","",""
"373.89999997615814","129323","pSARL_v2","pSARL_v20m4jwt1c","6108bae61196a3bd6fc3a24b","infreq","img/green_2bandit_a2.png","68","68","test","1","38","38","2","",""
"null","129760","pSARL_v2","pSARL_v20m4jwt1c","6108bae61196a3bd6fc3a24b","infreq_resp","img/green_2bandit_a.png","68","68","test","","","","2","",""
"null","129922","pSARL_v2","pSARL_v20m4jwt1c","6108bae61196a3bd6fc3a24b","fixation","img/fixation.png","null","","test","","","","","",""
"395.0999999642372","130322","pSARL_v2","pSARL_v20m4jwt1c","6108bae61196a3bd6fc3a24b","freq","img/orange_2bandit_a2.png","70","70","test","1","39","39","2","",""
"null","130736","pSARL_v2","pSARL_v20m4jwt1c","6108bae61196a3bd6fc3a24b","freq_resp","img/orange_2bandit_a.png","70","70","test","","","","2","",""
"null","130896","pSARL_v2","pSARL_v20m4jwt1c","6108bae61196a3bd6fc3a24b","fixation","img/fixation.png","null","","test","","","","","",""
"359.69999998807907","131260","pSARL_v2","pSARL_v20m4jwt1c","6108bae61196a3bd6fc3a24b","freq","img/orange_2bandit_a2.png","70","70","test","1","40","40","2","",""
"null","131713","pSARL_v2","pSARL_v20m4jwt1c","6108bae61196a3bd6fc3a24b","freq_resp","img/orange_2bandit_a.png","70","70","test","","","","2","",""
"null","131873","pSARL_v2","pSARL_v20m4jwt1c","6108bae61196a3bd6fc3a24b","fixation","img/fixation.png","null","","test","","","","","",""
"407.7999999523163","132285","pSARL_v2","pSARL_v20m4jwt1c","6108bae61196a3bd6fc3a24b","freq","img/orange_2bandit_a2.png","70","70","test","1","41","41","2","",""
"null","132687","pSARL_v2","pSARL_v20m4jwt1c","6108bae61196a3bd6fc3a24b","freq_resp","img/orange_2bandit_a.png","70","70","test","","","","2","",""
"null","132849","pSARL_v2","pSARL_v20m4jwt1c","6108bae61196a3bd6fc3a24b","fixation","img/fixation.png","null","","test","","","","","",""
"416.69999998807907","133270","pSARL_v2","pSARL_v20m4jwt1c","6108bae61196a3bd6fc3a24b","freq","img/orange_2bandit_a2.png","70","70","test","1","42","42","2","",""
"null","133666","pSARL_v2","pSARL_v20m4jwt1c","6108bae61196a3bd6fc3a24b","freq_resp","img/orange_2bandit_a.png","70","70","test","","","","2","",""
"null","133824","pSARL_v2","pSARL_v20m4jwt1c","6108bae61196a3bd6fc3a24b","fixation","img/fixation.png","null","","test","","","","","",""
"447.30000001192093","134276","pSARL_v2","pSARL_v20m4jwt1c","6108bae61196a3bd6fc3a24b","freq","img/orange_2bandit_a2.png","70","70","test","1","43","43","2","",""
"null","134639","pSARL_v2","pSARL_v20m4jwt1c","6108bae61196a3bd6fc3a24b","freq_resp","img/orange_2bandit_a.png","70","70","test","","","","2","",""
"null","134800","pSARL_v2","pSARL_v20m4jwt1c","6108bae61196a3bd6fc3a24b","fixation","img/fixation.png","null","","test","","","","","",""
"331","135136","pSARL_v2","pSARL_v20m4jwt1c","6108bae61196a3bd6fc3a24b","freq","img/orange_2bandit_a2.png","70","70","test","1","44","44","2","",""
"null","135615","pSARL_v2","pSARL_v20m4jwt1c","6108bae61196a3bd6fc3a24b","freq_resp","img/orange_2bandit_a.png","70","70","test","","","","2","",""
"null","135776","pSARL_v2","pSARL_v20m4jwt1c","6108bae61196a3bd6fc3a24b","fixation","img/fixation.png","null","","test","","","","","",""
"385.0999999642372","136166","pSARL_v2","pSARL_v20m4jwt1c","6108bae61196a3bd6fc3a24b","freq","img/orange_2bandit_a2.png","70","70","test","1","45","45","2","",""
"null","136593","pSARL_v2","pSARL_v20m4jwt1c","6108bae61196a3bd6fc3a24b","freq_resp","img/orange_2bandit_a.png","70","70","test","","","","2","",""
"null","136752","pSARL_v2","pSARL_v20m4jwt1c","6108bae61196a3bd6fc3a24b","fixation","img/fixation.png","null","","test","","","","","",""
"395.2999999523163","137151","pSARL_v2","pSARL_v20m4jwt1c","6108bae61196a3bd6fc3a24b","reward","img/slot.png","74","","test","","","","","",""
"null","137911","pSARL_v2","pSARL_v20m4jwt1c","6108bae61196a3bd6fc3a24b","points","<div class=""verylowPoints""> -11 </div>","null","na","test","","","","2","-11","1"
"623.9000000357628","138540","pSARL_v2","pSARL_v20m4jwt1c","6108bae61196a3bd6fc3a24b","freq","img/orange_2bandit_a2.png","70","70","test","1","46","46","3","",""
"null","138729","pSARL_v2","pSARL_v20m4jwt1c","6108bae61196a3bd6fc3a24b","freq_resp","img/orange_2bandit_a.png","70","70","test","","","","3","",""
"null","138888","pSARL_v2","pSARL_v20m4jwt1c","6108bae61196a3bd6fc3a24b","fixation","img/fixation.png","null","","test","","","","","",""
"561.6999999880791","139454","pSARL_v2","pSARL_v20m4jwt1c","6108bae61196a3bd6fc3a24b","freq","img/orange_2bandit_a2.png","70","70","test","1","47","47","3","",""
"null","139705","pSARL_v2","pSARL_v20m4jwt1c","6108bae61196a3bd6fc3a24b","freq_resp","img/orange_2bandit_a.png","70","70","test","","","","3","",""
"null","139863","pSARL_v2","pSARL_v20m4jwt1c","6108bae61196a3bd6fc3a24b","fixation","img/fixation.png","null","","test","","","","","",""
"462.9000000357628","140330","pSARL_v2","pSARL_v20m4jwt1c","6108bae61196a3bd6fc3a24b","freq","img/orange_2bandit_a2.png","70","70","test","1","48","48","3","",""
"null","140680","pSARL_v2","pSARL_v20m4jwt1c","6108bae61196a3bd6fc3a24b","freq_resp","img/orange_2bandit_a.png","70","70","test","","","","3","",""
"null","140839","pSARL_v2","pSARL_v20m4jwt1c","6108bae61196a3bd6fc3a24b","fixation","img/fixation.png","null","","test","","","","","",""
"358.19999998807907","141202","pSARL_v2","pSARL_v20m4jwt1c","6108bae61196a3bd6fc3a24b","freq","img/orange_2bandit_a2.png","70","70","test","1","49","49","3","",""
"null","141655","pSARL_v2","pSARL_v20m4jwt1c","6108bae61196a3bd6fc3a24b","freq_resp","img/orange_2bandit_a.png","70","70","test","","","","3","",""
"null","141816","pSARL_v2","pSARL_v20m4jwt1c","6108bae61196a3bd6fc3a24b","fixation","img/fixation.png","null","","test","","","","","",""
"375","142196","pSARL_v2","pSARL_v20m4jwt1c","6108bae61196a3bd6fc3a24b","freq","img/orange_2bandit_a2.png","70","70","test","1","50","50","3","",""
"null","142632","pSARL_v2","pSARL_v20m4jwt1c","6108bae61196a3bd6fc3a24b","freq_resp","img/orange_2bandit_a.png","70","70","test","","","","3","",""
"null","142791","pSARL_v2","pSARL_v20m4jwt1c","6108bae61196a3bd6fc3a24b","fixation","img/fixation.png","null","","test","","","","","",""
"613.6000000238419","143409","pSARL_v2","pSARL_v20m4jwt1c","6108bae61196a3bd6fc3a24b","infreq","img/green_2bandit_a2.png","68","68","test","1","51","51","3","",""
"null","143608","pSARL_v2","pSARL_v20m4jwt1c","6108bae61196a3bd6fc3a24b","infreq_resp","img/green_2bandit_a.png","68","68","test","","","","3","",""
"null","143767","pSARL_v2","pSARL_v20m4jwt1c","6108bae61196a3bd6fc3a24b","fixation","img/fixation.png","null","","test","","","","","",""
"459.19999998807907","144230","pSARL_v2","pSARL_v20m4jwt1c","6108bae61196a3bd6fc3a24b","freq","img/orange_2bandit_a2.png","70","70","test","1","52","52","3","",""
"null","144583","pSARL_v2","pSARL_v20m4jwt1c","6108bae61196a3bd6fc3a24b","freq_resp","img/orange_2bandit_a.png","70","70","test","","","","3","",""
"null","144744","pSARL_v2","pSARL_v20m4jwt1c","6108bae61196a3bd6fc3a24b","fixation","img/fixation.png","null","","test","","","","","",""
"357.5","145106","pSARL_v2","pSARL_v20m4jwt1c","6108bae61196a3bd6fc3a24b","freq","img/orange_2bandit_a2.png","70","70","test","1","53","53","3","",""
"null","145560","pSARL_v2","pSARL_v20m4jwt1c","6108bae61196a3bd6fc3a24b","freq_resp","img/orange_2bandit_a.png","70","70","test","","","","3","",""
"null","145719","pSARL_v2","pSARL_v20m4jwt1c","6108bae61196a3bd6fc3a24b","fixation","img/fixation.png","null","","test","","","","","",""
"358","146081","pSARL_v2","pSARL_v20m4jwt1c","6108bae61196a3bd6fc3a24b","freq","img/orange_2bandit_a2.png","70","70","test","1","54","54","3","",""
"null","146535","pSARL_v2","pSARL_v20m4jwt1c","6108bae61196a3bd6fc3a24b","freq_resp","img/orange_2bandit_a.png","70","70","test","","","","3","",""
"null","146695","pSARL_v2","pSARL_v20m4jwt1c","6108bae61196a3bd6fc3a24b","fixation","img/fixation.png","null","","test","","","","","",""
"326.39999997615814","147026","pSARL_v2","pSARL_v20m4jwt1c","6108bae61196a3bd6fc3a24b","freq","img/orange_2bandit_a2.png","70","70","test","1","55","55","3","",""
"null","147511","pSARL_v2","pSARL_v20m4jwt1c","6108bae61196a3bd6fc3a24b","freq_resp","img/orange_2bandit_a.png","70","70","test","","","","3","",""
"null","147671","pSARL_v2","pSARL_v20m4jwt1c","6108bae61196a3bd6fc3a24b","fixation","img/fixation.png","null","","test","","","","","",""
"342.80000001192093","148018","pSARL_v2","pSARL_v20m4jwt1c","6108bae61196a3bd6fc3a24b","freq","img/orange_2bandit_a2.png","70","70","test","1","56","56","3","",""
"null","148487","pSARL_v2","pSARL_v20m4jwt1c","6108bae61196a3bd6fc3a24b","freq_resp","img/orange_2bandit_a.png","70","70","test","","","","3","",""
"null","148647","pSARL_v2","pSARL_v20m4jwt1c","6108bae61196a3bd6fc3a24b","fixation","img/fixation.png","null","","test","","","","","",""
"373","149025","pSARL_v2","pSARL_v20m4jwt1c","6108bae61196a3bd6fc3a24b","freq","img/orange_2bandit_a2.png","70","70","test","1","57","57","3","",""
"null","149462","pSARL_v2","pSARL_v20m4jwt1c","6108bae61196a3bd6fc3a24b","freq_resp","img/orange_2bandit_a.png","70","70","test","","","","3","",""
"null","149624","pSARL_v2","pSARL_v20m4jwt1c","6108bae61196a3bd6fc3a24b","fixation","img/fixation.png","null","","test","","","","","",""
"313.5","149942","pSARL_v2","pSARL_v20m4jwt1c","6108bae61196a3bd6fc3a24b","freq","img/orange_2bandit_a2.png","70","70","test","1","58","58","3","",""
"null","150439","pSARL_v2","pSARL_v20m4jwt1c","6108bae61196a3bd6fc3a24b","freq_resp","img/orange_2bandit_a.png","70","70","test","","","","3","",""
"null","150599","pSARL_v2","pSARL_v20m4jwt1c","6108bae61196a3bd6fc3a24b","fixation","img/fixation.png","null","","test","","","","","",""
"315.69999998807907","150919","pSARL_v2","pSARL_v20m4jwt1c","6108bae61196a3bd6fc3a24b","freq","img/orange_2bandit_a2.png","70","70","test","1","59","59","3","",""
"null","151415","pSARL_v2","pSARL_v20m4jwt1c","6108bae61196a3bd6fc3a24b","freq_resp","img/orange_2bandit_a.png","70","70","test","","","","3","",""
"null","151575","pSARL_v2","pSARL_v20m4jwt1c","6108bae61196a3bd6fc3a24b","fixation","img/fixation.png","null","","test","","","","","",""
"294.5","151874","pSARL_v2","pSARL_v20m4jwt1c","6108bae61196a3bd6fc3a24b","freq","img/orange_2bandit_a2.png","70","70","test","1","60","60","3","",""
"null","152391","pSARL_v2","pSARL_v20m4jwt1c","6108bae61196a3bd6fc3a24b","freq_resp","img/orange_2bandit_a.png","70","70","test","","","","3","",""
"null","152550","pSARL_v2","pSARL_v20m4jwt1c","6108bae61196a3bd6fc3a24b","fixation","img/fixation.png","null","","test","","","","","",""
"411.80000001192093","152967","pSARL_v2","pSARL_v20m4jwt1c","6108bae61196a3bd6fc3a24b","infreq","img/green_2bandit_a2.png","68","68","test","1","61","61","3","",""
"null","153367","pSARL_v2","pSARL_v20m4jwt1c","6108bae61196a3bd6fc3a24b","infreq_resp","img/green_2bandit_a.png","68","68","test","","","","3","",""
"null","153528","pSARL_v2","pSARL_v20m4jwt1c","6108bae61196a3bd6fc3a24b","fixation","img/fixation.png","null","","test","","","","","",""
"408.19999998807907","153940","pSARL_v2","pSARL_v20m4jwt1c","6108bae61196a3bd6fc3a24b","freq","img/orange_2bandit_a2.png","70","70","test","1","62","62","3","",""
"null","154345","pSARL_v2","pSARL_v20m4jwt1c","6108bae61196a3bd6fc3a24b","freq_resp","img/orange_2bandit_a.png","70","70","test","","","","3","",""
"null","154500","pSARL_v2","pSARL_v20m4jwt1c","6108bae61196a3bd6fc3a24b","fixation","img/fixation.png","null","","test","","","","","",""
"324.10000002384186","154828","pSARL_v2","pSARL_v20m4jwt1c","6108bae61196a3bd6fc3a24b","freq","img/orange_2bandit_a2.png","70","70","test","1","63","63","3","",""
"null","155311","pSARL_v2","pSARL_v20m4jwt1c","6108bae61196a3bd6fc3a24b","freq_resp","img/orange_2bandit_a.png","70","70","test","","","","3","",""
"null","155470","pSARL_v2","pSARL_v20m4jwt1c","6108bae61196a3bd6fc3a24b","fixation","img/fixation.png","null","","test","","","","","",""
"311.5","155787","pSARL_v2","pSARL_v20m4jwt1c","6108bae61196a3bd6fc3a24b","freq","img/orange_2bandit_a2.png","70","70","test","1","64","64","3","",""
"null","156287","pSARL_v2","pSARL_v20m4jwt1c","6108bae61196a3bd6fc3a24b","freq_resp","img/orange_2bandit_a.png","70","70","test","","","","3","",""
"null","156446","pSARL_v2","pSARL_v20m4jwt1c","6108bae61196a3bd6fc3a24b","fixation","img/fixation.png","null","","test","","","","","",""
"414.4000000357628","156865","pSARL_v2","pSARL_v20m4jwt1c","6108bae61196a3bd6fc3a24b","freq","img/orange_2bandit_a2.png","70","70","test","1","65","65","3","",""
"null","157262","pSARL_v2","pSARL_v20m4jwt1c","6108bae61196a3bd6fc3a24b","freq_resp","img/orange_2bandit_a.png","70","70","test","","","","3","",""
"null","157423","pSARL_v2","pSARL_v20m4jwt1c","6108bae61196a3bd6fc3a24b","fixation","img/fixation.png","null","","test","","","","","",""
"297.5999999642372","157725","pSARL_v2","pSARL_v20m4jwt1c","6108bae61196a3bd6fc3a24b","freq","img/orange_2bandit_a2.png","70","70","test","1","66","66","3","",""
"null","158238","pSARL_v2","pSARL_v20m4jwt1c","6108bae61196a3bd6fc3a24b","freq_resp","img/orange_2bandit_a.png","70","70","test","","","","3","",""
"null","158399","pSARL_v2","pSARL_v20m4jwt1c","6108bae61196a3bd6fc3a24b","fixation","img/fixation.png","null","","test","","","","","",""
"777.1999999880791","159180","pSARL_v2","pSARL_v20m4jwt1c","6108bae61196a3bd6fc3a24b","reward","img/slot.png","74","","test","","","","","",""
"null","159942","pSARL_v2","pSARL_v20m4jwt1c","6108bae61196a3bd6fc3a24b","points","<div class=""verylowPoints""> -7 </div>","null","na","test","","","","3","-7","2"
"610.3999999761581","160557","pSARL_v2","pSARL_v20m4jwt1c","6108bae61196a3bd6fc3a24b","freq","img/orange_2bandit_a2.png","70","70","test","1","67","67","4","",""
"null","160759","pSARL_v2","pSARL_v20m4jwt1c","6108bae61196a3bd6fc3a24b","freq_resp","img/orange_2bandit_a.png","70","70","test","","","","4","",""
"null","160918","pSARL_v2","pSARL_v20m4jwt1c","6108bae61196a3bd6fc3a24b","fixation","img/fixation.png","null","","test","","","","","",""
"478.39999997615814","161401","pSARL_v2","pSARL_v20m4jwt1c","6108bae61196a3bd6fc3a24b","freq","img/orange_2bandit_a2.png","70","70","test","1","68","68","4","",""
"null","161734","pSARL_v2","pSARL_v20m4jwt1c","6108bae61196a3bd6fc3a24b","freq_resp","img/orange_2bandit_a.png","70","70","test","","","","4","",""
"null","161894","pSARL_v2","pSARL_v20m4jwt1c","6108bae61196a3bd6fc3a24b","fixation","img/fixation.png","null","","test","","","","","",""
"384.7000000476837","162283","pSARL_v2","pSARL_v20m4jwt1c","6108bae61196a3bd6fc3a24b","freq","img/orange_2bandit_a2.png","70","70","test","1","69","69","4","",""
"null","162712","pSARL_v2","pSARL_v20m4jwt1c","6108bae61196a3bd6fc3a24b","freq_resp","img/orange_2bandit_a.png","70","70","test","","","","4","",""
"null","162870","pSARL_v2","pSARL_v20m4jwt1c","6108bae61196a3bd6fc3a24b","fixation","img/fixation.png","null","","test","","","","","",""
"347.30000001192093","163222","pSARL_v2","pSARL_v20m4jwt1c","6108bae61196a3bd6fc3a24b","freq","img/orange_2bandit_a2.png","70","70","test","1","70","70","4","",""
"null","163686","pSARL_v2","pSARL_v20m4jwt1c","6108bae61196a3bd6fc3a24b","freq_resp","img/orange_2bandit_a.png","70","70","test","","","","4","",""
"null","163846","pSARL_v2","pSARL_v20m4jwt1c","6108bae61196a3bd6fc3a24b","fixation","img/fixation.png","null","","test","","","","","",""
"342.80000001192093","164193","pSARL_v2","pSARL_v20m4jwt1c","6108bae61196a3bd6fc3a24b","freq","img/orange_2bandit_a2.png","70","70","test","1","71","71","4","",""
"null","164663","pSARL_v2","pSARL_v20m4jwt1c","6108bae61196a3bd6fc3a24b","freq_resp","img/orange_2bandit_a.png","70","70","test","","","","4","",""
"null","164823","pSARL_v2","pSARL_v20m4jwt1c","6108bae61196a3bd6fc3a24b","fixation","img/fixation.png","null","","test","","","","","",""
"346.30000001192093","165174","pSARL_v2","pSARL_v20m4jwt1c","6108bae61196a3bd6fc3a24b","freq","img/orange_2bandit_a2.png","70","70","test","1","72","72","4","",""
"null","165639","pSARL_v2","pSARL_v20m4jwt1c","6108bae61196a3bd6fc3a24b","freq_resp","img/orange_2bandit_a.png","70","70","test","","","","4","",""
"null","165798","pSARL_v2","pSARL_v20m4jwt1c","6108bae61196a3bd6fc3a24b","fixation","img/fixation.png","null","","test","","","","","",""
"280.5","166083","pSARL_v2","pSARL_v20m4jwt1c","6108bae61196a3bd6fc3a24b","freq","img/orange_2bandit_a2.png","70","70","test","1","73","73","4","",""
"null","166615","pSARL_v2","pSARL_v20m4jwt1c","6108bae61196a3bd6fc3a24b","freq_resp","img/orange_2bandit_a.png","70","70","test","","","","4","",""
"null","166775","pSARL_v2","pSARL_v20m4jwt1c","6108bae61196a3bd6fc3a24b","fixation","img/fixation.png","null","","test","","","","","",""
"349.5999999642372","167129","pSARL_v2","pSARL_v20m4jwt1c","6108bae61196a3bd6fc3a24b","freq","img/orange_2bandit_a2.png","70","70","test","1","74","74","4","",""
"null","167590","pSARL_v2","pSARL_v20m4jwt1c","6108bae61196a3bd6fc3a24b","freq_resp","img/orange_2bandit_a.png","70","70","test","","","","4","",""
"null","167750","pSARL_v2","pSARL_v20m4jwt1c","6108bae61196a3bd6fc3a24b","fixation","img/fixation.png","null","","test","","","","","",""
"307.80000001192093","168062","pSARL_v2","pSARL_v20m4jwt1c","6108bae61196a3bd6fc3a24b","freq","img/orange_2bandit_a2.png","70","70","test","1","75","75","4","",""
"null","168566","pSARL_v2","pSARL_v20m4jwt1c","6108bae61196a3bd6fc3a24b","freq_resp","img/orange_2bandit_a.png","70","70","test","","","","4","",""
"null","168728","pSARL_v2","pSARL_v20m4jwt1c","6108bae61196a3bd6fc3a24b","fixation","img/fixation.png","null","","test","","","","","",""
"441.5","169174","pSARL_v2","pSARL_v20m4jwt1c","6108bae61196a3bd6fc3a24b","infreq","img/green_2bandit_a2.png","68","68","test","1","76","76","4","",""
"null","169542","pSARL_v2","pSARL_v20m4jwt1c","6108bae61196a3bd6fc3a24b","infreq_resp","img/green_2bandit_a.png","68","68","test","","","","4","",""
"null","169702","pSARL_v2","pSARL_v20m4jwt1c","6108bae61196a3bd6fc3a24b","fixation","img/fixation.png","null","","test","","","","","",""
"411","170117","pSARL_v2","pSARL_v20m4jwt1c","6108bae61196a3bd6fc3a24b","freq","img/orange_2bandit_a2.png","70","70","test","1","77","77","4","",""
"null","170518","pSARL_v2","pSARL_v20m4jwt1c","6108bae61196a3bd6fc3a24b","freq_resp","img/orange_2bandit_a.png","70","70","test","","","","4","",""
"null","170679","pSARL_v2","pSARL_v20m4jwt1c","6108bae61196a3bd6fc3a24b","fixation","img/fixation.png","null","","test","","","","","",""
"420.19999998807907","171103","pSARL_v2","pSARL_v20m4jwt1c","6108bae61196a3bd6fc3a24b","infreq","img/green_2bandit_a2.png","68","68","test","1","78","78","4","",""
"null","171494","pSARL_v2","pSARL_v20m4jwt1c","6108bae61196a3bd6fc3a24b","infreq_resp","img/green_2bandit_a.png","68","68","test","","","","4","",""
"null","171654","pSARL_v2","pSARL_v20m4jwt1c","6108bae61196a3bd6fc3a24b","fixation","img/fixation.png","null","","test","","","","","",""
"362.89999997615814","172022","pSARL_v2","pSARL_v20m4jwt1c","6108bae61196a3bd6fc3a24b","freq","img/orange_2bandit_a2.png","70","70","test","1","79","79","4","",""
"null","172470","pSARL_v2","pSARL_v20m4jwt1c","6108bae61196a3bd6fc3a24b","freq_resp","img/orange_2bandit_a.png","70","70","test","","","","4","",""
"null","172630","pSARL_v2","pSARL_v20m4jwt1c","6108bae61196a3bd6fc3a24b","fixation","img/fixation.png","null","","test","","","","","",""
"389","173023","pSARL_v2","pSARL_v20m4jwt1c","6108bae61196a3bd6fc3a24b","freq","img/orange_2bandit_a2.png","70","70","test","1","80","80","4","",""
"null","173446","pSARL_v2","pSARL_v20m4jwt1c","6108bae61196a3bd6fc3a24b","freq_resp","img/orange_2bandit_a.png","70","70","test","","","","4","",""
"null","173605","pSARL_v2","pSARL_v20m4jwt1c","6108bae61196a3bd6fc3a24b","fixation","img/fixation.png","null","","test","","","","","",""
"289.69999998807907","173899","pSARL_v2","pSARL_v20m4jwt1c","6108bae61196a3bd6fc3a24b","freq","img/orange_2bandit_a2.png","70","70","test","1","81","81","4","",""
"null","174422","pSARL_v2","pSARL_v20m4jwt1c","6108bae61196a3bd6fc3a24b","freq_resp","img/orange_2bandit_a.png","70","70","test","","","","4","",""
"null","174582","pSARL_v2","pSARL_v20m4jwt1c","6108bae61196a3bd6fc3a24b","fixation","img/fixation.png","null","","test","","","","","",""
"446.5","175033","pSARL_v2","pSARL_v20m4jwt1c","6108bae61196a3bd6fc3a24b","freq","img/orange_2bandit_a2.png","70","70","test","1","82","82","4","",""
"null","175398","pSARL_v2","pSARL_v20m4jwt1c","6108bae61196a3bd6fc3a24b","freq_resp","img/orange_2bandit_a.png","70","70","test","","","","4","",""
"null","175557","pSARL_v2","pSARL_v20m4jwt1c","6108bae61196a3bd6fc3a24b","fixation","img/fixation.png","null","","test","","","","","",""
"326.39999997615814","175888","pSARL_v2","pSARL_v20m4jwt1c","6108bae61196a3bd6fc3a24b","freq","img/orange_2bandit_a2.png","70","70","test","1","83","83","4","",""
"null","176374","pSARL_v2","pSARL_v20m4jwt1c","6108bae61196a3bd6fc3a24b","freq_resp","img/orange_2bandit_a.png","70","70","test","","","","4","",""
"null","176533","pSARL_v2","pSARL_v20m4jwt1c","6108bae61196a3bd6fc3a24b","fixation","img/fixation.png","null","","test","","","","","",""
"330","176867","pSARL_v2","pSARL_v20m4jwt1c","6108bae61196a3bd6fc3a24b","freq","img/orange_2bandit_a2.png","70","70","test","1","84","84","4","",""
"null","177349","pSARL_v2","pSARL_v20m4jwt1c","6108bae61196a3bd6fc3a24b","freq_resp","img/orange_2bandit_a.png","70","70","test","","","","4","",""
"null","177510","pSARL_v2","pSARL_v20m4jwt1c","6108bae61196a3bd6fc3a24b","fixation","img/fixation.png","null","","test","","","","","",""
"326","177841","pSARL_v2","pSARL_v20m4jwt1c","6108bae61196a3bd6fc3a24b","freq","img/orange_2bandit_a2.png","70","70","test","1","85","85","4","",""
"null","178325","pSARL_v2","pSARL_v20m4jwt1c","6108bae61196a3bd6fc3a24b","freq_resp","img/orange_2bandit_a.png","70","70","test","","","","4","",""
"null","178485","pSARL_v2","pSARL_v20m4jwt1c","6108bae61196a3bd6fc3a24b","fixation","img/fixation.png","null","","test","","","","","",""
"315.69999998807907","178805","pSARL_v2","pSARL_v20m4jwt1c","6108bae61196a3bd6fc3a24b","freq","img/orange_2bandit_a2.png","70","70","test","1","86","86","4","",""
"null","179301","pSARL_v2","pSARL_v20m4jwt1c","6108bae61196a3bd6fc3a24b","freq_resp","img/orange_2bandit_a.png","70","70","test","","","","4","",""
"null","179461","pSARL_v2","pSARL_v20m4jwt1c","6108bae61196a3bd6fc3a24b","fixation","img/fixation.png","null","","test","","","","","",""
"517.5999999642372","179984","pSARL_v2","pSARL_v20m4jwt1c","6108bae61196a3bd6fc3a24b","infreq","img/green_2bandit_a2.png","68","68","test","1","87","87","4","",""
"null","180278","pSARL_v2","pSARL_v20m4jwt1c","6108bae61196a3bd6fc3a24b","infreq_resp","img/green_2bandit_a.png","68","68","test","","","","4","",""
"null","180438","pSARL_v2","pSARL_v20m4jwt1c","6108bae61196a3bd6fc3a24b","fixation","img/fixation.png","null","","test","","","","","",""
"378.4000000357628","180821","pSARL_v2","pSARL_v20m4jwt1c","6108bae61196a3bd6fc3a24b","freq","img/orange_2bandit_a2.png","70","70","test","1","88","88","4","",""
"null","181253","pSARL_v2","pSARL_v20m4jwt1c","6108bae61196a3bd6fc3a24b","freq_resp","img/orange_2bandit_a.png","70","70","test","","","","4","",""
"null","181414","pSARL_v2","pSARL_v20m4jwt1c","6108bae61196a3bd6fc3a24b","fixation","img/fixation.png","null","","test","","","","","",""
"311.7000000476837","181730","pSARL_v2","pSARL_v20m4jwt1c","6108bae61196a3bd6fc3a24b","freq","img/orange_2bandit_a2.png","70","70","test","1","89","89","4","",""
"null","182229","pSARL_v2","pSARL_v20m4jwt1c","6108bae61196a3bd6fc3a24b","freq_resp","img/orange_2bandit_a.png","70","70","test","","","","4","",""
"null","182390","pSARL_v2","pSARL_v20m4jwt1c","6108bae61196a3bd6fc3a24b","fixation","img/fixation.png","null","","test","","","","","",""
"877.7999999523163","183272","pSARL_v2","pSARL_v20m4jwt1c","6108bae61196a3bd6fc3a24b","reward","img/slot.png","74","","test","","","","","",""
"null","184030","pSARL_v2","pSARL_v20m4jwt1c","6108bae61196a3bd6fc3a24b","points","<div class=""verylowPoints""> -3 </div>","null","na","test","","","","4","-3","3"
"597.1000000238419","184631","pSARL_v2","pSARL_v20m4jwt1c","6108bae61196a3bd6fc3a24b","freq","img/orange_2bandit_a2.png","70","70","test","1","90","90","5","",""
"null","184846","pSARL_v2","pSARL_v20m4jwt1c","6108bae61196a3bd6fc3a24b","freq_resp","img/orange_2bandit_a.png","70","70","test","","","","5","",""
"null","185007","pSARL_v2","pSARL_v20m4jwt1c","6108bae61196a3bd6fc3a24b","fixation","img/fixation.png","null","","test","","","","","",""
"528","185539","pSARL_v2","pSARL_v20m4jwt1c","6108bae61196a3bd6fc3a24b","freq","img/orange_2bandit_a2.png","70","70","test","1","91","91","5","",""
"null","185822","pSARL_v2","pSARL_v20m4jwt1c","6108bae61196a3bd6fc3a24b","freq_resp","img/orange_2bandit_a.png","70","70","test","","","","5","",""
"null","185981","pSARL_v2","pSARL_v20m4jwt1c","6108bae61196a3bd6fc3a24b","fixation","img/fixation.png","null","","test","","","","","",""
"478","186464","pSARL_v2","pSARL_v20m4jwt1c","6108bae61196a3bd6fc3a24b","freq","img/orange_2bandit_a2.png","70","70","test","1","92","92","5","",""
"null","186796","pSARL_v2","pSARL_v20m4jwt1c","6108bae61196a3bd6fc3a24b","freq_resp","img/orange_2bandit_a.png","70","70","test","","","","5","",""
"null","186957","pSARL_v2","pSARL_v20m4jwt1c","6108bae61196a3bd6fc3a24b","fixation","img/fixation.png","null","","test","","","","","",""
"501.30000001192093","187463","pSARL_v2","pSARL_v20m4jwt1c","6108bae61196a3bd6fc3a24b","freq","img/orange_2bandit_a2.png","70","70","test","1","93","93","5","",""
"null","187774","pSARL_v2","pSARL_v20m4jwt1c","6108bae61196a3bd6fc3a24b","freq_resp","img/orange_2bandit_a.png","70","70","test","","","","5","",""
"null","187933","pSARL_v2","pSARL_v20m4jwt1c","6108bae61196a3bd6fc3a24b","fixation","img/fixation.png","null","","test","","","","","",""
"438.5","188378","pSARL_v2","pSARL_v20m4jwt1c","6108bae61196a3bd6fc3a24b","freq","img/orange_2bandit_a2.png","70","70","test","1","94","94","5","",""
"null","188748","pSARL_v2","pSARL_v20m4jwt1c","6108bae61196a3bd6fc3a24b","freq_resp","img/orange_2bandit_a.png","70","70","test","","","","5","",""
"null","188909","pSARL_v2","pSARL_v20m4jwt1c","6108bae61196a3bd6fc3a24b","fixation","img/fixation.png","null","","test","","","","","",""
"369.69999998807907","189283","pSARL_v2","pSARL_v20m4jwt1c","6108bae61196a3bd6fc3a24b","freq","img/orange_2bandit_a2.png","70","70","test","1","95","95","5","",""
"null","189725","pSARL_v2","pSARL_v20m4jwt1c","6108bae61196a3bd6fc3a24b","freq_resp","img/orange_2bandit_a.png","70","70","test","","","","5","",""
"null","189885","pSARL_v2","pSARL_v20m4jwt1c","6108bae61196a3bd6fc3a24b","fixation","img/fixation.png","null","","test","","","","","",""
"372.80000001192093","190263","pSARL_v2","pSARL_v20m4jwt1c","6108bae61196a3bd6fc3a24b","freq","img/orange_2bandit_a2.png","70","70","test","1","96","96","5","",""
"null","190701","pSARL_v2","pSARL_v20m4jwt1c","6108bae61196a3bd6fc3a24b","freq_resp","img/orange_2bandit_a.png","70","70","test","","","","5","",""
"null","190861","pSARL_v2","pSARL_v20m4jwt1c","6108bae61196a3bd6fc3a24b","fixation","img/fixation.png","null","","test","","","","","",""
"345.4000000357628","191211","pSARL_v2","pSARL_v20m4jwt1c","6108bae61196a3bd6fc3a24b","freq","img/orange_2bandit_a2.png","70","70","test","1","97","97","5","",""
"null","191677","pSARL_v2","pSARL_v20m4jwt1c","6108bae61196a3bd6fc3a24b","freq_resp","img/orange_2bandit_a.png","70","70","test","","","","5","",""
"null","191837","pSARL_v2","pSARL_v20m4jwt1c","6108bae61196a3bd6fc3a24b","fixation","img/fixation.png","null","","test","","","","","",""
"339","192181","pSARL_v2","pSARL_v20m4jwt1c","6108bae61196a3bd6fc3a24b","freq","img/orange_2bandit_a2.png","70","70","test","1","98","98","5","",""
"null","192653","pSARL_v2","pSARL_v20m4jwt1c","6108bae61196a3bd6fc3a24b","freq_resp","img/orange_2bandit_a.png","70","70","test","","","","5","",""
"null","192814","pSARL_v2","pSARL_v20m4jwt1c","6108bae61196a3bd6fc3a24b","fixation","img/fixation.png","null","","test","","","","","",""
"320.30000001192093","193139","pSARL_v2","pSARL_v20m4jwt1c","6108bae61196a3bd6fc3a24b","freq","img/orange_2bandit_a2.png","70","70","test","1","99","99","5","",""
"null","193629","pSARL_v2","pSARL_v20m4jwt1c","6108bae61196a3bd6fc3a24b","freq_resp","img/orange_2bandit_a.png","70","70","test","","","","5","",""
"null","193789","pSARL_v2","pSARL_v20m4jwt1c","6108bae61196a3bd6fc3a24b","fixation","img/fixation.png","null","","test","","","","","",""
"332.60000002384186","194127","pSARL_v2","pSARL_v20m4jwt1c","6108bae61196a3bd6fc3a24b","freq","img/orange_2bandit_a2.png","70","70","test","1","100","100","5","",""
"null","194605","pSARL_v2","pSARL_v20m4jwt1c","6108bae61196a3bd6fc3a24b","freq_resp","img/orange_2bandit_a.png","70","70","test","","","","5","",""
"null","194764","pSARL_v2","pSARL_v20m4jwt1c","6108bae61196a3bd6fc3a24b","fixation","img/fixation.png","null","","test","","","","","",""
"274.89999997615814","195044","pSARL_v2","pSARL_v20m4jwt1c","6108bae61196a3bd6fc3a24b","freq","img/orange_2bandit_a2.png","70","70","test","1","101","101","5","",""
"null","195580","pSARL_v2","pSARL_v20m4jwt1c","6108bae61196a3bd6fc3a24b","freq_resp","img/orange_2bandit_a.png","70","70","test","","","","5","",""
"null","195743","pSARL_v2","pSARL_v20m4jwt1c","6108bae61196a3bd6fc3a24b","fixation","img/fixation.png","null","","test","","","","","",""
"585.6999999880791","196333","pSARL_v2","pSARL_v20m4jwt1c","6108bae61196a3bd6fc3a24b","infreq","img/green_2bandit_a2.png","68","68","test","1","102","102","5","",""
"null","196556","pSARL_v2","pSARL_v20m4jwt1c","6108bae61196a3bd6fc3a24b","infreq_resp","img/green_2bandit_a.png","68","68","test","","","","5","",""
"null","196716","pSARL_v2","pSARL_v20m4jwt1c","6108bae61196a3bd6fc3a24b","fixation","img/fixation.png","null","","test","","","","","",""
"415.30000001192093","197136","pSARL_v2","pSARL_v20m4jwt1c","6108bae61196a3bd6fc3a24b","freq","img/orange_2bandit_a2.png","70","70","test","1","103","103","5","",""
"null","197533","pSARL_v2","pSARL_v20m4jwt1c","6108bae61196a3bd6fc3a24b","freq_resp","img/orange_2bandit_a.png","70","70","test","","","","5","",""
"null","197693","pSARL_v2","pSARL_v20m4jwt1c","6108bae61196a3bd6fc3a24b","fixation","img/fixation.png","null","","test","","","","","",""
"319.0999999642372","198017","pSARL_v2","pSARL_v20m4jwt1c","6108bae61196a3bd6fc3a24b","freq","img/orange_2bandit_a2.png","70","70","test","1","104","104","5","",""
"null","198508","pSARL_v2","pSARL_v20m4jwt1c","6108bae61196a3bd6fc3a24b","freq_resp","img/orange_2bandit_a.png","70","70","test","","","","5","",""
"null","198668","pSARL_v2","pSARL_v20m4jwt1c","6108bae61196a3bd6fc3a24b","fixation","img/fixation.png","null","","test","","","","","",""
"325.10000002384186","198998","pSARL_v2","pSARL_v20m4jwt1c","6108bae61196a3bd6fc3a24b","freq","img/orange_2bandit_a2.png","70","70","test","1","105","105","5","",""
"null","199484","pSARL_v2","pSARL_v20m4jwt1c","6108bae61196a3bd6fc3a24b","freq_resp","img/orange_2bandit_a.png","70","70","test","","","","5","",""
"null","199643","pSARL_v2","pSARL_v20m4jwt1c","6108bae61196a3bd6fc3a24b","fixation","img/fixation.png","null","","test","","","","","",""
"326.30000001192093","199974","pSARL_v2","pSARL_v20m4jwt1c","6108bae61196a3bd6fc3a24b","freq","img/orange_2bandit_a2.png","70","70","test","1","106","106","5","",""
"null","200460","pSARL_v2","pSARL_v20m4jwt1c","6108bae61196a3bd6fc3a24b","freq_resp","img/orange_2bandit_a.png","70","70","test","","","","5","",""
"null","200620","pSARL_v2","pSARL_v20m4jwt1c","6108bae61196a3bd6fc3a24b","fixation","img/fixation.png","null","","test","","","","","",""
"290.60000002384186","200915","pSARL_v2","pSARL_v20m4jwt1c","6108bae61196a3bd6fc3a24b","freq","img/orange_2bandit_a2.png","70","70","test","1","107","107","5","",""
"null","201436","pSARL_v2","pSARL_v20m4jwt1c","6108bae61196a3bd6fc3a24b","freq_resp","img/orange_2bandit_a.png","70","70","test","","","","5","",""
"null","201596","pSARL_v2","pSARL_v20m4jwt1c","6108bae61196a3bd6fc3a24b","fixation","img/fixation.png","null","","test","","","","","",""
"314.39999997615814","201916","pSARL_v2","pSARL_v20m4jwt1c","6108bae61196a3bd6fc3a24b","freq","img/orange_2bandit_a2.png","70","70","test","1","108","108","5","",""
"null","202416","pSARL_v2","pSARL_v20m4jwt1c","6108bae61196a3bd6fc3a24b","freq_resp","img/orange_2bandit_a.png","70","70","test","","","","5","",""
"null","202580","pSARL_v2","pSARL_v20m4jwt1c","6108bae61196a3bd6fc3a24b","fixation","img/fixation.png","null","","test","","","","","",""
"301.69999998807907","202886","pSARL_v2","pSARL_v20m4jwt1c","6108bae61196a3bd6fc3a24b","freq","img/orange_2bandit_a2.png","70","70","test","1","109","109","5","",""
"null","203397","pSARL_v2","pSARL_v20m4jwt1c","6108bae61196a3bd6fc3a24b","freq_resp","img/orange_2bandit_a.png","70","70","test","","","","5","",""
"null","203557","pSARL_v2","pSARL_v20m4jwt1c","6108bae61196a3bd6fc3a24b","fixation","img/fixation.png","null","","test","","","","","",""
"332.80000001192093","203894","pSARL_v2","pSARL_v20m4jwt1c","6108bae61196a3bd6fc3a24b","freq","img/orange_2bandit_a2.png","70","70","test","1","110","110","5","",""
"null","204373","pSARL_v2","pSARL_v20m4jwt1c","6108bae61196a3bd6fc3a24b","freq_resp","img/orange_2bandit_a.png","70","70","test","","","","5","",""
"null","204532","pSARL_v2","pSARL_v20m4jwt1c","6108bae61196a3bd6fc3a24b","fixation","img/fixation.png","null","","test","","","","","",""
"316.39999997615814","204853","pSARL_v2","pSARL_v20m4jwt1c","6108bae61196a3bd6fc3a24b","freq","img/orange_2bandit_a2.png","70","70","test","1","111","111","5","",""
"null","205349","pSARL_v2","pSARL_v20m4jwt1c","6108bae61196a3bd6fc3a24b","freq_resp","img/orange_2bandit_a.png","70","70","test","","","","5","",""
"null","205509","pSARL_v2","pSARL_v20m4jwt1c","6108bae61196a3bd6fc3a24b","fixation","img/fixation.png","null","","test","","","","","",""
"336.60000002384186","205850","pSARL_v2","pSARL_v20m4jwt1c","6108bae61196a3bd6fc3a24b","freq","img/orange_2bandit_a2.png","70","70","test","1","112","112","5","",""
"null","206323","pSARL_v2","pSARL_v20m4jwt1c","6108bae61196a3bd6fc3a24b","freq_resp","img/orange_2bandit_a.png","70","70","test","","","","5","",""
"null","206485","pSARL_v2","pSARL_v20m4jwt1c","6108bae61196a3bd6fc3a24b","fixation","img/fixation.png","null","","test","","","","","",""
"613.9000000357628","207103","pSARL_v2","pSARL_v20m4jwt1c","6108bae61196a3bd6fc3a24b","infreq","img/green_2bandit_a2.png","68","68","test","1","113","113","5","",""
"null","207302","pSARL_v2","pSARL_v20m4jwt1c","6108bae61196a3bd6fc3a24b","infreq_resp","img/green_2bandit_a.png","68","68","test","","","","5","",""
"null","207461","pSARL_v2","pSARL_v20m4jwt1c","6108bae61196a3bd6fc3a24b","fixation","img/fixation.png","null","","test","","","","","",""
"350.69999998807907","207818","pSARL_v2","pSARL_v20m4jwt1c","6108bae61196a3bd6fc3a24b","freq","img/orange_2bandit_a2.png","70","70","test","1","114","114","5","",""
"null","208275","pSARL_v2","pSARL_v20m4jwt1c","6108bae61196a3bd6fc3a24b","freq_resp","img/orange_2bandit_a.png","70","70","test","","","","5","",""
"null","208436","pSARL_v2","pSARL_v20m4jwt1c","6108bae61196a3bd6fc3a24b","fixation","img/fixation.png","null","","test","","","","","",""
"1600.6000000238419","210041","pSARL_v2","pSARL_v20m4jwt1c","6108bae61196a3bd6fc3a24b","reward","img/slot.png","74","","test","","","","","",""
"null","210804","pSARL_v2","pSARL_v20m4jwt1c","6108bae61196a3bd6fc3a24b","points","<div class=""veryhighPoints""> +1 </div>","null","na","test","","","","5","1","4"
"566.1999999880791","211375","pSARL_v2","pSARL_v20m4jwt1c","6108bae61196a3bd6fc3a24b","freq","img/orange_2bandit_a2.png","70","70","test","1","115","115","6","",""
"null","211620","pSARL_v2","pSARL_v20m4jwt1c","6108bae61196a3bd6fc3a24b","freq_resp","img/orange_2bandit_a.png","70","70","test","","","","6","",""
"null","211781","pSARL_v2","pSARL_v20m4jwt1c","6108bae61196a3bd6fc3a24b","fixation","img/fixation.png","null","","test","","","","","",""
"522.3000000119209","212308","pSARL_v2","pSARL_v20m4jwt1c","6108bae61196a3bd6fc3a24b","infreq","img/green_2bandit_a2.png","68","68","test","1","116","116","6","",""
"null","212596","pSARL_v2","pSARL_v20m4jwt1c","6108bae61196a3bd6fc3a24b","infreq_resp","img/green_2bandit_a.png","68","68","test","","","","6","",""
"null","212758","pSARL_v2","pSARL_v20m4jwt1c","6108bae61196a3bd6fc3a24b","fixation","img/fixation.png","null","","test","","","","","",""
"327","213090","pSARL_v2","pSARL_v20m4jwt1c","6108bae61196a3bd6fc3a24b","freq","img/orange_2bandit_a2.png","70","70","test","1","117","117","6","",""
"null","213572","pSARL_v2","pSARL_v20m4jwt1c","6108bae61196a3bd6fc3a24b","freq_resp","img/orange_2bandit_a.png","70","70","test","","","","6","",""
"null","213732","pSARL_v2","pSARL_v20m4jwt1c","6108bae61196a3bd6fc3a24b","fixation","img/fixation.png","null","","test","","","","","",""
"303.69999998807907","214040","pSARL_v2","pSARL_v20m4jwt1c","6108bae61196a3bd6fc3a24b","freq","img/orange_2bandit_a2.png","70","70","test","1","118","118","6","",""
"null","214548","pSARL_v2","pSARL_v20m4jwt1c","6108bae61196a3bd6fc3a24b","freq_resp","img/orange_2bandit_a.png","70","70","test","","","","6","",""
"null","214707","pSARL_v2","pSARL_v20m4jwt1c","6108bae61196a3bd6fc3a24b","fixation","img/fixation.png","null","","test","","","","","",""
"301.4000000357628","215013","pSARL_v2","pSARL_v20m4jwt1c","6108bae61196a3bd6fc3a24b","freq","img/orange_2bandit_a2.png","70","70","test","1","119","119","6","",""
"null","215523","pSARL_v2","pSARL_v20m4jwt1c","6108bae61196a3bd6fc3a24b","freq_resp","img/orange_2bandit_a.png","70","70","test","","","","6","",""
"null","215683","pSARL_v2","pSARL_v20m4jwt1c","6108bae61196a3bd6fc3a24b","fixation","img/fixation.png","null","","test","","","","","",""
"295.2000000476837","215983","pSARL_v2","pSARL_v20m4jwt1c","6108bae61196a3bd6fc3a24b","freq","img/orange_2bandit_a2.png","70","70","test","1","120","120","6","",""
"null","216500","pSARL_v2","pSARL_v20m4jwt1c","6108bae61196a3bd6fc3a24b","freq_resp","img/orange_2bandit_a.png","70","70","test","","","","6","",""
"null","216661","pSARL_v2","pSARL_v20m4jwt1c","6108bae61196a3bd6fc3a24b","fixation","img/fixation.png","null","","test","","","","","",""
"277.5","216943","pSARL_v2","pSARL_v20m4jwt1c","6108bae61196a3bd6fc3a24b","freq","img/orange_2bandit_a2.png","70","70","test","1","121","121","6","",""
"null","217476","pSARL_v2","pSARL_v20m4jwt1c","6108bae61196a3bd6fc3a24b","freq_resp","img/orange_2bandit_a.png","70","70","test","","","","6","",""
"null","217635","pSARL_v2","pSARL_v20m4jwt1c","6108bae61196a3bd6fc3a24b","fixation","img/fixation.png","null","","test","","","","","",""
"307.60000002384186","217947","pSARL_v2","pSARL_v20m4jwt1c","6108bae61196a3bd6fc3a24b","freq","img/orange_2bandit_a2.png","70","70","test","1","122","122","6","",""
"null","218452","pSARL_v2","pSARL_v20m4jwt1c","6108bae61196a3bd6fc3a24b","freq_resp","img/orange_2bandit_a.png","70","70","test","","","","6","",""
"null","218611","pSARL_v2","pSARL_v20m4jwt1c","6108bae61196a3bd6fc3a24b","fixation","img/fixation.png","null","","test","","","","","",""
"299.0999999642372","218915","pSARL_v2","pSARL_v20m4jwt1c","6108bae61196a3bd6fc3a24b","freq","img/orange_2bandit_a2.png","70","70","test","1","123","123","6","",""
"null","219427","pSARL_v2","pSARL_v20m4jwt1c","6108bae61196a3bd6fc3a24b","freq_resp","img/orange_2bandit_a.png","70","70","test","","","","6","",""
"null","219588","pSARL_v2","pSARL_v20m4jwt1c","6108bae61196a3bd6fc3a24b","fixation","img/fixation.png","null","","test","","","","","",""
"273","219865","pSARL_v2","pSARL_v20m4jwt1c","6108bae61196a3bd6fc3a24b","freq","img/orange_2bandit_a2.png","70","70","test","1","124","124","6","",""
"null","220404","pSARL_v2","pSARL_v20m4jwt1c","6108bae61196a3bd6fc3a24b","freq_resp","img/orange_2bandit_a.png","70","70","test","","","","6","",""
"null","220564","pSARL_v2","pSARL_v20m4jwt1c","6108bae61196a3bd6fc3a24b","fixation","img/fixation.png","null","","test","","","","","",""
"159.5","220728","pSARL_v2","pSARL_v20m4jwt1c","6108bae61196a3bd6fc3a24b","infreq","img/green_2bandit_a2.png","70","68","test","0","125","125","6","",""
"null","221379","pSARL_v2","pSARL_v20m4jwt1c","6108bae61196a3bd6fc3a24b","infreq_resp","img/green_2bandit_a.png","70","68","test","","","","6","",""
"null","221539","pSARL_v2","pSARL_v20m4jwt1c","6108bae61196a3bd6fc3a24b","fixation","img/fixation.png","null","","test","","","","","",""
"400.89999997615814","221944","pSARL_v2","pSARL_v20m4jwt1c","6108bae61196a3bd6fc3a24b","freq","img/orange_2bandit_a2.png","70","70","test","1","126","126","6","",""
"null","222355","pSARL_v2","pSARL_v20m4jwt1c","6108bae61196a3bd6fc3a24b","freq_resp","img/orange_2bandit_a.png","70","70","test","","","","6","",""
"null","222515","pSARL_v2","pSARL_v20m4jwt1c","6108bae61196a3bd6fc3a24b","fixation","img/fixation.png","null","","test","","","","","",""
"507.5","223027","pSARL_v2","pSARL_v20m4jwt1c","6108bae61196a3bd6fc3a24b","infreq","img/green_2bandit_a2.png","68","68","test","1","127","127","6","",""
"null","223331","pSARL_v2","pSARL_v20m4jwt1c","6108bae61196a3bd6fc3a24b","infreq_resp","img/green_2bandit_a.png","68","68","test","","","","6","",""
"null","223491","pSARL_v2","pSARL_v20m4jwt1c","6108bae61196a3bd6fc3a24b","fixation","img/fixation.png","null","","test","","","","","",""
"330.89999997615814","223826","pSARL_v2","pSARL_v20m4jwt1c","6108bae61196a3bd6fc3a24b","freq","img/orange_2bandit_a2.png","70","70","test","1","128","128","6","",""
"null","224306","pSARL_v2","pSARL_v20m4jwt1c","6108bae61196a3bd6fc3a24b","freq_resp","img/orange_2bandit_a.png","70","70","test","","","","6","",""
"null","224467","pSARL_v2","pSARL_v20m4jwt1c","6108bae61196a3bd6fc3a24b","fixation","img/fixation.png","null","","test","","","","","",""
"326.7000000476837","224798","pSARL_v2","pSARL_v20m4jwt1c","6108bae61196a3bd6fc3a24b","freq","img/orange_2bandit_a2.png","70","70","test","1","129","129","6","",""
"null","225283","pSARL_v2","pSARL_v20m4jwt1c","6108bae61196a3bd6fc3a24b","freq_resp","img/orange_2bandit_a.png","70","70","test","","","","6","",""
"null","225446","pSARL_v2","pSARL_v20m4jwt1c","6108bae61196a3bd6fc3a24b","fixation","img/fixation.png","null","","test","","","","","",""
"332.60000002384186","225783","pSARL_v2","pSARL_v20m4jwt1c","6108bae61196a3bd6fc3a24b","freq","img/orange_2bandit_a2.png","70","70","test","1","130","130","6","",""
"null","226260","pSARL_v2","pSARL_v20m4jwt1c","6108bae61196a3bd6fc3a24b","freq_resp","img/orange_2bandit_a.png","70","70","test","","","","6","",""
"null","226418","pSARL_v2","pSARL_v20m4jwt1c","6108bae61196a3bd6fc3a24b","fixation","img/fixation.png","null","","test","","","","","",""
"305.10000002384186","226728","pSARL_v2","pSARL_v20m4jwt1c","6108bae61196a3bd6fc3a24b","freq","img/orange_2bandit_a2.png","70","70","test","1","131","131","6","",""
"null","227235","pSARL_v2","pSARL_v20m4jwt1c","6108bae61196a3bd6fc3a24b","freq_resp","img/orange_2bandit_a.png","70","70","test","","","","6","",""
"null","227394","pSARL_v2","pSARL_v20m4jwt1c","6108bae61196a3bd6fc3a24b","fixation","img/fixation.png","null","","test","","","","","",""
"323.9000000357628","227723","pSARL_v2","pSARL_v20m4jwt1c","6108bae61196a3bd6fc3a24b","freq","img/orange_2bandit_a2.png","70","70","test","1","132","132","6","",""
"null","228211","pSARL_v2","pSARL_v20m4jwt1c","6108bae61196a3bd6fc3a24b","freq_resp","img/orange_2bandit_a.png","70","70","test","","","","6","",""
"null","228371","pSARL_v2","pSARL_v20m4jwt1c","6108bae61196a3bd6fc3a24b","fixation","img/fixation.png","null","","test","","","","","",""
"294.7000000476837","228670","pSARL_v2","pSARL_v20m4jwt1c","6108bae61196a3bd6fc3a24b","freq","img/orange_2bandit_a2.png","70","70","test","1","133","133","6","",""
"null","229188","pSARL_v2","pSARL_v20m4jwt1c","6108bae61196a3bd6fc3a24b","freq_resp","img/orange_2bandit_a.png","70","70","test","","","","6","",""
"null","229347","pSARL_v2","pSARL_v20m4jwt1c","6108bae61196a3bd6fc3a24b","fixation","img/fixation.png","null","","test","","","","","",""
"339.5","229691","pSARL_v2","pSARL_v20m4jwt1c","6108bae61196a3bd6fc3a24b","freq","img/orange_2bandit_a2.png","70","70","test","1","134","134","6","",""
"null","230164","pSARL_v2","pSARL_v20m4jwt1c","6108bae61196a3bd6fc3a24b","freq_resp","img/orange_2bandit_a.png","70","70","test","","","","6","",""
"null","230324","pSARL_v2","pSARL_v20m4jwt1c","6108bae61196a3bd6fc3a24b","fixation","img/fixation.png","null","","test","","","","","",""
"370.5999999642372","230699","pSARL_v2","pSARL_v20m4jwt1c","6108bae61196a3bd6fc3a24b","freq","img/orange_2bandit_a2.png","70","70","test","1","135","135","6","",""
"null","231140","pSARL_v2","pSARL_v20m4jwt1c","6108bae61196a3bd6fc3a24b","freq_resp","img/orange_2bandit_a.png","70","70","test","","","","6","",""
"null","231299","pSARL_v2","pSARL_v20m4jwt1c","6108bae61196a3bd6fc3a24b","fixation","img/fixation.png","null","","test","","","","","",""
"398.60000002384186","231702","pSARL_v2","pSARL_v20m4jwt1c","6108bae61196a3bd6fc3a24b","freq","img/orange_2bandit_a2.png","70","70","test","1","136","136","6","",""
"null","232115","pSARL_v2","pSARL_v20m4jwt1c","6108bae61196a3bd6fc3a24b","freq_resp","img/orange_2bandit_a.png","70","70","test","","","","6","",""
"null","232275","pSARL_v2","pSARL_v20m4jwt1c","6108bae61196a3bd6fc3a24b","fixation","img/fixation.png","null","","test","","","","","",""
"436.2999999523163","232716","pSARL_v2","pSARL_v20m4jwt1c","6108bae61196a3bd6fc3a24b","freq","img/orange_2bandit_a2.png","70","70","test","1","137","137","6","",""
"null","233091","pSARL_v2","pSARL_v20m4jwt1c","6108bae61196a3bd6fc3a24b","freq_resp","img/orange_2bandit_a.png","70","70","test","","","","6","",""
"null","233251","pSARL_v2","pSARL_v20m4jwt1c","6108bae61196a3bd6fc3a24b","fixation","img/fixation.png","null","","test","","","","","",""
"373.5","233629","pSARL_v2","pSARL_v20m4jwt1c","6108bae61196a3bd6fc3a24b","freq","img/orange_2bandit_a2.png","70","70","test","1","138","138","6","",""
"null","234067","pSARL_v2","pSARL_v20m4jwt1c","6108bae61196a3bd6fc3a24b","freq_resp","img/orange_2bandit_a.png","70","70","test","","","","6","",""
"null","234227","pSARL_v2","pSARL_v20m4jwt1c","6108bae61196a3bd6fc3a24b","fixation","img/fixation.png","null","","test","","","","","",""
"1122.0999999642372","235353","pSARL_v2","pSARL_v20m4jwt1c","6108bae61196a3bd6fc3a24b","reward","img/slot.png","74","","test","","","","","",""
"null","236114","pSARL_v2","pSARL_v20m4jwt1c","6108bae61196a3bd6fc3a24b","points","<div class=""verylowPoints""> -7 </div>","null","na","test","","","","6","-7","5"
"443","236562","pSARL_v2","pSARL_v20m4jwt1c","6108bae61196a3bd6fc3a24b","freq","img/orange_2bandit_a2.png","70","70","test","1","139","139","7","",""
"null","236931","pSARL_v2","pSARL_v20m4jwt1c","6108bae61196a3bd6fc3a24b","freq_resp","img/orange_2bandit_a.png","70","70","test","","","","7","",""
"null","237091","pSARL_v2","pSARL_v20m4jwt1c","6108bae61196a3bd6fc3a24b","fixation","img/fixation.png","null","","test","","","","","",""
"318.89999997615814","237414","pSARL_v2","pSARL_v20m4jwt1c","6108bae61196a3bd6fc3a24b","freq","img/orange_2bandit_a2.png","70","70","test","1","140","140","7","",""
"null","237906","pSARL_v2","pSARL_v20m4jwt1c","6108bae61196a3bd6fc3a24b","freq_resp","img/orange_2bandit_a.png","70","70","test","","","","7","",""
"null","238067","pSARL_v2","pSARL_v20m4jwt1c","6108bae61196a3bd6fc3a24b","fixation","img/fixation.png","null","","test","","","","","",""
"460.60000002384186","238532","pSARL_v2","pSARL_v20m4jwt1c","6108bae61196a3bd6fc3a24b","infreq","img/green_2bandit_a2.png","68","68","test","1","141","141","7","",""
"null","238883","pSARL_v2","pSARL_v20m4jwt1c","6108bae61196a3bd6fc3a24b","infreq_resp","img/green_2bandit_a.png","68","68","test","","","","7","",""
"null","239043","pSARL_v2","pSARL_v20m4jwt1c","6108bae61196a3bd6fc3a24b","fixation","img/fixation.png","null","","test","","","","","",""
"431.5","239479","pSARL_v2","pSARL_v20m4jwt1c","6108bae61196a3bd6fc3a24b","freq","img/orange_2bandit_a2.png","70","70","test","1","142","142","7","",""
"null","239859","pSARL_v2","pSARL_v20m4jwt1c","6108bae61196a3bd6fc3a24b","freq_resp","img/orange_2bandit_a.png","70","70","test","","","","7","",""
"null","240019","pSARL_v2","pSARL_v20m4jwt1c","6108bae61196a3bd6fc3a24b","fixation","img/fixation.png","null","","test","","","","","",""
"419.19999998807907","240442","pSARL_v2","pSARL_v20m4jwt1c","6108bae61196a3bd6fc3a24b","freq","img/orange_2bandit_a2.png","70","70","test","1","143","143","7","",""
"null","240836","pSARL_v2","pSARL_v20m4jwt1c","6108bae61196a3bd6fc3a24b","freq_resp","img/orange_2bandit_a.png","70","70","test","","","","7","",""
"null","240994","pSARL_v2","pSARL_v20m4jwt1c","6108bae61196a3bd6fc3a24b","fixation","img/fixation.png","null","","test","","","","","",""
"335.10000002384186","241334","pSARL_v2","pSARL_v20m4jwt1c","6108bae61196a3bd6fc3a24b","freq","img/orange_2bandit_a2.png","70","70","test","1","144","144","7","",""
"null","241810","pSARL_v2","pSARL_v20m4jwt1c","6108bae61196a3bd6fc3a24b","freq_resp","img/orange_2bandit_a.png","70","70","test","","","","7","",""
"null","241970","pSARL_v2","pSARL_v20m4jwt1c","6108bae61196a3bd6fc3a24b","fixation","img/fixation.png","null","","test","","","","","",""
"367.60000002384186","242342","pSARL_v2","pSARL_v20m4jwt1c","6108bae61196a3bd6fc3a24b","freq","img/orange_2bandit_a2.png","70","70","test","1","145","145","7","",""
"null","242789","pSARL_v2","pSARL_v20m4jwt1c","6108bae61196a3bd6fc3a24b","freq_resp","img/orange_2bandit_a.png","70","70","test","","","","7","",""
"null","242946","pSARL_v2","pSARL_v20m4jwt1c","6108bae61196a3bd6fc3a24b","fixation","img/fixation.png","null","","test","","","","","",""
"305.2000000476837","243256","pSARL_v2","pSARL_v20m4jwt1c","6108bae61196a3bd6fc3a24b","freq","img/orange_2bandit_a2.png","70","70","test","1","146","146","7","",""
"null","243763","pSARL_v2","pSARL_v20m4jwt1c","6108bae61196a3bd6fc3a24b","freq_resp","img/orange_2bandit_a.png","70","70","test","","","","7","",""
"null","243922","pSARL_v2","pSARL_v20m4jwt1c","6108bae61196a3bd6fc3a24b","fixation","img/fixation.png","null","","test","","","","","",""
"300.80000001192093","244228","pSARL_v2","pSARL_v20m4jwt1c","6108bae61196a3bd6fc3a24b","freq","img/orange_2bandit_a2.png","70","70","test","1","147","147","7","",""
"null","244739","pSARL_v2","pSARL_v20m4jwt1c","6108bae61196a3bd6fc3a24b","freq_resp","img/orange_2bandit_a.png","70","70","test","","","","7","",""
"null","244898","pSARL_v2","pSARL_v20m4jwt1c","6108bae61196a3bd6fc3a24b","fixation","img/fixation.png","null","","test","","","","","",""
"311.7000000476837","245215","pSARL_v2","pSARL_v20m4jwt1c","6108bae61196a3bd6fc3a24b","freq","img/orange_2bandit_a2.png","70","70","test","1","148","148","7","",""
"null","245713","pSARL_v2","pSARL_v20m4jwt1c","6108bae61196a3bd6fc3a24b","freq_resp","img/orange_2bandit_a.png","70","70","test","","","","7","",""
"null","245874","pSARL_v2","pSARL_v20m4jwt1c","6108bae61196a3bd6fc3a24b","fixation","img/fixation.png","null","","test","","","","","",""
"299.10000002384186","246178","pSARL_v2","pSARL_v20m4jwt1c","6108bae61196a3bd6fc3a24b","freq","img/orange_2bandit_a2.png","70","70","test","1","149","149","7","",""
"null","246690","pSARL_v2","pSARL_v20m4jwt1c","6108bae61196a3bd6fc3a24b","freq_resp","img/orange_2bandit_a.png","70","70","test","","","","7","",""
"null","246852","pSARL_v2","pSARL_v20m4jwt1c","6108bae61196a3bd6fc3a24b","fixation","img/fixation.png","null","","test","","","","","",""
"367.80000001192093","247224","pSARL_v2","pSARL_v20m4jwt1c","6108bae61196a3bd6fc3a24b","infreq","img/green_2bandit_a2.png","68","68","test","1","150","150","7","",""
"null","247667","pSARL_v2","pSARL_v20m4jwt1c","6108bae61196a3bd6fc3a24b","infreq_resp","img/green_2bandit_a.png","68","68","test","","","","7","",""
"null","247826","pSARL_v2","pSARL_v20m4jwt1c","6108bae61196a3bd6fc3a24b","fixation","img/fixation.png","null","","test","","","","","",""
"385.80000001192093","248217","pSARL_v2","pSARL_v20m4jwt1c","6108bae61196a3bd6fc3a24b","freq","img/orange_2bandit_a2.png","70","70","test","1","151","151","7","",""
"null","248642","pSARL_v2","pSARL_v20m4jwt1c","6108bae61196a3bd6fc3a24b","freq_resp","img/orange_2bandit_a.png","70","70","test","","","","7","",""
"null","248802","pSARL_v2","pSARL_v20m4jwt1c","6108bae61196a3bd6fc3a24b","fixation","img/fixation.png","null","","test","","","","","",""
"388.89999997615814","249195","pSARL_v2","pSARL_v20m4jwt1c","6108bae61196a3bd6fc3a24b","freq","img/orange_2bandit_a2.png","70","70","test","1","152","152","7","",""
"null","249618","pSARL_v2","pSARL_v20m4jwt1c","6108bae61196a3bd6fc3a24b","freq_resp","img/orange_2bandit_a.png","70","70","test","","","","7","",""
"null","249778","pSARL_v2","pSARL_v20m4jwt1c","6108bae61196a3bd6fc3a24b","fixation","img/fixation.png","null","","test","","","","","",""
"488.60000002384186","250272","pSARL_v2","pSARL_v20m4jwt1c","6108bae61196a3bd6fc3a24b","freq","img/orange_2bandit_a2.png","70","70","test","1","153","153","7","",""
"null","250594","pSARL_v2","pSARL_v20m4jwt1c","6108bae61196a3bd6fc3a24b","freq_resp","img/orange_2bandit_a.png","70","70","test","","","","7","",""
"null","250754","pSARL_v2","pSARL_v20m4jwt1c","6108bae61196a3bd6fc3a24b","fixation","img/fixation.png","null","","test","","","","","",""
"335.60000002384186","251094","pSARL_v2","pSARL_v20m4jwt1c","6108bae61196a3bd6fc3a24b","freq","img/orange_2bandit_a2.png","70","70","test","1","154","154","7","",""
"null","251569","pSARL_v2","pSARL_v20m4jwt1c","6108bae61196a3bd6fc3a24b","freq_resp","img/orange_2bandit_a.png","70","70","test","","","","7","",""
"null","251731","pSARL_v2","pSARL_v20m4jwt1c","6108bae61196a3bd6fc3a24b","fixation","img/fixation.png","null","","test","","","","","",""
"374.5999999642372","252110","pSARL_v2","pSARL_v20m4jwt1c","6108bae61196a3bd6fc3a24b","freq","img/orange_2bandit_a2.png","70","70","test","1","155","155","7","",""
"null","252545","pSARL_v2","pSARL_v20m4jwt1c","6108bae61196a3bd6fc3a24b","freq_resp","img/orange_2bandit_a.png","70","70","test","","","","7","",""
"null","252706","pSARL_v2","pSARL_v20m4jwt1c","6108bae61196a3bd6fc3a24b","fixation","img/fixation.png","null","","test","","","","","",""
"335.4000000357628","253046","pSARL_v2","pSARL_v20m4jwt1c","6108bae61196a3bd6fc3a24b","freq","img/orange_2bandit_a2.png","70","70","test","1","156","156","7","",""
"null","253522","pSARL_v2","pSARL_v20m4jwt1c","6108bae61196a3bd6fc3a24b","freq_resp","img/orange_2bandit_a.png","70","70","test","","","","7","",""
"null","253682","pSARL_v2","pSARL_v20m4jwt1c","6108bae61196a3bd6fc3a24b","fixation","img/fixation.png","null","","test","","","","","",""
"333.80000001192093","254021","pSARL_v2","pSARL_v20m4jwt1c","6108bae61196a3bd6fc3a24b","freq","img/orange_2bandit_a2.png","70","70","test","1","157","157","7","",""
"null","254498","pSARL_v2","pSARL_v20m4jwt1c","6108bae61196a3bd6fc3a24b","freq_resp","img/orange_2bandit_a.png","70","70","test","","","","7","",""
"null","254660","pSARL_v2","pSARL_v20m4jwt1c","6108bae61196a3bd6fc3a24b","fixation","img/fixation.png","null","","test","","","","","",""
"264.80000001192093","254930","pSARL_v2","pSARL_v20m4jwt1c","6108bae61196a3bd6fc3a24b","freq","img/orange_2bandit_a2.png","70","70","test","1","158","158","7","",""
"null","255473","pSARL_v2","pSARL_v20m4jwt1c","6108bae61196a3bd6fc3a24b","freq_resp","img/orange_2bandit_a.png","70","70","test","","","","7","",""
"null","255633","pSARL_v2","pSARL_v20m4jwt1c","6108bae61196a3bd6fc3a24b","fixation","img/fixation.png","null","","test","","","","","",""
"347.19999998807907","255985","pSARL_v2","pSARL_v20m4jwt1c","6108bae61196a3bd6fc3a24b","freq","img/orange_2bandit_a2.png","70","70","test","1","159","159","7","",""
"null","256450","pSARL_v2","pSARL_v20m4jwt1c","6108bae61196a3bd6fc3a24b","freq_resp","img/orange_2bandit_a.png","70","70","test","","","","7","",""
"null","256610","pSARL_v2","pSARL_v20m4jwt1c","6108bae61196a3bd6fc3a24b","fixation","img/fixation.png","null","","test","","","","","",""
"374.69999998807907","256989","pSARL_v2","pSARL_v20m4jwt1c","6108bae61196a3bd6fc3a24b","freq","img/orange_2bandit_a2.png","70","70","test","1","160","160","7","",""
"null","257425","pSARL_v2","pSARL_v20m4jwt1c","6108bae61196a3bd6fc3a24b","freq_resp","img/orange_2bandit_a.png","70","70","test","","","","7","",""
"null","257586","pSARL_v2","pSARL_v20m4jwt1c","6108bae61196a3bd6fc3a24b","fixation","img/fixation.png","null","","test","","","","","",""
"460","258051","pSARL_v2","pSARL_v20m4jwt1c","6108bae61196a3bd6fc3a24b","freq","img/orange_2bandit_a2.png","70","70","test","1","161","161","7","",""
"null","258401","pSARL_v2","pSARL_v20m4jwt1c","6108bae61196a3bd6fc3a24b","freq_resp","img/orange_2bandit_a.png","70","70","test","","","","7","",""
"null","258562","pSARL_v2","pSARL_v20m4jwt1c","6108bae61196a3bd6fc3a24b","fixation","img/fixation.png","null","","test","","","","","",""
"339.69999998807907","258906","pSARL_v2","pSARL_v20m4jwt1c","6108bae61196a3bd6fc3a24b","freq","img/orange_2bandit_a2.png","70","70","test","1","162","162","7","",""
"null","259377","pSARL_v2","pSARL_v20m4jwt1c","6108bae61196a3bd6fc3a24b","freq_resp","img/orange_2bandit_a.png","70","70","test","","","","7","",""
"null","259539","pSARL_v2","pSARL_v20m4jwt1c","6108bae61196a3bd6fc3a24b","fixation","img/fixation.png","null","","test","","","","","",""
"345.60000002384186","259889","pSARL_v2","pSARL_v20m4jwt1c","6108bae61196a3bd6fc3a24b","freq","img/orange_2bandit_a2.png","70","70","test","1","163","163","7","",""
"null","260352","pSARL_v2","pSARL_v20m4jwt1c","6108bae61196a3bd6fc3a24b","freq_resp","img/orange_2bandit_a.png","70","70","test","","","","7","",""
"null","260513","pSARL_v2","pSARL_v20m4jwt1c","6108bae61196a3bd6fc3a24b","fixation","img/fixation.png","null","","test","","","","","",""
"411.10000002384186","260929","pSARL_v2","pSARL_v20m4jwt1c","6108bae61196a3bd6fc3a24b","reward","img/slot.png","74","","test","","","","","",""
"null","261690","pSARL_v2","pSARL_v20m4jwt1c","6108bae61196a3bd6fc3a24b","points","<div class=""verylowPoints""> -6 </div>","null","na","test","","","","7","-6","6"
"422.30000001192093","262117","pSARL_v2","pSARL_v20m4jwt1c","6108bae61196a3bd6fc3a24b","freq","img/orange_2bandit_a2.png","70","70","test","1","164","164","8","",""
"null","262505","pSARL_v2","pSARL_v20m4jwt1c","6108bae61196a3bd6fc3a24b","freq_resp","img/orange_2bandit_a.png","70","70","test","","","","8","",""
"null","262666","pSARL_v2","pSARL_v20m4jwt1c","6108bae61196a3bd6fc3a24b","fixation","img/fixation.png","null","","test","","","","","",""
"381.30000001192093","263051","pSARL_v2","pSARL_v20m4jwt1c","6108bae61196a3bd6fc3a24b","freq","img/orange_2bandit_a2.png","70","70","test","1","165","165","8","",""
"null","263483","pSARL_v2","pSARL_v20m4jwt1c","6108bae61196a3bd6fc3a24b","freq_resp","img/orange_2bandit_a.png","70","70","test","","","","8","",""
"null","263641","pSARL_v2","pSARL_v20m4jwt1c","6108bae61196a3bd6fc3a24b","fixation","img/fixation.png","null","","test","","","","","",""
"284.0999999642372","263929","pSARL_v2","pSARL_v20m4jwt1c","6108bae61196a3bd6fc3a24b","freq","img/orange_2bandit_a2.png","70","70","test","1","166","166","8","",""
"null","264458","pSARL_v2","pSARL_v20m4jwt1c","6108bae61196a3bd6fc3a24b","freq_resp","img/orange_2bandit_a.png","70","70","test","","","","8","",""
"null","264617","pSARL_v2","pSARL_v20m4jwt1c","6108bae61196a3bd6fc3a24b","fixation","img/fixation.png","null","","test","","","","","",""
"285.19999998807907","264907","pSARL_v2","pSARL_v20m4jwt1c","6108bae61196a3bd6fc3a24b","freq","img/orange_2bandit_a2.png","70","70","test","1","167","167","8","",""
"null","265433","pSARL_v2","pSARL_v20m4jwt1c","6108bae61196a3bd6fc3a24b","freq_resp","img/orange_2bandit_a.png","70","70","test","","","","8","",""
"null","265593","pSARL_v2","pSARL_v20m4jwt1c","6108bae61196a3bd6fc3a24b","fixation","img/fixation.png","null","","test","","","","","",""
"298.39999997615814","265896","pSARL_v2","pSARL_v20m4jwt1c","6108bae61196a3bd6fc3a24b","freq","img/orange_2bandit_a2.png","70","70","test","1","168","168","8","",""
"null","266408","pSARL_v2","pSARL_v20m4jwt1c","6108bae61196a3bd6fc3a24b","freq_resp","img/orange_2bandit_a.png","70","70","test","","","","8","",""
"null","266569","pSARL_v2","pSARL_v20m4jwt1c","6108bae61196a3bd6fc3a24b","fixation","img/fixation.png","null","","test","","","","","",""
"305.5","266880","pSARL_v2","pSARL_v20m4jwt1c","6108bae61196a3bd6fc3a24b","freq","img/orange_2bandit_a2.png","70","70","test","1","169","169","8","",""
"null","267386","pSARL_v2","pSARL_v20m4jwt1c","6108bae61196a3bd6fc3a24b","freq_resp","img/orange_2bandit_a.png","70","70","test","","","","8","",""
"null","267545","pSARL_v2","pSARL_v20m4jwt1c","6108bae61196a3bd6fc3a24b","fixation","img/fixation.png","null","","test","","","","","",""
"292.5","267842","pSARL_v2","pSARL_v20m4jwt1c","6108bae61196a3bd6fc3a24b","freq","img/orange_2bandit_a2.png","70","70","test","1","170","170","8","",""
"null","268361","pSARL_v2","pSARL_v20m4jwt1c","6108bae61196a3bd6fc3a24b","freq_resp","img/orange_2bandit_a.png","70","70","test","","","","8","",""
"null","268521","pSARL_v2","pSARL_v20m4jwt1c","6108bae61196a3bd6fc3a24b","fixation","img/fixation.png","null","","test","","","","","",""
"322.10000002384186","268848","pSARL_v2","pSARL_v20m4jwt1c","6108bae61196a3bd6fc3a24b","freq","img/orange_2bandit_a2.png","70","70","test","1","171","171","8","",""
"null","269337","pSARL_v2","pSARL_v20m4jwt1c","6108bae61196a3bd6fc3a24b","freq_resp","img/orange_2bandit_a.png","70","70","test","","","","8","",""
"null","269497","pSARL_v2","pSARL_v20m4jwt1c","6108bae61196a3bd6fc3a24b","fixation","img/fixation.png","null","","test","","","","","",""
"260.19999998807907","269762","pSARL_v2","pSARL_v20m4jwt1c","6108bae61196a3bd6fc3a24b","freq","img/orange_2bandit_a2.png","70","70","test","1","172","172","8","",""
"null","270312","pSARL_v2","pSARL_v20m4jwt1c","6108bae61196a3bd6fc3a24b","freq_resp","img/orange_2bandit_a.png","70","70","test","","","","8","",""
"null","270473","pSARL_v2","pSARL_v20m4jwt1c","6108bae61196a3bd6fc3a24b","fixation","img/fixation.png","null","","test","","","","","",""
"302.69999998807907","270780","pSARL_v2","pSARL_v20m4jwt1c","6108bae61196a3bd6fc3a24b","freq","img/orange_2bandit_a2.png","70","70","test","1","173","173","8","",""
"null","271289","pSARL_v2","pSARL_v20m4jwt1c","6108bae61196a3bd6fc3a24b","freq_resp","img/orange_2bandit_a.png","70","70","test","","","","8","",""
"null","271449","pSARL_v2","pSARL_v20m4jwt1c","6108bae61196a3bd6fc3a24b","fixation","img/fixation.png","null","","test","","","","","",""
"602.5999999642372","272056","pSARL_v2","pSARL_v20m4jwt1c","6108bae61196a3bd6fc3a24b","infreq","img/green_2bandit_a2.png","68","68","test","1","174","174","8","",""
"null","272265","pSARL_v2","pSARL_v20m4jwt1c","6108bae61196a3bd6fc3a24b","infreq_resp","img/green_2bandit_a.png","68","68","test","","","","8","",""
"null","272424","pSARL_v2","pSARL_v20m4jwt1c","6108bae61196a3bd6fc3a24b","fixation","img/fixation.png","null","","test","","","","","",""
"625.3000000119209","273054","pSARL_v2","pSARL_v20m4jwt1c","6108bae61196a3bd6fc3a24b","freq","img/orange_2bandit_a2.png","70","70","test","1","175","175","8","",""
"null","273240","pSARL_v2","pSARL_v20m4jwt1c","6108bae61196a3bd6fc3a24b","freq_resp","img/orange_2bandit_a.png","70","70","test","","","","8","",""
"null","273401","pSARL_v2","pSARL_v20m4jwt1c","6108bae61196a3bd6fc3a24b","fixation","img/fixation.png","null","","test","","","","","",""
"346.30000001192093","273752","pSARL_v2","pSARL_v20m4jwt1c","6108bae61196a3bd6fc3a24b","freq","img/orange_2bandit_a2.png","70","70","test","1","176","176","8","",""
"null","274216","pSARL_v2","pSARL_v20m4jwt1c","6108bae61196a3bd6fc3a24b","freq_resp","img/orange_2bandit_a.png","70","70","test","","","","8","",""
"null","274378","pSARL_v2","pSARL_v20m4jwt1c","6108bae61196a3bd6fc3a24b","fixation","img/fixation.png","null","","test","","","","","",""
"299.80000001192093","274682","pSARL_v2","pSARL_v20m4jwt1c","6108bae61196a3bd6fc3a24b","freq","img/orange_2bandit_a2.png","70","70","test","1","177","177","8","",""
"null","275192","pSARL_v2","pSARL_v20m4jwt1c","6108bae61196a3bd6fc3a24b","freq_resp","img/orange_2bandit_a.png","70","70","test","","","","8","",""
"null","275352","pSARL_v2","pSARL_v20m4jwt1c","6108bae61196a3bd6fc3a24b","fixation","img/fixation.png","null","","test","","","","","",""
"148.69999998807907","275506","pSARL_v2","pSARL_v20m4jwt1c","6108bae61196a3bd6fc3a24b","freq","img/orange_2bandit_a2.png","70","70","test","1","178","178","8","",""
"null","276168","pSARL_v2","pSARL_v20m4jwt1c","6108bae61196a3bd6fc3a24b","freq_resp","img/orange_2bandit_a.png","70","70","test","","","","8","",""
"null","276328","pSARL_v2","pSARL_v20m4jwt1c","6108bae61196a3bd6fc3a24b","fixation","img/fixation.png","null","","test","","","","","",""
"315.89999997615814","276649","pSARL_v2","pSARL_v20m4jwt1c","6108bae61196a3bd6fc3a24b","freq","img/orange_2bandit_a2.png","70","70","test","1","179","179","8","",""
"null","277145","pSARL_v2","pSARL_v20m4jwt1c","6108bae61196a3bd6fc3a24b","freq_resp","img/orange_2bandit_a.png","70","70","test","","","","8","",""
"null","277305","pSARL_v2","pSARL_v20m4jwt1c","6108bae61196a3bd6fc3a24b","fixation","img/fixation.png","null","","test","","","","","",""
"282.80000001192093","277592","pSARL_v2","pSARL_v20m4jwt1c","6108bae61196a3bd6fc3a24b","freq","img/orange_2bandit_a2.png","70","70","test","1","180","180","8","",""
"null","278120","pSARL_v2","pSARL_v20m4jwt1c","6108bae61196a3bd6fc3a24b","freq_resp","img/orange_2bandit_a.png","70","70","test","","","","8","",""
"null","278282","pSARL_v2","pSARL_v20m4jwt1c","6108bae61196a3bd6fc3a24b","fixation","img/fixation.png","null","","test","","","","","",""
"298.10000002384186","278585","pSARL_v2","pSARL_v20m4jwt1c","6108bae61196a3bd6fc3a24b","freq","img/orange_2bandit_a2.png","70","70","test","1","181","181","8","",""
"null","279096","pSARL_v2","pSARL_v20m4jwt1c","6108bae61196a3bd6fc3a24b","freq_resp","img/orange_2bandit_a.png","70","70","test","","","","8","",""
"null","279256","pSARL_v2","pSARL_v20m4jwt1c","6108bae61196a3bd6fc3a24b","fixation","img/fixation.png","null","","test","","","","","",""
"287.9000000357628","279548","pSARL_v2","pSARL_v20m4jwt1c","6108bae61196a3bd6fc3a24b","freq","img/orange_2bandit_a2.png","70","70","test","1","182","182","8","",""
"null","280073","pSARL_v2","pSARL_v20m4jwt1c","6108bae61196a3bd6fc3a24b","freq_resp","img/orange_2bandit_a.png","70","70","test","","","","8","",""
"null","280235","pSARL_v2","pSARL_v20m4jwt1c","6108bae61196a3bd6fc3a24b","fixation","img/fixation.png","null","","test","","","","","",""
"483.10000002384186","280723","pSARL_v2","pSARL_v20m4jwt1c","6108bae61196a3bd6fc3a24b","freq","img/orange_2bandit_a2.png","70","70","test","1","183","183","8","",""
"null","281048","pSARL_v2","pSARL_v20m4jwt1c","6108bae61196a3bd6fc3a24b","freq_resp","img/orange_2bandit_a.png","70","70","test","","","","8","",""
"null","281208","pSARL_v2","pSARL_v20m4jwt1c","6108bae61196a3bd6fc3a24b","fixation","img/fixation.png","null","","test","","","","","",""
"320","281532","pSARL_v2","pSARL_v20m4jwt1c","6108bae61196a3bd6fc3a24b","freq","img/orange_2bandit_a2.png","70","70","test","1","184","184","8","",""
"null","282023","pSARL_v2","pSARL_v20m4jwt1c","6108bae61196a3bd6fc3a24b","freq_resp","img/orange_2bandit_a.png","70","70","test","","","","8","",""
"null","282185","pSARL_v2","pSARL_v20m4jwt1c","6108bae61196a3bd6fc3a24b","fixation","img/fixation.png","null","","test","","","","","",""
"328.5","282518","pSARL_v2","pSARL_v20m4jwt1c","6108bae61196a3bd6fc3a24b","freq","img/orange_2bandit_a2.png","70","70","test","1","185","185","8","",""
"null","282999","pSARL_v2","pSARL_v20m4jwt1c","6108bae61196a3bd6fc3a24b","freq_resp","img/orange_2bandit_a.png","70","70","test","","","","8","",""
"null","283160","pSARL_v2","pSARL_v20m4jwt1c","6108bae61196a3bd6fc3a24b","fixation","img/fixation.png","null","","test","","","","","",""
"668.5","283834","pSARL_v2","pSARL_v20m4jwt1c","6108bae61196a3bd6fc3a24b","infreq","img/green_2bandit_a2.png","68","68","test","1","186","186","8","",""
"null","283975","pSARL_v2","pSARL_v20m4jwt1c","6108bae61196a3bd6fc3a24b","infreq_resp","img/green_2bandit_a.png","68","68","test","","","","8","",""
"null","284136","pSARL_v2","pSARL_v20m4jwt1c","6108bae61196a3bd6fc3a24b","fixation","img/fixation.png","null","","test","","","","","",""
"479.39999997615814","284620","pSARL_v2","pSARL_v20m4jwt1c","6108bae61196a3bd6fc3a24b","freq","img/orange_2bandit_a2.png","70","70","test","1","187","187","8","",""
"null","284952","pSARL_v2","pSARL_v20m4jwt1c","6108bae61196a3bd6fc3a24b","freq_resp","img/orange_2bandit_a.png","70","70","test","","","","8","",""
"null","285112","pSARL_v2","pSARL_v20m4jwt1c","6108bae61196a3bd6fc3a24b","fixation","img/fixation.png","null","","test","","","","","",""
"536","285653","pSARL_v2","pSARL_v20m4jwt1c","6108bae61196a3bd6fc3a24b","freq","img/orange_2bandit_a2.png","70","70","test","1","188","188","8","",""
"null","285929","pSARL_v2","pSARL_v20m4jwt1c","6108bae61196a3bd6fc3a24b","freq_resp","img/orange_2bandit_a.png","70","70","test","","","","8","",""
"null","286090","pSARL_v2","pSARL_v20m4jwt1c","6108bae61196a3bd6fc3a24b","fixation","img/fixation.png","null","","test","","","","","",""
"372.5999999642372","286468","pSARL_v2","pSARL_v20m4jwt1c","6108bae61196a3bd6fc3a24b","freq","img/orange_2bandit_a2.png","70","70","test","1","189","189","8","",""
"null","286904","pSARL_v2","pSARL_v20m4jwt1c","6108bae61196a3bd6fc3a24b","freq_resp","img/orange_2bandit_a.png","70","70","test","","","","8","",""
"null","287064","pSARL_v2","pSARL_v20m4jwt1c","6108bae61196a3bd6fc3a24b","fixation","img/fixation.png","null","","test","","","","","",""
"1043.8999999761581","288113","pSARL_v2","pSARL_v20m4jwt1c","6108bae61196a3bd6fc3a24b","reward","img/slot.png","74","","test","","","","","",""
"null","288874","pSARL_v2","pSARL_v20m4jwt1c","6108bae61196a3bd6fc3a24b","points","<div class=""verylowPoints""> -4 </div>","null","na","test","","","","8","-4","7"
"450.69999998807907","289329","pSARL_v2","pSARL_v20m4jwt1c","6108bae61196a3bd6fc3a24b","freq","img/orange_2bandit_a2.png","70","70","test","1","190","190","9","",""
"null","289690","pSARL_v2","pSARL_v20m4jwt1c","6108bae61196a3bd6fc3a24b","freq_resp","img/orange_2bandit_a.png","70","70","test","","","","9","",""
"null","289851","pSARL_v2","pSARL_v20m4jwt1c","6108bae61196a3bd6fc3a24b","fixation","img/fixation.png","null","","test","","","","","",""
"393.19999998807907","290249","pSARL_v2","pSARL_v20m4jwt1c","6108bae61196a3bd6fc3a24b","freq","img/orange_2bandit_a2.png","70","70","test","1","191","191","9","",""
"null","290664","pSARL_v2","pSARL_v20m4jwt1c","6108bae61196a3bd6fc3a24b","freq_resp","img/orange_2bandit_a.png","70","70","test","","","","9","",""
"null","290824","pSARL_v2","pSARL_v20m4jwt1c","6108bae61196a3bd6fc3a24b","fixation","img/fixation.png","null","","test","","","","","",""
"485","291313","pSARL_v2","pSARL_v20m4jwt1c","6108bae61196a3bd6fc3a24b","freq","img/orange_2bandit_a2.png","70","70","test","1","192","192","9","",""
"null","291634","pSARL_v2","pSARL_v20m4jwt1c","6108bae61196a3bd6fc3a24b","freq_resp","img/orange_2bandit_a.png","70","70","test","","","","9","",""
"null","291792","pSARL_v2","pSARL_v20m4jwt1c","6108bae61196a3bd6fc3a24b","fixation","img/fixation.png","null","","test","","","","","",""
"344.69999998807907","292141","pSARL_v2","pSARL_v20m4jwt1c","6108bae61196a3bd6fc3a24b","freq","img/orange_2bandit_a2.png","70","70","test","1","193","193","9","",""
"null","292608","pSARL_v2","pSARL_v20m4jwt1c","6108bae61196a3bd6fc3a24b","freq_resp","img/orange_2bandit_a.png","70","70","test","","","","9","",""
"null","292768","pSARL_v2","pSARL_v20m4jwt1c","6108bae61196a3bd6fc3a24b","fixation","img/fixation.png","null","","test","","","","","",""
"504","293276","pSARL_v2","pSARL_v20m4jwt1c","6108bae61196a3bd6fc3a24b","freq","img/orange_2bandit_a2.png","70","70","test","1","194","194","9","",""
"null","293583","pSARL_v2","pSARL_v20m4jwt1c","6108bae61196a3bd6fc3a24b","freq_resp","img/orange_2bandit_a.png","70","70","test","","","","9","",""
"null","293743","pSARL_v2","pSARL_v20m4jwt1c","6108bae61196a3bd6fc3a24b","fixation","img/fixation.png","null","","test","","","","","",""
"506.30000001192093","294254","pSARL_v2","pSARL_v20m4jwt1c","6108bae61196a3bd6fc3a24b","freq","img/orange_2bandit_a2.png","70","70","test","1","195","195","9","",""
"null","294560","pSARL_v2","pSARL_v20m4jwt1c","6108bae61196a3bd6fc3a24b","freq_resp","img/orange_2bandit_a.png","70","70","test","","","","9","",""
"null","294720","pSARL_v2","pSARL_v20m4jwt1c","6108bae61196a3bd6fc3a24b","fixation","img/fixation.png","null","","test","","","","","",""
"361.5","295086","pSARL_v2","pSARL_v20m4jwt1c","6108bae61196a3bd6fc3a24b","freq","img/orange_2bandit_a2.png","70","70","test","1","196","196","9","",""
"null","295536","pSARL_v2","pSARL_v20m4jwt1c","6108bae61196a3bd6fc3a24b","freq_resp","img/orange_2bandit_a.png","70","70","test","","","","9","",""
"null","295696","pSARL_v2","pSARL_v20m4jwt1c","6108bae61196a3bd6fc3a24b","fixation","img/fixation.png","null","","test","","","","","",""
"326.7999999523163","296027","pSARL_v2","pSARL_v20m4jwt1c","6108bae61196a3bd6fc3a24b","freq","img/orange_2bandit_a2.png","70","70","test","1","197","197","9","",""
"null","296511","pSARL_v2","pSARL_v20m4jwt1c","6108bae61196a3bd6fc3a24b","freq_resp","img/orange_2bandit_a.png","70","70","test","","","","9","",""
"null","296672","pSARL_v2","pSARL_v20m4jwt1c","6108bae61196a3bd6fc3a24b","fixation","img/fixation.png","null","","test","","","","","",""
"306.80000001192093","296983","pSARL_v2","pSARL_v20m4jwt1c","6108bae61196a3bd6fc3a24b","freq","img/orange_2bandit_a2.png","70","70","test","1","198","198","9","",""
"null","297488","pSARL_v2","pSARL_v20m4jwt1c","6108bae61196a3bd6fc3a24b","freq_resp","img/orange_2bandit_a.png","70","70","test","","","","9","",""
"null","297648","pSARL_v2","pSARL_v20m4jwt1c","6108bae61196a3bd6fc3a24b","fixation","img/fixation.png","null","","test","","","","","",""
"284","297936","pSARL_v2","pSARL_v20m4jwt1c","6108bae61196a3bd6fc3a24b","freq","img/orange_2bandit_a2.png","70","70","test","1","199","199","9","",""
"null","298463","pSARL_v2","pSARL_v20m4jwt1c","6108bae61196a3bd6fc3a24b","freq_resp","img/orange_2bandit_a.png","70","70","test","","","","9","",""
"null","298623","pSARL_v2","pSARL_v20m4jwt1c","6108bae61196a3bd6fc3a24b","fixation","img/fixation.png","null","","test","","","","","",""
"276.5999999642372","298905","pSARL_v2","pSARL_v20m4jwt1c","6108bae61196a3bd6fc3a24b","freq","img/orange_2bandit_a2.png","70","70","test","1","200","200","9","",""
"null","299438","pSARL_v2","pSARL_v20m4jwt1c","6108bae61196a3bd6fc3a24b","freq_resp","img/orange_2bandit_a.png","70","70","test","","","","9","",""
"null","299599","pSARL_v2","pSARL_v20m4jwt1c","6108bae61196a3bd6fc3a24b","fixation","img/fixation.png","null","","test","","","","","",""
"272.5","299876","pSARL_v2","pSARL_v20m4jwt1c","6108bae61196a3bd6fc3a24b","infreq","img/green_2bandit_a2.png","70","68","test","0","201","201","9","",""
"null","300416","pSARL_v2","pSARL_v20m4jwt1c","6108bae61196a3bd6fc3a24b","infreq_resp","img/green_2bandit_a.png","70","68","test","","","","9","",""
"null","300574","pSARL_v2","pSARL_v20m4jwt1c","6108bae61196a3bd6fc3a24b","fixation","img/fixation.png","null","","test","","","","","",""
"409.2000000476837","300988","pSARL_v2","pSARL_v20m4jwt1c","6108bae61196a3bd6fc3a24b","freq","img/orange_2bandit_a2.png","70","70","test","1","202","202","9","",""
"null","301392","pSARL_v2","pSARL_v20m4jwt1c","6108bae61196a3bd6fc3a24b","freq_resp","img/orange_2bandit_a.png","70","70","test","","","","9","",""
"null","301552","pSARL_v2","pSARL_v20m4jwt1c","6108bae61196a3bd6fc3a24b","fixation","img/fixation.png","null","","test","","","","","",""
"324.5999999642372","301881","pSARL_v2","pSARL_v20m4jwt1c","6108bae61196a3bd6fc3a24b","freq","img/orange_2bandit_a2.png","70","70","test","1","203","203","9","",""
"null","302367","pSARL_v2","pSARL_v20m4jwt1c","6108bae61196a3bd6fc3a24b","freq_resp","img/orange_2bandit_a.png","70","70","test","","","","9","",""
"null","302528","pSARL_v2","pSARL_v20m4jwt1c","6108bae61196a3bd6fc3a24b","fixation","img/fixation.png","null","","test","","","","","",""
"378.39999997615814","302911","pSARL_v2","pSARL_v20m4jwt1c","6108bae61196a3bd6fc3a24b","freq","img/orange_2bandit_a2.png","70","70","test","1","204","204","9","",""
"null","303343","pSARL_v2","pSARL_v20m4jwt1c","6108bae61196a3bd6fc3a24b","freq_resp","img/orange_2bandit_a.png","70","70","test","","","","9","",""
"null","303503","pSARL_v2","pSARL_v20m4jwt1c","6108bae61196a3bd6fc3a24b","fixation","img/fixation.png","null","","test","","","","","",""
"471.39999997615814","303979","pSARL_v2","pSARL_v20m4jwt1c","6108bae61196a3bd6fc3a24b","infreq","img/green_2bandit_a2.png","68","68","test","1","205","205","9","",""
"null","304319","pSARL_v2","pSARL_v20m4jwt1c","6108bae61196a3bd6fc3a24b","infreq_resp","img/green_2bandit_a.png","68","68","test","","","","9","",""
"null","304479","pSARL_v2","pSARL_v20m4jwt1c","6108bae61196a3bd6fc3a24b","fixation","img/fixation.png","null","","test","","","","","",""
"392.2000000476837","304875","pSARL_v2","pSARL_v20m4jwt1c","6108bae61196a3bd6fc3a24b","freq","img/orange_2bandit_a2.png","70","70","test","1","206","206","9","",""
