"rt","time_elapsed","expId","subject","prolificID","trialType","stimulus","key_press","corrresp","phase","corr","trialNum","attentionRunNum","blockNum","points","rlNum"
"6674.0999999996275","6681","pSARL_v2","pSARL_v2jhv10fb1","64135983899b0b3fa3ddfab9","","","","","","","","","","",""
"","10538","pSARL_v2","pSARL_v2jhv10fb1","64135983899b0b3fa3ddfab9","fullscreen","","","","","","","","","",""
"55892.300000000745","66435","pSARL_v2","pSARL_v2jhv10fb1","64135983899b0b3fa3ddfab9","","","","","","","","","","",""
"null","67252","pSARL_v2","pSARL_v2jhv10fb1","64135983899b0b3fa3ddfab9","freqPrac","img/orange_2bandit_a2.png","null","70","prac","0","","","","",""
"null","68272","pSARL_v2","pSARL_v2jhv10fb1","64135983899b0b3fa3ddfab9","feedback","img/tooSlow.png","null","na","prac","","","","","",""
"null","68433","pSARL_v2","pSARL_v2jhv10fb1","64135983899b0b3fa3ddfab9","fixation","img/fixation.png","null","","prac","","","","","",""
"null","69252","pSARL_v2","pSARL_v2jhv10fb1","64135983899b0b3fa3ddfab9","infreqPrac","img/green_2bandit_a2.png","null","68","prac","0","","","","",""
"null","70273","pSARL_v2","pSARL_v2jhv10fb1","64135983899b0b3fa3ddfab9","feedback","img/tooSlow.png","null","na","prac","","","","","",""
"null","70446","pSARL_v2","pSARL_v2jhv10fb1","64135983899b0b3fa3ddfab9","fixation","img/fixation.png","null","","prac","","","","","",""
"133.5","70585","pSARL_v2","pSARL_v2jhv10fb1","64135983899b0b3fa3ddfab9","freqPrac","img/orange_2bandit_a2.png","70","70","prac","1","","","","",""
"133.5","71261","pSARL_v2","pSARL_v2jhv10fb1","64135983899b0b3fa3ddfab9","freqPrac_resp","img/orange_2bandit_a.png","70","70","prac","","","","","",""
"null","71433","pSARL_v2","pSARL_v2jhv10fb1","64135983899b0b3fa3ddfab9","fixation","img/fixation.png","null","","prac","","","","","",""
"436.7999999988824","71877","pSARL_v2","pSARL_v2jhv10fb1","64135983899b0b3fa3ddfab9","infreqPrac","img/green_2bandit_a2.png","68","68","prac","1","","","","",""
"436.7999999988824","72252","pSARL_v2","pSARL_v2jhv10fb1","64135983899b0b3fa3ddfab9","infreqPrac_resp","img/green_2bandit_a.png","68","68","prac","","","","","",""
"null","72415","pSARL_v2","pSARL_v2jhv10fb1","64135983899b0b3fa3ddfab9","fixation","img/fixation.png","null","","prac","","","","","",""
"485.09999999962747","72904","pSARL_v2","pSARL_v2jhv10fb1","64135983899b0b3fa3ddfab9","infreqPrac","img/green_2bandit_a2.png","68","68","prac","1","","","","",""
"485.09999999962747","73230","pSARL_v2","pSARL_v2jhv10fb1","64135983899b0b3fa3ddfab9","infreqPrac_resp","img/green_2bandit_a.png","68","68","prac","","","","","",""
"null","73388","pSARL_v2","pSARL_v2jhv10fb1","64135983899b0b3fa3ddfab9","fixation","img/fixation.png","null","","prac","","","","","",""
"401.19999999925494","73792","pSARL_v2","pSARL_v2jhv10fb1","64135983899b0b3fa3ddfab9","infreqPrac","img/green_2bandit_a2.png","68","68","prac","1","","","","",""
"401.19999999925494","74202","pSARL_v2","pSARL_v2jhv10fb1","64135983899b0b3fa3ddfab9","infreqPrac_resp","img/green_2bandit_a.png","68","68","prac","","","","","",""
"null","74358","pSARL_v2","pSARL_v2jhv10fb1","64135983899b0b3fa3ddfab9","fixation","img/fixation.png","null","","prac","","","","","",""
"334.80000000074506","74696","pSARL_v2","pSARL_v2jhv10fb1","64135983899b0b3fa3ddfab9","freqPrac","img/orange_2bandit_a2.png","70","70","prac","1","","","","",""
"334.80000000074506","75180","pSARL_v2","pSARL_v2jhv10fb1","64135983899b0b3fa3ddfab9","freqPrac_resp","img/orange_2bandit_a.png","70","70","prac","","","","","",""
"null","75355","pSARL_v2","pSARL_v2jhv10fb1","64135983899b0b3fa3ddfab9","fixation","img/fixation.png","null","","prac","","","","","",""
"322.5","75685","pSARL_v2","pSARL_v2jhv10fb1","64135983899b0b3fa3ddfab9","infreqPrac","img/green_2bandit_a2.png","68","68","prac","1","","","","",""
"322.5","76182","pSARL_v2","pSARL_v2jhv10fb1","64135983899b0b3fa3ddfab9","infreqPrac_resp","img/green_2bandit_a.png","68","68","prac","","","","","",""
"null","76337","pSARL_v2","pSARL_v2jhv10fb1","64135983899b0b3fa3ddfab9","fixation","img/fixation.png","null","","prac","","","","","",""
"373.40000000037253","76719","pSARL_v2","pSARL_v2jhv10fb1","64135983899b0b3fa3ddfab9","freqPrac","img/orange_2bandit_a2.png","70","70","prac","1","","","","",""
"373.40000000037253","77160","pSARL_v2","pSARL_v2jhv10fb1","64135983899b0b3fa3ddfab9","freqPrac_resp","img/orange_2bandit_a.png","70","70","prac","","","","","",""
"null","77336","pSARL_v2","pSARL_v2jhv10fb1","64135983899b0b3fa3ddfab9","fixation","img/fixation.png","null","","prac","","","","","",""
"459.90000000037253","77802","pSARL_v2","pSARL_v2jhv10fb1","64135983899b0b3fa3ddfab9","freqPrac","img/orange_2bandit_a2.png","70","70","prac","1","","","","",""
"459.90000000037253","78152","pSARL_v2","pSARL_v2jhv10fb1","64135983899b0b3fa3ddfab9","freqPrac_resp","img/orange_2bandit_a.png","70","70","prac","","","","","",""
"null","78323","pSARL_v2","pSARL_v2jhv10fb1","64135983899b0b3fa3ddfab9","fixation","img/fixation.png","null","","prac","","","","","",""
"16211.699999999255","94541","pSARL_v2","pSARL_v2jhv10fb1","64135983899b0b3fa3ddfab9","","","","","prac","","","","","",""
"536","95080","pSARL_v2","pSARL_v2jhv10fb1","64135983899b0b3fa3ddfab9","rewardPractice","img/slot.png","74","","prac","","","","","",""
"null","95850","pSARL_v2","pSARL_v2jhv10fb1","64135983899b0b3fa3ddfab9","feedback","<div class=""veryhighPoints""> +15 </div>","null","na","prac","","","","","",""
"null","96010","pSARL_v2","pSARL_v2jhv10fb1","64135983899b0b3fa3ddfab9","fixation","img/fixation.png","null","","prac","","","","","",""
"10659.300000000745","106673","pSARL_v2","pSARL_v2jhv10fb1","64135983899b0b3fa3ddfab9","","","","","prac","","","","","",""
"588.5","107268","pSARL_v2","pSARL_v2jhv10fb1","64135983899b0b3fa3ddfab9","freq","img/orange_2bandit_a2.png","68","70","test","0","1","1","1","",""
"null","107496","pSARL_v2","pSARL_v2jhv10fb1","64135983899b0b3fa3ddfab9","freq_resp","img/orange_2bandit_a.png","68","70","test","","","","1","",""
"null","107658","pSARL_v2","pSARL_v2jhv10fb1","64135983899b0b3fa3ddfab9","fixation","img/fixation.png","null","","test","","","","","",""
"539","108206","pSARL_v2","pSARL_v2jhv10fb1","64135983899b0b3fa3ddfab9","infreq","img/green_2bandit_a2.png","70","68","test","0","2","2","1","",""
"null","108491","pSARL_v2","pSARL_v2jhv10fb1","64135983899b0b3fa3ddfab9","infreq_resp","img/green_2bandit_a.png","70","68","test","","","","1","",""
"null","108648","pSARL_v2","pSARL_v2jhv10fb1","64135983899b0b3fa3ddfab9","fixation","img/fixation.png","null","","test","","","","","",""
"397.5","109055","pSARL_v2","pSARL_v2jhv10fb1","64135983899b0b3fa3ddfab9","freq","img/orange_2bandit_a2.png","68","70","test","0","3","3","1","",""
"null","109463","pSARL_v2","pSARL_v2jhv10fb1","64135983899b0b3fa3ddfab9","freq_resp","img/orange_2bandit_a.png","68","70","test","","","","1","",""
"null","109625","pSARL_v2","pSARL_v2jhv10fb1","64135983899b0b3fa3ddfab9","fixation","img/fixation.png","null","","test","","","","","",""
"516.0999999996275","110149","pSARL_v2","pSARL_v2jhv10fb1","64135983899b0b3fa3ddfab9","freq","img/orange_2bandit_a2.png","68","70","test","0","4","4","1","",""
"null","110443","pSARL_v2","pSARL_v2jhv10fb1","64135983899b0b3fa3ddfab9","freq_resp","img/orange_2bandit_a.png","68","70","test","","","","1","",""
"null","110603","pSARL_v2","pSARL_v2jhv10fb1","64135983899b0b3fa3ddfab9","fixation","img/fixation.png","null","","test","","","","","",""
"345.5","110952","pSARL_v2","pSARL_v2jhv10fb1","64135983899b0b3fa3ddfab9","freq","img/orange_2bandit_a2.png","68","70","test","0","5","5","1","",""
"null","111428","pSARL_v2","pSARL_v2jhv10fb1","64135983899b0b3fa3ddfab9","freq_resp","img/orange_2bandit_a.png","68","70","test","","","","1","",""
"null","111597","pSARL_v2","pSARL_v2jhv10fb1","64135983899b0b3fa3ddfab9","fixation","img/fixation.png","null","","test","","","","","",""
"288","111890","pSARL_v2","pSARL_v2jhv10fb1","64135983899b0b3fa3ddfab9","freq","img/orange_2bandit_a2.png","68","70","test","0","6","6","1","",""
"null","112421","pSARL_v2","pSARL_v2jhv10fb1","64135983899b0b3fa3ddfab9","freq_resp","img/orange_2bandit_a.png","68","70","test","","","","1","",""
"null","112580","pSARL_v2","pSARL_v2jhv10fb1","64135983899b0b3fa3ddfab9","fixation","img/fixation.png","null","","test","","","","","",""
"289.40000000037253","112879","pSARL_v2","pSARL_v2jhv10fb1","64135983899b0b3fa3ddfab9","freq","img/orange_2bandit_a2.png","68","70","test","0","7","7","1","",""
"null","113399","pSARL_v2","pSARL_v2jhv10fb1","64135983899b0b3fa3ddfab9","freq_resp","img/orange_2bandit_a.png","68","70","test","","","","1","",""
"null","113567","pSARL_v2","pSARL_v2jhv10fb1","64135983899b0b3fa3ddfab9","fixation","img/fixation.png","null","","test","","","","","",""
"270.2999999988824","113843","pSARL_v2","pSARL_v2jhv10fb1","64135983899b0b3fa3ddfab9","freq","img/orange_2bandit_a2.png","68","70","test","0","8","8","1","",""
"null","114395","pSARL_v2","pSARL_v2jhv10fb1","64135983899b0b3fa3ddfab9","freq_resp","img/orange_2bandit_a.png","68","70","test","","","","1","",""
"null","114566","pSARL_v2","pSARL_v2jhv10fb1","64135983899b0b3fa3ddfab9","fixation","img/fixation.png","null","","test","","","","","",""
"328.40000000037253","114900","pSARL_v2","pSARL_v2jhv10fb1","64135983899b0b3fa3ddfab9","freq","img/orange_2bandit_a2.png","68","70","test","0","9","9","1","",""
"null","115387","pSARL_v2","pSARL_v2jhv10fb1","64135983899b0b3fa3ddfab9","freq_resp","img/orange_2bandit_a.png","68","70","test","","","","1","",""
"null","115547","pSARL_v2","pSARL_v2jhv10fb1","64135983899b0b3fa3ddfab9","fixation","img/fixation.png","null","","test","","","","","",""
"339.19999999925494","115893","pSARL_v2","pSARL_v2jhv10fb1","64135983899b0b3fa3ddfab9","freq","img/orange_2bandit_a2.png","68","70","test","0","10","10","1","",""
"null","116365","pSARL_v2","pSARL_v2jhv10fb1","64135983899b0b3fa3ddfab9","freq_resp","img/orange_2bandit_a.png","68","70","test","","","","1","",""
"null","116526","pSARL_v2","pSARL_v2jhv10fb1","64135983899b0b3fa3ddfab9","fixation","img/fixation.png","null","","test","","","","","",""
"503.59999999962747","117033","pSARL_v2","pSARL_v2jhv10fb1","64135983899b0b3fa3ddfab9","infreq","img/green_2bandit_a2.png","70","68","test","0","11","11","1","",""
"null","117338","pSARL_v2","pSARL_v2jhv10fb1","64135983899b0b3fa3ddfab9","infreq_resp","img/green_2bandit_a.png","70","68","test","","","","1","",""
"null","117495","pSARL_v2","pSARL_v2jhv10fb1","64135983899b0b3fa3ddfab9","fixation","img/fixation.png","null","","test","","","","","",""
"590.7999999988824","118090","pSARL_v2","pSARL_v2jhv10fb1","64135983899b0b3fa3ddfab9","freq","img/orange_2bandit_a2.png","68","70","test","0","12","12","1","",""
"null","118321","pSARL_v2","pSARL_v2jhv10fb1","64135983899b0b3fa3ddfab9","freq_resp","img/orange_2bandit_a.png","68","70","test","","","","1","",""
"null","118491","pSARL_v2","pSARL_v2jhv10fb1","64135983899b0b3fa3ddfab9","fixation","img/fixation.png","null","","test","","","","","",""
"643.3000000007451","119142","pSARL_v2","pSARL_v2jhv10fb1","64135983899b0b3fa3ddfab9","freq","img/orange_2bandit_a2.png","68","70","test","0","13","13","1","",""
"null","119312","pSARL_v2","pSARL_v2jhv10fb1","64135983899b0b3fa3ddfab9","freq_resp","img/orange_2bandit_a.png","68","70","test","","","","1","",""
"null","119472","pSARL_v2","pSARL_v2jhv10fb1","64135983899b0b3fa3ddfab9","fixation","img/fixation.png","null","","test","","","","","",""
"446.80000000074506","119925","pSARL_v2","pSARL_v2jhv10fb1","64135983899b0b3fa3ddfab9","freq","img/orange_2bandit_a2.png","68","70","test","0","14","14","1","",""
"null","120293","pSARL_v2","pSARL_v2jhv10fb1","64135983899b0b3fa3ddfab9","freq_resp","img/orange_2bandit_a.png","68","70","test","","","","1","",""
"null","120461","pSARL_v2","pSARL_v2jhv10fb1","64135983899b0b3fa3ddfab9","fixation","img/fixation.png","null","","test","","","","","",""
"377.2000000011176","120842","pSARL_v2","pSARL_v2jhv10fb1","64135983899b0b3fa3ddfab9","freq","img/orange_2bandit_a2.png","68","70","test","0","15","15","1","",""
"null","121282","pSARL_v2","pSARL_v2jhv10fb1","64135983899b0b3fa3ddfab9","freq_resp","img/orange_2bandit_a.png","68","70","test","","","","1","",""
"null","121437","pSARL_v2","pSARL_v2jhv10fb1","64135983899b0b3fa3ddfab9","fixation","img/fixation.png","null","","test","","","","","",""
"425","121867","pSARL_v2","pSARL_v2jhv10fb1","64135983899b0b3fa3ddfab9","freq","img/orange_2bandit_a2.png","68","70","test","0","16","16","1","",""
"null","122255","pSARL_v2","pSARL_v2jhv10fb1","64135983899b0b3fa3ddfab9","freq_resp","img/orange_2bandit_a.png","68","70","test","","","","1","",""
"null","122413","pSARL_v2","pSARL_v2jhv10fb1","64135983899b0b3fa3ddfab9","fixation","img/fixation.png","null","","test","","","","","",""
"296.80000000074506","122714","pSARL_v2","pSARL_v2jhv10fb1","64135983899b0b3fa3ddfab9","freq","img/orange_2bandit_a2.png","68","70","test","0","17","17","1","",""
"null","123228","pSARL_v2","pSARL_v2jhv10fb1","64135983899b0b3fa3ddfab9","freq_resp","img/orange_2bandit_a.png","68","70","test","","","","1","",""
"null","123388","pSARL_v2","pSARL_v2jhv10fb1","64135983899b0b3fa3ddfab9","fixation","img/fixation.png","null","","test","","","","","",""
"152.09999999962747","123545","pSARL_v2","pSARL_v2jhv10fb1","64135983899b0b3fa3ddfab9","freq","img/orange_2bandit_a2.png","68","70","test","0","18","18","1","",""
"null","124210","pSARL_v2","pSARL_v2jhv10fb1","64135983899b0b3fa3ddfab9","freq_resp","img/orange_2bandit_a.png","68","70","test","","","","1","",""
"null","124379","pSARL_v2","pSARL_v2jhv10fb1","64135983899b0b3fa3ddfab9","fixation","img/fixation.png","null","","test","","","","","",""
"130.5","124513","pSARL_v2","pSARL_v2jhv10fb1","64135983899b0b3fa3ddfab9","freq","img/orange_2bandit_a2.png","68","70","test","0","19","19","1","",""
"null","125195","pSARL_v2","pSARL_v2jhv10fb1","64135983899b0b3fa3ddfab9","freq_resp","img/orange_2bandit_a.png","68","70","test","","","","1","",""
"null","125368","pSARL_v2","pSARL_v2jhv10fb1","64135983899b0b3fa3ddfab9","fixation","img/fixation.png","null","","test","","","","","",""
"292.19999999925494","125665","pSARL_v2","pSARL_v2jhv10fb1","64135983899b0b3fa3ddfab9","freq","img/orange_2bandit_a2.png","68","70","test","0","20","20","1","",""
"null","126185","pSARL_v2","pSARL_v2jhv10fb1","64135983899b0b3fa3ddfab9","freq_resp","img/orange_2bandit_a.png","68","70","test","","","","1","",""
"null","126339","pSARL_v2","pSARL_v2jhv10fb1","64135983899b0b3fa3ddfab9","fixation","img/fixation.png","null","","test","","","","","",""
"292.5","126637","pSARL_v2","pSARL_v2jhv10fb1","64135983899b0b3fa3ddfab9","freq","img/orange_2bandit_a2.png","68","70","test","0","21","21","1","",""
"null","127161","pSARL_v2","pSARL_v2jhv10fb1","64135983899b0b3fa3ddfab9","freq_resp","img/orange_2bandit_a.png","68","70","test","","","","1","",""
"null","127331","pSARL_v2","pSARL_v2jhv10fb1","64135983899b0b3fa3ddfab9","fixation","img/fixation.png","null","","test","","","","","",""
"324.09999999962747","127661","pSARL_v2","pSARL_v2jhv10fb1","64135983899b0b3fa3ddfab9","freq","img/orange_2bandit_a2.png","68","70","test","0","22","22","1","",""
"null","128151","pSARL_v2","pSARL_v2jhv10fb1","64135983899b0b3fa3ddfab9","freq_resp","img/orange_2bandit_a.png","68","70","test","","","","1","",""
"null","128324","pSARL_v2","pSARL_v2jhv10fb1","64135983899b0b3fa3ddfab9","fixation","img/fixation.png","null","","test","","","","","",""
"266.5","128598","pSARL_v2","pSARL_v2jhv10fb1","64135983899b0b3fa3ddfab9","freq","img/orange_2bandit_a2.png","68","70","test","0","23","23","1","",""
"null","129146","pSARL_v2","pSARL_v2jhv10fb1","64135983899b0b3fa3ddfab9","freq_resp","img/orange_2bandit_a.png","68","70","test","","","","1","",""
"null","129305","pSARL_v2","pSARL_v2jhv10fb1","64135983899b0b3fa3ddfab9","fixation","img/fixation.png","null","","test","","","","","",""
"349.5","129662","pSARL_v2","pSARL_v2jhv10fb1","64135983899b0b3fa3ddfab9","freq","img/orange_2bandit_a2.png","68","70","test","0","24","24","1","",""
"null","130118","pSARL_v2","pSARL_v2jhv10fb1","64135983899b0b3fa3ddfab9","freq_resp","img/orange_2bandit_a.png","68","70","test","","","","1","",""
"null","130280","pSARL_v2","pSARL_v2jhv10fb1","64135983899b0b3fa3ddfab9","fixation","img/fixation.png","null","","test","","","","","",""
"446.2999999988824","130730","pSARL_v2","pSARL_v2jhv10fb1","64135983899b0b3fa3ddfab9","freq","img/orange_2bandit_a2.png","68","70","test","0","25","25","1","",""
"null","131101","pSARL_v2","pSARL_v2jhv10fb1","64135983899b0b3fa3ddfab9","freq_resp","img/orange_2bandit_a.png","68","70","test","","","","1","",""
"null","131262","pSARL_v2","pSARL_v2jhv10fb1","64135983899b0b3fa3ddfab9","fixation","img/fixation.png","null","","test","","","","","",""
"374.40000000037253","131641","pSARL_v2","pSARL_v2jhv10fb1","64135983899b0b3fa3ddfab9","freq","img/orange_2bandit_a2.png","68","70","test","0","26","26","1","",""
"null","132081","pSARL_v2","pSARL_v2jhv10fb1","64135983899b0b3fa3ddfab9","freq_resp","img/orange_2bandit_a.png","68","70","test","","","","1","",""
"null","132242","pSARL_v2","pSARL_v2jhv10fb1","64135983899b0b3fa3ddfab9","fixation","img/fixation.png","null","","test","","","","","",""
"658.8000000007451","132906","pSARL_v2","pSARL_v2jhv10fb1","64135983899b0b3fa3ddfab9","reward","img/slot.png","74","","test","","","","","",""
"null","133664","pSARL_v2","pSARL_v2jhv10fb1","64135983899b0b3fa3ddfab9","points","<div class=""verylowPoints""> -6 </div>","null","na","test","","","","1","-6","0"
"null","134476","pSARL_v2","pSARL_v2jhv10fb1","64135983899b0b3fa3ddfab9","freq","img/orange_2bandit_a2.png","null","70","test","0","27","27","2","",""
"null","134644","pSARL_v2","pSARL_v2jhv10fb1","64135983899b0b3fa3ddfab9","fixation","img/fixation.png","null","","test","","","","","",""
"578.6999999992549","135232","pSARL_v2","pSARL_v2jhv10fb1","64135983899b0b3fa3ddfab9","freq","img/orange_2bandit_a2.png","68","70","test","0","28","28","2","",""
"null","135463","pSARL_v2","pSARL_v2jhv10fb1","64135983899b0b3fa3ddfab9","freq_resp","img/orange_2bandit_a.png","68","70","test","","","","2","",""
"null","135624","pSARL_v2","pSARL_v2jhv10fb1","64135983899b0b3fa3ddfab9","fixation","img/fixation.png","null","","test","","","","","",""
"null","136444","pSARL_v2","pSARL_v2jhv10fb1","64135983899b0b3fa3ddfab9","infreq","img/green_2bandit_a2.png","null","68","test","0","29","29","2","",""
"null","136618","pSARL_v2","pSARL_v2jhv10fb1","64135983899b0b3fa3ddfab9","fixation","img/fixation.png","null","","test","","","","","",""
"611","137233","pSARL_v2","pSARL_v2jhv10fb1","64135983899b0b3fa3ddfab9","freq","img/orange_2bandit_a2.png","68","70","test","0","30","30","2","",""
"null","137433","pSARL_v2","pSARL_v2jhv10fb1","64135983899b0b3fa3ddfab9","freq_resp","img/orange_2bandit_a.png","68","70","test","","","","2","",""
"null","137603","pSARL_v2","pSARL_v2jhv10fb1","64135983899b0b3fa3ddfab9","fixation","img/fixation.png","null","","test","","","","","",""
"402.69999999925494","138011","pSARL_v2","pSARL_v2jhv10fb1","64135983899b0b3fa3ddfab9","freq","img/orange_2bandit_a2.png","68","70","test","0","31","31","2","",""
"null","138428","pSARL_v2","pSARL_v2jhv10fb1","64135983899b0b3fa3ddfab9","freq_resp","img/orange_2bandit_a.png","68","70","test","","","","2","",""
"null","138601","pSARL_v2","pSARL_v2jhv10fb1","64135983899b0b3fa3ddfab9","fixation","img/fixation.png","null","","test","","","","","",""
"381","138990","pSARL_v2","pSARL_v2jhv10fb1","64135983899b0b3fa3ddfab9","freq","img/orange_2bandit_a2.png","68","70","test","0","32","32","2","",""
"null","139419","pSARL_v2","pSARL_v2jhv10fb1","64135983899b0b3fa3ddfab9","freq_resp","img/orange_2bandit_a.png","68","70","test","","","","2","",""
"null","139577","pSARL_v2","pSARL_v2jhv10fb1","64135983899b0b3fa3ddfab9","fixation","img/fixation.png","null","","test","","","","","",""
"277.59999999962747","139864","pSARL_v2","pSARL_v2jhv10fb1","64135983899b0b3fa3ddfab9","freq","img/orange_2bandit_a2.png","68","70","test","0","33","33","2","",""
"null","140394","pSARL_v2","pSARL_v2jhv10fb1","64135983899b0b3fa3ddfab9","freq_resp","img/orange_2bandit_a.png","68","70","test","","","","2","",""
"null","140557","pSARL_v2","pSARL_v2jhv10fb1","64135983899b0b3fa3ddfab9","fixation","img/fixation.png","null","","test","","","","","",""
"239.80000000074506","140802","pSARL_v2","pSARL_v2jhv10fb1","64135983899b0b3fa3ddfab9","freq","img/orange_2bandit_a2.png","68","70","test","0","34","34","2","",""
"null","141371","pSARL_v2","pSARL_v2jhv10fb1","64135983899b0b3fa3ddfab9","freq_resp","img/orange_2bandit_a.png","68","70","test","","","","2","",""
"null","141544","pSARL_v2","pSARL_v2jhv10fb1","64135983899b0b3fa3ddfab9","fixation","img/fixation.png","null","","test","","","","","",""
"132.80000000074506","141681","pSARL_v2","pSARL_v2jhv10fb1","64135983899b0b3fa3ddfab9","freq","img/orange_2bandit_a2.png","68","70","test","0","35","35","2","",""
"null","142364","pSARL_v2","pSARL_v2jhv10fb1","64135983899b0b3fa3ddfab9","freq_resp","img/orange_2bandit_a.png","68","70","test","","","","2","",""
"null","142520","pSARL_v2","pSARL_v2jhv10fb1","64135983899b0b3fa3ddfab9","fixation","img/fixation.png","null","","test","","","","","",""
"117.80000000074506","142648","pSARL_v2","pSARL_v2jhv10fb1","64135983899b0b3fa3ddfab9","freq","img/orange_2bandit_a2.png","68","70","test","0","36","36","2","",""
"null","143337","pSARL_v2","pSARL_v2jhv10fb1","64135983899b0b3fa3ddfab9","freq_resp","img/orange_2bandit_a.png","68","70","test","","","","2","",""
"null","143498","pSARL_v2","pSARL_v2jhv10fb1","64135983899b0b3fa3ddfab9","fixation","img/fixation.png","null","","test","","","","","",""
"109.09999999962747","143618","pSARL_v2","pSARL_v2jhv10fb1","64135983899b0b3fa3ddfab9","freq","img/orange_2bandit_a2.png","68","70","test","0","37","37","2","",""
"null","144324","pSARL_v2","pSARL_v2jhv10fb1","64135983899b0b3fa3ddfab9","freq_resp","img/orange_2bandit_a.png","68","70","test","","","","2","",""
"null","144491","pSARL_v2","pSARL_v2jhv10fb1","64135983899b0b3fa3ddfab9","fixation","img/fixation.png","null","","test","","","","","",""
"90.59999999962747","144587","pSARL_v2","pSARL_v2jhv10fb1","64135983899b0b3fa3ddfab9","freq","img/orange_2bandit_a2.png","68","70","test","0","38","38","2","",""
"null","145313","pSARL_v2","pSARL_v2jhv10fb1","64135983899b0b3fa3ddfab9","freq_resp","img/orange_2bandit_a.png","68","70","test","","","","2","",""
"null","145487","pSARL_v2","pSARL_v2jhv10fb1","64135983899b0b3fa3ddfab9","fixation","img/fixation.png","null","","test","","","","","",""
"189.90000000037253","145681","pSARL_v2","pSARL_v2jhv10fb1","64135983899b0b3fa3ddfab9","infreq","img/green_2bandit_a2.png","68","68","test","1","39","39","2","",""
"null","146309","pSARL_v2","pSARL_v2jhv10fb1","64135983899b0b3fa3ddfab9","infreq_resp","img/green_2bandit_a.png","68","68","test","","","","2","",""
"null","146466","pSARL_v2","pSARL_v2jhv10fb1","64135983899b0b3fa3ddfab9","fixation","img/fixation.png","null","","test","","","","","",""
"467.69999999925494","146937","pSARL_v2","pSARL_v2jhv10fb1","64135983899b0b3fa3ddfab9","freq","img/orange_2bandit_a2.png","68","70","test","0","40","40","2","",""
"null","147279","pSARL_v2","pSARL_v2jhv10fb1","64135983899b0b3fa3ddfab9","freq_resp","img/orange_2bandit_a.png","68","70","test","","","","2","",""
"null","147447","pSARL_v2","pSARL_v2jhv10fb1","64135983899b0b3fa3ddfab9","fixation","img/fixation.png","null","","test","","","","","",""
"358.69999999925494","147809","pSARL_v2","pSARL_v2jhv10fb1","64135983899b0b3fa3ddfab9","freq","img/orange_2bandit_a2.png","68","70","test","0","41","41","2","",""
"null","148261","pSARL_v2","pSARL_v2jhv10fb1","64135983899b0b3fa3ddfab9","freq_resp","img/orange_2bandit_a.png","68","70","test","","","","2","",""
"null","148420","pSARL_v2","pSARL_v2jhv10fb1","64135983899b0b3fa3ddfab9","fixation","img/fixation.png","null","","test","","","","","",""
"289.59999999962747","148713","pSARL_v2","pSARL_v2jhv10fb1","64135983899b0b3fa3ddfab9","freq","img/orange_2bandit_a2.png","68","70","test","0","42","42","2","",""
"null","149240","pSARL_v2","pSARL_v2jhv10fb1","64135983899b0b3fa3ddfab9","freq_resp","img/orange_2bandit_a.png","68","70","test","","","","2","",""
"null","149402","pSARL_v2","pSARL_v2jhv10fb1","64135983899b0b3fa3ddfab9","fixation","img/fixation.png","null","","test","","","","","",""
"211.90000000037253","149622","pSARL_v2","pSARL_v2jhv10fb1","64135983899b0b3fa3ddfab9","freq","img/orange_2bandit_a2.png","68","70","test","0","43","43","2","",""
"null","150221","pSARL_v2","pSARL_v2jhv10fb1","64135983899b0b3fa3ddfab9","freq_resp","img/orange_2bandit_a.png","68","70","test","","","","2","",""
"null","150380","pSARL_v2","pSARL_v2jhv10fb1","64135983899b0b3fa3ddfab9","fixation","img/fixation.png","null","","test","","","","","",""
"153.30000000074506","150541","pSARL_v2","pSARL_v2jhv10fb1","64135983899b0b3fa3ddfab9","freq","img/orange_2bandit_a2.png","68","70","test","0","44","44","2","",""
"null","151191","pSARL_v2","pSARL_v2jhv10fb1","64135983899b0b3fa3ddfab9","freq_resp","img/orange_2bandit_a.png","68","70","test","","","","2","",""
"null","151353","pSARL_v2","pSARL_v2jhv10fb1","64135983899b0b3fa3ddfab9","fixation","img/fixation.png","null","","test","","","","","",""
"173.7000000011176","151535","pSARL_v2","pSARL_v2jhv10fb1","64135983899b0b3fa3ddfab9","freq","img/orange_2bandit_a2.png","68","70","test","0","45","45","2","",""
"null","152180","pSARL_v2","pSARL_v2jhv10fb1","64135983899b0b3fa3ddfab9","freq_resp","img/orange_2bandit_a.png","68","70","test","","","","2","",""
"null","152337","pSARL_v2","pSARL_v2jhv10fb1","64135983899b0b3fa3ddfab9","fixation","img/fixation.png","null","","test","","","","","",""
"460.7000000011176","152801","pSARL_v2","pSARL_v2jhv10fb1","64135983899b0b3fa3ddfab9","reward","img/slot.png","74","","test","","","","","",""
"null","153566","pSARL_v2","pSARL_v2jhv10fb1","64135983899b0b3fa3ddfab9","points","<div class=""verylowPoints""> -11 </div>","null","na","test","","","","2","-11","1"
"568.7999999988824","154141","pSARL_v2","pSARL_v2jhv10fb1","64135983899b0b3fa3ddfab9","freq","img/orange_2bandit_a2.png","68","70","test","0","46","46","3","",""
"null","154385","pSARL_v2","pSARL_v2jhv10fb1","64135983899b0b3fa3ddfab9","freq_resp","img/orange_2bandit_a.png","68","70","test","","","","3","",""
"null","154543","pSARL_v2","pSARL_v2jhv10fb1","64135983899b0b3fa3ddfab9","fixation","img/fixation.png","null","","test","","","","","",""
"527.3000000007451","155077","pSARL_v2","pSARL_v2jhv10fb1","64135983899b0b3fa3ddfab9","freq","img/orange_2bandit_a2.png","68","70","test","0","47","47","3","",""
"null","155359","pSARL_v2","pSARL_v2jhv10fb1","64135983899b0b3fa3ddfab9","freq_resp","img/orange_2bandit_a.png","68","70","test","","","","3","",""
"null","155520","pSARL_v2","pSARL_v2jhv10fb1","64135983899b0b3fa3ddfab9","fixation","img/fixation.png","null","","test","","","","","",""
"517.6999999992549","156045","pSARL_v2","pSARL_v2jhv10fb1","64135983899b0b3fa3ddfab9","freq","img/orange_2bandit_a2.png","68","70","test","0","48","48","3","",""
"null","156347","pSARL_v2","pSARL_v2jhv10fb1","64135983899b0b3fa3ddfab9","freq_resp","img/orange_2bandit_a.png","68","70","test","","","","3","",""
"null","156507","pSARL_v2","pSARL_v2jhv10fb1","64135983899b0b3fa3ddfab9","fixation","img/fixation.png","null","","test","","","","","",""
"378.09999999962747","156891","pSARL_v2","pSARL_v2jhv10fb1","64135983899b0b3fa3ddfab9","freq","img/orange_2bandit_a2.png","68","70","test","0","49","49","3","",""
"null","157318","pSARL_v2","pSARL_v2jhv10fb1","64135983899b0b3fa3ddfab9","freq_resp","img/orange_2bandit_a.png","68","70","test","","","","3","",""
"null","157481","pSARL_v2","pSARL_v2jhv10fb1","64135983899b0b3fa3ddfab9","fixation","img/fixation.png","null","","test","","","","","",""
"326.40000000037253","157813","pSARL_v2","pSARL_v2jhv10fb1","64135983899b0b3fa3ddfab9","freq","img/orange_2bandit_a2.png","68","70","test","0","50","50","3","",""
"null","158298","pSARL_v2","pSARL_v2jhv10fb1","64135983899b0b3fa3ddfab9","freq_resp","img/orange_2bandit_a.png","68","70","test","","","","3","",""
"null","158457","pSARL_v2","pSARL_v2jhv10fb1","64135983899b0b3fa3ddfab9","fixation","img/fixation.png","null","","test","","","","","",""
"293.40000000037253","158760","pSARL_v2","pSARL_v2jhv10fb1","64135983899b0b3fa3ddfab9","freq","img/orange_2bandit_a2.png","68","70","test","0","51","51","3","",""
"null","159286","pSARL_v2","pSARL_v2jhv10fb1","64135983899b0b3fa3ddfab9","freq_resp","img/orange_2bandit_a.png","68","70","test","","","","3","",""
"null","159458","pSARL_v2","pSARL_v2jhv10fb1","64135983899b0b3fa3ddfab9","fixation","img/fixation.png","null","","test","","","","","",""
"316.5","159784","pSARL_v2","pSARL_v2jhv10fb1","64135983899b0b3fa3ddfab9","freq","img/orange_2bandit_a2.png","68","70","test","0","52","52","3","",""
"null","160278","pSARL_v2","pSARL_v2jhv10fb1","64135983899b0b3fa3ddfab9","freq_resp","img/orange_2bandit_a.png","68","70","test","","","","3","",""
"null","160439","pSARL_v2","pSARL_v2jhv10fb1","64135983899b0b3fa3ddfab9","fixation","img/fixation.png","null","","test","","","","","",""
"310.69999999925494","160755","pSARL_v2","pSARL_v2jhv10fb1","64135983899b0b3fa3ddfab9","freq","img/orange_2bandit_a2.png","68","70","test","0","53","53","3","",""
"null","161253","pSARL_v2","pSARL_v2jhv10fb1","64135983899b0b3fa3ddfab9","freq_resp","img/orange_2bandit_a.png","68","70","test","","","","3","",""
"null","161415","pSARL_v2","pSARL_v2jhv10fb1","64135983899b0b3fa3ddfab9","fixation","img/fixation.png","null","","test","","","","","",""
"335.3999999985099","161756","pSARL_v2","pSARL_v2jhv10fb1","64135983899b0b3fa3ddfab9","freq","img/orange_2bandit_a2.png","68","70","test","0","54","54","3","",""
"null","162229","pSARL_v2","pSARL_v2jhv10fb1","64135983899b0b3fa3ddfab9","freq_resp","img/orange_2bandit_a.png","68","70","test","","","","3","",""
"null","162394","pSARL_v2","pSARL_v2jhv10fb1","64135983899b0b3fa3ddfab9","fixation","img/fixation.png","null","","test","","","","","",""
"253.09999999962747","162654","pSARL_v2","pSARL_v2jhv10fb1","64135983899b0b3fa3ddfab9","freq","img/orange_2bandit_a2.png","68","70","test","0","55","55","3","",""
"null","163212","pSARL_v2","pSARL_v2jhv10fb1","64135983899b0b3fa3ddfab9","freq_resp","img/orange_2bandit_a.png","68","70","test","","","","3","",""
"null","163373","pSARL_v2","pSARL_v2jhv10fb1","64135983899b0b3fa3ddfab9","fixation","img/fixation.png","null","","test","","","","","",""
"257.80000000074506","163637","pSARL_v2","pSARL_v2jhv10fb1","64135983899b0b3fa3ddfab9","infreq","img/green_2bandit_a2.png","68","68","test","1","56","56","3","",""
"null","164193","pSARL_v2","pSARL_v2jhv10fb1","64135983899b0b3fa3ddfab9","infreq_resp","img/green_2bandit_a.png","68","68","test","","","","3","",""
"null","164347","pSARL_v2","pSARL_v2jhv10fb1","64135983899b0b3fa3ddfab9","fixation","img/fixation.png","null","","test","","","","","",""
"314.59999999962747","164665","pSARL_v2","pSARL_v2jhv10fb1","64135983899b0b3fa3ddfab9","freq","img/orange_2bandit_a2.png","68","70","test","0","57","57","3","",""
"null","165171","pSARL_v2","pSARL_v2jhv10fb1","64135983899b0b3fa3ddfab9","freq_resp","img/orange_2bandit_a.png","68","70","test","","","","3","",""
"null","165343","pSARL_v2","pSARL_v2jhv10fb1","64135983899b0b3fa3ddfab9","fixation","img/fixation.png","null","","test","","","","","",""
"327.8999999985099","165679","pSARL_v2","pSARL_v2jhv10fb1","64135983899b0b3fa3ddfab9","freq","img/orange_2bandit_a2.png","68","70","test","0","58","58","3","",""
"null","166161","pSARL_v2","pSARL_v2jhv10fb1","64135983899b0b3fa3ddfab9","freq_resp","img/orange_2bandit_a.png","68","70","test","","","","3","",""
"null","166319","pSARL_v2","pSARL_v2jhv10fb1","64135983899b0b3fa3ddfab9","fixation","img/fixation.png","null","","test","","","","","",""
"320.1000000014901","166646","pSARL_v2","pSARL_v2jhv10fb1","64135983899b0b3fa3ddfab9","freq","img/orange_2bandit_a2.png","68","70","test","0","59","59","3","",""
"null","167136","pSARL_v2","pSARL_v2jhv10fb1","64135983899b0b3fa3ddfab9","freq_resp","img/orange_2bandit_a.png","68","70","test","","","","3","",""
"null","167291","pSARL_v2","pSARL_v2jhv10fb1","64135983899b0b3fa3ddfab9","fixation","img/fixation.png","null","","test","","","","","",""
"308.40000000037253","167606","pSARL_v2","pSARL_v2jhv10fb1","64135983899b0b3fa3ddfab9","freq","img/orange_2bandit_a2.png","68","70","test","0","60","60","3","",""
"null","168112","pSARL_v2","pSARL_v2jhv10fb1","64135983899b0b3fa3ddfab9","freq_resp","img/orange_2bandit_a.png","68","70","test","","","","3","",""
"null","168265","pSARL_v2","pSARL_v2jhv10fb1","64135983899b0b3fa3ddfab9","fixation","img/fixation.png","null","","test","","","","","",""
"276.7999999988824","168545","pSARL_v2","pSARL_v2jhv10fb1","64135983899b0b3fa3ddfab9","infreq","img/green_2bandit_a2.png","68","68","test","1","61","61","3","",""
"null","169087","pSARL_v2","pSARL_v2jhv10fb1","64135983899b0b3fa3ddfab9","infreq_resp","img/green_2bandit_a.png","68","68","test","","","","3","",""
"null","169245","pSARL_v2","pSARL_v2jhv10fb1","64135983899b0b3fa3ddfab9","fixation","img/fixation.png","null","","test","","","","","",""
"376.59999999962747","169629","pSARL_v2","pSARL_v2jhv10fb1","64135983899b0b3fa3ddfab9","freq","img/orange_2bandit_a2.png","68","70","test","0","62","62","3","",""
"null","170062","pSARL_v2","pSARL_v2jhv10fb1","64135983899b0b3fa3ddfab9","freq_resp","img/orange_2bandit_a.png","68","70","test","","","","3","",""
"null","170223","pSARL_v2","pSARL_v2jhv10fb1","64135983899b0b3fa3ddfab9","fixation","img/fixation.png","null","","test","","","","","",""
"446","170674","pSARL_v2","pSARL_v2jhv10fb1","64135983899b0b3fa3ddfab9","freq","img/orange_2bandit_a2.png","68","70","test","0","63","63","3","",""
"null","171037","pSARL_v2","pSARL_v2jhv10fb1","64135983899b0b3fa3ddfab9","freq_resp","img/orange_2bandit_a.png","68","70","test","","","","3","",""
"null","171209","pSARL_v2","pSARL_v2jhv10fb1","64135983899b0b3fa3ddfab9","fixation","img/fixation.png","null","","test","","","","","",""
"413.19999999925494","171628","pSARL_v2","pSARL_v2jhv10fb1","64135983899b0b3fa3ddfab9","freq","img/orange_2bandit_a2.png","68","70","test","0","64","64","3","",""
"null","172025","pSARL_v2","pSARL_v2jhv10fb1","64135983899b0b3fa3ddfab9","freq_resp","img/orange_2bandit_a.png","68","70","test","","","","3","",""
"null","172185","pSARL_v2","pSARL_v2jhv10fb1","64135983899b0b3fa3ddfab9","fixation","img/fixation.png","null","","test","","","","","",""
"499.19999999925494","172689","pSARL_v2","pSARL_v2jhv10fb1","64135983899b0b3fa3ddfab9","freq","img/orange_2bandit_a2.png","68","70","test","0","65","65","3","",""
"null","173003","pSARL_v2","pSARL_v2jhv10fb1","64135983899b0b3fa3ddfab9","freq_resp","img/orange_2bandit_a.png","68","70","test","","","","3","",""
"null","173158","pSARL_v2","pSARL_v2jhv10fb1","64135983899b0b3fa3ddfab9","fixation","img/fixation.png","null","","test","","","","","",""
"464.40000000037253","173631","pSARL_v2","pSARL_v2jhv10fb1","64135983899b0b3fa3ddfab9","freq","img/orange_2bandit_a2.png","68","70","test","0","66","66","3","",""
"null","173975","pSARL_v2","pSARL_v2jhv10fb1","64135983899b0b3fa3ddfab9","freq_resp","img/orange_2bandit_a.png","68","70","test","","","","3","",""
"null","174144","pSARL_v2","pSARL_v2jhv10fb1","64135983899b0b3fa3ddfab9","fixation","img/fixation.png","null","","test","","","","","",""
"357.80000000074506","174506","pSARL_v2","pSARL_v2jhv10fb1","64135983899b0b3fa3ddfab9","freq","img/orange_2bandit_a2.png","68","70","test","0","67","67","3","",""
"null","174965","pSARL_v2","pSARL_v2jhv10fb1","64135983899b0b3fa3ddfab9","freq_resp","img/orange_2bandit_a.png","68","70","test","","","","3","",""
"null","175131","pSARL_v2","pSARL_v2jhv10fb1","64135983899b0b3fa3ddfab9","fixation","img/fixation.png","null","","test","","","","","",""
"330.90000000037253","175465","pSARL_v2","pSARL_v2jhv10fb1","64135983899b0b3fa3ddfab9","freq","img/orange_2bandit_a2.png","68","70","test","0","68","68","3","",""
"null","175942","pSARL_v2","pSARL_v2jhv10fb1","64135983899b0b3fa3ddfab9","freq_resp","img/orange_2bandit_a.png","68","70","test","","","","3","",""
"null","176102","pSARL_v2","pSARL_v2jhv10fb1","64135983899b0b3fa3ddfab9","fixation","img/fixation.png","null","","test","","","","","",""
"544.0999999996275","176654","pSARL_v2","pSARL_v2jhv10fb1","64135983899b0b3fa3ddfab9","infreq","img/green_2bandit_a2.png","70","68","test","0","69","69","3","",""
"null","176925","pSARL_v2","pSARL_v2jhv10fb1","64135983899b0b3fa3ddfab9","infreq_resp","img/green_2bandit_a.png","70","68","test","","","","3","",""
"null","177084","pSARL_v2","pSARL_v2jhv10fb1","64135983899b0b3fa3ddfab9","fixation","img/fixation.png","null","","test","","","","","",""
"393.69999999925494","177481","pSARL_v2","pSARL_v2jhv10fb1","64135983899b0b3fa3ddfab9","freq","img/orange_2bandit_a2.png","68","70","test","0","70","70","3","",""
"null","177898","pSARL_v2","pSARL_v2jhv10fb1","64135983899b0b3fa3ddfab9","freq_resp","img/orange_2bandit_a.png","68","70","test","","","","3","",""
"null","178067","pSARL_v2","pSARL_v2jhv10fb1","64135983899b0b3fa3ddfab9","fixation","img/fixation.png","null","","test","","","","","",""
"533.2000000011176","178607","pSARL_v2","pSARL_v2jhv10fb1","64135983899b0b3fa3ddfab9","reward","img/slot.png","74","","test","","","","","",""
"null","179378","pSARL_v2","pSARL_v2jhv10fb1","64135983899b0b3fa3ddfab9","points","<div class=""verylowPoints""> -7 </div>","null","na","test","","","","3","-7","2"
"435","179818","pSARL_v2","pSARL_v2jhv10fb1","64135983899b0b3fa3ddfab9","freq","img/orange_2bandit_a2.png","68","70","test","0","71","71","4","",""
"null","180200","pSARL_v2","pSARL_v2jhv10fb1","64135983899b0b3fa3ddfab9","freq_resp","img/orange_2bandit_a.png","68","70","test","","","","4","",""
"null","180357","pSARL_v2","pSARL_v2jhv10fb1","64135983899b0b3fa3ddfab9","fixation","img/fixation.png","null","","test","","","","","",""
"417.59999999962747","180782","pSARL_v2","pSARL_v2jhv10fb1","64135983899b0b3fa3ddfab9","freq","img/orange_2bandit_a2.png","68","70","test","0","72","72","4","",""
"null","181176","pSARL_v2","pSARL_v2jhv10fb1","64135983899b0b3fa3ddfab9","freq_resp","img/orange_2bandit_a.png","68","70","test","","","","4","",""
"null","181343","pSARL_v2","pSARL_v2jhv10fb1","64135983899b0b3fa3ddfab9","fixation","img/fixation.png","null","","test","","","","","",""
"360","181712","pSARL_v2","pSARL_v2jhv10fb1","64135983899b0b3fa3ddfab9","freq","img/orange_2bandit_a2.png","68","70","test","0","73","73","4","",""
"null","182165","pSARL_v2","pSARL_v2jhv10fb1","64135983899b0b3fa3ddfab9","freq_resp","img/orange_2bandit_a.png","68","70","test","","","","4","",""
"null","182334","pSARL_v2","pSARL_v2jhv10fb1","64135983899b0b3fa3ddfab9","fixation","img/fixation.png","null","","test","","","","","",""
"327.5","182669","pSARL_v2","pSARL_v2jhv10fb1","64135983899b0b3fa3ddfab9","freq","img/orange_2bandit_a2.png","68","70","test","0","74","74","4","",""
"null","183148","pSARL_v2","pSARL_v2jhv10fb1","64135983899b0b3fa3ddfab9","freq_resp","img/orange_2bandit_a.png","68","70","test","","","","4","",""
"null","183313","pSARL_v2","pSARL_v2jhv10fb1","64135983899b0b3fa3ddfab9","fixation","img/fixation.png","null","","test","","","","","",""
"340.3999999985099","183658","pSARL_v2","pSARL_v2jhv10fb1","64135983899b0b3fa3ddfab9","freq","img/orange_2bandit_a2.png","68","70","test","0","75","75","4","",""
"null","184130","pSARL_v2","pSARL_v2jhv10fb1","64135983899b0b3fa3ddfab9","freq_resp","img/orange_2bandit_a.png","68","70","test","","","","4","",""
"null","184288","pSARL_v2","pSARL_v2jhv10fb1","64135983899b0b3fa3ddfab9","fixation","img/fixation.png","null","","test","","","","","",""
"311.5","184606","pSARL_v2","pSARL_v2jhv10fb1","64135983899b0b3fa3ddfab9","freq","img/orange_2bandit_a2.png","68","70","test","0","76","76","4","",""
"null","185113","pSARL_v2","pSARL_v2jhv10fb1","64135983899b0b3fa3ddfab9","freq_resp","img/orange_2bandit_a.png","68","70","test","","","","4","",""
"null","185280","pSARL_v2","pSARL_v2jhv10fb1","64135983899b0b3fa3ddfab9","fixation","img/fixation.png","null","","test","","","","","",""
"286.09999999962747","185572","pSARL_v2","pSARL_v2jhv10fb1","64135983899b0b3fa3ddfab9","freq","img/orange_2bandit_a2.png","68","70","test","0","77","77","4","",""
"null","186104","pSARL_v2","pSARL_v2jhv10fb1","64135983899b0b3fa3ddfab9","freq_resp","img/orange_2bandit_a.png","68","70","test","","","","4","",""
"null","186272","pSARL_v2","pSARL_v2jhv10fb1","64135983899b0b3fa3ddfab9","fixation","img/fixation.png","null","","test","","","","","",""
"701.6999999992549","186978","pSARL_v2","pSARL_v2jhv10fb1","64135983899b0b3fa3ddfab9","infreq","img/green_2bandit_a2.png","70","68","test","0","78","78","4","",""
"null","187095","pSARL_v2","pSARL_v2jhv10fb1","64135983899b0b3fa3ddfab9","infreq_resp","img/green_2bandit_a.png","70","68","test","","","","4","",""
"null","187253","pSARL_v2","pSARL_v2jhv10fb1","64135983899b0b3fa3ddfab9","fixation","img/fixation.png","null","","test","","","","","",""
"423.69999999925494","187683","pSARL_v2","pSARL_v2jhv10fb1","64135983899b0b3fa3ddfab9","freq","img/orange_2bandit_a2.png","68","70","test","0","79","79","4","",""
"null","188074","pSARL_v2","pSARL_v2jhv10fb1","64135983899b0b3fa3ddfab9","freq_resp","img/orange_2bandit_a.png","68","70","test","","","","4","",""
"null","188243","pSARL_v2","pSARL_v2jhv10fb1","64135983899b0b3fa3ddfab9","fixation","img/fixation.png","null","","test","","","","","",""
"604.0999999996275","188853","pSARL_v2","pSARL_v2jhv10fb1","64135983899b0b3fa3ddfab9","infreq","img/green_2bandit_a2.png","70","68","test","0","80","80","4","",""
"null","189064","pSARL_v2","pSARL_v2jhv10fb1","64135983899b0b3fa3ddfab9","infreq_resp","img/green_2bandit_a.png","70","68","test","","","","4","",""
"null","189233","pSARL_v2","pSARL_v2jhv10fb1","64135983899b0b3fa3ddfab9","fixation","img/fixation.png","null","","test","","","","","",""
"485.6000000014901","189725","pSARL_v2","pSARL_v2jhv10fb1","64135983899b0b3fa3ddfab9","freq","img/orange_2bandit_a2.png","68","70","test","0","81","81","4","",""
"null","190051","pSARL_v2","pSARL_v2jhv10fb1","64135983899b0b3fa3ddfab9","freq_resp","img/orange_2bandit_a.png","68","70","test","","","","4","",""
"null","190210","pSARL_v2","pSARL_v2jhv10fb1","64135983899b0b3fa3ddfab9","fixation","img/fixation.png","null","","test","","","","","",""
"461.30000000074506","190680","pSARL_v2","pSARL_v2jhv10fb1","64135983899b0b3fa3ddfab9","freq","img/orange_2bandit_a2.png","68","70","test","0","82","82","4","",""
"null","191023","pSARL_v2","pSARL_v2jhv10fb1","64135983899b0b3fa3ddfab9","freq_resp","img/orange_2bandit_a.png","68","70","test","","","","4","",""
"null","191183","pSARL_v2","pSARL_v2jhv10fb1","64135983899b0b3fa3ddfab9","fixation","img/fixation.png","null","","test","","","","","",""
"406.30000000074506","191594","pSARL_v2","pSARL_v2jhv10fb1","64135983899b0b3fa3ddfab9","freq","img/orange_2bandit_a2.png","68","70","test","0","83","83","4","",""
"null","192000","pSARL_v2","pSARL_v2jhv10fb1","64135983899b0b3fa3ddfab9","freq_resp","img/orange_2bandit_a.png","68","70","test","","","","4","",""
"null","192160","pSARL_v2","pSARL_v2jhv10fb1","64135983899b0b3fa3ddfab9","fixation","img/fixation.png","null","","test","","","","","",""
"389.59999999962747","192553","pSARL_v2","pSARL_v2jhv10fb1","64135983899b0b3fa3ddfab9","freq","img/orange_2bandit_a2.png","68","70","test","0","84","84","4","",""
"null","192975","pSARL_v2","pSARL_v2jhv10fb1","64135983899b0b3fa3ddfab9","freq_resp","img/orange_2bandit_a.png","68","70","test","","","","4","",""
"null","193146","pSARL_v2","pSARL_v2jhv10fb1","64135983899b0b3fa3ddfab9","fixation","img/fixation.png","null","","test","","","","","",""
"301","193457","pSARL_v2","pSARL_v2jhv10fb1","64135983899b0b3fa3ddfab9","freq","img/orange_2bandit_a2.png","68","70","test","0","85","85","4","",""
"null","193966","pSARL_v2","pSARL_v2jhv10fb1","64135983899b0b3fa3ddfab9","freq_resp","img/orange_2bandit_a.png","68","70","test","","","","4","",""
"null","194134","pSARL_v2","pSARL_v2jhv10fb1","64135983899b0b3fa3ddfab9","fixation","img/fixation.png","null","","test","","","","","",""
"280.5","194422","pSARL_v2","pSARL_v2jhv10fb1","64135983899b0b3fa3ddfab9","freq","img/orange_2bandit_a2.png","68","70","test","0","86","86","4","",""
"null","194958","pSARL_v2","pSARL_v2jhv10fb1","64135983899b0b3fa3ddfab9","freq_resp","img/orange_2bandit_a.png","68","70","test","","","","4","",""
"null","195130","pSARL_v2","pSARL_v2jhv10fb1","64135983899b0b3fa3ddfab9","fixation","img/fixation.png","null","","test","","","","","",""
"251.19999999925494","195387","pSARL_v2","pSARL_v2jhv10fb1","64135983899b0b3fa3ddfab9","freq","img/orange_2bandit_a2.png","68","70","test","0","87","87","4","",""
"null","195951","pSARL_v2","pSARL_v2jhv10fb1","64135983899b0b3fa3ddfab9","freq_resp","img/orange_2bandit_a.png","68","70","test","","","","4","",""
"null","196119","pSARL_v2","pSARL_v2jhv10fb1","64135983899b0b3fa3ddfab9","fixation","img/fixation.png","null","","test","","","","","",""
"255.69999999925494","196382","pSARL_v2","pSARL_v2jhv10fb1","64135983899b0b3fa3ddfab9","freq","img/orange_2bandit_a2.png","68","70","test","0","88","88","4","",""
"null","196944","pSARL_v2","pSARL_v2jhv10fb1","64135983899b0b3fa3ddfab9","freq_resp","img/orange_2bandit_a.png","68","70","test","","","","4","",""
"null","197111","pSARL_v2","pSARL_v2jhv10fb1","64135983899b0b3fa3ddfab9","fixation","img/fixation.png","null","","test","","","","","",""
"294.2999999988824","197410","pSARL_v2","pSARL_v2jhv10fb1","64135983899b0b3fa3ddfab9","freq","img/orange_2bandit_a2.png","68","70","test","0","89","89","4","",""
"null","197931","pSARL_v2","pSARL_v2jhv10fb1","64135983899b0b3fa3ddfab9","freq_resp","img/orange_2bandit_a.png","68","70","test","","","","4","",""
"null","198095","pSARL_v2","pSARL_v2jhv10fb1","64135983899b0b3fa3ddfab9","fixation","img/fixation.png","null","","test","","","","","",""
"590.2000000011176","198691","pSARL_v2","pSARL_v2jhv10fb1","64135983899b0b3fa3ddfab9","reward","img/slot.png","74","","test","","","","","",""
"null","199465","pSARL_v2","pSARL_v2jhv10fb1","64135983899b0b3fa3ddfab9","points","<div class=""verylowPoints""> -3 </div>","null","na","test","","","","4","-3","3"
"452.30000000074506","199926","pSARL_v2","pSARL_v2jhv10fb1","64135983899b0b3fa3ddfab9","freq","img/orange_2bandit_a2.png","68","70","test","0","90","90","5","",""
"null","200286","pSARL_v2","pSARL_v2jhv10fb1","64135983899b0b3fa3ddfab9","freq_resp","img/orange_2bandit_a.png","68","70","test","","","","5","",""
"null","200455","pSARL_v2","pSARL_v2jhv10fb1","64135983899b0b3fa3ddfab9","fixation","img/fixation.png","null","","test","","","","","",""
"424.30000000074506","200889","pSARL_v2","pSARL_v2jhv10fb1","64135983899b0b3fa3ddfab9","freq","img/orange_2bandit_a2.png","68","70","test","0","91","91","5","",""
"null","201276","pSARL_v2","pSARL_v2jhv10fb1","64135983899b0b3fa3ddfab9","freq_resp","img/orange_2bandit_a.png","68","70","test","","","","5","",""
"null","201450","pSARL_v2","pSARL_v2jhv10fb1","64135983899b0b3fa3ddfab9","fixation","img/fixation.png","null","","test","","","","","",""
"378.30000000074506","201834","pSARL_v2","pSARL_v2jhv10fb1","64135983899b0b3fa3ddfab9","freq","img/orange_2bandit_a2.png","68","70","test","0","92","92","5","",""
"null","202271","pSARL_v2","pSARL_v2jhv10fb1","64135983899b0b3fa3ddfab9","freq_resp","img/orange_2bandit_a.png","68","70","test","","","","5","",""
"null","202442","pSARL_v2","pSARL_v2jhv10fb1","64135983899b0b3fa3ddfab9","fixation","img/fixation.png","null","","test","","","","","",""
"708.9000000003725","203160","pSARL_v2","pSARL_v2jhv10fb1","64135983899b0b3fa3ddfab9","infreq","img/green_2bandit_a2.png","70","68","test","0","93","93","5","",""
"null","203261","pSARL_v2","pSARL_v2jhv10fb1","64135983899b0b3fa3ddfab9","infreq_resp","img/green_2bandit_a.png","70","68","test","","","","5","",""
"null","203431","pSARL_v2","pSARL_v2jhv10fb1","64135983899b0b3fa3ddfab9","fixation","img/fixation.png","null","","test","","","","","",""
"566.5","204001","pSARL_v2","pSARL_v2jhv10fb1","64135983899b0b3fa3ddfab9","freq","img/orange_2bandit_a2.png","68","70","test","0","94","94","5","",""
"null","204253","pSARL_v2","pSARL_v2jhv10fb1","64135983899b0b3fa3ddfab9","freq_resp","img/orange_2bandit_a.png","68","70","test","","","","5","",""
"null","204412","pSARL_v2","pSARL_v2jhv10fb1","64135983899b0b3fa3ddfab9","fixation","img/fixation.png","null","","test","","","","","",""
"458.2000000011176","204879","pSARL_v2","pSARL_v2jhv10fb1","64135983899b0b3fa3ddfab9","freq","img/orange_2bandit_a2.png","68","70","test","0","95","95","5","",""
"null","205229","pSARL_v2","pSARL_v2jhv10fb1","64135983899b0b3fa3ddfab9","freq_resp","img/orange_2bandit_a.png","68","70","test","","","","5","",""
"null","205401","pSARL_v2","pSARL_v2jhv10fb1","64135983899b0b3fa3ddfab9","fixation","img/fixation.png","null","","test","","","","","",""
"380.09999999962747","205786","pSARL_v2","pSARL_v2jhv10fb1","64135983899b0b3fa3ddfab9","freq","img/orange_2bandit_a2.png","68","70","test","0","96","96","5","",""
"null","206221","pSARL_v2","pSARL_v2jhv10fb1","64135983899b0b3fa3ddfab9","freq_resp","img/orange_2bandit_a.png","68","70","test","","","","5","",""
"null","206377","pSARL_v2","pSARL_v2jhv10fb1","64135983899b0b3fa3ddfab9","fixation","img/fixation.png","null","","test","","","","","",""
"412.09999999962747","206793","pSARL_v2","pSARL_v2jhv10fb1","64135983899b0b3fa3ddfab9","freq","img/orange_2bandit_a2.png","68","70","test","0","97","97","5","",""
"null","207197","pSARL_v2","pSARL_v2jhv10fb1","64135983899b0b3fa3ddfab9","freq_resp","img/orange_2bandit_a.png","68","70","test","","","","5","",""
"null","207355","pSARL_v2","pSARL_v2jhv10fb1","64135983899b0b3fa3ddfab9","fixation","img/fixation.png","null","","test","","","","","",""
"314.5","207673","pSARL_v2","pSARL_v2jhv10fb1","64135983899b0b3fa3ddfab9","freq","img/orange_2bandit_a2.png","68","70","test","0","98","98","5","",""
"null","208174","pSARL_v2","pSARL_v2jhv10fb1","64135983899b0b3fa3ddfab9","freq_resp","img/orange_2bandit_a.png","68","70","test","","","","5","",""
"null","208343","pSARL_v2","pSARL_v2jhv10fb1","64135983899b0b3fa3ddfab9","fixation","img/fixation.png","null","","test","","","","","",""
"239.89999999850988","208590","pSARL_v2","pSARL_v2jhv10fb1","64135983899b0b3fa3ddfab9","freq","img/orange_2bandit_a2.png","68","70","test","0","99","99","5","",""
"null","209167","pSARL_v2","pSARL_v2jhv10fb1","64135983899b0b3fa3ddfab9","freq_resp","img/orange_2bandit_a.png","68","70","test","","","","5","",""
"null","209333","pSARL_v2","pSARL_v2jhv10fb1","64135983899b0b3fa3ddfab9","fixation","img/fixation.png","null","","test","","","","","",""
"289.19999999925494","209626","pSARL_v2","pSARL_v2jhv10fb1","64135983899b0b3fa3ddfab9","freq","img/orange_2bandit_a2.png","68","70","test","0","100","100","5","",""
"null","210155","pSARL_v2","pSARL_v2jhv10fb1","64135983899b0b3fa3ddfab9","freq_resp","img/orange_2bandit_a.png","68","70","test","","","","5","",""
"null","210327","pSARL_v2","pSARL_v2jhv10fb1","64135983899b0b3fa3ddfab9","fixation","img/fixation.png","null","","test","","","","","",""
"262.69999999925494","210594","pSARL_v2","pSARL_v2jhv10fb1","64135983899b0b3fa3ddfab9","freq","img/orange_2bandit_a2.png","68","70","test","0","101","101","5","",""
"null","211149","pSARL_v2","pSARL_v2jhv10fb1","64135983899b0b3fa3ddfab9","freq_resp","img/orange_2bandit_a.png","68","70","test","","","","5","",""
"null","211313","pSARL_v2","pSARL_v2jhv10fb1","64135983899b0b3fa3ddfab9","fixation","img/fixation.png","null","","test","","","","","",""
"357","211678","pSARL_v2","pSARL_v2jhv10fb1","64135983899b0b3fa3ddfab9","freq","img/orange_2bandit_a2.png","68","70","test","0","102","102","5","",""
"null","212126","pSARL_v2","pSARL_v2jhv10fb1","64135983899b0b3fa3ddfab9","freq_resp","img/orange_2bandit_a.png","68","70","test","","","","5","",""
"null","212285","pSARL_v2","pSARL_v2jhv10fb1","64135983899b0b3fa3ddfab9","fixation","img/fixation.png","null","","test","","","","","",""
"311.09999999962747","212601","pSARL_v2","pSARL_v2jhv10fb1","64135983899b0b3fa3ddfab9","freq","img/orange_2bandit_a2.png","68","70","test","0","103","103","5","",""
"null","213103","pSARL_v2","pSARL_v2jhv10fb1","64135983899b0b3fa3ddfab9","freq_resp","img/orange_2bandit_a.png","68","70","test","","","","5","",""
"null","213262","pSARL_v2","pSARL_v2jhv10fb1","64135983899b0b3fa3ddfab9","fixation","img/fixation.png","null","","test","","","","","",""
"328.09999999962747","213596","pSARL_v2","pSARL_v2jhv10fb1","64135983899b0b3fa3ddfab9","freq","img/orange_2bandit_a2.png","68","70","test","0","104","104","5","",""
"null","214079","pSARL_v2","pSARL_v2jhv10fb1","64135983899b0b3fa3ddfab9","freq_resp","img/orange_2bandit_a.png","68","70","test","","","","5","",""
"null","214240","pSARL_v2","pSARL_v2jhv10fb1","64135983899b0b3fa3ddfab9","fixation","img/fixation.png","null","","test","","","","","",""
"221.59999999962747","214470","pSARL_v2","pSARL_v2jhv10fb1","64135983899b0b3fa3ddfab9","freq","img/orange_2bandit_a2.png","68","70","test","0","105","105","5","",""
"null","215055","pSARL_v2","pSARL_v2jhv10fb1","64135983899b0b3fa3ddfab9","freq_resp","img/orange_2bandit_a.png","68","70","test","","","","5","",""
"null","215209","pSARL_v2","pSARL_v2jhv10fb1","64135983899b0b3fa3ddfab9","fixation","img/fixation.png","null","","test","","","","","",""
"269.5","215486","pSARL_v2","pSARL_v2jhv10fb1","64135983899b0b3fa3ddfab9","freq","img/orange_2bandit_a2.png","68","70","test","0","106","106","5","",""
"null","216031","pSARL_v2","pSARL_v2jhv10fb1","64135983899b0b3fa3ddfab9","freq_resp","img/orange_2bandit_a.png","68","70","test","","","","5","",""
"null","216202","pSARL_v2","pSARL_v2jhv10fb1","64135983899b0b3fa3ddfab9","fixation","img/fixation.png","null","","test","","","","","",""
"259.7999999988824","216468","pSARL_v2","pSARL_v2jhv10fb1","64135983899b0b3fa3ddfab9","freq","img/orange_2bandit_a2.png","68","70","test","0","107","107","5","",""
"null","217017","pSARL_v2","pSARL_v2jhv10fb1","64135983899b0b3fa3ddfab9","freq_resp","img/orange_2bandit_a.png","68","70","test","","","","5","",""
"null","217171","pSARL_v2","pSARL_v2jhv10fb1","64135983899b0b3fa3ddfab9","fixation","img/fixation.png","null","","test","","","","","",""
"323.09999999962747","217500","pSARL_v2","pSARL_v2jhv10fb1","64135983899b0b3fa3ddfab9","freq","img/orange_2bandit_a2.png","68","70","test","0","108","108","5","",""
"null","218002","pSARL_v2","pSARL_v2jhv10fb1","64135983899b0b3fa3ddfab9","freq_resp","img/orange_2bandit_a.png","68","70","test","","","","5","",""
"null","218166","pSARL_v2","pSARL_v2jhv10fb1","64135983899b0b3fa3ddfab9","fixation","img/fixation.png","null","","test","","","","","",""
"551.2999999988824","218723","pSARL_v2","pSARL_v2jhv10fb1","64135983899b0b3fa3ddfab9","infreq","img/green_2bandit_a2.png","70","68","test","0","109","109","5","",""
"null","218984","pSARL_v2","pSARL_v2jhv10fb1","64135983899b0b3fa3ddfab9","infreq_resp","img/green_2bandit_a.png","70","68","test","","","","5","",""
"null","219143","pSARL_v2","pSARL_v2jhv10fb1","64135983899b0b3fa3ddfab9","fixation","img/fixation.png","null","","test","","","","","",""
"486.40000000037253","219638","pSARL_v2","pSARL_v2jhv10fb1","64135983899b0b3fa3ddfab9","freq","img/orange_2bandit_a2.png","68","70","test","0","110","110","5","",""
"null","219962","pSARL_v2","pSARL_v2jhv10fb1","64135983899b0b3fa3ddfab9","freq_resp","img/orange_2bandit_a.png","68","70","test","","","","5","",""
"null","220134","pSARL_v2","pSARL_v2jhv10fb1","64135983899b0b3fa3ddfab9","fixation","img/fixation.png","null","","test","","","","","",""
"463.69999999925494","220606","pSARL_v2","pSARL_v2jhv10fb1","64135983899b0b3fa3ddfab9","freq","img/orange_2bandit_a2.png","68","70","test","0","111","111","5","",""
"null","220948","pSARL_v2","pSARL_v2jhv10fb1","64135983899b0b3fa3ddfab9","freq_resp","img/orange_2bandit_a.png","68","70","test","","","","5","",""
"null","221110","pSARL_v2","pSARL_v2jhv10fb1","64135983899b0b3fa3ddfab9","fixation","img/fixation.png","null","","test","","","","","",""
"383.80000000074506","221503","pSARL_v2","pSARL_v2jhv10fb1","64135983899b0b3fa3ddfab9","freq","img/orange_2bandit_a2.png","68","70","test","0","112","112","5","",""
"null","221930","pSARL_v2","pSARL_v2jhv10fb1","64135983899b0b3fa3ddfab9","freq_resp","img/orange_2bandit_a.png","68","70","test","","","","5","",""
"null","222091","pSARL_v2","pSARL_v2jhv10fb1","64135983899b0b3fa3ddfab9","fixation","img/fixation.png","null","","test","","","","","",""
"275.8999999985099","222377","pSARL_v2","pSARL_v2jhv10fb1","64135983899b0b3fa3ddfab9","freq","img/orange_2bandit_a2.png","68","70","test","0","113","113","5","",""
"null","222923","pSARL_v2","pSARL_v2jhv10fb1","64135983899b0b3fa3ddfab9","freq_resp","img/orange_2bandit_a.png","68","70","test","","","","5","",""
"null","223092","pSARL_v2","pSARL_v2jhv10fb1","64135983899b0b3fa3ddfab9","fixation","img/fixation.png","null","","test","","","","","",""
"337.8999999985099","223433","pSARL_v2","pSARL_v2jhv10fb1","64135983899b0b3fa3ddfab9","freq","img/orange_2bandit_a2.png","68","70","test","0","114","114","5","",""
"null","223912","pSARL_v2","pSARL_v2jhv10fb1","64135983899b0b3fa3ddfab9","freq_resp","img/orange_2bandit_a.png","68","70","test","","","","5","",""
"null","224076","pSARL_v2","pSARL_v2jhv10fb1","64135983899b0b3fa3ddfab9","fixation","img/fixation.png","null","","test","","","","","",""
"271.09999999962747","224355","pSARL_v2","pSARL_v2jhv10fb1","64135983899b0b3fa3ddfab9","freq","img/orange_2bandit_a2.png","68","70","test","0","115","115","5","",""
"null","224908","pSARL_v2","pSARL_v2jhv10fb1","64135983899b0b3fa3ddfab9","freq_resp","img/orange_2bandit_a.png","68","70","test","","","","5","",""
"null","225075","pSARL_v2","pSARL_v2jhv10fb1","64135983899b0b3fa3ddfab9","fixation","img/fixation.png","null","","test","","","","","",""
"675.8000000007451","225757","pSARL_v2","pSARL_v2jhv10fb1","64135983899b0b3fa3ddfab9","reward","img/slot.png","74","","test","","","","","",""
"null","226525","pSARL_v2","pSARL_v2jhv10fb1","64135983899b0b3fa3ddfab9","points","<div class=""veryhighPoints""> +1 </div>","null","na","test","","","","5","1","4"
"504.59999999962747","227034","pSARL_v2","pSARL_v2jhv10fb1","64135983899b0b3fa3ddfab9","freq","img/orange_2bandit_a2.png","68","70","test","0","116","116","6","",""
"null","227349","pSARL_v2","pSARL_v2jhv10fb1","64135983899b0b3fa3ddfab9","freq_resp","img/orange_2bandit_a.png","68","70","test","","","","6","",""
"null","227508","pSARL_v2","pSARL_v2jhv10fb1","64135983899b0b3fa3ddfab9","fixation","img/fixation.png","null","","test","","","","","",""
"344.5","227857","pSARL_v2","pSARL_v2jhv10fb1","64135983899b0b3fa3ddfab9","freq","img/orange_2bandit_a2.png","68","70","test","0","117","117","6","",""
"null","228321","pSARL_v2","pSARL_v2jhv10fb1","64135983899b0b3fa3ddfab9","freq_resp","img/orange_2bandit_a.png","68","70","test","","","","6","",""
"null","228479","pSARL_v2","pSARL_v2jhv10fb1","64135983899b0b3fa3ddfab9","fixation","img/fixation.png","null","","test","","","","","",""
"327.19999999925494","228813","pSARL_v2","pSARL_v2jhv10fb1","64135983899b0b3fa3ddfab9","freq","img/orange_2bandit_a2.png","68","70","test","0","118","118","6","",""
"null","229290","pSARL_v2","pSARL_v2jhv10fb1","64135983899b0b3fa3ddfab9","freq_resp","img/orange_2bandit_a.png","68","70","test","","","","6","",""
"null","229459","pSARL_v2","pSARL_v2jhv10fb1","64135983899b0b3fa3ddfab9","fixation","img/fixation.png","null","","test","","","","","",""
"186.5","229649","pSARL_v2","pSARL_v2jhv10fb1","64135983899b0b3fa3ddfab9","infreq","img/green_2bandit_a2.png","68","68","test","1","119","119","6","",""
"null","230276","pSARL_v2","pSARL_v2jhv10fb1","64135983899b0b3fa3ddfab9","infreq_resp","img/green_2bandit_a.png","68","68","test","","","","6","",""
"null","230434","pSARL_v2","pSARL_v2jhv10fb1","64135983899b0b3fa3ddfab9","fixation","img/fixation.png","null","","test","","","","","",""
"396.5","230836","pSARL_v2","pSARL_v2jhv10fb1","64135983899b0b3fa3ddfab9","freq","img/orange_2bandit_a2.png","68","70","test","0","120","120","6","",""
"null","231258","pSARL_v2","pSARL_v2jhv10fb1","64135983899b0b3fa3ddfab9","freq_resp","img/orange_2bandit_a.png","68","70","test","","","","6","",""
"null","231430","pSARL_v2","pSARL_v2jhv10fb1","64135983899b0b3fa3ddfab9","fixation","img/fixation.png","null","","test","","","","","",""
"360.80000000074506","231796","pSARL_v2","pSARL_v2jhv10fb1","64135983899b0b3fa3ddfab9","freq","img/orange_2bandit_a2.png","68","70","test","0","121","121","6","",""
"null","232251","pSARL_v2","pSARL_v2jhv10fb1","64135983899b0b3fa3ddfab9","freq_resp","img/orange_2bandit_a.png","68","70","test","","","","6","",""
"null","232407","pSARL_v2","pSARL_v2jhv10fb1","64135983899b0b3fa3ddfab9","fixation","img/fixation.png","null","","test","","","","","",""
"359.5","232771","pSARL_v2","pSARL_v2jhv10fb1","64135983899b0b3fa3ddfab9","freq","img/orange_2bandit_a2.png","68","70","test","0","122","122","6","",""
"null","233217","pSARL_v2","pSARL_v2jhv10fb1","64135983899b0b3fa3ddfab9","freq_resp","img/orange_2bandit_a.png","68","70","test","","","","6","",""
"null","233374","pSARL_v2","pSARL_v2jhv10fb1","64135983899b0b3fa3ddfab9","fixation","img/fixation.png","null","","test","","","","","",""
"248.60000000149012","233634","pSARL_v2","pSARL_v2jhv10fb1","64135983899b0b3fa3ddfab9","freq","img/orange_2bandit_a2.png","68","70","test","0","123","123","6","",""
"null","234194","pSARL_v2","pSARL_v2jhv10fb1","64135983899b0b3fa3ddfab9","freq_resp","img/orange_2bandit_a.png","68","70","test","","","","6","",""
"null","234355","pSARL_v2","pSARL_v2jhv10fb1","64135983899b0b3fa3ddfab9","fixation","img/fixation.png","null","","test","","","","","",""
"265.2999999988824","234627","pSARL_v2","pSARL_v2jhv10fb1","64135983899b0b3fa3ddfab9","freq","img/orange_2bandit_a2.png","68","70","test","0","124","124","6","",""
"null","235177","pSARL_v2","pSARL_v2jhv10fb1","64135983899b0b3fa3ddfab9","freq_resp","img/orange_2bandit_a.png","68","70","test","","","","6","",""
"null","235352","pSARL_v2","pSARL_v2jhv10fb1","64135983899b0b3fa3ddfab9","fixation","img/fixation.png","null","","test","","","","","",""
"205.2999999988824","235561","pSARL_v2","pSARL_v2jhv10fb1","64135983899b0b3fa3ddfab9","freq","img/orange_2bandit_a2.png","68","70","test","0","125","125","6","",""
"null","236167","pSARL_v2","pSARL_v2jhv10fb1","64135983899b0b3fa3ddfab9","freq_resp","img/orange_2bandit_a.png","68","70","test","","","","6","",""
"null","236338","pSARL_v2","pSARL_v2jhv10fb1","64135983899b0b3fa3ddfab9","fixation","img/fixation.png","null","","test","","","","","",""
"259.09999999962747","236601","pSARL_v2","pSARL_v2jhv10fb1","64135983899b0b3fa3ddfab9","freq","img/orange_2bandit_a2.png","68","70","test","0","126","126","6","",""
"null","237146","pSARL_v2","pSARL_v2jhv10fb1","64135983899b0b3fa3ddfab9","freq_resp","img/orange_2bandit_a.png","68","70","test","","","","6","",""
"null","237302","pSARL_v2","pSARL_v2jhv10fb1","64135983899b0b3fa3ddfab9","fixation","img/fixation.png","null","","test","","","","","",""
"303.40000000037253","237609","pSARL_v2","pSARL_v2jhv10fb1","64135983899b0b3fa3ddfab9","freq","img/orange_2bandit_a2.png","68","70","test","0","127","127","6","",""
"null","238123","pSARL_v2","pSARL_v2jhv10fb1","64135983899b0b3fa3ddfab9","freq_resp","img/orange_2bandit_a.png","68","70","test","","","","6","",""
"null","238293","pSARL_v2","pSARL_v2jhv10fb1","64135983899b0b3fa3ddfab9","fixation","img/fixation.png","null","","test","","","","","",""
"576","238873","pSARL_v2","pSARL_v2jhv10fb1","64135983899b0b3fa3ddfab9","infreq","img/green_2bandit_a2.png","70","68","test","0","128","128","6","",""
"null","239105","pSARL_v2","pSARL_v2jhv10fb1","64135983899b0b3fa3ddfab9","infreq_resp","img/green_2bandit_a.png","70","68","test","","","","6","",""
"null","239264","pSARL_v2","pSARL_v2jhv10fb1","64135983899b0b3fa3ddfab9","fixation","img/fixation.png","null","","test","","","","","",""
"605.4000000003725","239874","pSARL_v2","pSARL_v2jhv10fb1","64135983899b0b3fa3ddfab9","freq","img/orange_2bandit_a2.png","68","70","test","0","129","129","6","",""
"null","240082","pSARL_v2","pSARL_v2jhv10fb1","64135983899b0b3fa3ddfab9","freq_resp","img/orange_2bandit_a.png","68","70","test","","","","6","",""
"null","240254","pSARL_v2","pSARL_v2jhv10fb1","64135983899b0b3fa3ddfab9","fixation","img/fixation.png","null","","test","","","","","",""
"614.5999999996275","240874","pSARL_v2","pSARL_v2jhv10fb1","64135983899b0b3fa3ddfab9","freq","img/orange_2bandit_a2.png","68","70","test","0","130","130","6","",""
"null","241067","pSARL_v2","pSARL_v2jhv10fb1","64135983899b0b3fa3ddfab9","freq_resp","img/orange_2bandit_a.png","68","70","test","","","","6","",""
"null","241226","pSARL_v2","pSARL_v2jhv10fb1","64135983899b0b3fa3ddfab9","fixation","img/fixation.png","null","","test","","","","","",""
"507.5","241738","pSARL_v2","pSARL_v2jhv10fb1","64135983899b0b3fa3ddfab9","freq","img/orange_2bandit_a2.png","68","70","test","0","131","131","6","",""
"null","242047","pSARL_v2","pSARL_v2jhv10fb1","64135983899b0b3fa3ddfab9","freq_resp","img/orange_2bandit_a.png","68","70","test","","","","6","",""
"null","242203","pSARL_v2","pSARL_v2jhv10fb1","64135983899b0b3fa3ddfab9","fixation","img/fixation.png","null","","test","","","","","",""
"529.9000000003725","242738","pSARL_v2","pSARL_v2jhv10fb1","64135983899b0b3fa3ddfab9","freq","img/orange_2bandit_a2.png","68","70","test","0","132","132","6","",""
"null","243026","pSARL_v2","pSARL_v2jhv10fb1","64135983899b0b3fa3ddfab9","freq_resp","img/orange_2bandit_a.png","68","70","test","","","","6","",""
"null","243185","pSARL_v2","pSARL_v2jhv10fb1","64135983899b0b3fa3ddfab9","fixation","img/fixation.png","null","","test","","","","","",""
"349.80000000074506","243543","pSARL_v2","pSARL_v2jhv10fb1","64135983899b0b3fa3ddfab9","freq","img/orange_2bandit_a2.png","68","70","test","0","133","133","6","",""
"null","244005","pSARL_v2","pSARL_v2jhv10fb1","64135983899b0b3fa3ddfab9","freq_resp","img/orange_2bandit_a.png","68","70","test","","","","6","",""
"null","244177","pSARL_v2","pSARL_v2jhv10fb1","64135983899b0b3fa3ddfab9","fixation","img/fixation.png","null","","test","","","","","",""
"576.7000000011176","244759","pSARL_v2","pSARL_v2jhv10fb1","64135983899b0b3fa3ddfab9","freq","img/orange_2bandit_a2.png","68","70","test","0","134","134","6","",""
"null","244988","pSARL_v2","pSARL_v2jhv10fb1","64135983899b0b3fa3ddfab9","freq_resp","img/orange_2bandit_a.png","68","70","test","","","","6","",""
"null","245147","pSARL_v2","pSARL_v2jhv10fb1","64135983899b0b3fa3ddfab9","fixation","img/fixation.png","null","","test","","","","","",""
"563.3999999985099","245720","pSARL_v2","pSARL_v2jhv10fb1","64135983899b0b3fa3ddfab9","freq","img/orange_2bandit_a2.png","68","70","test","0","135","135","6","",""
"null","245977","pSARL_v2","pSARL_v2jhv10fb1","64135983899b0b3fa3ddfab9","freq_resp","img/orange_2bandit_a.png","68","70","test","","","","6","",""
"null","246133","pSARL_v2","pSARL_v2jhv10fb1","64135983899b0b3fa3ddfab9","fixation","img/fixation.png","null","","test","","","","","",""
"560.4000000003725","246699","pSARL_v2","pSARL_v2jhv10fb1","64135983899b0b3fa3ddfab9","reward","img/slot.png","74","","test","","","","","",""
"null","247458","pSARL_v2","pSARL_v2jhv10fb1","64135983899b0b3fa3ddfab9","points","<div class=""verylowPoints""> -7 </div>","null","na","test","","","","6","-7","5"
"298.59999999962747","247760","pSARL_v2","pSARL_v2jhv10fb1","64135983899b0b3fa3ddfab9","freq","img/orange_2bandit_a2.png","68","70","test","0","136","136","7","",""
"null","248273","pSARL_v2","pSARL_v2jhv10fb1","64135983899b0b3fa3ddfab9","freq_resp","img/orange_2bandit_a.png","68","70","test","","","","7","",""
"null","248430","pSARL_v2","pSARL_v2jhv10fb1","64135983899b0b3fa3ddfab9","fixation","img/fixation.png","null","","test","","","","","",""
"479","248913","pSARL_v2","pSARL_v2jhv10fb1","64135983899b0b3fa3ddfab9","freq","img/orange_2bandit_a2.png","68","70","test","0","137","137","7","",""
"null","249241","pSARL_v2","pSARL_v2jhv10fb1","64135983899b0b3fa3ddfab9","freq_resp","img/orange_2bandit_a.png","68","70","test","","","","7","",""
"null","249411","pSARL_v2","pSARL_v2jhv10fb1","64135983899b0b3fa3ddfab9","fixation","img/fixation.png","null","","test","","","","","",""
"417.59999999962747","249832","pSARL_v2","pSARL_v2jhv10fb1","64135983899b0b3fa3ddfab9","freq","img/orange_2bandit_a2.png","68","70","test","0","138","138","7","",""
"null","250225","pSARL_v2","pSARL_v2jhv10fb1","64135983899b0b3fa3ddfab9","freq_resp","img/orange_2bandit_a.png","68","70","test","","","","7","",""
"null","250382","pSARL_v2","pSARL_v2jhv10fb1","64135983899b0b3fa3ddfab9","fixation","img/fixation.png","null","","test","","","","","",""
"398.90000000037253","250784","pSARL_v2","pSARL_v2jhv10fb1","64135983899b0b3fa3ddfab9","freq","img/orange_2bandit_a2.png","68","70","test","0","139","139","7","",""
"null","251192","pSARL_v2","pSARL_v2jhv10fb1","64135983899b0b3fa3ddfab9","freq_resp","img/orange_2bandit_a.png","68","70","test","","","","7","",""
"null","251361","pSARL_v2","pSARL_v2jhv10fb1","64135983899b0b3fa3ddfab9","fixation","img/fixation.png","null","","test","","","","","",""
"389","251755","pSARL_v2","pSARL_v2jhv10fb1","64135983899b0b3fa3ddfab9","freq","img/orange_2bandit_a2.png","68","70","test","0","140","140","7","",""
"null","252177","pSARL_v2","pSARL_v2jhv10fb1","64135983899b0b3fa3ddfab9","freq_resp","img/orange_2bandit_a.png","68","70","test","","","","7","",""
"null","252332","pSARL_v2","pSARL_v2jhv10fb1","64135983899b0b3fa3ddfab9","fixation","img/fixation.png","null","","test","","","","","",""
"353.09999999962747","252689","pSARL_v2","pSARL_v2jhv10fb1","64135983899b0b3fa3ddfab9","freq","img/orange_2bandit_a2.png","68","70","test","0","141","141","7","",""
"null","253144","pSARL_v2","pSARL_v2jhv10fb1","64135983899b0b3fa3ddfab9","freq_resp","img/orange_2bandit_a.png","68","70","test","","","","7","",""
"null","253299","pSARL_v2","pSARL_v2jhv10fb1","64135983899b0b3fa3ddfab9","fixation","img/fixation.png","null","","test","","","","","",""
"393.80000000074506","253697","pSARL_v2","pSARL_v2jhv10fb1","64135983899b0b3fa3ddfab9","freq","img/orange_2bandit_a2.png","68","70","test","0","142","142","7","",""
"null","254114","pSARL_v2","pSARL_v2jhv10fb1","64135983899b0b3fa3ddfab9","freq_resp","img/orange_2bandit_a.png","68","70","test","","","","7","",""
"null","254273","pSARL_v2","pSARL_v2jhv10fb1","64135983899b0b3fa3ddfab9","fixation","img/fixation.png","null","","test","","","","","",""
"404.2000000011176","254681","pSARL_v2","pSARL_v2jhv10fb1","64135983899b0b3fa3ddfab9","freq","img/orange_2bandit_a2.png","68","70","test","0","143","143","7","",""
"null","255087","pSARL_v2","pSARL_v2jhv10fb1","64135983899b0b3fa3ddfab9","freq_resp","img/orange_2bandit_a.png","68","70","test","","","","7","",""
"null","255255","pSARL_v2","pSARL_v2jhv10fb1","64135983899b0b3fa3ddfab9","fixation","img/fixation.png","null","","test","","","","","",""
"285.59999999962747","255545","pSARL_v2","pSARL_v2jhv10fb1","64135983899b0b3fa3ddfab9","freq","img/orange_2bandit_a2.png","68","70","test","0","144","144","7","",""
"null","256069","pSARL_v2","pSARL_v2jhv10fb1","64135983899b0b3fa3ddfab9","freq_resp","img/orange_2bandit_a.png","68","70","test","","","","7","",""
"null","256226","pSARL_v2","pSARL_v2jhv10fb1","64135983899b0b3fa3ddfab9","fixation","img/fixation.png","null","","test","","","","","",""
"299","256528","pSARL_v2","pSARL_v2jhv10fb1","64135983899b0b3fa3ddfab9","freq","img/orange_2bandit_a2.png","68","70","test","0","145","145","7","",""
"null","257047","pSARL_v2","pSARL_v2jhv10fb1","64135983899b0b3fa3ddfab9","freq_resp","img/orange_2bandit_a.png","68","70","test","","","","7","",""
"null","257206","pSARL_v2","pSARL_v2jhv10fb1","64135983899b0b3fa3ddfab9","fixation","img/fixation.png","null","","test","","","","","",""
"335.09999999962747","257544","pSARL_v2","pSARL_v2jhv10fb1","64135983899b0b3fa3ddfab9","freq","img/orange_2bandit_a2.png","68","70","test","0","146","146","7","",""
"null","258019","pSARL_v2","pSARL_v2jhv10fb1","64135983899b0b3fa3ddfab9","freq_resp","img/orange_2bandit_a.png","68","70","test","","","","7","",""
"null","258177","pSARL_v2","pSARL_v2jhv10fb1","64135983899b0b3fa3ddfab9","fixation","img/fixation.png","null","","test","","","","","",""
"299.90000000037253","258482","pSARL_v2","pSARL_v2jhv10fb1","64135983899b0b3fa3ddfab9","freq","img/orange_2bandit_a2.png","68","70","test","0","147","147","7","",""
"null","258998","pSARL_v2","pSARL_v2jhv10fb1","64135983899b0b3fa3ddfab9","freq_resp","img/orange_2bandit_a.png","68","70","test","","","","7","",""
"null","259170","pSARL_v2","pSARL_v2jhv10fb1","64135983899b0b3fa3ddfab9","fixation","img/fixation.png","null","","test","","","","","",""
"194.90000000037253","259371","pSARL_v2","pSARL_v2jhv10fb1","64135983899b0b3fa3ddfab9","freq","img/orange_2bandit_a2.png","68","70","test","0","148","148","7","",""
"null","259981","pSARL_v2","pSARL_v2jhv10fb1","64135983899b0b3fa3ddfab9","freq_resp","img/orange_2bandit_a.png","68","70","test","","","","7","",""
"null","260140","pSARL_v2","pSARL_v2jhv10fb1","64135983899b0b3fa3ddfab9","fixation","img/fixation.png","null","","test","","","","","",""
"89","260233","pSARL_v2","pSARL_v2jhv10fb1","64135983899b0b3fa3ddfab9","freq","img/orange_2bandit_a2.png","68","70","test","0","149","149","7","",""
"null","260952","pSARL_v2","pSARL_v2jhv10fb1","64135983899b0b3fa3ddfab9","freq_resp","img/orange_2bandit_a.png","68","70","test","","","","7","",""
"null","261107","pSARL_v2","pSARL_v2jhv10fb1","64135983899b0b3fa3ddfab9","fixation","img/fixation.png","null","","test","","","","","",""
"209.5","261320","pSARL_v2","pSARL_v2jhv10fb1","64135983899b0b3fa3ddfab9","infreq","img/green_2bandit_a2.png","68","68","test","1","150","150","7","",""
"null","261917","pSARL_v2","pSARL_v2jhv10fb1","64135983899b0b3fa3ddfab9","infreq_resp","img/green_2bandit_a.png","68","68","test","","","","7","",""
"null","262073","pSARL_v2","pSARL_v2jhv10fb1","64135983899b0b3fa3ddfab9","fixation","img/fixation.png","null","","test","","","","","",""
"156.5","262233","pSARL_v2","pSARL_v2jhv10fb1","64135983899b0b3fa3ddfab9","freq","img/orange_2bandit_a2.png","68","70","test","0","151","151","7","",""
"null","262885","pSARL_v2","pSARL_v2jhv10fb1","64135983899b0b3fa3ddfab9","freq_resp","img/orange_2bandit_a.png","68","70","test","","","","7","",""
"null","263039","pSARL_v2","pSARL_v2jhv10fb1","64135983899b0b3fa3ddfab9","fixation","img/fixation.png","null","","test","","","","","",""
"189.40000000037253","263232","pSARL_v2","pSARL_v2jhv10fb1","64135983899b0b3fa3ddfab9","freq","img/orange_2bandit_a2.png","68","70","test","0","152","152","7","",""
"null","263851","pSARL_v2","pSARL_v2jhv10fb1","64135983899b0b3fa3ddfab9","freq_resp","img/orange_2bandit_a.png","68","70","test","","","","7","",""
"null","264019","pSARL_v2","pSARL_v2jhv10fb1","64135983899b0b3fa3ddfab9","fixation","img/fixation.png","null","","test","","","","","",""
"121.79999999888241","264144","pSARL_v2","pSARL_v2jhv10fb1","64135983899b0b3fa3ddfab9","freq","img/orange_2bandit_a2.png","68","70","test","0","153","153","7","",""
"null","264836","pSARL_v2","pSARL_v2jhv10fb1","64135983899b0b3fa3ddfab9","freq_resp","img/orange_2bandit_a.png","68","70","test","","","","7","",""
"null","264992","pSARL_v2","pSARL_v2jhv10fb1","64135983899b0b3fa3ddfab9","fixation","img/fixation.png","null","","test","","","","","",""
"93.19999999925494","265089","pSARL_v2","pSARL_v2jhv10fb1","64135983899b0b3fa3ddfab9","freq","img/orange_2bandit_a2.png","68","70","test","0","154","154","7","",""
"null","265814","pSARL_v2","pSARL_v2jhv10fb1","64135983899b0b3fa3ddfab9","freq_resp","img/orange_2bandit_a.png","68","70","test","","","","7","",""
"null","265972","pSARL_v2","pSARL_v2jhv10fb1","64135983899b0b3fa3ddfab9","fixation","img/fixation.png","null","","test","","","","","",""
"176.5","266153","pSARL_v2","pSARL_v2jhv10fb1","64135983899b0b3fa3ddfab9","freq","img/orange_2bandit_a2.png","68","70","test","0","155","155","7","",""
"null","266789","pSARL_v2","pSARL_v2jhv10fb1","64135983899b0b3fa3ddfab9","freq_resp","img/orange_2bandit_a.png","68","70","test","","","","7","",""
"null","266957","pSARL_v2","pSARL_v2jhv10fb1","64135983899b0b3fa3ddfab9","fixation","img/fixation.png","null","","test","","","","","",""
"103.59999999962747","267065","pSARL_v2","pSARL_v2jhv10fb1","64135983899b0b3fa3ddfab9","freq","img/orange_2bandit_a2.png","68","70","test","0","156","156","7","",""
"null","267779","pSARL_v2","pSARL_v2jhv10fb1","64135983899b0b3fa3ddfab9","freq_resp","img/orange_2bandit_a.png","68","70","test","","","","7","",""
"null","267936","pSARL_v2","pSARL_v2jhv10fb1","64135983899b0b3fa3ddfab9","fixation","img/fixation.png","null","","test","","","","","",""
"221.19999999925494","268161","pSARL_v2","pSARL_v2jhv10fb1","64135983899b0b3fa3ddfab9","infreq","img/green_2bandit_a2.png","68","68","test","1","157","157","7","",""
"null","268756","pSARL_v2","pSARL_v2jhv10fb1","64135983899b0b3fa3ddfab9","infreq_resp","img/green_2bandit_a.png","68","68","test","","","","7","",""
"null","268910","pSARL_v2","pSARL_v2jhv10fb1","64135983899b0b3fa3ddfab9","fixation","img/fixation.png","null","","test","","","","","",""
"215","269129","pSARL_v2","pSARL_v2jhv10fb1","64135983899b0b3fa3ddfab9","freq","img/orange_2bandit_a2.png","68","70","test","0","158","158","7","",""
"null","269733","pSARL_v2","pSARL_v2jhv10fb1","64135983899b0b3fa3ddfab9","freq_resp","img/orange_2bandit_a.png","68","70","test","","","","7","",""
"null","269890","pSARL_v2","pSARL_v2jhv10fb1","64135983899b0b3fa3ddfab9","fixation","img/fixation.png","null","","test","","","","","",""
"178.69999999925494","270073","pSARL_v2","pSARL_v2jhv10fb1","64135983899b0b3fa3ddfab9","freq","img/orange_2bandit_a2.png","68","70","test","0","159","159","7","",""
"null","270704","pSARL_v2","pSARL_v2jhv10fb1","64135983899b0b3fa3ddfab9","freq_resp","img/orange_2bandit_a.png","68","70","test","","","","7","",""
"null","270860","pSARL_v2","pSARL_v2jhv10fb1","64135983899b0b3fa3ddfab9","fixation","img/fixation.png","null","","test","","","","","",""
"1153.2999999988824","272017","pSARL_v2","pSARL_v2jhv10fb1","64135983899b0b3fa3ddfab9","reward","img/slot.png","74","","test","","","","","",""
"null","272783","pSARL_v2","pSARL_v2jhv10fb1","64135983899b0b3fa3ddfab9","points","<div class=""verylowPoints""> -6 </div>","null","na","test","","","","7","-6","6"
"525.5","273313","pSARL_v2","pSARL_v2jhv10fb1","64135983899b0b3fa3ddfab9","freq","img/orange_2bandit_a2.png","68","70","test","0","160","160","8","",""
"null","273591","pSARL_v2","pSARL_v2jhv10fb1","64135983899b0b3fa3ddfab9","freq_resp","img/orange_2bandit_a.png","68","70","test","","","","8","",""
"null","273746","pSARL_v2","pSARL_v2jhv10fb1","64135983899b0b3fa3ddfab9","fixation","img/fixation.png","null","","test","","","","","",""
"738.5999999996275","274489","pSARL_v2","pSARL_v2jhv10fb1","64135983899b0b3fa3ddfab9","freq","img/orange_2bandit_a2.png","68","70","test","0","161","161","8","",""
"null","274560","pSARL_v2","pSARL_v2jhv10fb1","64135983899b0b3fa3ddfab9","freq_resp","img/orange_2bandit_a.png","68","70","test","","","","8","",""
"null","274730","pSARL_v2","pSARL_v2jhv10fb1","64135983899b0b3fa3ddfab9","fixation","img/fixation.png","null","","test","","","","","",""
"635.1999999992549","275369","pSARL_v2","pSARL_v2jhv10fb1","64135983899b0b3fa3ddfab9","infreq","img/green_2bandit_a2.png","70","68","test","0","162","162","8","",""
"null","275550","pSARL_v2","pSARL_v2jhv10fb1","64135983899b0b3fa3ddfab9","infreq_resp","img/green_2bandit_a.png","70","68","test","","","","8","",""
"null","275705","pSARL_v2","pSARL_v2jhv10fb1","64135983899b0b3fa3ddfab9","fixation","img/fixation.png","null","","test","","","","","",""
"515.5999999996275","276224","pSARL_v2","pSARL_v2jhv10fb1","64135983899b0b3fa3ddfab9","freq","img/orange_2bandit_a2.png","68","70","test","0","163","163","8","",""
"null","276519","pSARL_v2","pSARL_v2jhv10fb1","64135983899b0b3fa3ddfab9","freq_resp","img/orange_2bandit_a.png","68","70","test","","","","8","",""
"null","276689","pSARL_v2","pSARL_v2jhv10fb1","64135983899b0b3fa3ddfab9","fixation","img/fixation.png","null","","test","","","","","",""
"371.40000000037253","277064","pSARL_v2","pSARL_v2jhv10fb1","64135983899b0b3fa3ddfab9","freq","img/orange_2bandit_a2.png","68","70","test","0","164","164","8","",""
"null","277500","pSARL_v2","pSARL_v2jhv10fb1","64135983899b0b3fa3ddfab9","freq_resp","img/orange_2bandit_a.png","68","70","test","","","","8","",""
"null","277672","pSARL_v2","pSARL_v2jhv10fb1","64135983899b0b3fa3ddfab9","fixation","img/fixation.png","null","","test","","","","","",""
"420.40000000037253","278097","pSARL_v2","pSARL_v2jhv10fb1","64135983899b0b3fa3ddfab9","freq","img/orange_2bandit_a2.png","68","70","test","0","165","165","8","",""
"null","278484","pSARL_v2","pSARL_v2jhv10fb1","64135983899b0b3fa3ddfab9","freq_resp","img/orange_2bandit_a.png","68","70","test","","","","8","",""
"null","278643","pSARL_v2","pSARL_v2jhv10fb1","64135983899b0b3fa3ddfab9","fixation","img/fixation.png","null","","test","","","","","",""
"362.2999999988824","279008","pSARL_v2","pSARL_v2jhv10fb1","64135983899b0b3fa3ddfab9","freq","img/orange_2bandit_a2.png","68","70","test","0","166","166","8","",""
"null","279467","pSARL_v2","pSARL_v2jhv10fb1","64135983899b0b3fa3ddfab9","freq_resp","img/orange_2bandit_a.png","68","70","test","","","","8","",""
"null","279634","pSARL_v2","pSARL_v2jhv10fb1","64135983899b0b3fa3ddfab9","fixation","img/fixation.png","null","","test","","","","","",""
"466.69999999925494","280105","pSARL_v2","pSARL_v2jhv10fb1","64135983899b0b3fa3ddfab9","infreq","img/green_2bandit_a2.png","70","68","test","0","167","167","8","",""
"null","280455","pSARL_v2","pSARL_v2jhv10fb1","64135983899b0b3fa3ddfab9","infreq_resp","img/green_2bandit_a.png","70","68","test","","","","8","",""
"null","280610","pSARL_v2","pSARL_v2jhv10fb1","64135983899b0b3fa3ddfab9","fixation","img/fixation.png","null","","test","","","","","",""
"442.5","281056","pSARL_v2","pSARL_v2jhv10fb1","64135983899b0b3fa3ddfab9","infreq","img/green_2bandit_a2.png","70","68","test","0","168","168","8","",""
"null","281419","pSARL_v2","pSARL_v2jhv10fb1","64135983899b0b3fa3ddfab9","infreq_resp","img/green_2bandit_a.png","70","68","test","","","","8","",""
"null","281576","pSARL_v2","pSARL_v2jhv10fb1","64135983899b0b3fa3ddfab9","fixation","img/fixation.png","null","","test","","","","","",""
"469.09999999962747","282048","pSARL_v2","pSARL_v2jhv10fb1","64135983899b0b3fa3ddfab9","freq","img/orange_2bandit_a2.png","68","70","test","0","169","169","8","",""
"null","282397","pSARL_v2","pSARL_v2jhv10fb1","64135983899b0b3fa3ddfab9","freq_resp","img/orange_2bandit_a.png","68","70","test","","","","8","",""
"null","282555","pSARL_v2","pSARL_v2jhv10fb1","64135983899b0b3fa3ddfab9","fixation","img/fixation.png","null","","test","","","","","",""
"433.40000000037253","282992","pSARL_v2","pSARL_v2jhv10fb1","64135983899b0b3fa3ddfab9","freq","img/orange_2bandit_a2.png","68","70","test","0","170","170","8","",""
"null","283368","pSARL_v2","pSARL_v2jhv10fb1","64135983899b0b3fa3ddfab9","freq_resp","img/orange_2bandit_a.png","68","70","test","","","","8","",""
"null","283524","pSARL_v2","pSARL_v2jhv10fb1","64135983899b0b3fa3ddfab9","fixation","img/fixation.png","null","","test","","","","","",""
"344.90000000037253","283872","pSARL_v2","pSARL_v2jhv10fb1","64135983899b0b3fa3ddfab9","freq","img/orange_2bandit_a2.png","68","70","test","0","171","171","8","",""
"null","284340","pSARL_v2","pSARL_v2jhv10fb1","64135983899b0b3fa3ddfab9","freq_resp","img/orange_2bandit_a.png","68","70","test","","","","8","",""
"null","284501","pSARL_v2","pSARL_v2jhv10fb1","64135983899b0b3fa3ddfab9","fixation","img/fixation.png","null","","test","","","","","",""
"359.7999999988824","284864","pSARL_v2","pSARL_v2jhv10fb1","64135983899b0b3fa3ddfab9","freq","img/orange_2bandit_a2.png","68","70","test","0","172","172","8","",""
"null","285315","pSARL_v2","pSARL_v2jhv10fb1","64135983899b0b3fa3ddfab9","freq_resp","img/orange_2bandit_a.png","68","70","test","","","","8","",""
"null","285470","pSARL_v2","pSARL_v2jhv10fb1","64135983899b0b3fa3ddfab9","fixation","img/fixation.png","null","","test","","","","","",""
"366.59999999962747","285840","pSARL_v2","pSARL_v2jhv10fb1","64135983899b0b3fa3ddfab9","freq","img/orange_2bandit_a2.png","68","70","test","0","173","173","8","",""
"null","286287","pSARL_v2","pSARL_v2jhv10fb1","64135983899b0b3fa3ddfab9","freq_resp","img/orange_2bandit_a.png","68","70","test","","","","8","",""
"null","286446","pSARL_v2","pSARL_v2jhv10fb1","64135983899b0b3fa3ddfab9","fixation","img/fixation.png","null","","test","","","","","",""
"382.59999999962747","286833","pSARL_v2","pSARL_v2jhv10fb1","64135983899b0b3fa3ddfab9","freq","img/orange_2bandit_a2.png","68","70","test","0","174","174","8","",""
"null","287268","pSARL_v2","pSARL_v2jhv10fb1","64135983899b0b3fa3ddfab9","freq_resp","img/orange_2bandit_a.png","68","70","test","","","","8","",""
"null","287423","pSARL_v2","pSARL_v2jhv10fb1","64135983899b0b3fa3ddfab9","fixation","img/fixation.png","null","","test","","","","","",""
"382.09999999962747","287808","pSARL_v2","pSARL_v2jhv10fb1","64135983899b0b3fa3ddfab9","freq","img/orange_2bandit_a2.png","68","70","test","0","175","175","8","",""
"null","288236","pSARL_v2","pSARL_v2jhv10fb1","64135983899b0b3fa3ddfab9","freq_resp","img/orange_2bandit_a.png","68","70","test","","","","8","",""
"null","288392","pSARL_v2","pSARL_v2jhv10fb1","64135983899b0b3fa3ddfab9","fixation","img/fixation.png","null","","test","","","","","",""
"484.59999999962747","288881","pSARL_v2","pSARL_v2jhv10fb1","64135983899b0b3fa3ddfab9","freq","img/orange_2bandit_a2.png","68","70","test","0","176","176","8","",""
"null","289213","pSARL_v2","pSARL_v2jhv10fb1","64135983899b0b3fa3ddfab9","freq_resp","img/orange_2bandit_a.png","68","70","test","","","","8","",""
"null","289368","pSARL_v2","pSARL_v2jhv10fb1","64135983899b0b3fa3ddfab9","fixation","img/fixation.png","null","","test","","","","","",""
"437.09999999962747","289808","pSARL_v2","pSARL_v2jhv10fb1","64135983899b0b3fa3ddfab9","freq","img/orange_2bandit_a2.png","68","70","test","0","177","177","8","",""
"null","290184","pSARL_v2","pSARL_v2jhv10fb1","64135983899b0b3fa3ddfab9","freq_resp","img/orange_2bandit_a.png","68","70","test","","","","8","",""
"null","290343","pSARL_v2","pSARL_v2jhv10fb1","64135983899b0b3fa3ddfab9","fixation","img/fixation.png","null","","test","","","","","",""
"430.5","290776","pSARL_v2","pSARL_v2jhv10fb1","64135983899b0b3fa3ddfab9","freq","img/orange_2bandit_a2.png","68","70","test","0","178","178","8","",""
"null","291154","pSARL_v2","pSARL_v2jhv10fb1","64135983899b0b3fa3ddfab9","freq_resp","img/orange_2bandit_a.png","68","70","test","","","","8","",""
"null","291309","pSARL_v2","pSARL_v2jhv10fb1","64135983899b0b3fa3ddfab9","fixation","img/fixation.png","null","","test","","","","","",""
"415.69999999925494","291731","pSARL_v2","pSARL_v2jhv10fb1","64135983899b0b3fa3ddfab9","freq","img/orange_2bandit_a2.png","68","70","test","0","179","179","8","",""
"null","292137","pSARL_v2","pSARL_v2jhv10fb1","64135983899b0b3fa3ddfab9","freq_resp","img/orange_2bandit_a.png","68","70","test","","","","8","",""
"null","292307","pSARL_v2","pSARL_v2jhv10fb1","64135983899b0b3fa3ddfab9","fixation","img/fixation.png","null","","test","","","","","",""
"329.5","292641","pSARL_v2","pSARL_v2jhv10fb1","64135983899b0b3fa3ddfab9","freq","img/orange_2bandit_a2.png","68","70","test","0","180","180","8","",""
"null","293120","pSARL_v2","pSARL_v2jhv10fb1","64135983899b0b3fa3ddfab9","freq_resp","img/orange_2bandit_a.png","68","70","test","","","","8","",""
"null","293276","pSARL_v2","pSARL_v2jhv10fb1","64135983899b0b3fa3ddfab9","fixation","img/fixation.png","null","","test","","","","","",""
"312.90000000037253","293593","pSARL_v2","pSARL_v2jhv10fb1","64135983899b0b3fa3ddfab9","freq","img/orange_2bandit_a2.png","68","70","test","0","181","181","8","",""
"null","294096","pSARL_v2","pSARL_v2jhv10fb1","64135983899b0b3fa3ddfab9","freq_resp","img/orange_2bandit_a.png","68","70","test","","","","8","",""
"null","294254","pSARL_v2","pSARL_v2jhv10fb1","64135983899b0b3fa3ddfab9","fixation","img/fixation.png","null","","test","","","","","",""
"327.5","294585","pSARL_v2","pSARL_v2jhv10fb1","64135983899b0b3fa3ddfab9","freq","img/orange_2bandit_a2.png","68","70","test","0","182","182","8","",""
"null","295070","pSARL_v2","pSARL_v2jhv10fb1","64135983899b0b3fa3ddfab9","freq_resp","img/orange_2bandit_a.png","68","70","test","","","","8","",""
"null","295240","pSARL_v2","pSARL_v2jhv10fb1","64135983899b0b3fa3ddfab9","fixation","img/fixation.png","null","","test","","","","","",""
"717.1999999992549","295960","pSARL_v2","pSARL_v2jhv10fb1","64135983899b0b3fa3ddfab9","reward","img/slot.png","74","","test","","","","","",""
"null","296721","pSARL_v2","pSARL_v2jhv10fb1","64135983899b0b3fa3ddfab9","points","<div class=""verylowPoints""> -4 </div>","null","na","test","","","","8","-4","7"
"347.69999999925494","297072","pSARL_v2","pSARL_v2jhv10fb1","64135983899b0b3fa3ddfab9","freq","img/orange_2bandit_a2.png","68","70","test","0","183","183","9","",""
"null","297544","pSARL_v2","pSARL_v2jhv10fb1","64135983899b0b3fa3ddfab9","freq_resp","img/orange_2bandit_a.png","68","70","test","","","","9","",""
"null","297701","pSARL_v2","pSARL_v2jhv10fb1","64135983899b0b3fa3ddfab9","fixation","img/fixation.png","null","","test","","","","","",""
"183.2999999988824","297889","pSARL_v2","pSARL_v2jhv10fb1","64135983899b0b3fa3ddfab9","freq","img/orange_2bandit_a2.png","68","70","test","0","184","184","9","",""
"null","298520","pSARL_v2","pSARL_v2jhv10fb1","64135983899b0b3fa3ddfab9","freq_resp","img/orange_2bandit_a.png","68","70","test","","","","9","",""
"null","298676","pSARL_v2","pSARL_v2jhv10fb1","64135983899b0b3fa3ddfab9","fixation","img/fixation.png","null","","test","","","","","",""
"208.7999999988824","298889","pSARL_v2","pSARL_v2jhv10fb1","64135983899b0b3fa3ddfab9","freq","img/orange_2bandit_a2.png","68","70","test","0","185","185","9","",""
"null","299492","pSARL_v2","pSARL_v2jhv10fb1","64135983899b0b3fa3ddfab9","freq_resp","img/orange_2bandit_a.png","68","70","test","","","","9","",""
"null","299648","pSARL_v2","pSARL_v2jhv10fb1","64135983899b0b3fa3ddfab9","fixation","img/fixation.png","null","","test","","","","","",""
"397.09999999962747","300049","pSARL_v2","pSARL_v2jhv10fb1","64135983899b0b3fa3ddfab9","freq","img/orange_2bandit_a2.png","68","70","test","0","186","186","9","",""
"null","300458","pSARL_v2","pSARL_v2jhv10fb1","64135983899b0b3fa3ddfab9","freq_resp","img/orange_2bandit_a.png","68","70","test","","","","9","",""
"null","300614","pSARL_v2","pSARL_v2jhv10fb1","64135983899b0b3fa3ddfab9","fixation","img/fixation.png","null","","test","","","","","",""
"359.40000000037253","300977","pSARL_v2","pSARL_v2jhv10fb1","64135983899b0b3fa3ddfab9","freq","img/orange_2bandit_a2.png","68","70","test","0","187","187","9","",""
"null","301423","pSARL_v2","pSARL_v2jhv10fb1","64135983899b0b3fa3ddfab9","freq_resp","img/orange_2bandit_a.png","68","70","test","","","","9","",""
"null","301579","pSARL_v2","pSARL_v2jhv10fb1","64135983899b0b3fa3ddfab9","fixation","img/fixation.png","null","","test","","","","","",""
"554.5999999996275","302137","pSARL_v2","pSARL_v2jhv10fb1","64135983899b0b3fa3ddfab9","infreq","img/green_2bandit_a2.png","70","68","test","0","188","188","9","",""
"null","302403","pSARL_v2","pSARL_v2jhv10fb1","64135983899b0b3fa3ddfab9","infreq_resp","img/green_2bandit_a.png","70","68","test","","","","9","",""
"null","302558","pSARL_v2","pSARL_v2jhv10fb1","64135983899b0b3fa3ddfab9","fixation","img/fixation.png","null","","test","","","","","",""
"543.4000000003725","303105","pSARL_v2","pSARL_v2jhv10fb1","64135983899b0b3fa3ddfab9","freq","img/orange_2bandit_a2.png","68","70","test","0","189","189","9","",""
"null","303365","pSARL_v2","pSARL_v2jhv10fb1","64135983899b0b3fa3ddfab9","freq_resp","img/orange_2bandit_a.png","68","70","test","","","","9","",""
"null","303520","pSARL_v2","pSARL_v2jhv10fb1","64135983899b0b3fa3ddfab9","fixation","img/fixation.png","null","","test","","","","","",""
"573.4000000003725","304097","pSARL_v2","pSARL_v2jhv10fb1","64135983899b0b3fa3ddfab9","freq","img/orange_2bandit_a2.png","68","70","test","0","190","190","9","",""
"null","304335","pSARL_v2","pSARL_v2jhv10fb1","64135983899b0b3fa3ddfab9","freq_resp","img/orange_2bandit_a.png","68","70","test","","","","9","",""
"null","304491","pSARL_v2","pSARL_v2jhv10fb1","64135983899b0b3fa3ddfab9","fixation","img/fixation.png","null","","test","","","","","",""
"514.6999999992549","305010","pSARL_v2","pSARL_v2jhv10fb1","64135983899b0b3fa3ddfab9","freq","img/orange_2bandit_a2.png","68","70","test","0","191","191","9","",""
"null","305301","pSARL_v2","pSARL_v2jhv10fb1","64135983899b0b3fa3ddfab9","freq_resp","img/orange_2bandit_a.png","68","70","test","","","","9","",""
"null","305459","pSARL_v2","pSARL_v2jhv10fb1","64135983899b0b3fa3ddfab9","fixation","img/fixation.png","null","","test","","","","","",""
"428.7000000011176","305895","pSARL_v2","pSARL_v2jhv10fb1","64135983899b0b3fa3ddfab9","freq","img/orange_2bandit_a2.png","68","70","test","0","192","192","9","",""
"null","306274","pSARL_v2","pSARL_v2jhv10fb1","64135983899b0b3fa3ddfab9","freq_resp","img/orange_2bandit_a.png","68","70","test","","","","9","",""
"null","306434","pSARL_v2","pSARL_v2jhv10fb1","64135983899b0b3fa3ddfab9","fixation","img/fixation.png","null","","test","","","","","",""
"412.59999999962747","306855","pSARL_v2","pSARL_v2jhv10fb1","64135983899b0b3fa3ddfab9","freq","img/orange_2bandit_a2.png","68","70","test","0","193","193","9","",""
"null","307253","pSARL_v2","pSARL_v2jhv10fb1","64135983899b0b3fa3ddfab9","freq_resp","img/orange_2bandit_a.png","68","70","test","","","","9","",""
"null","307415","pSARL_v2","pSARL_v2jhv10fb1","64135983899b0b3fa3ddfab9","fixation","img/fixation.png","null","","test","","","","","",""
"351.19999999925494","307772","pSARL_v2","pSARL_v2jhv10fb1","64135983899b0b3fa3ddfab9","freq","img/orange_2bandit_a2.png","68","70","test","0","194","194","9","",""
"null","308230","pSARL_v2","pSARL_v2jhv10fb1","64135983899b0b3fa3ddfab9","freq_resp","img/orange_2bandit_a.png","68","70","test","","","","9","",""
"null","308404","pSARL_v2","pSARL_v2jhv10fb1","64135983899b0b3fa3ddfab9","fixation","img/fixation.png","null","","test","","","","","",""
"345.09999999962747","308754","pSARL_v2","pSARL_v2jhv10fb1","64135983899b0b3fa3ddfab9","freq","img/orange_2bandit_a2.png","68","70","test","0","195","195","9","",""
"null","309225","pSARL_v2","pSARL_v2jhv10fb1","64135983899b0b3fa3ddfab9","freq_resp","img/orange_2bandit_a.png","68","70","test","","","","9","",""
"null","309385","pSARL_v2","pSARL_v2jhv10fb1","64135983899b0b3fa3ddfab9","fixation","img/fixation.png","null","","test","","","","","",""
"324.80000000074506","309717","pSARL_v2","pSARL_v2jhv10fb1","64135983899b0b3fa3ddfab9","freq","img/orange_2bandit_a2.png","68","70","test","0","196","196","9","",""
"null","310205","pSARL_v2","pSARL_v2jhv10fb1","64135983899b0b3fa3ddfab9","freq_resp","img/orange_2bandit_a.png","68","70","test","","","","9","",""
"null","310376","pSARL_v2","pSARL_v2jhv10fb1","64135983899b0b3fa3ddfab9","fixation","img/fixation.png","null","","test","","","","","",""
"319.6000000014901","310702","pSARL_v2","pSARL_v2jhv10fb1","64135983899b0b3fa3ddfab9","freq","img/orange_2bandit_a2.png","68","70","test","0","197","197","9","",""
"null","311195","pSARL_v2","pSARL_v2jhv10fb1","64135983899b0b3fa3ddfab9","freq_resp","img/orange_2bandit_a.png","68","70","test","","","","9","",""
"null","311368","pSARL_v2","pSARL_v2jhv10fb1","64135983899b0b3fa3ddfab9","fixation","img/fixation.png","null","","test","","","","","",""
"343","311721","pSARL_v2","pSARL_v2jhv10fb1","64135983899b0b3fa3ddfab9","freq","img/orange_2bandit_a2.png","68","70","test","0","198","198","9","",""
"null","312186","pSARL_v2","pSARL_v2jhv10fb1","64135983899b0b3fa3ddfab9","freq_resp","img/orange_2bandit_a.png","68","70","test","","","","9","",""
"null","312344","pSARL_v2","pSARL_v2jhv10fb1","64135983899b0b3fa3ddfab9","fixation","img/fixation.png","null","","test","","","","","",""
"455.19999999925494","312805","pSARL_v2","pSARL_v2jhv10fb1","64135983899b0b3fa3ddfab9","infreq","img/green_2bandit_a2.png","70","68","test","0","199","199","9","",""
"null","313166","pSARL_v2","pSARL_v2jhv10fb1","64135983899b0b3fa3ddfab9","infreq_resp","img/green_2bandit_a.png","70","68","test","","","","9","",""
"null","313326","pSARL_v2","pSARL_v2jhv10fb1","64135983899b0b3fa3ddfab9","fixation","img/fixation.png","null","","test","","","","","",""
"360","313691","pSARL_v2","pSARL_v2jhv10fb1","64135983899b0b3fa3ddfab9","freq","img/orange_2bandit_a2.png","68","70","test","0","200","200","9","",""
"null","314144","pSARL_v2","pSARL_v2jhv10fb1","64135983899b0b3fa3ddfab9","freq_resp","img/orange_2bandit_a.png","68","70","test","","","","9","",""
"null","314303","pSARL_v2","pSARL_v2jhv10fb1","64135983899b0b3fa3ddfab9","fixation","img/fixation.png","null","","test","","","","","",""
"391.69999999925494","314704","pSARL_v2","pSARL_v2jhv10fb1","64135983899b0b3fa3ddfab9","freq","img/orange_2bandit_a2.png","68","70","test","0","201","201","9","",""
"null","315122","pSARL_v2","pSARL_v2jhv10fb1","64135983899b0b3fa3ddfab9","freq_resp","img/orange_2bandit_a.png","68","70","test","","","","9","",""
"null","315284","pSARL_v2","pSARL_v2jhv10fb1","64135983899b0b3fa3ddfab9","fixation","img/fixation.png","null","","test","","","","","",""
"442.8999999985099","315734","pSARL_v2","pSARL_v2jhv10fb1","64135983899b0b3fa3ddfab9","freq","img/orange_2bandit_a2.png","68","70","test","0","202","202","9","",""
"null","316103","pSARL_v2","pSARL_v2jhv10fb1","64135983899b0b3fa3ddfab9","freq_resp","img/orange_2bandit_a.png","68","70","test","","","","9","",""
"null","316262","pSARL_v2","pSARL_v2jhv10fb1","64135983899b0b3fa3ddfab9","fixation","img/fixation.png","null","","test","","","","","",""
"607.9000000003725","316875","pSARL_v2","pSARL_v2jhv10fb1","64135983899b0b3fa3ddfab9","reward","img/slot.png","74","","test","","","","","",""
"null","317637","pSARL_v2","pSARL_v2jhv10fb1","64135983899b0b3fa3ddfab9","points","<div class=""verylowPoints""> -3 </div>","null","na","test","","","","9","-3","8"
"601.6999999992549","318243","pSARL_v2","pSARL_v2jhv10fb1","64135983899b0b3fa3ddfab9","freq","img/orange_2bandit_a2.png","68","70","test","0","203","203","10","",""
"null","318447","pSARL_v2","pSARL_v2jhv10fb1","64135983899b0b3fa3ddfab9","freq_resp","img/orange_2bandit_a.png","68","70","test","","","","10","",""
"null","318603","pSARL_v2","pSARL_v2jhv10fb1","64135983899b0b3fa3ddfab9","fixation","img/fixation.png","null","","test","","","","","",""
"562.5999999996275","319170","pSARL_v2","pSARL_v2jhv10fb1","64135983899b0b3fa3ddfab9","freq","img/orange_2bandit_a2.png","68","70","test","0","204","204","10","",""
"null","319417","pSARL_v2","pSARL_v2jhv10fb1","64135983899b0b3fa3ddfab9","freq_resp","img/orange_2bandit_a.png","68","70","test","","","","10","",""
"null","319583","pSARL_v2","pSARL_v2jhv10fb1","64135983899b0b3fa3ddfab9","fixation","img/fixation.png","null","","test","","","","","",""
"607.0999999996275","320195","pSARL_v2","pSARL_v2jhv10fb1","64135983899b0b3fa3ddfab9","freq","img/orange_2bandit_a2.png","68","70","test","0","205","205","10","",""
"null","320406","pSARL_v2","pSARL_v2jhv10fb1","64135983899b0b3fa3ddfab9","freq_resp","img/orange_2bandit_a.png","68","70","test","","","","10","",""
"null","320568","pSARL_v2","pSARL_v2jhv10fb1","64135983899b0b3fa3ddfab9","fixation","img/fixation.png","null","","test","","","","","",""
"669.6999999992549","321242","pSARL_v2","pSARL_v2jhv10fb1","64135983899b0b3fa3ddfab9","infreq","img/green_2bandit_a2.png","70","68","test","0","206","206","10","",""
