"rt","time_elapsed","expId","subject","prolificID","trialType","stimulus","key_press","corrresp","phase","corr","trialNum","attentionRunNum","blockNum","points","rlNum"
"101902","101905","pSARL_v2","pSARL_v2jmahqjwo","5ffe235ea848b74a3b3ccd07","","","","","","","","","","",""
"","104089","pSARL_v2","pSARL_v2jmahqjwo","5ffe235ea848b74a3b3ccd07","fullscreen","","","","","","","","","",""
"146319.40000000037","250412","pSARL_v2","pSARL_v2jmahqjwo","5ffe235ea848b74a3b3ccd07","","","","","","","","","","",""
"710.9000000003725","251128","pSARL_v2","pSARL_v2jmahqjwo","5ffe235ea848b74a3b3ccd07","freqPrac","img/green_2bandit_b2.png","70","70","prac","1","","","","",""
"710.9000000003725","251232","pSARL_v2","pSARL_v2jmahqjwo","5ffe235ea848b74a3b3ccd07","freqPrac_resp","img/green_2bandit_b.png","70","70","prac","","","","","",""
"null","251401","pSARL_v2","pSARL_v2jmahqjwo","5ffe235ea848b74a3b3ccd07","fixation","img/fixation.png","null","","prac","","","","","",""
"576.0999999996275","251981","pSARL_v2","pSARL_v2jmahqjwo","5ffe235ea848b74a3b3ccd07","infreqPrac","img/orange_2bandit_b2.png","68","68","prac","1","","","","",""
"576.0999999996275","252215","pSARL_v2","pSARL_v2jmahqjwo","5ffe235ea848b74a3b3ccd07","infreqPrac_resp","img/orange_2bandit_b.png","68","68","prac","","","","","",""
"null","252384","pSARL_v2","pSARL_v2jmahqjwo","5ffe235ea848b74a3b3ccd07","fixation","img/fixation.png","null","","prac","","","","","",""
"408.5","252796","pSARL_v2","pSARL_v2jmahqjwo","5ffe235ea848b74a3b3ccd07","freqPrac","img/green_2bandit_b2.png","70","70","prac","1","","","","",""
"408.5","253197","pSARL_v2","pSARL_v2jmahqjwo","5ffe235ea848b74a3b3ccd07","freqPrac_resp","img/green_2bandit_b.png","70","70","prac","","","","","",""
"null","253351","pSARL_v2","pSARL_v2jmahqjwo","5ffe235ea848b74a3b3ccd07","fixation","img/fixation.png","null","","prac","","","","","",""
"476.5","253830","pSARL_v2","pSARL_v2jmahqjwo","5ffe235ea848b74a3b3ccd07","infreqPrac","img/orange_2bandit_b2.png","68","68","prac","1","","","","",""
"476.5","254166","pSARL_v2","pSARL_v2jmahqjwo","5ffe235ea848b74a3b3ccd07","infreqPrac_resp","img/orange_2bandit_b.png","68","68","prac","","","","","",""
"null","254334","pSARL_v2","pSARL_v2jmahqjwo","5ffe235ea848b74a3b3ccd07","fixation","img/fixation.png","null","","prac","","","","","",""
"375.09999999962747","254712","pSARL_v2","pSARL_v2jmahqjwo","5ffe235ea848b74a3b3ccd07","infreqPrac","img/orange_2bandit_b2.png","68","68","prac","1","","","","",""
"375.09999999962747","255146","pSARL_v2","pSARL_v2jmahqjwo","5ffe235ea848b74a3b3ccd07","infreqPrac_resp","img/orange_2bandit_b.png","68","68","prac","","","","","",""
"null","255315","pSARL_v2","pSARL_v2jmahqjwo","5ffe235ea848b74a3b3ccd07","fixation","img/fixation.png","null","","prac","","","","","",""
"344.19999999925494","255663","pSARL_v2","pSARL_v2jmahqjwo","5ffe235ea848b74a3b3ccd07","infreqPrac","img/orange_2bandit_b2.png","68","68","prac","1","","","","",""
"344.19999999925494","256126","pSARL_v2","pSARL_v2jmahqjwo","5ffe235ea848b74a3b3ccd07","infreqPrac_resp","img/orange_2bandit_b.png","68","68","prac","","","","","",""
"null","256294","pSARL_v2","pSARL_v2jmahqjwo","5ffe235ea848b74a3b3ccd07","fixation","img/fixation.png","null","","prac","","","","","",""
"377.69999999925494","256675","pSARL_v2","pSARL_v2jmahqjwo","5ffe235ea848b74a3b3ccd07","freqPrac","img/green_2bandit_b2.png","70","70","prac","1","","","","",""
"377.69999999925494","257107","pSARL_v2","pSARL_v2jmahqjwo","5ffe235ea848b74a3b3ccd07","freqPrac_resp","img/green_2bandit_b.png","70","70","prac","","","","","",""
"null","257276","pSARL_v2","pSARL_v2jmahqjwo","5ffe235ea848b74a3b3ccd07","fixation","img/fixation.png","null","","prac","","","","","",""
"467.80000000074506","257751","pSARL_v2","pSARL_v2jmahqjwo","5ffe235ea848b74a3b3ccd07","infreqPrac","img/orange_2bandit_b2.png","68","68","prac","1","","","","",""
"467.80000000074506","258091","pSARL_v2","pSARL_v2jmahqjwo","5ffe235ea848b74a3b3ccd07","infreqPrac_resp","img/orange_2bandit_b.png","68","68","prac","","","","","",""
"null","258259","pSARL_v2","pSARL_v2jmahqjwo","5ffe235ea848b74a3b3ccd07","fixation","img/fixation.png","null","","prac","","","","","",""
"520.1000000014901","258782","pSARL_v2","pSARL_v2jmahqjwo","5ffe235ea848b74a3b3ccd07","freqPrac","img/green_2bandit_b2.png","70","70","prac","1","","","","",""
"520.1000000014901","259072","pSARL_v2","pSARL_v2jmahqjwo","5ffe235ea848b74a3b3ccd07","freqPrac_resp","img/green_2bandit_b.png","70","70","prac","","","","","",""
"null","259241","pSARL_v2","pSARL_v2jmahqjwo","5ffe235ea848b74a3b3ccd07","fixation","img/fixation.png","null","","prac","","","","","",""
"488.8999999985099","259733","pSARL_v2","pSARL_v2jmahqjwo","5ffe235ea848b74a3b3ccd07","freqPrac","img/green_2bandit_b2.png","70","70","prac","1","","","","",""
"488.8999999985099","260053","pSARL_v2","pSARL_v2jmahqjwo","5ffe235ea848b74a3b3ccd07","freqPrac_resp","img/green_2bandit_b.png","70","70","prac","","","","","",""
"null","260221","pSARL_v2","pSARL_v2jmahqjwo","5ffe235ea848b74a3b3ccd07","fixation","img/fixation.png","null","","prac","","","","","",""
"44175.20000000112","304400","pSARL_v2","pSARL_v2jmahqjwo","5ffe235ea848b74a3b3ccd07","","","","","prac","","","","","",""
"531.5","304934","pSARL_v2","pSARL_v2jmahqjwo","5ffe235ea848b74a3b3ccd07","rewardPractice","img/slot.png","74","","prac","","","","","",""
"null","305700","pSARL_v2","pSARL_v2jmahqjwo","5ffe235ea848b74a3b3ccd07","feedback","<div class=""veryhighPoints""> +15 </div>","null","na","prac","","","","","",""
"null","305867","pSARL_v2","pSARL_v2jmahqjwo","5ffe235ea848b74a3b3ccd07","fixation","img/fixation.png","null","","prac","","","","","",""
"22477.400000000373","328347","pSARL_v2","pSARL_v2jmahqjwo","5ffe235ea848b74a3b3ccd07","","","","","prac","","","","","",""
"609.5999999996275","328960","pSARL_v2","pSARL_v2jmahqjwo","5ffe235ea848b74a3b3ccd07","freq","img/green_2bandit_b2.png","70","70","test","1","1","1","1","",""
"null","329162","pSARL_v2","pSARL_v2jmahqjwo","5ffe235ea848b74a3b3ccd07","freq_resp","img/green_2bandit_b.png","70","70","test","","","","1","",""
"null","329329","pSARL_v2","pSARL_v2jmahqjwo","5ffe235ea848b74a3b3ccd07","fixation","img/fixation.png","null","","test","","","","","",""
"385.40000000037253","329718","pSARL_v2","pSARL_v2jmahqjwo","5ffe235ea848b74a3b3ccd07","freq","img/green_2bandit_b2.png","70","70","test","1","2","2","1","",""
"null","330143","pSARL_v2","pSARL_v2jmahqjwo","5ffe235ea848b74a3b3ccd07","freq_resp","img/green_2bandit_b.png","70","70","test","","","","1","",""
"null","330312","pSARL_v2","pSARL_v2jmahqjwo","5ffe235ea848b74a3b3ccd07","fixation","img/fixation.png","null","","test","","","","","",""
"534.6999999992549","330850","pSARL_v2","pSARL_v2jmahqjwo","5ffe235ea848b74a3b3ccd07","infreq","img/orange_2bandit_b2.png","68","68","test","1","3","3","1","",""
"null","331125","pSARL_v2","pSARL_v2jmahqjwo","5ffe235ea848b74a3b3ccd07","infreq_resp","img/orange_2bandit_b.png","68","68","test","","","","1","",""
"null","331294","pSARL_v2","pSARL_v2jmahqjwo","5ffe235ea848b74a3b3ccd07","fixation","img/fixation.png","null","","test","","","","","",""
"629.2000000011176","331926","pSARL_v2","pSARL_v2jmahqjwo","5ffe235ea848b74a3b3ccd07","freq","img/green_2bandit_b2.png","70","70","test","1","4","4","1","",""
"null","332108","pSARL_v2","pSARL_v2jmahqjwo","5ffe235ea848b74a3b3ccd07","freq_resp","img/green_2bandit_b.png","70","70","test","","","","1","",""
"null","332277","pSARL_v2","pSARL_v2jmahqjwo","5ffe235ea848b74a3b3ccd07","fixation","img/fixation.png","null","","test","","","","","",""
"416.90000000037253","332697","pSARL_v2","pSARL_v2jmahqjwo","5ffe235ea848b74a3b3ccd07","freq","img/green_2bandit_b2.png","70","70","test","1","5","5","1","",""
"null","333093","pSARL_v2","pSARL_v2jmahqjwo","5ffe235ea848b74a3b3ccd07","freq_resp","img/green_2bandit_b.png","70","70","test","","","","1","",""
"null","333261","pSARL_v2","pSARL_v2jmahqjwo","5ffe235ea848b74a3b3ccd07","fixation","img/fixation.png","null","","test","","","","","",""
"403.90000000037253","333668","pSARL_v2","pSARL_v2jmahqjwo","5ffe235ea848b74a3b3ccd07","freq","img/green_2bandit_b2.png","70","70","test","1","6","6","1","",""
"null","334075","pSARL_v2","pSARL_v2jmahqjwo","5ffe235ea848b74a3b3ccd07","freq_resp","img/green_2bandit_b.png","70","70","test","","","","1","",""
"null","334243","pSARL_v2","pSARL_v2jmahqjwo","5ffe235ea848b74a3b3ccd07","fixation","img/fixation.png","null","","test","","","","","",""
"446.69999999925494","334693","pSARL_v2","pSARL_v2jmahqjwo","5ffe235ea848b74a3b3ccd07","infreq","img/orange_2bandit_b2.png","68","68","test","1","7","7","1","",""
"null","335058","pSARL_v2","pSARL_v2jmahqjwo","5ffe235ea848b74a3b3ccd07","infreq_resp","img/orange_2bandit_b.png","68","68","test","","","","1","",""
"null","335229","pSARL_v2","pSARL_v2jmahqjwo","5ffe235ea848b74a3b3ccd07","fixation","img/fixation.png","null","","test","","","","","",""
"444.5","335677","pSARL_v2","pSARL_v2jmahqjwo","5ffe235ea848b74a3b3ccd07","freq","img/green_2bandit_b2.png","70","70","test","1","8","8","1","",""
"null","336043","pSARL_v2","pSARL_v2jmahqjwo","5ffe235ea848b74a3b3ccd07","freq_resp","img/green_2bandit_b.png","70","70","test","","","","1","",""
"null","336196","pSARL_v2","pSARL_v2jmahqjwo","5ffe235ea848b74a3b3ccd07","fixation","img/fixation.png","null","","test","","","","","",""
"396.40000000037253","336597","pSARL_v2","pSARL_v2jmahqjwo","5ffe235ea848b74a3b3ccd07","freq","img/green_2bandit_b2.png","70","70","test","1","9","9","1","",""
"null","337011","pSARL_v2","pSARL_v2jmahqjwo","5ffe235ea848b74a3b3ccd07","freq_resp","img/green_2bandit_b.png","70","70","test","","","","1","",""
"null","337180","pSARL_v2","pSARL_v2jmahqjwo","5ffe235ea848b74a3b3ccd07","fixation","img/fixation.png","null","","test","","","","","",""
"388.59999999962747","337572","pSARL_v2","pSARL_v2jmahqjwo","5ffe235ea848b74a3b3ccd07","freq","img/green_2bandit_b2.png","70","70","test","1","10","10","1","",""
"null","337995","pSARL_v2","pSARL_v2jmahqjwo","5ffe235ea848b74a3b3ccd07","freq_resp","img/green_2bandit_b.png","70","70","test","","","","1","",""
"null","338165","pSARL_v2","pSARL_v2jmahqjwo","5ffe235ea848b74a3b3ccd07","fixation","img/fixation.png","null","","test","","","","","",""
"373.80000000074506","338542","pSARL_v2","pSARL_v2jmahqjwo","5ffe235ea848b74a3b3ccd07","freq","img/green_2bandit_b2.png","70","70","test","1","11","11","1","",""
"null","338979","pSARL_v2","pSARL_v2jmahqjwo","5ffe235ea848b74a3b3ccd07","freq_resp","img/green_2bandit_b.png","70","70","test","","","","1","",""
"null","339150","pSARL_v2","pSARL_v2jmahqjwo","5ffe235ea848b74a3b3ccd07","fixation","img/fixation.png","null","","test","","","","","",""
"365.69999999925494","339519","pSARL_v2","pSARL_v2jmahqjwo","5ffe235ea848b74a3b3ccd07","freq","img/green_2bandit_b2.png","70","70","test","1","12","12","1","",""
"null","339961","pSARL_v2","pSARL_v2jmahqjwo","5ffe235ea848b74a3b3ccd07","freq_resp","img/green_2bandit_b.png","70","70","test","","","","1","",""
"null","340116","pSARL_v2","pSARL_v2jmahqjwo","5ffe235ea848b74a3b3ccd07","fixation","img/fixation.png","null","","test","","","","","",""
"394.40000000037253","340515","pSARL_v2","pSARL_v2jmahqjwo","5ffe235ea848b74a3b3ccd07","freq","img/green_2bandit_b2.png","70","70","test","1","13","13","1","",""
"null","340928","pSARL_v2","pSARL_v2jmahqjwo","5ffe235ea848b74a3b3ccd07","freq_resp","img/green_2bandit_b.png","70","70","test","","","","1","",""
"null","341100","pSARL_v2","pSARL_v2jmahqjwo","5ffe235ea848b74a3b3ccd07","fixation","img/fixation.png","null","","test","","","","","",""
"366.7000000011176","341470","pSARL_v2","pSARL_v2jmahqjwo","5ffe235ea848b74a3b3ccd07","freq","img/green_2bandit_b2.png","70","70","test","1","14","14","1","",""
"null","341914","pSARL_v2","pSARL_v2jmahqjwo","5ffe235ea848b74a3b3ccd07","freq_resp","img/green_2bandit_b.png","70","70","test","","","","1","",""
"null","342082","pSARL_v2","pSARL_v2jmahqjwo","5ffe235ea848b74a3b3ccd07","fixation","img/fixation.png","null","","test","","","","","",""
"386.59999999962747","342472","pSARL_v2","pSARL_v2jmahqjwo","5ffe235ea848b74a3b3ccd07","freq","img/green_2bandit_b2.png","70","70","test","1","15","15","1","",""
"null","342896","pSARL_v2","pSARL_v2jmahqjwo","5ffe235ea848b74a3b3ccd07","freq_resp","img/green_2bandit_b.png","70","70","test","","","","1","",""
"null","343051","pSARL_v2","pSARL_v2jmahqjwo","5ffe235ea848b74a3b3ccd07","fixation","img/fixation.png","null","","test","","","","","",""
"409.90000000037253","343465","pSARL_v2","pSARL_v2jmahqjwo","5ffe235ea848b74a3b3ccd07","freq","img/green_2bandit_b2.png","70","70","test","1","16","16","1","",""
"null","343863","pSARL_v2","pSARL_v2jmahqjwo","5ffe235ea848b74a3b3ccd07","freq_resp","img/green_2bandit_b.png","70","70","test","","","","1","",""
"null","344017","pSARL_v2","pSARL_v2jmahqjwo","5ffe235ea848b74a3b3ccd07","fixation","img/fixation.png","null","","test","","","","","",""
"417.80000000074506","344438","pSARL_v2","pSARL_v2jmahqjwo","5ffe235ea848b74a3b3ccd07","infreq","img/orange_2bandit_b2.png","68","68","test","1","17","17","1","",""
"null","344829","pSARL_v2","pSARL_v2jmahqjwo","5ffe235ea848b74a3b3ccd07","infreq_resp","img/orange_2bandit_b.png","68","68","test","","","","1","",""
"null","344998","pSARL_v2","pSARL_v2jmahqjwo","5ffe235ea848b74a3b3ccd07","fixation","img/fixation.png","null","","test","","","","","",""
"472.09999999962747","345473","pSARL_v2","pSARL_v2jmahqjwo","5ffe235ea848b74a3b3ccd07","freq","img/green_2bandit_b2.png","70","70","test","1","18","18","1","",""
"null","345814","pSARL_v2","pSARL_v2jmahqjwo","5ffe235ea848b74a3b3ccd07","freq_resp","img/green_2bandit_b.png","70","70","test","","","","1","",""
"null","345982","pSARL_v2","pSARL_v2jmahqjwo","5ffe235ea848b74a3b3ccd07","fixation","img/fixation.png","null","","test","","","","","",""
"408.59999999962747","346394","pSARL_v2","pSARL_v2jmahqjwo","5ffe235ea848b74a3b3ccd07","freq","img/green_2bandit_b2.png","70","70","test","1","19","19","1","",""
"null","346795","pSARL_v2","pSARL_v2jmahqjwo","5ffe235ea848b74a3b3ccd07","freq_resp","img/green_2bandit_b.png","70","70","test","","","","1","",""
"null","346949","pSARL_v2","pSARL_v2jmahqjwo","5ffe235ea848b74a3b3ccd07","fixation","img/fixation.png","null","","test","","","","","",""
"395.5","347348","pSARL_v2","pSARL_v2jmahqjwo","5ffe235ea848b74a3b3ccd07","freq","img/green_2bandit_b2.png","70","70","test","1","20","20","1","",""
"null","347763","pSARL_v2","pSARL_v2jmahqjwo","5ffe235ea848b74a3b3ccd07","freq_resp","img/green_2bandit_b.png","70","70","test","","","","1","",""
"null","347917","pSARL_v2","pSARL_v2jmahqjwo","5ffe235ea848b74a3b3ccd07","fixation","img/fixation.png","null","","test","","","","","",""
"701.4000000003725","348623","pSARL_v2","pSARL_v2jmahqjwo","5ffe235ea848b74a3b3ccd07","reward","img/slot.png","74","","test","","","","","",""
"null","349388","pSARL_v2","pSARL_v2jmahqjwo","5ffe235ea848b74a3b3ccd07","points","<div class=""verylowPoints""> -6 </div>","null","na","test","","","","1","-6","0"
"563.7000000011176","349955","pSARL_v2","pSARL_v2jmahqjwo","5ffe235ea848b74a3b3ccd07","freq","img/green_2bandit_b2.png","70","70","test","1","21","21","2","",""
"null","350202","pSARL_v2","pSARL_v2jmahqjwo","5ffe235ea848b74a3b3ccd07","freq_resp","img/green_2bandit_b.png","70","70","test","","","","2","",""
"null","350370","pSARL_v2","pSARL_v2jmahqjwo","5ffe235ea848b74a3b3ccd07","fixation","img/fixation.png","null","","test","","","","","",""
"397.1000000014901","350770","pSARL_v2","pSARL_v2jmahqjwo","5ffe235ea848b74a3b3ccd07","freq","img/green_2bandit_b2.png","70","70","test","1","22","22","2","",""
"null","351188","pSARL_v2","pSARL_v2jmahqjwo","5ffe235ea848b74a3b3ccd07","freq_resp","img/green_2bandit_b.png","70","70","test","","","","2","",""
"null","351354","pSARL_v2","pSARL_v2jmahqjwo","5ffe235ea848b74a3b3ccd07","fixation","img/fixation.png","null","","test","","","","","",""
"392.90000000037253","351750","pSARL_v2","pSARL_v2jmahqjwo","5ffe235ea848b74a3b3ccd07","freq","img/green_2bandit_b2.png","70","70","test","1","23","23","2","",""
"null","352168","pSARL_v2","pSARL_v2jmahqjwo","5ffe235ea848b74a3b3ccd07","freq_resp","img/green_2bandit_b.png","70","70","test","","","","2","",""
"null","352336","pSARL_v2","pSARL_v2jmahqjwo","5ffe235ea848b74a3b3ccd07","fixation","img/fixation.png","null","","test","","","","","",""
"384.09999999962747","352723","pSARL_v2","pSARL_v2jmahqjwo","5ffe235ea848b74a3b3ccd07","freq","img/green_2bandit_b2.png","70","70","test","1","24","24","2","",""
"null","353151","pSARL_v2","pSARL_v2jmahqjwo","5ffe235ea848b74a3b3ccd07","freq_resp","img/green_2bandit_b.png","70","70","test","","","","2","",""
"null","353320","pSARL_v2","pSARL_v2jmahqjwo","5ffe235ea848b74a3b3ccd07","fixation","img/fixation.png","null","","test","","","","","",""
"416.40000000037253","353739","pSARL_v2","pSARL_v2jmahqjwo","5ffe235ea848b74a3b3ccd07","freq","img/green_2bandit_b2.png","70","70","test","1","25","25","2","",""
"null","354132","pSARL_v2","pSARL_v2jmahqjwo","5ffe235ea848b74a3b3ccd07","freq_resp","img/green_2bandit_b.png","70","70","test","","","","2","",""
"null","354286","pSARL_v2","pSARL_v2jmahqjwo","5ffe235ea848b74a3b3ccd07","fixation","img/fixation.png","null","","test","","","","","",""
"401.40000000037253","354691","pSARL_v2","pSARL_v2jmahqjwo","5ffe235ea848b74a3b3ccd07","freq","img/green_2bandit_b2.png","70","70","test","1","26","26","2","",""
"null","355101","pSARL_v2","pSARL_v2jmahqjwo","5ffe235ea848b74a3b3ccd07","freq_resp","img/green_2bandit_b.png","70","70","test","","","","2","",""
"null","355254","pSARL_v2","pSARL_v2jmahqjwo","5ffe235ea848b74a3b3ccd07","fixation","img/fixation.png","null","","test","","","","","",""
"389.69999999925494","355647","pSARL_v2","pSARL_v2jmahqjwo","5ffe235ea848b74a3b3ccd07","freq","img/green_2bandit_b2.png","70","70","test","1","27","27","2","",""
"null","356069","pSARL_v2","pSARL_v2jmahqjwo","5ffe235ea848b74a3b3ccd07","freq_resp","img/green_2bandit_b.png","70","70","test","","","","2","",""
"null","356223","pSARL_v2","pSARL_v2jmahqjwo","5ffe235ea848b74a3b3ccd07","fixation","img/fixation.png","null","","test","","","","","",""
"459","356685","pSARL_v2","pSARL_v2jmahqjwo","5ffe235ea848b74a3b3ccd07","infreq","img/orange_2bandit_b2.png","68","68","test","1","28","28","2","",""
"null","357036","pSARL_v2","pSARL_v2jmahqjwo","5ffe235ea848b74a3b3ccd07","infreq_resp","img/orange_2bandit_b.png","68","68","test","","","","2","",""
"null","357192","pSARL_v2","pSARL_v2jmahqjwo","5ffe235ea848b74a3b3ccd07","fixation","img/fixation.png","null","","test","","","","","",""
"407.59999999962747","357604","pSARL_v2","pSARL_v2jmahqjwo","5ffe235ea848b74a3b3ccd07","infreq","img/orange_2bandit_b2.png","68","68","test","1","29","29","2","",""
"null","358006","pSARL_v2","pSARL_v2jmahqjwo","5ffe235ea848b74a3b3ccd07","infreq_resp","img/orange_2bandit_b.png","68","68","test","","","","2","",""
"null","358175","pSARL_v2","pSARL_v2jmahqjwo","5ffe235ea848b74a3b3ccd07","fixation","img/fixation.png","null","","test","","","","","",""
"415.2999999988824","358593","pSARL_v2","pSARL_v2jmahqjwo","5ffe235ea848b74a3b3ccd07","freq","img/green_2bandit_b2.png","70","70","test","1","30","30","2","",""
"null","358988","pSARL_v2","pSARL_v2jmahqjwo","5ffe235ea848b74a3b3ccd07","freq_resp","img/green_2bandit_b.png","70","70","test","","","","2","",""
"null","359142","pSARL_v2","pSARL_v2jmahqjwo","5ffe235ea848b74a3b3ccd07","fixation","img/fixation.png","null","","test","","","","","",""
"462.59999999962747","359609","pSARL_v2","pSARL_v2jmahqjwo","5ffe235ea848b74a3b3ccd07","infreq","img/orange_2bandit_b2.png","68","68","test","1","31","31","2","",""
"null","359959","pSARL_v2","pSARL_v2jmahqjwo","5ffe235ea848b74a3b3ccd07","infreq_resp","img/orange_2bandit_b.png","68","68","test","","","","2","",""
"null","360112","pSARL_v2","pSARL_v2jmahqjwo","5ffe235ea848b74a3b3ccd07","fixation","img/fixation.png","null","","test","","","","","",""
"481.80000000074506","360597","pSARL_v2","pSARL_v2jmahqjwo","5ffe235ea848b74a3b3ccd07","freq","img/green_2bandit_b2.png","70","70","test","1","32","32","2","",""
"null","360926","pSARL_v2","pSARL_v2jmahqjwo","5ffe235ea848b74a3b3ccd07","freq_resp","img/green_2bandit_b.png","70","70","test","","","","2","",""
"null","361094","pSARL_v2","pSARL_v2jmahqjwo","5ffe235ea848b74a3b3ccd07","fixation","img/fixation.png","null","","test","","","","","",""
"346.40000000037253","361443","pSARL_v2","pSARL_v2jmahqjwo","5ffe235ea848b74a3b3ccd07","freq","img/green_2bandit_b2.png","70","70","test","1","33","33","2","",""
"null","361909","pSARL_v2","pSARL_v2jmahqjwo","5ffe235ea848b74a3b3ccd07","freq_resp","img/green_2bandit_b.png","70","70","test","","","","2","",""
"null","362077","pSARL_v2","pSARL_v2jmahqjwo","5ffe235ea848b74a3b3ccd07","fixation","img/fixation.png","null","","test","","","","","",""
"367.59999999962747","362448","pSARL_v2","pSARL_v2jmahqjwo","5ffe235ea848b74a3b3ccd07","freq","img/green_2bandit_b2.png","70","70","test","1","34","34","2","",""
"null","362890","pSARL_v2","pSARL_v2jmahqjwo","5ffe235ea848b74a3b3ccd07","freq_resp","img/green_2bandit_b.png","70","70","test","","","","2","",""
"null","363048","pSARL_v2","pSARL_v2jmahqjwo","5ffe235ea848b74a3b3ccd07","fixation","img/fixation.png","null","","test","","","","","",""
"371.09999999962747","363422","pSARL_v2","pSARL_v2jmahqjwo","5ffe235ea848b74a3b3ccd07","freq","img/green_2bandit_b2.png","70","70","test","1","35","35","2","",""
"null","363859","pSARL_v2","pSARL_v2jmahqjwo","5ffe235ea848b74a3b3ccd07","freq_resp","img/green_2bandit_b.png","70","70","test","","","","2","",""
"null","364029","pSARL_v2","pSARL_v2jmahqjwo","5ffe235ea848b74a3b3ccd07","fixation","img/fixation.png","null","","test","","","","","",""
"380","364412","pSARL_v2","pSARL_v2jmahqjwo","5ffe235ea848b74a3b3ccd07","freq","img/green_2bandit_b2.png","70","70","test","1","36","36","2","",""
"null","364843","pSARL_v2","pSARL_v2jmahqjwo","5ffe235ea848b74a3b3ccd07","freq_resp","img/green_2bandit_b.png","70","70","test","","","","2","",""
"null","365010","pSARL_v2","pSARL_v2jmahqjwo","5ffe235ea848b74a3b3ccd07","fixation","img/fixation.png","null","","test","","","","","",""
"376.2999999988824","365390","pSARL_v2","pSARL_v2jmahqjwo","5ffe235ea848b74a3b3ccd07","freq","img/green_2bandit_b2.png","70","70","test","1","37","37","2","",""
"null","365826","pSARL_v2","pSARL_v2jmahqjwo","5ffe235ea848b74a3b3ccd07","freq_resp","img/green_2bandit_b.png","70","70","test","","","","2","",""
"null","365994","pSARL_v2","pSARL_v2jmahqjwo","5ffe235ea848b74a3b3ccd07","fixation","img/fixation.png","null","","test","","","","","",""
"417.7000000011176","366415","pSARL_v2","pSARL_v2jmahqjwo","5ffe235ea848b74a3b3ccd07","freq","img/green_2bandit_b2.png","70","70","test","1","38","38","2","",""
"null","366807","pSARL_v2","pSARL_v2jmahqjwo","5ffe235ea848b74a3b3ccd07","freq_resp","img/green_2bandit_b.png","70","70","test","","","","2","",""
"null","366975","pSARL_v2","pSARL_v2jmahqjwo","5ffe235ea848b74a3b3ccd07","fixation","img/fixation.png","null","","test","","","","","",""
"393.5","367373","pSARL_v2","pSARL_v2jmahqjwo","5ffe235ea848b74a3b3ccd07","freq","img/green_2bandit_b2.png","70","70","test","1","39","39","2","",""
"null","367788","pSARL_v2","pSARL_v2jmahqjwo","5ffe235ea848b74a3b3ccd07","freq_resp","img/green_2bandit_b.png","70","70","test","","","","2","",""
"null","367947","pSARL_v2","pSARL_v2jmahqjwo","5ffe235ea848b74a3b3ccd07","fixation","img/fixation.png","null","","test","","","","","",""
"359","368309","pSARL_v2","pSARL_v2jmahqjwo","5ffe235ea848b74a3b3ccd07","freq","img/green_2bandit_b2.png","70","70","test","1","40","40","2","",""
"null","368754","pSARL_v2","pSARL_v2jmahqjwo","5ffe235ea848b74a3b3ccd07","freq_resp","img/green_2bandit_b.png","70","70","test","","","","2","",""
"null","368909","pSARL_v2","pSARL_v2jmahqjwo","5ffe235ea848b74a3b3ccd07","fixation","img/fixation.png","null","","test","","","","","",""
"380.2999999988824","369292","pSARL_v2","pSARL_v2jmahqjwo","5ffe235ea848b74a3b3ccd07","freq","img/green_2bandit_b2.png","70","70","test","1","41","41","2","",""
"null","369722","pSARL_v2","pSARL_v2jmahqjwo","5ffe235ea848b74a3b3ccd07","freq_resp","img/green_2bandit_b.png","70","70","test","","","","2","",""
"null","369877","pSARL_v2","pSARL_v2jmahqjwo","5ffe235ea848b74a3b3ccd07","fixation","img/fixation.png","null","","test","","","","","",""
"344.2000000011176","370225","pSARL_v2","pSARL_v2jmahqjwo","5ffe235ea848b74a3b3ccd07","freq","img/green_2bandit_b2.png","70","70","test","1","42","42","2","",""
"null","370691","pSARL_v2","pSARL_v2jmahqjwo","5ffe235ea848b74a3b3ccd07","freq_resp","img/green_2bandit_b.png","70","70","test","","","","2","",""
"null","370860","pSARL_v2","pSARL_v2jmahqjwo","5ffe235ea848b74a3b3ccd07","fixation","img/fixation.png","null","","test","","","","","",""
"722.1000000014901","371586","pSARL_v2","pSARL_v2jmahqjwo","5ffe235ea848b74a3b3ccd07","reward","img/slot.png","74","","test","","","","","",""
"null","372348","pSARL_v2","pSARL_v2jmahqjwo","5ffe235ea848b74a3b3ccd07","points","<div class=""verylowPoints""> -11 </div>","null","na","test","","","","2","-11","1"
"389.90000000037253","372742","pSARL_v2","pSARL_v2jmahqjwo","5ffe235ea848b74a3b3ccd07","freq","img/green_2bandit_b2.png","70","70","test","1","43","43","3","",""
"null","373162","pSARL_v2","pSARL_v2jmahqjwo","5ffe235ea848b74a3b3ccd07","freq_resp","img/green_2bandit_b.png","70","70","test","","","","3","",""
"null","373317","pSARL_v2","pSARL_v2jmahqjwo","5ffe235ea848b74a3b3ccd07","fixation","img/fixation.png","null","","test","","","","","",""
"389.80000000074506","373710","pSARL_v2","pSARL_v2jmahqjwo","5ffe235ea848b74a3b3ccd07","freq","img/green_2bandit_b2.png","70","70","test","1","44","44","3","",""
"null","374129","pSARL_v2","pSARL_v2jmahqjwo","5ffe235ea848b74a3b3ccd07","freq_resp","img/green_2bandit_b.png","70","70","test","","","","3","",""
"null","374298","pSARL_v2","pSARL_v2jmahqjwo","5ffe235ea848b74a3b3ccd07","fixation","img/fixation.png","null","","test","","","","","",""
"299","374600","pSARL_v2","pSARL_v2jmahqjwo","5ffe235ea848b74a3b3ccd07","freq","img/green_2bandit_b2.png","70","70","test","1","45","45","3","",""
"null","375111","pSARL_v2","pSARL_v2jmahqjwo","5ffe235ea848b74a3b3ccd07","freq_resp","img/green_2bandit_b.png","70","70","test","","","","3","",""
"null","375265","pSARL_v2","pSARL_v2jmahqjwo","5ffe235ea848b74a3b3ccd07","fixation","img/fixation.png","null","","test","","","","","",""
"318.2000000011176","375586","pSARL_v2","pSARL_v2jmahqjwo","5ffe235ea848b74a3b3ccd07","freq","img/green_2bandit_b2.png","70","70","test","1","46","46","3","",""
"null","376079","pSARL_v2","pSARL_v2jmahqjwo","5ffe235ea848b74a3b3ccd07","freq_resp","img/green_2bandit_b.png","70","70","test","","","","3","",""
"null","376248","pSARL_v2","pSARL_v2jmahqjwo","5ffe235ea848b74a3b3ccd07","fixation","img/fixation.png","null","","test","","","","","",""
"381.2000000011176","376633","pSARL_v2","pSARL_v2jmahqjwo","5ffe235ea848b74a3b3ccd07","freq","img/green_2bandit_b2.png","70","70","test","1","47","47","3","",""
"null","377060","pSARL_v2","pSARL_v2jmahqjwo","5ffe235ea848b74a3b3ccd07","freq_resp","img/green_2bandit_b.png","70","70","test","","","","3","",""
"null","377216","pSARL_v2","pSARL_v2jmahqjwo","5ffe235ea848b74a3b3ccd07","fixation","img/fixation.png","null","","test","","","","","",""
"504.30000000074506","377725","pSARL_v2","pSARL_v2jmahqjwo","5ffe235ea848b74a3b3ccd07","infreq","img/orange_2bandit_b2.png","68","68","test","1","48","48","3","",""
"null","378030","pSARL_v2","pSARL_v2jmahqjwo","5ffe235ea848b74a3b3ccd07","infreq_resp","img/orange_2bandit_b.png","68","68","test","","","","3","",""
"null","378184","pSARL_v2","pSARL_v2jmahqjwo","5ffe235ea848b74a3b3ccd07","fixation","img/fixation.png","null","","test","","","","","",""
"449","378636","pSARL_v2","pSARL_v2jmahqjwo","5ffe235ea848b74a3b3ccd07","freq","img/green_2bandit_b2.png","70","70","test","1","49","49","3","",""
"null","378997","pSARL_v2","pSARL_v2jmahqjwo","5ffe235ea848b74a3b3ccd07","freq_resp","img/green_2bandit_b.png","70","70","test","","","","3","",""
"null","379152","pSARL_v2","pSARL_v2jmahqjwo","5ffe235ea848b74a3b3ccd07","fixation","img/fixation.png","null","","test","","","","","",""
"457.2999999988824","379613","pSARL_v2","pSARL_v2jmahqjwo","5ffe235ea848b74a3b3ccd07","infreq","img/orange_2bandit_b2.png","68","68","test","1","50","50","3","",""
"null","379962","pSARL_v2","pSARL_v2jmahqjwo","5ffe235ea848b74a3b3ccd07","infreq_resp","img/orange_2bandit_b.png","68","68","test","","","","3","",""
"null","380115","pSARL_v2","pSARL_v2jmahqjwo","5ffe235ea848b74a3b3ccd07","fixation","img/fixation.png","null","","test","","","","","",""
"426.59999999962747","380544","pSARL_v2","pSARL_v2jmahqjwo","5ffe235ea848b74a3b3ccd07","freq","img/green_2bandit_b2.png","70","70","test","1","51","51","3","",""
"null","380928","pSARL_v2","pSARL_v2jmahqjwo","5ffe235ea848b74a3b3ccd07","freq_resp","img/green_2bandit_b.png","70","70","test","","","","3","",""
"null","381081","pSARL_v2","pSARL_v2jmahqjwo","5ffe235ea848b74a3b3ccd07","fixation","img/fixation.png","null","","test","","","","","",""
"631.6000000014901","381716","pSARL_v2","pSARL_v2jmahqjwo","5ffe235ea848b74a3b3ccd07","freq","img/green_2bandit_b2.png","70","70","test","1","52","52","3","",""
"null","381897","pSARL_v2","pSARL_v2jmahqjwo","5ffe235ea848b74a3b3ccd07","freq_resp","img/green_2bandit_b.png","70","70","test","","","","3","",""
"null","382066","pSARL_v2","pSARL_v2jmahqjwo","5ffe235ea848b74a3b3ccd07","fixation","img/fixation.png","null","","test","","","","","",""
"364.5","382434","pSARL_v2","pSARL_v2jmahqjwo","5ffe235ea848b74a3b3ccd07","freq","img/green_2bandit_b2.png","70","70","test","1","53","53","3","",""
"null","382883","pSARL_v2","pSARL_v2jmahqjwo","5ffe235ea848b74a3b3ccd07","freq_resp","img/green_2bandit_b.png","70","70","test","","","","3","",""
"null","383038","pSARL_v2","pSARL_v2jmahqjwo","5ffe235ea848b74a3b3ccd07","fixation","img/fixation.png","null","","test","","","","","",""
"431.19999999925494","383472","pSARL_v2","pSARL_v2jmahqjwo","5ffe235ea848b74a3b3ccd07","freq","img/green_2bandit_b2.png","70","70","test","1","54","54","3","",""
"null","383857","pSARL_v2","pSARL_v2jmahqjwo","5ffe235ea848b74a3b3ccd07","freq_resp","img/green_2bandit_b.png","70","70","test","","","","3","",""
"null","384011","pSARL_v2","pSARL_v2jmahqjwo","5ffe235ea848b74a3b3ccd07","fixation","img/fixation.png","null","","test","","","","","",""
"373.80000000074506","384388","pSARL_v2","pSARL_v2jmahqjwo","5ffe235ea848b74a3b3ccd07","freq","img/green_2bandit_b2.png","70","70","test","1","55","55","3","",""
"null","384826","pSARL_v2","pSARL_v2jmahqjwo","5ffe235ea848b74a3b3ccd07","freq_resp","img/green_2bandit_b.png","70","70","test","","","","3","",""
"null","384993","pSARL_v2","pSARL_v2jmahqjwo","5ffe235ea848b74a3b3ccd07","fixation","img/fixation.png","null","","test","","","","","",""
"407.6000000014901","385404","pSARL_v2","pSARL_v2jmahqjwo","5ffe235ea848b74a3b3ccd07","freq","img/green_2bandit_b2.png","70","70","test","1","56","56","3","",""
"null","385808","pSARL_v2","pSARL_v2jmahqjwo","5ffe235ea848b74a3b3ccd07","freq_resp","img/green_2bandit_b.png","70","70","test","","","","3","",""
"null","385977","pSARL_v2","pSARL_v2jmahqjwo","5ffe235ea848b74a3b3ccd07","fixation","img/fixation.png","null","","test","","","","","",""
"340","386321","pSARL_v2","pSARL_v2jmahqjwo","5ffe235ea848b74a3b3ccd07","freq","img/green_2bandit_b2.png","70","70","test","1","57","57","3","",""
"null","386789","pSARL_v2","pSARL_v2jmahqjwo","5ffe235ea848b74a3b3ccd07","freq_resp","img/green_2bandit_b.png","70","70","test","","","","3","",""
"null","386957","pSARL_v2","pSARL_v2jmahqjwo","5ffe235ea848b74a3b3ccd07","fixation","img/fixation.png","null","","test","","","","","",""
"387.3999999985099","387348","pSARL_v2","pSARL_v2jmahqjwo","5ffe235ea848b74a3b3ccd07","freq","img/green_2bandit_b2.png","70","70","test","1","58","58","3","",""
"null","387773","pSARL_v2","pSARL_v2jmahqjwo","5ffe235ea848b74a3b3ccd07","freq_resp","img/green_2bandit_b.png","70","70","test","","","","3","",""
"null","387933","pSARL_v2","pSARL_v2jmahqjwo","5ffe235ea848b74a3b3ccd07","fixation","img/fixation.png","null","","test","","","","","",""
"331.6000000014901","388268","pSARL_v2","pSARL_v2jmahqjwo","5ffe235ea848b74a3b3ccd07","freq","img/green_2bandit_b2.png","70","70","test","1","59","59","3","",""
"null","388754","pSARL_v2","pSARL_v2jmahqjwo","5ffe235ea848b74a3b3ccd07","freq_resp","img/green_2bandit_b.png","70","70","test","","","","3","",""
"null","388909","pSARL_v2","pSARL_v2jmahqjwo","5ffe235ea848b74a3b3ccd07","fixation","img/fixation.png","null","","test","","","","","",""
"349.59999999962747","389262","pSARL_v2","pSARL_v2jmahqjwo","5ffe235ea848b74a3b3ccd07","freq","img/green_2bandit_b2.png","70","70","test","1","60","60","3","",""
"null","389722","pSARL_v2","pSARL_v2jmahqjwo","5ffe235ea848b74a3b3ccd07","freq_resp","img/green_2bandit_b.png","70","70","test","","","","3","",""
"null","389877","pSARL_v2","pSARL_v2jmahqjwo","5ffe235ea848b74a3b3ccd07","fixation","img/fixation.png","null","","test","","","","","",""
"362.19999999925494","390243","pSARL_v2","pSARL_v2jmahqjwo","5ffe235ea848b74a3b3ccd07","freq","img/green_2bandit_b2.png","70","70","test","1","61","61","3","",""
"null","390690","pSARL_v2","pSARL_v2jmahqjwo","5ffe235ea848b74a3b3ccd07","freq_resp","img/green_2bandit_b.png","70","70","test","","","","3","",""
"null","390843","pSARL_v2","pSARL_v2jmahqjwo","5ffe235ea848b74a3b3ccd07","fixation","img/fixation.png","null","","test","","","","","",""
"381.69999999925494","391228","pSARL_v2","pSARL_v2jmahqjwo","5ffe235ea848b74a3b3ccd07","freq","img/green_2bandit_b2.png","70","70","test","1","62","62","3","",""
"null","391659","pSARL_v2","pSARL_v2jmahqjwo","5ffe235ea848b74a3b3ccd07","freq_resp","img/green_2bandit_b.png","70","70","test","","","","3","",""
"null","391827","pSARL_v2","pSARL_v2jmahqjwo","5ffe235ea848b74a3b3ccd07","fixation","img/fixation.png","null","","test","","","","","",""
"347.5","392179","pSARL_v2","pSARL_v2jmahqjwo","5ffe235ea848b74a3b3ccd07","freq","img/green_2bandit_b2.png","70","70","test","1","63","63","3","",""
"null","392639","pSARL_v2","pSARL_v2jmahqjwo","5ffe235ea848b74a3b3ccd07","freq_resp","img/green_2bandit_b.png","70","70","test","","","","3","",""
"null","392807","pSARL_v2","pSARL_v2jmahqjwo","5ffe235ea848b74a3b3ccd07","fixation","img/fixation.png","null","","test","","","","","",""
"325.19999999925494","393136","pSARL_v2","pSARL_v2jmahqjwo","5ffe235ea848b74a3b3ccd07","freq","img/green_2bandit_b2.png","70","70","test","1","64","64","3","",""
"null","393622","pSARL_v2","pSARL_v2jmahqjwo","5ffe235ea848b74a3b3ccd07","freq_resp","img/green_2bandit_b.png","70","70","test","","","","3","",""
"null","393789","pSARL_v2","pSARL_v2jmahqjwo","5ffe235ea848b74a3b3ccd07","fixation","img/fixation.png","null","","test","","","","","",""
"463.8999999985099","394258","pSARL_v2","pSARL_v2jmahqjwo","5ffe235ea848b74a3b3ccd07","freq","img/green_2bandit_b2.png","70","70","test","1","65","65","3","",""
"null","394603","pSARL_v2","pSARL_v2jmahqjwo","5ffe235ea848b74a3b3ccd07","freq_resp","img/green_2bandit_b.png","70","70","test","","","","3","",""
"null","394771","pSARL_v2","pSARL_v2jmahqjwo","5ffe235ea848b74a3b3ccd07","fixation","img/fixation.png","null","","test","","","","","",""
"399.69999999925494","395175","pSARL_v2","pSARL_v2jmahqjwo","5ffe235ea848b74a3b3ccd07","freq","img/green_2bandit_b2.png","70","70","test","1","66","66","3","",""
"null","395585","pSARL_v2","pSARL_v2jmahqjwo","5ffe235ea848b74a3b3ccd07","freq_resp","img/green_2bandit_b.png","70","70","test","","","","3","",""
"null","395754","pSARL_v2","pSARL_v2jmahqjwo","5ffe235ea848b74a3b3ccd07","fixation","img/fixation.png","null","","test","","","","","",""
"435.2999999988824","396193","pSARL_v2","pSARL_v2jmahqjwo","5ffe235ea848b74a3b3ccd07","reward","img/slot.png","74","","test","","","","","",""
"null","396951","pSARL_v2","pSARL_v2jmahqjwo","5ffe235ea848b74a3b3ccd07","points","<div class=""verylowPoints""> -7 </div>","null","na","test","","","","3","-7","2"
"482.09999999962747","397437","pSARL_v2","pSARL_v2jmahqjwo","5ffe235ea848b74a3b3ccd07","freq","img/green_2bandit_b2.png","70","70","test","1","67","67","4","",""
"null","397767","pSARL_v2","pSARL_v2jmahqjwo","5ffe235ea848b74a3b3ccd07","freq_resp","img/green_2bandit_b.png","70","70","test","","","","4","",""
"null","397921","pSARL_v2","pSARL_v2jmahqjwo","5ffe235ea848b74a3b3ccd07","fixation","img/fixation.png","null","","test","","","","","",""
"366","398290","pSARL_v2","pSARL_v2jmahqjwo","5ffe235ea848b74a3b3ccd07","freq","img/green_2bandit_b2.png","70","70","test","1","68","68","4","",""
"null","398736","pSARL_v2","pSARL_v2jmahqjwo","5ffe235ea848b74a3b3ccd07","freq_resp","img/green_2bandit_b.png","70","70","test","","","","4","",""
"null","398905","pSARL_v2","pSARL_v2jmahqjwo","5ffe235ea848b74a3b3ccd07","fixation","img/fixation.png","null","","test","","","","","",""
"410","399319","pSARL_v2","pSARL_v2jmahqjwo","5ffe235ea848b74a3b3ccd07","freq","img/green_2bandit_b2.png","70","70","test","1","69","69","4","",""
"null","399717","pSARL_v2","pSARL_v2jmahqjwo","5ffe235ea848b74a3b3ccd07","freq_resp","img/green_2bandit_b.png","70","70","test","","","","4","",""
"null","399870","pSARL_v2","pSARL_v2jmahqjwo","5ffe235ea848b74a3b3ccd07","fixation","img/fixation.png","null","","test","","","","","",""
"416.40000000037253","400290","pSARL_v2","pSARL_v2jmahqjwo","5ffe235ea848b74a3b3ccd07","infreq","img/orange_2bandit_b2.png","68","68","test","1","70","70","4","",""
"null","400684","pSARL_v2","pSARL_v2jmahqjwo","5ffe235ea848b74a3b3ccd07","infreq_resp","img/orange_2bandit_b.png","68","68","test","","","","4","",""
"null","400853","pSARL_v2","pSARL_v2jmahqjwo","5ffe235ea848b74a3b3ccd07","fixation","img/fixation.png","null","","test","","","","","",""
"439.7999999988824","401296","pSARL_v2","pSARL_v2jmahqjwo","5ffe235ea848b74a3b3ccd07","freq","img/green_2bandit_b2.png","70","70","test","1","71","71","4","",""
"null","401665","pSARL_v2","pSARL_v2jmahqjwo","5ffe235ea848b74a3b3ccd07","freq_resp","img/green_2bandit_b.png","70","70","test","","","","4","",""
"null","401820","pSARL_v2","pSARL_v2jmahqjwo","5ffe235ea848b74a3b3ccd07","fixation","img/fixation.png","null","","test","","","","","",""
"356.90000000037253","402180","pSARL_v2","pSARL_v2jmahqjwo","5ffe235ea848b74a3b3ccd07","freq","img/green_2bandit_b2.png","70","70","test","1","72","72","4","",""
"null","402632","pSARL_v2","pSARL_v2jmahqjwo","5ffe235ea848b74a3b3ccd07","freq_resp","img/green_2bandit_b.png","70","70","test","","","","4","",""
"null","402789","pSARL_v2","pSARL_v2jmahqjwo","5ffe235ea848b74a3b3ccd07","fixation","img/fixation.png","null","","test","","","","","",""
"341.69999999925494","403134","pSARL_v2","pSARL_v2jmahqjwo","5ffe235ea848b74a3b3ccd07","freq","img/green_2bandit_b2.png","70","70","test","1","73","73","4","",""
"null","403604","pSARL_v2","pSARL_v2jmahqjwo","5ffe235ea848b74a3b3ccd07","freq_resp","img/green_2bandit_b.png","70","70","test","","","","4","",""
"null","403771","pSARL_v2","pSARL_v2jmahqjwo","5ffe235ea848b74a3b3ccd07","fixation","img/fixation.png","null","","test","","","","","",""
"306.19999999925494","404080","pSARL_v2","pSARL_v2jmahqjwo","5ffe235ea848b74a3b3ccd07","freq","img/green_2bandit_b2.png","70","70","test","1","74","74","4","",""
"null","404585","pSARL_v2","pSARL_v2jmahqjwo","5ffe235ea848b74a3b3ccd07","freq_resp","img/green_2bandit_b.png","70","70","test","","","","4","",""
"null","404753","pSARL_v2","pSARL_v2jmahqjwo","5ffe235ea848b74a3b3ccd07","fixation","img/fixation.png","null","","test","","","","","",""
"302.09999999962747","405058","pSARL_v2","pSARL_v2jmahqjwo","5ffe235ea848b74a3b3ccd07","freq","img/green_2bandit_b2.png","70","70","test","1","75","75","4","",""
"null","405568","pSARL_v2","pSARL_v2jmahqjwo","5ffe235ea848b74a3b3ccd07","freq_resp","img/green_2bandit_b.png","70","70","test","","","","4","",""
"null","405722","pSARL_v2","pSARL_v2jmahqjwo","5ffe235ea848b74a3b3ccd07","fixation","img/fixation.png","null","","test","","","","","",""
"328.69999999925494","406054","pSARL_v2","pSARL_v2jmahqjwo","5ffe235ea848b74a3b3ccd07","freq","img/green_2bandit_b2.png","70","70","test","1","76","76","4","",""
"null","406536","pSARL_v2","pSARL_v2jmahqjwo","5ffe235ea848b74a3b3ccd07","freq_resp","img/green_2bandit_b.png","70","70","test","","","","4","",""
"null","406704","pSARL_v2","pSARL_v2jmahqjwo","5ffe235ea848b74a3b3ccd07","fixation","img/fixation.png","null","","test","","","","","",""
"442","407150","pSARL_v2","pSARL_v2jmahqjwo","5ffe235ea848b74a3b3ccd07","infreq","img/orange_2bandit_b2.png","68","68","test","1","77","77","4","",""
"null","407519","pSARL_v2","pSARL_v2jmahqjwo","5ffe235ea848b74a3b3ccd07","infreq_resp","img/orange_2bandit_b.png","68","68","test","","","","4","",""
"null","407687","pSARL_v2","pSARL_v2jmahqjwo","5ffe235ea848b74a3b3ccd07","fixation","img/fixation.png","null","","test","","","","","",""
"433.3999999985099","408124","pSARL_v2","pSARL_v2jmahqjwo","5ffe235ea848b74a3b3ccd07","infreq","img/orange_2bandit_b2.png","68","68","test","1","78","78","4","",""
"null","408500","pSARL_v2","pSARL_v2jmahqjwo","5ffe235ea848b74a3b3ccd07","infreq_resp","img/orange_2bandit_b.png","68","68","test","","","","4","",""
"null","408654","pSARL_v2","pSARL_v2jmahqjwo","5ffe235ea848b74a3b3ccd07","fixation","img/fixation.png","null","","test","","","","","",""
"478.2999999988824","409136","pSARL_v2","pSARL_v2jmahqjwo","5ffe235ea848b74a3b3ccd07","freq","img/green_2bandit_b2.png","70","70","test","1","79","79","4","",""
"null","409471","pSARL_v2","pSARL_v2jmahqjwo","5ffe235ea848b74a3b3ccd07","freq_resp","img/green_2bandit_b.png","70","70","test","","","","4","",""
"null","409639","pSARL_v2","pSARL_v2jmahqjwo","5ffe235ea848b74a3b3ccd07","fixation","img/fixation.png","null","","test","","","","","",""
"469.5","410112","pSARL_v2","pSARL_v2jmahqjwo","5ffe235ea848b74a3b3ccd07","freq","img/green_2bandit_b2.png","70","70","test","1","80","80","4","",""
"null","410453","pSARL_v2","pSARL_v2jmahqjwo","5ffe235ea848b74a3b3ccd07","freq_resp","img/green_2bandit_b.png","70","70","test","","","","4","",""
"null","410622","pSARL_v2","pSARL_v2jmahqjwo","5ffe235ea848b74a3b3ccd07","fixation","img/fixation.png","null","","test","","","","","",""
"413.19999999925494","411039","pSARL_v2","pSARL_v2jmahqjwo","5ffe235ea848b74a3b3ccd07","freq","img/green_2bandit_b2.png","70","70","test","1","81","81","4","",""
"null","411438","pSARL_v2","pSARL_v2jmahqjwo","5ffe235ea848b74a3b3ccd07","freq_resp","img/green_2bandit_b.png","70","70","test","","","","4","",""
"null","411607","pSARL_v2","pSARL_v2jmahqjwo","5ffe235ea848b74a3b3ccd07","fixation","img/fixation.png","null","","test","","","","","",""
"441.40000000037253","412052","pSARL_v2","pSARL_v2jmahqjwo","5ffe235ea848b74a3b3ccd07","freq","img/green_2bandit_b2.png","70","70","test","1","82","82","4","",""
"null","412421","pSARL_v2","pSARL_v2jmahqjwo","5ffe235ea848b74a3b3ccd07","freq_resp","img/green_2bandit_b.png","70","70","test","","","","4","",""
"null","412575","pSARL_v2","pSARL_v2jmahqjwo","5ffe235ea848b74a3b3ccd07","fixation","img/fixation.png","null","","test","","","","","",""
"462.2999999988824","413041","pSARL_v2","pSARL_v2jmahqjwo","5ffe235ea848b74a3b3ccd07","freq","img/green_2bandit_b2.png","70","70","test","1","83","83","4","",""
"null","413389","pSARL_v2","pSARL_v2jmahqjwo","5ffe235ea848b74a3b3ccd07","freq_resp","img/green_2bandit_b.png","70","70","test","","","","4","",""
"null","413543","pSARL_v2","pSARL_v2jmahqjwo","5ffe235ea848b74a3b3ccd07","fixation","img/fixation.png","null","","test","","","","","",""
"488.59999999962747","414035","pSARL_v2","pSARL_v2jmahqjwo","5ffe235ea848b74a3b3ccd07","freq","img/green_2bandit_b2.png","70","70","test","1","84","84","4","",""
"null","414357","pSARL_v2","pSARL_v2jmahqjwo","5ffe235ea848b74a3b3ccd07","freq_resp","img/green_2bandit_b.png","70","70","test","","","","4","",""
"null","414525","pSARL_v2","pSARL_v2jmahqjwo","5ffe235ea848b74a3b3ccd07","fixation","img/fixation.png","null","","test","","","","","",""
"547.4000000003725","415076","pSARL_v2","pSARL_v2jmahqjwo","5ffe235ea848b74a3b3ccd07","freq","img/green_2bandit_b2.png","70","70","test","1","85","85","4","",""
"null","415338","pSARL_v2","pSARL_v2jmahqjwo","5ffe235ea848b74a3b3ccd07","freq_resp","img/green_2bandit_b.png","70","70","test","","","","4","",""
"null","415506","pSARL_v2","pSARL_v2jmahqjwo","5ffe235ea848b74a3b3ccd07","fixation","img/fixation.png","null","","test","","","","","",""
"366.3999999985099","415876","pSARL_v2","pSARL_v2jmahqjwo","5ffe235ea848b74a3b3ccd07","freq","img/green_2bandit_b2.png","70","70","test","1","86","86","4","",""
"null","416320","pSARL_v2","pSARL_v2jmahqjwo","5ffe235ea848b74a3b3ccd07","freq_resp","img/green_2bandit_b.png","70","70","test","","","","4","",""
"null","416489","pSARL_v2","pSARL_v2jmahqjwo","5ffe235ea848b74a3b3ccd07","fixation","img/fixation.png","null","","test","","","","","",""
"537.4000000003725","417030","pSARL_v2","pSARL_v2jmahqjwo","5ffe235ea848b74a3b3ccd07","reward","img/slot.png","74","","test","","","","","",""
"null","417793","pSARL_v2","pSARL_v2jmahqjwo","5ffe235ea848b74a3b3ccd07","points","<div class=""verylowPoints""> -3 </div>","null","na","test","","","","4","-3","3"
"420.59999999962747","418217","pSARL_v2","pSARL_v2jmahqjwo","5ffe235ea848b74a3b3ccd07","freq","img/green_2bandit_b2.png","70","70","test","1","87","87","5","",""
"null","418608","pSARL_v2","pSARL_v2jmahqjwo","5ffe235ea848b74a3b3ccd07","freq_resp","img/green_2bandit_b.png","70","70","test","","","","5","",""
"null","418776","pSARL_v2","pSARL_v2jmahqjwo","5ffe235ea848b74a3b3ccd07","fixation","img/fixation.png","null","","test","","","","","",""
"382.80000000074506","419163","pSARL_v2","pSARL_v2jmahqjwo","5ffe235ea848b74a3b3ccd07","freq","img/green_2bandit_b2.png","70","70","test","1","88","88","5","",""
"null","419588","pSARL_v2","pSARL_v2jmahqjwo","5ffe235ea848b74a3b3ccd07","freq_resp","img/green_2bandit_b.png","70","70","test","","","","5","",""
"null","419757","pSARL_v2","pSARL_v2jmahqjwo","5ffe235ea848b74a3b3ccd07","fixation","img/fixation.png","null","","test","","","","","",""
"610.9000000003725","420372","pSARL_v2","pSARL_v2jmahqjwo","5ffe235ea848b74a3b3ccd07","infreq","img/orange_2bandit_b2.png","68","68","test","1","89","89","5","",""
"null","420568","pSARL_v2","pSARL_v2jmahqjwo","5ffe235ea848b74a3b3ccd07","infreq_resp","img/orange_2bandit_b.png","68","68","test","","","","5","",""
"null","420724","pSARL_v2","pSARL_v2jmahqjwo","5ffe235ea848b74a3b3ccd07","fixation","img/fixation.png","null","","test","","","","","",""
"499.59999999962747","421227","pSARL_v2","pSARL_v2jmahqjwo","5ffe235ea848b74a3b3ccd07","freq","img/green_2bandit_b2.png","70","70","test","1","90","90","5","",""
"null","421537","pSARL_v2","pSARL_v2jmahqjwo","5ffe235ea848b74a3b3ccd07","freq_resp","img/green_2bandit_b.png","70","70","test","","","","5","",""
"null","421706","pSARL_v2","pSARL_v2jmahqjwo","5ffe235ea848b74a3b3ccd07","fixation","img/fixation.png","null","","test","","","","","",""
"363.2000000011176","422072","pSARL_v2","pSARL_v2jmahqjwo","5ffe235ea848b74a3b3ccd07","freq","img/green_2bandit_b2.png","70","70","test","1","91","91","5","",""
"null","422520","pSARL_v2","pSARL_v2jmahqjwo","5ffe235ea848b74a3b3ccd07","freq_resp","img/green_2bandit_b.png","70","70","test","","","","5","",""
"null","422676","pSARL_v2","pSARL_v2jmahqjwo","5ffe235ea848b74a3b3ccd07","fixation","img/fixation.png","null","","test","","","","","",""
"307.90000000037253","422987","pSARL_v2","pSARL_v2jmahqjwo","5ffe235ea848b74a3b3ccd07","freq","img/green_2bandit_b2.png","70","70","test","1","92","92","5","",""
"null","423490","pSARL_v2","pSARL_v2jmahqjwo","5ffe235ea848b74a3b3ccd07","freq_resp","img/green_2bandit_b.png","70","70","test","","","","5","",""
"null","423644","pSARL_v2","pSARL_v2jmahqjwo","5ffe235ea848b74a3b3ccd07","fixation","img/fixation.png","null","","test","","","","","",""
"409.7999999988824","424057","pSARL_v2","pSARL_v2jmahqjwo","5ffe235ea848b74a3b3ccd07","freq","img/green_2bandit_b2.png","70","70","test","1","93","93","5","",""
"null","424456","pSARL_v2","pSARL_v2jmahqjwo","5ffe235ea848b74a3b3ccd07","freq_resp","img/green_2bandit_b.png","70","70","test","","","","5","",""
"null","424625","pSARL_v2","pSARL_v2jmahqjwo","5ffe235ea848b74a3b3ccd07","fixation","img/fixation.png","null","","test","","","","","",""
"323.59999999962747","424952","pSARL_v2","pSARL_v2jmahqjwo","5ffe235ea848b74a3b3ccd07","freq","img/green_2bandit_b2.png","70","70","test","1","94","94","5","",""
"null","425440","pSARL_v2","pSARL_v2jmahqjwo","5ffe235ea848b74a3b3ccd07","freq_resp","img/green_2bandit_b.png","70","70","test","","","","5","",""
"null","425593","pSARL_v2","pSARL_v2jmahqjwo","5ffe235ea848b74a3b3ccd07","fixation","img/fixation.png","null","","test","","","","","",""
"329.09999999962747","425927","pSARL_v2","pSARL_v2jmahqjwo","5ffe235ea848b74a3b3ccd07","freq","img/green_2bandit_b2.png","70","70","test","1","95","95","5","",""
"null","426410","pSARL_v2","pSARL_v2jmahqjwo","5ffe235ea848b74a3b3ccd07","freq_resp","img/green_2bandit_b.png","70","70","test","","","","5","",""
"null","426578","pSARL_v2","pSARL_v2jmahqjwo","5ffe235ea848b74a3b3ccd07","fixation","img/fixation.png","null","","test","","","","","",""
"377.19999999925494","426959","pSARL_v2","pSARL_v2jmahqjwo","5ffe235ea848b74a3b3ccd07","freq","img/green_2bandit_b2.png","70","70","test","1","96","96","5","",""
"null","427394","pSARL_v2","pSARL_v2jmahqjwo","5ffe235ea848b74a3b3ccd07","freq_resp","img/green_2bandit_b.png","70","70","test","","","","5","",""
"null","427563","pSARL_v2","pSARL_v2jmahqjwo","5ffe235ea848b74a3b3ccd07","fixation","img/fixation.png","null","","test","","","","","",""
"361.30000000074506","427928","pSARL_v2","pSARL_v2jmahqjwo","5ffe235ea848b74a3b3ccd07","freq","img/green_2bandit_b2.png","70","70","test","1","97","97","5","",""
"null","428377","pSARL_v2","pSARL_v2jmahqjwo","5ffe235ea848b74a3b3ccd07","freq_resp","img/green_2bandit_b.png","70","70","test","","","","5","",""
"null","428546","pSARL_v2","pSARL_v2jmahqjwo","5ffe235ea848b74a3b3ccd07","fixation","img/fixation.png","null","","test","","","","","",""
"361","428910","pSARL_v2","pSARL_v2jmahqjwo","5ffe235ea848b74a3b3ccd07","freq","img/green_2bandit_b2.png","70","70","test","1","98","98","5","",""
"null","429362","pSARL_v2","pSARL_v2jmahqjwo","5ffe235ea848b74a3b3ccd07","freq_resp","img/green_2bandit_b.png","70","70","test","","","","5","",""
"null","429530","pSARL_v2","pSARL_v2jmahqjwo","5ffe235ea848b74a3b3ccd07","fixation","img/fixation.png","null","","test","","","","","",""
"412.59999999962747","429947","pSARL_v2","pSARL_v2jmahqjwo","5ffe235ea848b74a3b3ccd07","freq","img/green_2bandit_b2.png","70","70","test","1","99","99","5","",""
"null","430346","pSARL_v2","pSARL_v2jmahqjwo","5ffe235ea848b74a3b3ccd07","freq_resp","img/green_2bandit_b.png","70","70","test","","","","5","",""
"null","430499","pSARL_v2","pSARL_v2jmahqjwo","5ffe235ea848b74a3b3ccd07","fixation","img/fixation.png","null","","test","","","","","",""
"419.7999999988824","430922","pSARL_v2","pSARL_v2jmahqjwo","5ffe235ea848b74a3b3ccd07","freq","img/green_2bandit_b2.png","70","70","test","1","100","100","5","",""
"null","431314","pSARL_v2","pSARL_v2jmahqjwo","5ffe235ea848b74a3b3ccd07","freq_resp","img/green_2bandit_b.png","70","70","test","","","","5","",""
"null","431482","pSARL_v2","pSARL_v2jmahqjwo","5ffe235ea848b74a3b3ccd07","fixation","img/fixation.png","null","","test","","","","","",""
"355.7999999988824","431841","pSARL_v2","pSARL_v2jmahqjwo","5ffe235ea848b74a3b3ccd07","freq","img/green_2bandit_b2.png","70","70","test","1","101","101","5","",""
"null","432294","pSARL_v2","pSARL_v2jmahqjwo","5ffe235ea848b74a3b3ccd07","freq_resp","img/green_2bandit_b.png","70","70","test","","","","5","",""
"null","432463","pSARL_v2","pSARL_v2jmahqjwo","5ffe235ea848b74a3b3ccd07","fixation","img/fixation.png","null","","test","","","","","",""
"332.2000000011176","432798","pSARL_v2","pSARL_v2jmahqjwo","5ffe235ea848b74a3b3ccd07","freq","img/green_2bandit_b2.png","70","70","test","1","102","102","5","",""
"null","433278","pSARL_v2","pSARL_v2jmahqjwo","5ffe235ea848b74a3b3ccd07","freq_resp","img/green_2bandit_b.png","70","70","test","","","","5","",""
"null","433446","pSARL_v2","pSARL_v2jmahqjwo","5ffe235ea848b74a3b3ccd07","fixation","img/fixation.png","null","","test","","","","","",""
"306.2999999988824","433756","pSARL_v2","pSARL_v2jmahqjwo","5ffe235ea848b74a3b3ccd07","freq","img/green_2bandit_b2.png","70","70","test","1","103","103","5","",""
"null","434260","pSARL_v2","pSARL_v2jmahqjwo","5ffe235ea848b74a3b3ccd07","freq_resp","img/green_2bandit_b.png","70","70","test","","","","5","",""
"null","434428","pSARL_v2","pSARL_v2jmahqjwo","5ffe235ea848b74a3b3ccd07","fixation","img/fixation.png","null","","test","","","","","",""
"394.2999999988824","434827","pSARL_v2","pSARL_v2jmahqjwo","5ffe235ea848b74a3b3ccd07","infreq","img/orange_2bandit_b2.png","68","68","test","1","104","104","5","",""
"null","435243","pSARL_v2","pSARL_v2jmahqjwo","5ffe235ea848b74a3b3ccd07","infreq_resp","img/orange_2bandit_b.png","68","68","test","","","","5","",""
"null","435412","pSARL_v2","pSARL_v2jmahqjwo","5ffe235ea848b74a3b3ccd07","fixation","img/fixation.png","null","","test","","","","","",""
"426","435842","pSARL_v2","pSARL_v2jmahqjwo","5ffe235ea848b74a3b3ccd07","freq","img/green_2bandit_b2.png","70","70","test","1","105","105","5","",""
"null","436224","pSARL_v2","pSARL_v2jmahqjwo","5ffe235ea848b74a3b3ccd07","freq_resp","img/green_2bandit_b.png","70","70","test","","","","5","",""
"null","436393","pSARL_v2","pSARL_v2jmahqjwo","5ffe235ea848b74a3b3ccd07","fixation","img/fixation.png","null","","test","","","","","",""
"361","436757","pSARL_v2","pSARL_v2jmahqjwo","5ffe235ea848b74a3b3ccd07","freq","img/green_2bandit_b2.png","70","70","test","1","106","106","5","",""
"null","437207","pSARL_v2","pSARL_v2jmahqjwo","5ffe235ea848b74a3b3ccd07","freq_resp","img/green_2bandit_b.png","70","70","test","","","","5","",""
"null","437377","pSARL_v2","pSARL_v2jmahqjwo","5ffe235ea848b74a3b3ccd07","fixation","img/fixation.png","null","","test","","","","","",""
"328.19999999925494","437709","pSARL_v2","pSARL_v2jmahqjwo","5ffe235ea848b74a3b3ccd07","freq","img/green_2bandit_b2.png","70","70","test","1","107","107","5","",""
"null","438190","pSARL_v2","pSARL_v2jmahqjwo","5ffe235ea848b74a3b3ccd07","freq_resp","img/green_2bandit_b.png","70","70","test","","","","5","",""
"null","438344","pSARL_v2","pSARL_v2jmahqjwo","5ffe235ea848b74a3b3ccd07","fixation","img/fixation.png","null","","test","","","","","",""
"361","438709","pSARL_v2","pSARL_v2jmahqjwo","5ffe235ea848b74a3b3ccd07","freq","img/green_2bandit_b2.png","70","70","test","1","108","108","5","",""
"null","439161","pSARL_v2","pSARL_v2jmahqjwo","5ffe235ea848b74a3b3ccd07","freq_resp","img/green_2bandit_b.png","70","70","test","","","","5","",""
"null","439330","pSARL_v2","pSARL_v2jmahqjwo","5ffe235ea848b74a3b3ccd07","fixation","img/fixation.png","null","","test","","","","","",""
"498.5","439832","pSARL_v2","pSARL_v2jmahqjwo","5ffe235ea848b74a3b3ccd07","reward","img/slot.png","74","","test","","","","","",""
"null","440586","pSARL_v2","pSARL_v2jmahqjwo","5ffe235ea848b74a3b3ccd07","points","<div class=""veryhighPoints""> +1 </div>","null","na","test","","","","5","1","4"
"468.5","441061","pSARL_v2","pSARL_v2jmahqjwo","5ffe235ea848b74a3b3ccd07","freq","img/green_2bandit_b2.png","70","70","test","1","109","109","6","",""
"null","441400","pSARL_v2","pSARL_v2jmahqjwo","5ffe235ea848b74a3b3ccd07","freq_resp","img/green_2bandit_b.png","70","70","test","","","","6","",""
"null","441569","pSARL_v2","pSARL_v2jmahqjwo","5ffe235ea848b74a3b3ccd07","fixation","img/fixation.png","null","","test","","","","","",""
"305.80000000074506","441878","pSARL_v2","pSARL_v2jmahqjwo","5ffe235ea848b74a3b3ccd07","freq","img/green_2bandit_b2.png","70","70","test","1","110","110","6","",""
"null","442382","pSARL_v2","pSARL_v2jmahqjwo","5ffe235ea848b74a3b3ccd07","freq_resp","img/green_2bandit_b.png","70","70","test","","","","6","",""
"null","442550","pSARL_v2","pSARL_v2jmahqjwo","5ffe235ea848b74a3b3ccd07","fixation","img/fixation.png","null","","test","","","","","",""
"337.1000000014901","442890","pSARL_v2","pSARL_v2jmahqjwo","5ffe235ea848b74a3b3ccd07","freq","img/green_2bandit_b2.png","70","70","test","1","111","111","6","",""
"null","443363","pSARL_v2","pSARL_v2jmahqjwo","5ffe235ea848b74a3b3ccd07","freq_resp","img/green_2bandit_b.png","70","70","test","","","","6","",""
"null","443531","pSARL_v2","pSARL_v2jmahqjwo","5ffe235ea848b74a3b3ccd07","fixation","img/fixation.png","null","","test","","","","","",""
"421.2999999988824","443956","pSARL_v2","pSARL_v2jmahqjwo","5ffe235ea848b74a3b3ccd07","infreq","img/orange_2bandit_b2.png","68","68","test","1","112","112","6","",""
"null","444344","pSARL_v2","pSARL_v2jmahqjwo","5ffe235ea848b74a3b3ccd07","infreq_resp","img/orange_2bandit_b.png","68","68","test","","","","6","",""
"null","444513","pSARL_v2","pSARL_v2jmahqjwo","5ffe235ea848b74a3b3ccd07","fixation","img/fixation.png","null","","test","","","","","",""
"492.90000000037253","445009","pSARL_v2","pSARL_v2jmahqjwo","5ffe235ea848b74a3b3ccd07","freq","img/green_2bandit_b2.png","70","70","test","1","113","113","6","",""
"null","445327","pSARL_v2","pSARL_v2jmahqjwo","5ffe235ea848b74a3b3ccd07","freq_resp","img/green_2bandit_b.png","70","70","test","","","","6","",""
"null","445481","pSARL_v2","pSARL_v2jmahqjwo","5ffe235ea848b74a3b3ccd07","fixation","img/fixation.png","null","","test","","","","","",""
"350.2999999988824","445835","pSARL_v2","pSARL_v2jmahqjwo","5ffe235ea848b74a3b3ccd07","freq","img/green_2bandit_b2.png","70","70","test","1","114","114","6","",""
"null","446295","pSARL_v2","pSARL_v2jmahqjwo","5ffe235ea848b74a3b3ccd07","freq_resp","img/green_2bandit_b.png","70","70","test","","","","6","",""
"null","446464","pSARL_v2","pSARL_v2jmahqjwo","5ffe235ea848b74a3b3ccd07","fixation","img/fixation.png","null","","test","","","","","",""
"314.40000000037253","446782","pSARL_v2","pSARL_v2jmahqjwo","5ffe235ea848b74a3b3ccd07","freq","img/green_2bandit_b2.png","70","70","test","1","115","115","6","",""
"null","447277","pSARL_v2","pSARL_v2jmahqjwo","5ffe235ea848b74a3b3ccd07","freq_resp","img/green_2bandit_b.png","70","70","test","","","","6","",""
"null","447446","pSARL_v2","pSARL_v2jmahqjwo","5ffe235ea848b74a3b3ccd07","fixation","img/fixation.png","null","","test","","","","","",""
"282.7999999988824","447732","pSARL_v2","pSARL_v2jmahqjwo","5ffe235ea848b74a3b3ccd07","freq","img/green_2bandit_b2.png","70","70","test","1","116","116","6","",""
"null","448259","pSARL_v2","pSARL_v2jmahqjwo","5ffe235ea848b74a3b3ccd07","freq_resp","img/green_2bandit_b.png","70","70","test","","","","6","",""
"null","448427","pSARL_v2","pSARL_v2jmahqjwo","5ffe235ea848b74a3b3ccd07","fixation","img/fixation.png","null","","test","","","","","",""
"405.19999999925494","448836","pSARL_v2","pSARL_v2jmahqjwo","5ffe235ea848b74a3b3ccd07","freq","img/green_2bandit_b2.png","70","70","test","1","117","117","6","",""
"null","449241","pSARL_v2","pSARL_v2jmahqjwo","5ffe235ea848b74a3b3ccd07","freq_resp","img/green_2bandit_b.png","70","70","test","","","","6","",""
"null","449409","pSARL_v2","pSARL_v2jmahqjwo","5ffe235ea848b74a3b3ccd07","fixation","img/fixation.png","null","","test","","","","","",""
"356","449768","pSARL_v2","pSARL_v2jmahqjwo","5ffe235ea848b74a3b3ccd07","freq","img/green_2bandit_b2.png","70","70","test","1","118","118","6","",""
"null","450220","pSARL_v2","pSARL_v2jmahqjwo","5ffe235ea848b74a3b3ccd07","freq_resp","img/green_2bandit_b.png","70","70","test","","","","6","",""
"null","450388","pSARL_v2","pSARL_v2jmahqjwo","5ffe235ea848b74a3b3ccd07","fixation","img/fixation.png","null","","test","","","","","",""
"376.5","450768","pSARL_v2","pSARL_v2jmahqjwo","5ffe235ea848b74a3b3ccd07","freq","img/green_2bandit_b2.png","70","70","test","1","119","119","6","",""
"null","451203","pSARL_v2","pSARL_v2jmahqjwo","5ffe235ea848b74a3b3ccd07","freq_resp","img/green_2bandit_b.png","70","70","test","","","","6","",""
"null","451372","pSARL_v2","pSARL_v2jmahqjwo","5ffe235ea848b74a3b3ccd07","fixation","img/fixation.png","null","","test","","","","","",""
"363.7999999988824","451740","pSARL_v2","pSARL_v2jmahqjwo","5ffe235ea848b74a3b3ccd07","freq","img/green_2bandit_b2.png","70","70","test","1","120","120","6","",""
"null","452185","pSARL_v2","pSARL_v2jmahqjwo","5ffe235ea848b74a3b3ccd07","freq_resp","img/green_2bandit_b.png","70","70","test","","","","6","",""
"null","452354","pSARL_v2","pSARL_v2jmahqjwo","5ffe235ea848b74a3b3ccd07","fixation","img/fixation.png","null","","test","","","","","",""
"434.40000000037253","452792","pSARL_v2","pSARL_v2jmahqjwo","5ffe235ea848b74a3b3ccd07","freq","img/green_2bandit_b2.png","70","70","test","1","121","121","6","",""
"null","453170","pSARL_v2","pSARL_v2jmahqjwo","5ffe235ea848b74a3b3ccd07","freq_resp","img/green_2bandit_b.png","70","70","test","","","","6","",""
"null","453339","pSARL_v2","pSARL_v2jmahqjwo","5ffe235ea848b74a3b3ccd07","fixation","img/fixation.png","null","","test","","","","","",""
"406.40000000037253","453749","pSARL_v2","pSARL_v2jmahqjwo","5ffe235ea848b74a3b3ccd07","freq","img/green_2bandit_b2.png","70","70","test","1","122","122","6","",""
"null","454153","pSARL_v2","pSARL_v2jmahqjwo","5ffe235ea848b74a3b3ccd07","freq_resp","img/green_2bandit_b.png","70","70","test","","","","6","",""
"null","454320","pSARL_v2","pSARL_v2jmahqjwo","5ffe235ea848b74a3b3ccd07","fixation","img/fixation.png","null","","test","","","","","",""
"416.59999999962747","454740","pSARL_v2","pSARL_v2jmahqjwo","5ffe235ea848b74a3b3ccd07","infreq","img/orange_2bandit_b2.png","68","68","test","1","123","123","6","",""
"null","455138","pSARL_v2","pSARL_v2jmahqjwo","5ffe235ea848b74a3b3ccd07","infreq_resp","img/orange_2bandit_b.png","68","68","test","","","","6","",""
"null","455305","pSARL_v2","pSARL_v2jmahqjwo","5ffe235ea848b74a3b3ccd07","fixation","img/fixation.png","null","","test","","","","","",""
"449.2999999988824","455758","pSARL_v2","pSARL_v2jmahqjwo","5ffe235ea848b74a3b3ccd07","freq","img/green_2bandit_b2.png","70","70","test","1","124","124","6","",""
"null","456119","pSARL_v2","pSARL_v2jmahqjwo","5ffe235ea848b74a3b3ccd07","freq_resp","img/green_2bandit_b.png","70","70","test","","","","6","",""
"null","456272","pSARL_v2","pSARL_v2jmahqjwo","5ffe235ea848b74a3b3ccd07","fixation","img/fixation.png","null","","test","","","","","",""
"500","456777","pSARL_v2","pSARL_v2jmahqjwo","5ffe235ea848b74a3b3ccd07","freq","img/green_2bandit_b2.png","70","70","test","1","125","125","6","",""
"null","457086","pSARL_v2","pSARL_v2jmahqjwo","5ffe235ea848b74a3b3ccd07","freq_resp","img/green_2bandit_b.png","70","70","test","","","","6","",""
"null","457255","pSARL_v2","pSARL_v2jmahqjwo","5ffe235ea848b74a3b3ccd07","fixation","img/fixation.png","null","","test","","","","","",""
"515.5","457774","pSARL_v2","pSARL_v2jmahqjwo","5ffe235ea848b74a3b3ccd07","freq","img/green_2bandit_b2.png","70","70","test","1","126","126","6","",""
"null","458069","pSARL_v2","pSARL_v2jmahqjwo","5ffe235ea848b74a3b3ccd07","freq_resp","img/green_2bandit_b.png","70","70","test","","","","6","",""
"null","458223","pSARL_v2","pSARL_v2jmahqjwo","5ffe235ea848b74a3b3ccd07","fixation","img/fixation.png","null","","test","","","","","",""
"344.09999999962747","458572","pSARL_v2","pSARL_v2jmahqjwo","5ffe235ea848b74a3b3ccd07","freq","img/green_2bandit_b2.png","70","70","test","1","127","127","6","",""
"null","459037","pSARL_v2","pSARL_v2jmahqjwo","5ffe235ea848b74a3b3ccd07","freq_resp","img/green_2bandit_b.png","70","70","test","","","","6","",""
"null","459192","pSARL_v2","pSARL_v2jmahqjwo","5ffe235ea848b74a3b3ccd07","fixation","img/fixation.png","null","","test","","","","","",""
"342.2000000011176","459538","pSARL_v2","pSARL_v2jmahqjwo","5ffe235ea848b74a3b3ccd07","freq","img/green_2bandit_b2.png","70","70","test","1","128","128","6","",""
"null","460006","pSARL_v2","pSARL_v2jmahqjwo","5ffe235ea848b74a3b3ccd07","freq_resp","img/green_2bandit_b.png","70","70","test","","","","6","",""
"null","460160","pSARL_v2","pSARL_v2jmahqjwo","5ffe235ea848b74a3b3ccd07","fixation","img/fixation.png","null","","test","","","","","",""
"531.5","460694","pSARL_v2","pSARL_v2jmahqjwo","5ffe235ea848b74a3b3ccd07","reward","img/slot.png","74","","test","","","","","",""
"null","461451","pSARL_v2","pSARL_v2jmahqjwo","5ffe235ea848b74a3b3ccd07","points","<div class=""verylowPoints""> -7 </div>","null","na","test","","","","6","-7","5"
"503.59999999962747","461958","pSARL_v2","pSARL_v2jmahqjwo","5ffe235ea848b74a3b3ccd07","freq","img/green_2bandit_b2.png","70","70","test","1","129","129","7","",""
"null","462265","pSARL_v2","pSARL_v2jmahqjwo","5ffe235ea848b74a3b3ccd07","freq_resp","img/green_2bandit_b.png","70","70","test","","","","7","",""
"null","462433","pSARL_v2","pSARL_v2jmahqjwo","5ffe235ea848b74a3b3ccd07","fixation","img/fixation.png","null","","test","","","","","",""
"340.2999999988824","462777","pSARL_v2","pSARL_v2jmahqjwo","5ffe235ea848b74a3b3ccd07","freq","img/green_2bandit_b2.png","70","70","test","1","130","130","7","",""
"null","463248","pSARL_v2","pSARL_v2jmahqjwo","5ffe235ea848b74a3b3ccd07","freq_resp","img/green_2bandit_b.png","70","70","test","","","","7","",""
"null","463415","pSARL_v2","pSARL_v2jmahqjwo","5ffe235ea848b74a3b3ccd07","fixation","img/fixation.png","null","","test","","","","","",""
"600.0999999996275","464019","pSARL_v2","pSARL_v2jmahqjwo","5ffe235ea848b74a3b3ccd07","freq","img/green_2bandit_b2.png","70","70","test","1","131","131","7","",""
"null","464228","pSARL_v2","pSARL_v2jmahqjwo","5ffe235ea848b74a3b3ccd07","freq_resp","img/green_2bandit_b.png","70","70","test","","","","7","",""
"null","464381","pSARL_v2","pSARL_v2jmahqjwo","5ffe235ea848b74a3b3ccd07","fixation","img/fixation.png","null","","test","","","","","",""
"398.59999999962747","464783","pSARL_v2","pSARL_v2jmahqjwo","5ffe235ea848b74a3b3ccd07","freq","img/green_2bandit_b2.png","70","70","test","1","132","132","7","",""
"null","465195","pSARL_v2","pSARL_v2jmahqjwo","5ffe235ea848b74a3b3ccd07","freq_resp","img/green_2bandit_b.png","70","70","test","","","","7","",""
"null","465364","pSARL_v2","pSARL_v2jmahqjwo","5ffe235ea848b74a3b3ccd07","fixation","img/fixation.png","null","","test","","","","","",""
"372.80000000074506","465741","pSARL_v2","pSARL_v2jmahqjwo","5ffe235ea848b74a3b3ccd07","freq","img/green_2bandit_b2.png","70","70","test","1","133","133","7","",""
"null","466178","pSARL_v2","pSARL_v2jmahqjwo","5ffe235ea848b74a3b3ccd07","freq_resp","img/green_2bandit_b.png","70","70","test","","","","7","",""
"null","466332","pSARL_v2","pSARL_v2jmahqjwo","5ffe235ea848b74a3b3ccd07","fixation","img/fixation.png","null","","test","","","","","",""
"343","466679","pSARL_v2","pSARL_v2jmahqjwo","5ffe235ea848b74a3b3ccd07","freq","img/green_2bandit_b2.png","70","70","test","1","134","134","7","",""
"null","467147","pSARL_v2","pSARL_v2jmahqjwo","5ffe235ea848b74a3b3ccd07","freq_resp","img/green_2bandit_b.png","70","70","test","","","","7","",""
"null","467316","pSARL_v2","pSARL_v2jmahqjwo","5ffe235ea848b74a3b3ccd07","fixation","img/fixation.png","null","","test","","","","","",""
"355.7999999988824","467675","pSARL_v2","pSARL_v2jmahqjwo","5ffe235ea848b74a3b3ccd07","freq","img/green_2bandit_b2.png","70","70","test","1","135","135","7","",""
"null","468130","pSARL_v2","pSARL_v2jmahqjwo","5ffe235ea848b74a3b3ccd07","freq_resp","img/green_2bandit_b.png","70","70","test","","","","7","",""
"null","468284","pSARL_v2","pSARL_v2jmahqjwo","5ffe235ea848b74a3b3ccd07","fixation","img/fixation.png","null","","test","","","","","",""
"353.7000000011176","468642","pSARL_v2","pSARL_v2jmahqjwo","5ffe235ea848b74a3b3ccd07","freq","img/green_2bandit_b2.png","70","70","test","1","136","136","7","",""
"null","469097","pSARL_v2","pSARL_v2jmahqjwo","5ffe235ea848b74a3b3ccd07","freq_resp","img/green_2bandit_b.png","70","70","test","","","","7","",""
"null","469267","pSARL_v2","pSARL_v2jmahqjwo","5ffe235ea848b74a3b3ccd07","fixation","img/fixation.png","null","","test","","","","","",""
"314.30000000074506","469584","pSARL_v2","pSARL_v2jmahqjwo","5ffe235ea848b74a3b3ccd07","freq","img/green_2bandit_b2.png","70","70","test","1","137","137","7","",""
"null","470079","pSARL_v2","pSARL_v2jmahqjwo","5ffe235ea848b74a3b3ccd07","freq_resp","img/green_2bandit_b.png","70","70","test","","","","7","",""
"null","470247","pSARL_v2","pSARL_v2jmahqjwo","5ffe235ea848b74a3b3ccd07","fixation","img/fixation.png","null","","test","","","","","",""
"355.7000000011176","470606","pSARL_v2","pSARL_v2jmahqjwo","5ffe235ea848b74a3b3ccd07","freq","img/green_2bandit_b2.png","70","70","test","1","138","138","7","",""
"null","471060","pSARL_v2","pSARL_v2jmahqjwo","5ffe235ea848b74a3b3ccd07","freq_resp","img/green_2bandit_b.png","70","70","test","","","","7","",""
"null","471215","pSARL_v2","pSARL_v2jmahqjwo","5ffe235ea848b74a3b3ccd07","fixation","img/fixation.png","null","","test","","","","","",""
"349.69999999925494","471568","pSARL_v2","pSARL_v2jmahqjwo","5ffe235ea848b74a3b3ccd07","freq","img/green_2bandit_b2.png","70","70","test","1","139","139","7","",""
"null","472028","pSARL_v2","pSARL_v2jmahqjwo","5ffe235ea848b74a3b3ccd07","freq_resp","img/green_2bandit_b.png","70","70","test","","","","7","",""
"null","472196","pSARL_v2","pSARL_v2jmahqjwo","5ffe235ea848b74a3b3ccd07","fixation","img/fixation.png","null","","test","","","","","",""
"313.7000000011176","472512","pSARL_v2","pSARL_v2jmahqjwo","5ffe235ea848b74a3b3ccd07","freq","img/green_2bandit_b2.png","70","70","test","1","140","140","7","",""
"null","473010","pSARL_v2","pSARL_v2jmahqjwo","5ffe235ea848b74a3b3ccd07","freq_resp","img/green_2bandit_b.png","70","70","test","","","","7","",""
"null","473179","pSARL_v2","pSARL_v2jmahqjwo","5ffe235ea848b74a3b3ccd07","fixation","img/fixation.png","null","","test","","","","","",""
"332.09999999962747","473515","pSARL_v2","pSARL_v2jmahqjwo","5ffe235ea848b74a3b3ccd07","freq","img/green_2bandit_b2.png","70","70","test","1","141","141","7","",""
"null","473994","pSARL_v2","pSARL_v2jmahqjwo","5ffe235ea848b74a3b3ccd07","freq_resp","img/green_2bandit_b.png","70","70","test","","","","7","",""
"null","474163","pSARL_v2","pSARL_v2jmahqjwo","5ffe235ea848b74a3b3ccd07","fixation","img/fixation.png","null","","test","","","","","",""
"395.69999999925494","474562","pSARL_v2","pSARL_v2jmahqjwo","5ffe235ea848b74a3b3ccd07","freq","img/green_2bandit_b2.png","70","70","test","1","142","142","7","",""
"null","474977","pSARL_v2","pSARL_v2jmahqjwo","5ffe235ea848b74a3b3ccd07","freq_resp","img/green_2bandit_b.png","70","70","test","","","","7","",""
"null","475131","pSARL_v2","pSARL_v2jmahqjwo","5ffe235ea848b74a3b3ccd07","fixation","img/fixation.png","null","","test","","","","","",""
"442.69999999925494","475577","pSARL_v2","pSARL_v2jmahqjwo","5ffe235ea848b74a3b3ccd07","infreq","img/orange_2bandit_b2.png","68","68","test","1","143","143","7","",""
"null","475945","pSARL_v2","pSARL_v2jmahqjwo","5ffe235ea848b74a3b3ccd07","infreq_resp","img/orange_2bandit_b.png","68","68","test","","","","7","",""
"null","476112","pSARL_v2","pSARL_v2jmahqjwo","5ffe235ea848b74a3b3ccd07","fixation","img/fixation.png","null","","test","","","","","",""
"444.09999999962747","476560","pSARL_v2","pSARL_v2jmahqjwo","5ffe235ea848b74a3b3ccd07","freq","img/green_2bandit_b2.png","70","70","test","1","144","144","7","",""
"null","476927","pSARL_v2","pSARL_v2jmahqjwo","5ffe235ea848b74a3b3ccd07","freq_resp","img/green_2bandit_b.png","70","70","test","","","","7","",""
"null","477080","pSARL_v2","pSARL_v2jmahqjwo","5ffe235ea848b74a3b3ccd07","fixation","img/fixation.png","null","","test","","","","","",""
"337.69999999925494","477421","pSARL_v2","pSARL_v2jmahqjwo","5ffe235ea848b74a3b3ccd07","freq","img/green_2bandit_b2.png","70","70","test","1","145","145","7","",""
"null","477895","pSARL_v2","pSARL_v2jmahqjwo","5ffe235ea848b74a3b3ccd07","freq_resp","img/green_2bandit_b.png","70","70","test","","","","7","",""
"null","478064","pSARL_v2","pSARL_v2jmahqjwo","5ffe235ea848b74a3b3ccd07","fixation","img/fixation.png","null","","test","","","","","",""
"344.59999999962747","478411","pSARL_v2","pSARL_v2jmahqjwo","5ffe235ea848b74a3b3ccd07","freq","img/green_2bandit_b2.png","70","70","test","1","146","146","7","",""
"null","478878","pSARL_v2","pSARL_v2jmahqjwo","5ffe235ea848b74a3b3ccd07","freq_resp","img/green_2bandit_b.png","70","70","test","","","","7","",""
"null","479047","pSARL_v2","pSARL_v2jmahqjwo","5ffe235ea848b74a3b3ccd07","fixation","img/fixation.png","null","","test","","","","","",""
"340.5","479391","pSARL_v2","pSARL_v2jmahqjwo","5ffe235ea848b74a3b3ccd07","freq","img/green_2bandit_b2.png","70","70","test","1","147","147","7","",""
"null","479860","pSARL_v2","pSARL_v2jmahqjwo","5ffe235ea848b74a3b3ccd07","freq_resp","img/green_2bandit_b.png","70","70","test","","","","7","",""
"null","480030","pSARL_v2","pSARL_v2jmahqjwo","5ffe235ea848b74a3b3ccd07","fixation","img/fixation.png","null","","test","","","","","",""
"344.90000000037253","480378","pSARL_v2","pSARL_v2jmahqjwo","5ffe235ea848b74a3b3ccd07","freq","img/green_2bandit_b2.png","70","70","test","1","148","148","7","",""
"null","480844","pSARL_v2","pSARL_v2jmahqjwo","5ffe235ea848b74a3b3ccd07","freq_resp","img/green_2bandit_b.png","70","70","test","","","","7","",""
"null","481013","pSARL_v2","pSARL_v2jmahqjwo","5ffe235ea848b74a3b3ccd07","fixation","img/fixation.png","null","","test","","","","","",""
"434.30000000074506","481450","pSARL_v2","pSARL_v2jmahqjwo","5ffe235ea848b74a3b3ccd07","infreq","img/orange_2bandit_b2.png","68","68","test","1","149","149","7","",""
"null","481827","pSARL_v2","pSARL_v2jmahqjwo","5ffe235ea848b74a3b3ccd07","infreq_resp","img/orange_2bandit_b.png","68","68","test","","","","7","",""
"null","481995","pSARL_v2","pSARL_v2jmahqjwo","5ffe235ea848b74a3b3ccd07","fixation","img/fixation.png","null","","test","","","","","",""
"454.09999999962747","482453","pSARL_v2","pSARL_v2jmahqjwo","5ffe235ea848b74a3b3ccd07","freq","img/green_2bandit_b2.png","70","70","test","1","150","150","7","",""
"null","482810","pSARL_v2","pSARL_v2jmahqjwo","5ffe235ea848b74a3b3ccd07","freq_resp","img/green_2bandit_b.png","70","70","test","","","","7","",""
"null","482964","pSARL_v2","pSARL_v2jmahqjwo","5ffe235ea848b74a3b3ccd07","fixation","img/fixation.png","null","","test","","","","","",""
"391","483359","pSARL_v2","pSARL_v2jmahqjwo","5ffe235ea848b74a3b3ccd07","freq","img/green_2bandit_b2.png","70","70","test","1","151","151","7","",""
"null","483779","pSARL_v2","pSARL_v2jmahqjwo","5ffe235ea848b74a3b3ccd07","freq_resp","img/green_2bandit_b.png","70","70","test","","","","7","",""
"null","483936","pSARL_v2","pSARL_v2jmahqjwo","5ffe235ea848b74a3b3ccd07","fixation","img/fixation.png","null","","test","","","","","",""
"357.5","484297","pSARL_v2","pSARL_v2jmahqjwo","5ffe235ea848b74a3b3ccd07","freq","img/green_2bandit_b2.png","70","70","test","1","152","152","7","",""
"null","484745","pSARL_v2","pSARL_v2jmahqjwo","5ffe235ea848b74a3b3ccd07","freq_resp","img/green_2bandit_b.png","70","70","test","","","","7","",""
"null","484913","pSARL_v2","pSARL_v2jmahqjwo","5ffe235ea848b74a3b3ccd07","fixation","img/fixation.png","null","","test","","","","","",""
"321.90000000037253","485239","pSARL_v2","pSARL_v2jmahqjwo","5ffe235ea848b74a3b3ccd07","freq","img/green_2bandit_b2.png","70","70","test","1","153","153","7","",""
"null","485727","pSARL_v2","pSARL_v2jmahqjwo","5ffe235ea848b74a3b3ccd07","freq_resp","img/green_2bandit_b.png","70","70","test","","","","7","",""
"null","485895","pSARL_v2","pSARL_v2jmahqjwo","5ffe235ea848b74a3b3ccd07","fixation","img/fixation.png","null","","test","","","","","",""
"324.30000000074506","486223","pSARL_v2","pSARL_v2jmahqjwo","5ffe235ea848b74a3b3ccd07","freq","img/green_2bandit_b2.png","70","70","test","1","154","154","7","",""
"null","486709","pSARL_v2","pSARL_v2jmahqjwo","5ffe235ea848b74a3b3ccd07","freq_resp","img/green_2bandit_b.png","70","70","test","","","","7","",""
"null","486877","pSARL_v2","pSARL_v2jmahqjwo","5ffe235ea848b74a3b3ccd07","fixation","img/fixation.png","null","","test","","","","","",""
"543.9000000003725","487425","pSARL_v2","pSARL_v2jmahqjwo","5ffe235ea848b74a3b3ccd07","reward","img/slot.png","74","","test","","","","","",""
"null","488181","pSARL_v2","pSARL_v2jmahqjwo","5ffe235ea848b74a3b3ccd07","points","<div class=""verylowPoints""> -6 </div>","null","na","test","","","","7","-6","6"
"392.2999999988824","488577","pSARL_v2","pSARL_v2jmahqjwo","5ffe235ea848b74a3b3ccd07","freq","img/green_2bandit_b2.png","70","70","test","1","155","155","8","",""
"null","488994","pSARL_v2","pSARL_v2jmahqjwo","5ffe235ea848b74a3b3ccd07","freq_resp","img/green_2bandit_b.png","70","70","test","","","","8","",""
"null","489148","pSARL_v2","pSARL_v2jmahqjwo","5ffe235ea848b74a3b3ccd07","fixation","img/fixation.png","null","","test","","","","","",""
"319.2000000011176","489472","pSARL_v2","pSARL_v2jmahqjwo","5ffe235ea848b74a3b3ccd07","freq","img/green_2bandit_b2.png","70","70","test","1","156","156","8","",""
"null","489961","pSARL_v2","pSARL_v2jmahqjwo","5ffe235ea848b74a3b3ccd07","freq_resp","img/green_2bandit_b.png","70","70","test","","","","8","",""
"null","490129","pSARL_v2","pSARL_v2jmahqjwo","5ffe235ea848b74a3b3ccd07","fixation","img/fixation.png","null","","test","","","","","",""
"324.80000000074506","490457","pSARL_v2","pSARL_v2jmahqjwo","5ffe235ea848b74a3b3ccd07","freq","img/green_2bandit_b2.png","70","70","test","1","157","157","8","",""
"null","490941","pSARL_v2","pSARL_v2jmahqjwo","5ffe235ea848b74a3b3ccd07","freq_resp","img/green_2bandit_b.png","70","70","test","","","","8","",""
"null","491110","pSARL_v2","pSARL_v2jmahqjwo","5ffe235ea848b74a3b3ccd07","fixation","img/fixation.png","null","","test","","","","","",""
"297.2000000011176","491410","pSARL_v2","pSARL_v2jmahqjwo","5ffe235ea848b74a3b3ccd07","freq","img/green_2bandit_b2.png","70","70","test","1","158","158","8","",""
"null","491925","pSARL_v2","pSARL_v2jmahqjwo","5ffe235ea848b74a3b3ccd07","freq_resp","img/green_2bandit_b.png","70","70","test","","","","8","",""
"null","492093","pSARL_v2","pSARL_v2jmahqjwo","5ffe235ea848b74a3b3ccd07","fixation","img/fixation.png","null","","test","","","","","",""
"362.30000000074506","492459","pSARL_v2","pSARL_v2jmahqjwo","5ffe235ea848b74a3b3ccd07","freq","img/green_2bandit_b2.png","70","70","test","1","159","159","8","",""
"null","492907","pSARL_v2","pSARL_v2jmahqjwo","5ffe235ea848b74a3b3ccd07","freq_resp","img/green_2bandit_b.png","70","70","test","","","","8","",""
"null","493077","pSARL_v2","pSARL_v2jmahqjwo","5ffe235ea848b74a3b3ccd07","fixation","img/fixation.png","null","","test","","","","","",""
"414.1000000014901","493495","pSARL_v2","pSARL_v2jmahqjwo","5ffe235ea848b74a3b3ccd07","infreq","img/orange_2bandit_b2.png","68","68","test","1","160","160","8","",""
"null","493888","pSARL_v2","pSARL_v2jmahqjwo","5ffe235ea848b74a3b3ccd07","infreq_resp","img/orange_2bandit_b.png","68","68","test","","","","8","",""
"null","494057","pSARL_v2","pSARL_v2jmahqjwo","5ffe235ea848b74a3b3ccd07","fixation","img/fixation.png","null","","test","","","","","",""
"408.40000000037253","494469","pSARL_v2","pSARL_v2jmahqjwo","5ffe235ea848b74a3b3ccd07","freq","img/green_2bandit_b2.png","70","70","test","1","161","161","8","",""
"null","494869","pSARL_v2","pSARL_v2jmahqjwo","5ffe235ea848b74a3b3ccd07","freq_resp","img/green_2bandit_b.png","70","70","test","","","","8","",""
"null","495044","pSARL_v2","pSARL_v2jmahqjwo","5ffe235ea848b74a3b3ccd07","fixation","img/fixation.png","null","","test","","","","","",""
"329.80000000074506","495377","pSARL_v2","pSARL_v2jmahqjwo","5ffe235ea848b74a3b3ccd07","freq","img/green_2bandit_b2.png","70","70","test","1","162","162","8","",""
"null","495854","pSARL_v2","pSARL_v2jmahqjwo","5ffe235ea848b74a3b3ccd07","freq_resp","img/green_2bandit_b.png","70","70","test","","","","8","",""
"null","496009","pSARL_v2","pSARL_v2jmahqjwo","5ffe235ea848b74a3b3ccd07","fixation","img/fixation.png","null","","test","","","","","",""
"322.7000000011176","496335","pSARL_v2","pSARL_v2jmahqjwo","5ffe235ea848b74a3b3ccd07","freq","img/green_2bandit_b2.png","70","70","test","1","163","163","8","",""
"null","496822","pSARL_v2","pSARL_v2jmahqjwo","5ffe235ea848b74a3b3ccd07","freq_resp","img/green_2bandit_b.png","70","70","test","","","","8","",""
"null","496990","pSARL_v2","pSARL_v2jmahqjwo","5ffe235ea848b74a3b3ccd07","fixation","img/fixation.png","null","","test","","","","","",""
"321.30000000074506","497314","pSARL_v2","pSARL_v2jmahqjwo","5ffe235ea848b74a3b3ccd07","freq","img/green_2bandit_b2.png","70","70","test","1","164","164","8","",""
"null","497806","pSARL_v2","pSARL_v2jmahqjwo","5ffe235ea848b74a3b3ccd07","freq_resp","img/green_2bandit_b.png","70","70","test","","","","8","",""
"null","497975","pSARL_v2","pSARL_v2jmahqjwo","5ffe235ea848b74a3b3ccd07","fixation","img/fixation.png","null","","test","","","","","",""
"318.59999999962747","498297","pSARL_v2","pSARL_v2jmahqjwo","5ffe235ea848b74a3b3ccd07","freq","img/green_2bandit_b2.png","70","70","test","1","165","165","8","",""
"null","498788","pSARL_v2","pSARL_v2jmahqjwo","5ffe235ea848b74a3b3ccd07","freq_resp","img/green_2bandit_b.png","70","70","test","","","","8","",""
"null","498957","pSARL_v2","pSARL_v2jmahqjwo","5ffe235ea848b74a3b3ccd07","fixation","img/fixation.png","null","","test","","","","","",""
"310.2000000011176","499270","pSARL_v2","pSARL_v2jmahqjwo","5ffe235ea848b74a3b3ccd07","freq","img/green_2bandit_b2.png","70","70","test","1","166","166","8","",""
"null","499769","pSARL_v2","pSARL_v2jmahqjwo","5ffe235ea848b74a3b3ccd07","freq_resp","img/green_2bandit_b.png","70","70","test","","","","8","",""
"null","499934","pSARL_v2","pSARL_v2jmahqjwo","5ffe235ea848b74a3b3ccd07","fixation","img/fixation.png","null","","test","","","","","",""
"303.40000000037253","500241","pSARL_v2","pSARL_v2jmahqjwo","5ffe235ea848b74a3b3ccd07","freq","img/green_2bandit_b2.png","70","70","test","1","167","167","8","",""
"null","500752","pSARL_v2","pSARL_v2jmahqjwo","5ffe235ea848b74a3b3ccd07","freq_resp","img/green_2bandit_b.png","70","70","test","","","","8","",""
"null","500920","pSARL_v2","pSARL_v2jmahqjwo","5ffe235ea848b74a3b3ccd07","fixation","img/fixation.png","null","","test","","","","","",""
"377","501300","pSARL_v2","pSARL_v2jmahqjwo","5ffe235ea848b74a3b3ccd07","freq","img/green_2bandit_b2.png","70","70","test","1","168","168","8","",""
"null","501734","pSARL_v2","pSARL_v2jmahqjwo","5ffe235ea848b74a3b3ccd07","freq_resp","img/green_2bandit_b.png","70","70","test","","","","8","",""
"null","501888","pSARL_v2","pSARL_v2jmahqjwo","5ffe235ea848b74a3b3ccd07","fixation","img/fixation.png","null","","test","","","","","",""
"315","502206","pSARL_v2","pSARL_v2jmahqjwo","5ffe235ea848b74a3b3ccd07","freq","img/green_2bandit_b2.png","70","70","test","1","169","169","8","",""
"null","502702","pSARL_v2","pSARL_v2jmahqjwo","5ffe235ea848b74a3b3ccd07","freq_resp","img/green_2bandit_b.png","70","70","test","","","","8","",""
"null","502871","pSARL_v2","pSARL_v2jmahqjwo","5ffe235ea848b74a3b3ccd07","fixation","img/fixation.png","null","","test","","","","","",""
"368.3999999985099","503243","pSARL_v2","pSARL_v2jmahqjwo","5ffe235ea848b74a3b3ccd07","freq","img/green_2bandit_b2.png","70","70","test","1","170","170","8","",""
"null","503684","pSARL_v2","pSARL_v2jmahqjwo","5ffe235ea848b74a3b3ccd07","freq_resp","img/green_2bandit_b.png","70","70","test","","","","8","",""
"null","503838","pSARL_v2","pSARL_v2jmahqjwo","5ffe235ea848b74a3b3ccd07","fixation","img/fixation.png","null","","test","","","","","",""
"469.7000000011176","504310","pSARL_v2","pSARL_v2jmahqjwo","5ffe235ea848b74a3b3ccd07","infreq","img/orange_2bandit_b2.png","68","68","test","1","171","171","8","",""
"null","504651","pSARL_v2","pSARL_v2jmahqjwo","5ffe235ea848b74a3b3ccd07","infreq_resp","img/orange_2bandit_b.png","68","68","test","","","","8","",""
"null","504806","pSARL_v2","pSARL_v2jmahqjwo","5ffe235ea848b74a3b3ccd07","fixation","img/fixation.png","null","","test","","","","","",""
"467.40000000037253","505277","pSARL_v2","pSARL_v2jmahqjwo","5ffe235ea848b74a3b3ccd07","freq","img/green_2bandit_b2.png","70","70","test","1","172","172","8","",""
"null","505621","pSARL_v2","pSARL_v2jmahqjwo","5ffe235ea848b74a3b3ccd07","freq_resp","img/green_2bandit_b.png","70","70","test","","","","8","",""
"null","505788","pSARL_v2","pSARL_v2jmahqjwo","5ffe235ea848b74a3b3ccd07","fixation","img/fixation.png","null","","test","","","","","",""
"359","506150","pSARL_v2","pSARL_v2jmahqjwo","5ffe235ea848b74a3b3ccd07","freq","img/green_2bandit_b2.png","70","70","test","1","173","173","8","",""
"null","506600","pSARL_v2","pSARL_v2jmahqjwo","5ffe235ea848b74a3b3ccd07","freq_resp","img/green_2bandit_b.png","70","70","test","","","","8","",""
"null","506768","pSARL_v2","pSARL_v2jmahqjwo","5ffe235ea848b74a3b3ccd07","fixation","img/fixation.png","null","","test","","","","","",""
"333.09999999962747","507104","pSARL_v2","pSARL_v2jmahqjwo","5ffe235ea848b74a3b3ccd07","freq","img/green_2bandit_b2.png","70","70","test","1","174","174","8","",""
"null","507582","pSARL_v2","pSARL_v2jmahqjwo","5ffe235ea848b74a3b3ccd07","freq_resp","img/green_2bandit_b.png","70","70","test","","","","8","",""
"null","507750","pSARL_v2","pSARL_v2jmahqjwo","5ffe235ea848b74a3b3ccd07","fixation","img/fixation.png","null","","test","","","","","",""
"310.7999999988824","508066","pSARL_v2","pSARL_v2jmahqjwo","5ffe235ea848b74a3b3ccd07","freq","img/green_2bandit_b2.png","70","70","test","1","175","175","8","",""
"null","508565","pSARL_v2","pSARL_v2jmahqjwo","5ffe235ea848b74a3b3ccd07","freq_resp","img/green_2bandit_b.png","70","70","test","","","","8","",""
"null","508733","pSARL_v2","pSARL_v2jmahqjwo","5ffe235ea848b74a3b3ccd07","fixation","img/fixation.png","null","","test","","","","","",""
"339.80000000074506","509077","pSARL_v2","pSARL_v2jmahqjwo","5ffe235ea848b74a3b3ccd07","freq","img/green_2bandit_b2.png","70","70","test","1","176","176","8","",""
"null","509547","pSARL_v2","pSARL_v2jmahqjwo","5ffe235ea848b74a3b3ccd07","freq_resp","img/green_2bandit_b.png","70","70","test","","","","8","",""
"null","509701","pSARL_v2","pSARL_v2jmahqjwo","5ffe235ea848b74a3b3ccd07","fixation","img/fixation.png","null","","test","","","","","",""
"482.09999999962747","510187","pSARL_v2","pSARL_v2jmahqjwo","5ffe235ea848b74a3b3ccd07","reward","img/slot.png","74","","test","","","","","",""
"null","510949","pSARL_v2","pSARL_v2jmahqjwo","5ffe235ea848b74a3b3ccd07","points","<div class=""verylowPoints""> -4 </div>","null","na","test","","","","8","-4","7"
"434.40000000037253","511387","pSARL_v2","pSARL_v2jmahqjwo","5ffe235ea848b74a3b3ccd07","freq","img/green_2bandit_b2.png","70","70","test","1","177","177","9","",""
"null","511765","pSARL_v2","pSARL_v2jmahqjwo","5ffe235ea848b74a3b3ccd07","freq_resp","img/green_2bandit_b.png","70","70","test","","","","9","",""
"null","511933","pSARL_v2","pSARL_v2jmahqjwo","5ffe235ea848b74a3b3ccd07","fixation","img/fixation.png","null","","test","","","","","",""
"454.09999999962747","512392","pSARL_v2","pSARL_v2jmahqjwo","5ffe235ea848b74a3b3ccd07","infreq","img/orange_2bandit_b2.png","68","68","test","1","178","178","9","",""
"null","512745","pSARL_v2","pSARL_v2jmahqjwo","5ffe235ea848b74a3b3ccd07","infreq_resp","img/orange_2bandit_b.png","68","68","test","","","","9","",""
"null","512900","pSARL_v2","pSARL_v2jmahqjwo","5ffe235ea848b74a3b3ccd07","fixation","img/fixation.png","null","","test","","","","","",""
"409.3999999985099","513314","pSARL_v2","pSARL_v2jmahqjwo","5ffe235ea848b74a3b3ccd07","freq","img/green_2bandit_b2.png","70","70","test","1","179","179","9","",""
"null","513713","pSARL_v2","pSARL_v2jmahqjwo","5ffe235ea848b74a3b3ccd07","freq_resp","img/green_2bandit_b.png","70","70","test","","","","9","",""
"null","513867","pSARL_v2","pSARL_v2jmahqjwo","5ffe235ea848b74a3b3ccd07","fixation","img/fixation.png","null","","test","","","","","",""
"367.90000000037253","514239","pSARL_v2","pSARL_v2jmahqjwo","5ffe235ea848b74a3b3ccd07","freq","img/green_2bandit_b2.png","70","70","test","1","180","180","9","",""
"null","514682","pSARL_v2","pSARL_v2jmahqjwo","5ffe235ea848b74a3b3ccd07","freq_resp","img/green_2bandit_b.png","70","70","test","","","","9","",""
"null","514851","pSARL_v2","pSARL_v2jmahqjwo","5ffe235ea848b74a3b3ccd07","fixation","img/fixation.png","null","","test","","","","","",""
"354.6000000014901","515209","pSARL_v2","pSARL_v2jmahqjwo","5ffe235ea848b74a3b3ccd07","freq","img/green_2bandit_b2.png","70","70","test","1","181","181","9","",""
"null","515665","pSARL_v2","pSARL_v2jmahqjwo","5ffe235ea848b74a3b3ccd07","freq_resp","img/green_2bandit_b.png","70","70","test","","","","9","",""
"null","515820","pSARL_v2","pSARL_v2jmahqjwo","5ffe235ea848b74a3b3ccd07","fixation","img/fixation.png","null","","test","","","","","",""
"352.09999999962747","516176","pSARL_v2","pSARL_v2jmahqjwo","5ffe235ea848b74a3b3ccd07","freq","img/green_2bandit_b2.png","70","70","test","1","182","182","9","",""
"null","516635","pSARL_v2","pSARL_v2jmahqjwo","5ffe235ea848b74a3b3ccd07","freq_resp","img/green_2bandit_b.png","70","70","test","","","","9","",""
"null","516804","pSARL_v2","pSARL_v2jmahqjwo","5ffe235ea848b74a3b3ccd07","fixation","img/fixation.png","null","","test","","","","","",""
"468.5","517276","pSARL_v2","pSARL_v2jmahqjwo","5ffe235ea848b74a3b3ccd07","infreq","img/orange_2bandit_b2.png","68","68","test","1","183","183","9","",""
"null","517616","pSARL_v2","pSARL_v2jmahqjwo","5ffe235ea848b74a3b3ccd07","infreq_resp","img/orange_2bandit_b.png","68","68","test","","","","9","",""
"null","517785","pSARL_v2","pSARL_v2jmahqjwo","5ffe235ea848b74a3b3ccd07","fixation","img/fixation.png","null","","test","","","","","",""
"414.40000000037253","518202","pSARL_v2","pSARL_v2jmahqjwo","5ffe235ea848b74a3b3ccd07","freq","img/green_2bandit_b2.png","70","70","test","1","184","184","9","",""
"null","518600","pSARL_v2","pSARL_v2jmahqjwo","5ffe235ea848b74a3b3ccd07","freq_resp","img/green_2bandit_b.png","70","70","test","","","","9","",""
"null","518768","pSARL_v2","pSARL_v2jmahqjwo","5ffe235ea848b74a3b3ccd07","fixation","img/fixation.png","null","","test","","","","","",""
"388.2000000011176","519160","pSARL_v2","pSARL_v2jmahqjwo","5ffe235ea848b74a3b3ccd07","freq","img/green_2bandit_b2.png","70","70","test","1","185","185","9","",""
"null","519582","pSARL_v2","pSARL_v2jmahqjwo","5ffe235ea848b74a3b3ccd07","freq_resp","img/green_2bandit_b.png","70","70","test","","","","9","",""
"null","519738","pSARL_v2","pSARL_v2jmahqjwo","5ffe235ea848b74a3b3ccd07","fixation","img/fixation.png","null","","test","","","","","",""
"360.19999999925494","520102","pSARL_v2","pSARL_v2jmahqjwo","5ffe235ea848b74a3b3ccd07","freq","img/green_2bandit_b2.png","70","70","test","1","186","186","9","",""
"null","520551","pSARL_v2","pSARL_v2jmahqjwo","5ffe235ea848b74a3b3ccd07","freq_resp","img/green_2bandit_b.png","70","70","test","","","","9","",""
"null","520705","pSARL_v2","pSARL_v2jmahqjwo","5ffe235ea848b74a3b3ccd07","fixation","img/fixation.png","null","","test","","","","","",""
"329.09999999962747","521037","pSARL_v2","pSARL_v2jmahqjwo","5ffe235ea848b74a3b3ccd07","freq","img/green_2bandit_b2.png","70","70","test","1","187","187","9","",""
"null","521519","pSARL_v2","pSARL_v2jmahqjwo","5ffe235ea848b74a3b3ccd07","freq_resp","img/green_2bandit_b.png","70","70","test","","","","9","",""
"null","521687","pSARL_v2","pSARL_v2jmahqjwo","5ffe235ea848b74a3b3ccd07","fixation","img/fixation.png","null","","test","","","","","",""
"381.2000000011176","522072","pSARL_v2","pSARL_v2jmahqjwo","5ffe235ea848b74a3b3ccd07","freq","img/green_2bandit_b2.png","70","70","test","1","188","188","9","",""
"null","522500","pSARL_v2","pSARL_v2jmahqjwo","5ffe235ea848b74a3b3ccd07","freq_resp","img/green_2bandit_b.png","70","70","test","","","","9","",""
"null","522654","pSARL_v2","pSARL_v2jmahqjwo","5ffe235ea848b74a3b3ccd07","fixation","img/fixation.png","null","","test","","","","","",""
"410","523068","pSARL_v2","pSARL_v2jmahqjwo","5ffe235ea848b74a3b3ccd07","freq","img/green_2bandit_b2.png","70","70","test","1","189","189","9","",""
"null","523470","pSARL_v2","pSARL_v2jmahqjwo","5ffe235ea848b74a3b3ccd07","freq_resp","img/green_2bandit_b.png","70","70","test","","","","9","",""
"null","523624","pSARL_v2","pSARL_v2jmahqjwo","5ffe235ea848b74a3b3ccd07","fixation","img/fixation.png","null","","test","","","","","",""
"331.69999999925494","523960","pSARL_v2","pSARL_v2jmahqjwo","5ffe235ea848b74a3b3ccd07","freq","img/green_2bandit_b2.png","70","70","test","1","190","190","9","",""
"null","524437","pSARL_v2","pSARL_v2jmahqjwo","5ffe235ea848b74a3b3ccd07","freq_resp","img/green_2bandit_b.png","70","70","test","","","","9","",""
"null","524605","pSARL_v2","pSARL_v2jmahqjwo","5ffe235ea848b74a3b3ccd07","fixation","img/fixation.png","null","","test","","","","","",""
"319.40000000037253","524931","pSARL_v2","pSARL_v2jmahqjwo","5ffe235ea848b74a3b3ccd07","freq","img/green_2bandit_b2.png","70","70","test","1","191","191","9","",""
"null","525419","pSARL_v2","pSARL_v2jmahqjwo","5ffe235ea848b74a3b3ccd07","freq_resp","img/green_2bandit_b.png","70","70","test","","","","9","",""
"null","525573","pSARL_v2","pSARL_v2jmahqjwo","5ffe235ea848b74a3b3ccd07","fixation","img/fixation.png","null","","test","","","","","",""
"340.80000000074506","525917","pSARL_v2","pSARL_v2jmahqjwo","5ffe235ea848b74a3b3ccd07","freq","img/green_2bandit_b2.png","70","70","test","1","192","192","9","",""
"null","526387","pSARL_v2","pSARL_v2jmahqjwo","5ffe235ea848b74a3b3ccd07","freq_resp","img/green_2bandit_b.png","70","70","test","","","","9","",""
"null","526556","pSARL_v2","pSARL_v2jmahqjwo","5ffe235ea848b74a3b3ccd07","fixation","img/fixation.png","null","","test","","","","","",""
"313.30000000074506","526873","pSARL_v2","pSARL_v2jmahqjwo","5ffe235ea848b74a3b3ccd07","freq","img/green_2bandit_b2.png","70","70","test","1","193","193","9","",""
"null","527372","pSARL_v2","pSARL_v2jmahqjwo","5ffe235ea848b74a3b3ccd07","freq_resp","img/green_2bandit_b.png","70","70","test","","","","9","",""
"null","527540","pSARL_v2","pSARL_v2jmahqjwo","5ffe235ea848b74a3b3ccd07","fixation","img/fixation.png","null","","test","","","","","",""
"296.7000000011176","527841","pSARL_v2","pSARL_v2jmahqjwo","5ffe235ea848b74a3b3ccd07","freq","img/green_2bandit_b2.png","70","70","test","1","194","194","9","",""
"null","528352","pSARL_v2","pSARL_v2jmahqjwo","5ffe235ea848b74a3b3ccd07","freq_resp","img/green_2bandit_b.png","70","70","test","","","","9","",""
"null","528520","pSARL_v2","pSARL_v2jmahqjwo","5ffe235ea848b74a3b3ccd07","fixation","img/fixation.png","null","","test","","","","","",""
"299.69999999925494","528823","pSARL_v2","pSARL_v2jmahqjwo","5ffe235ea848b74a3b3ccd07","freq","img/green_2bandit_b2.png","70","70","test","1","195","195","9","",""
"null","529336","pSARL_v2","pSARL_v2jmahqjwo","5ffe235ea848b74a3b3ccd07","freq_resp","img/green_2bandit_b.png","70","70","test","","","","9","",""
"null","529505","pSARL_v2","pSARL_v2jmahqjwo","5ffe235ea848b74a3b3ccd07","fixation","img/fixation.png","null","","test","","","","","",""
"282.3999999985099","529791","pSARL_v2","pSARL_v2jmahqjwo","5ffe235ea848b74a3b3ccd07","freq","img/green_2bandit_b2.png","70","70","test","1","196","196","9","",""
"null","530319","pSARL_v2","pSARL_v2jmahqjwo","5ffe235ea848b74a3b3ccd07","freq_resp","img/green_2bandit_b.png","70","70","test","","","","9","",""
"null","530487","pSARL_v2","pSARL_v2jmahqjwo","5ffe235ea848b74a3b3ccd07","fixation","img/fixation.png","null","","test","","","","","",""
"311.90000000037253","530802","pSARL_v2","pSARL_v2jmahqjwo","5ffe235ea848b74a3b3ccd07","freq","img/green_2bandit_b2.png","70","70","test","1","197","197","9","",""
"null","531302","pSARL_v2","pSARL_v2jmahqjwo","5ffe235ea848b74a3b3ccd07","freq_resp","img/green_2bandit_b.png","70","70","test","","","","9","",""
"null","531470","pSARL_v2","pSARL_v2jmahqjwo","5ffe235ea848b74a3b3ccd07","fixation","img/fixation.png","null","","test","","","","","",""
"347.3999999985099","531821","pSARL_v2","pSARL_v2jmahqjwo","5ffe235ea848b74a3b3ccd07","freq","img/green_2bandit_b2.png","70","70","test","1","198","198","9","",""
"null","532282","pSARL_v2","pSARL_v2jmahqjwo","5ffe235ea848b74a3b3ccd07","freq_resp","img/green_2bandit_b.png","70","70","test","","","","9","",""
"null","532451","pSARL_v2","pSARL_v2jmahqjwo","5ffe235ea848b74a3b3ccd07","fixation","img/fixation.png","null","","test","","","","","",""
"324.2999999988824","532779","pSARL_v2","pSARL_v2jmahqjwo","5ffe235ea848b74a3b3ccd07","freq","img/green_2bandit_b2.png","70","70","test","1","199","199","9","",""
"null","533265","pSARL_v2","pSARL_v2jmahqjwo","5ffe235ea848b74a3b3ccd07","freq_resp","img/green_2bandit_b.png","70","70","test","","","","9","",""
"null","533419","pSARL_v2","pSARL_v2jmahqjwo","5ffe235ea848b74a3b3ccd07","fixation","img/fixation.png","null","","test","","","","","",""
"474","533897","pSARL_v2","pSARL_v2jmahqjwo","5ffe235ea848b74a3b3ccd07","infreq","img/orange_2bandit_b2.png","68","68","test","1","200","200","9","",""
"null","534231","pSARL_v2","pSARL_v2jmahqjwo","5ffe235ea848b74a3b3ccd07","infreq_resp","img/orange_2bandit_b.png","68","68","test","","","","9","",""
"null","534385","pSARL_v2","pSARL_v2jmahqjwo","5ffe235ea848b74a3b3ccd07","fixation","img/fixation.png","null","","test","","","","","",""
"451.5","534839","pSARL_v2","pSARL_v2jmahqjwo","5ffe235ea848b74a3b3ccd07","freq","img/green_2bandit_b2.png","70","70","test","1","201","201","9","",""
"null","535199","pSARL_v2","pSARL_v2jmahqjwo","5ffe235ea848b74a3b3ccd07","freq_resp","img/green_2bandit_b.png","70","70","test","","","","9","",""
"null","535352","pSARL_v2","pSARL_v2jmahqjwo","5ffe235ea848b74a3b3ccd07","fixation","img/fixation.png","null","","test","","","","","",""
"382.2000000011176","535737","pSARL_v2","pSARL_v2jmahqjwo","5ffe235ea848b74a3b3ccd07","freq","img/green_2bandit_b2.png","70","70","test","1","202","202","9","",""
"null","536165","pSARL_v2","pSARL_v2jmahqjwo","5ffe235ea848b74a3b3ccd07","freq_resp","img/green_2bandit_b.png","70","70","test","","","","9","",""
"null","536320","pSARL_v2","pSARL_v2jmahqjwo","5ffe235ea848b74a3b3ccd07","fixation","img/fixation.png","null","","test","","","","","",""
"355.40000000037253","536679","pSARL_v2","pSARL_v2jmahqjwo","5ffe235ea848b74a3b3ccd07","freq","img/green_2bandit_b2.png","70","70","test","1","203","203","9","",""
"null","537137","pSARL_v2","pSARL_v2jmahqjwo","5ffe235ea848b74a3b3ccd07","freq_resp","img/green_2bandit_b.png","70","70","test","","","","9","",""
"null","537306","pSARL_v2","pSARL_v2jmahqjwo","5ffe235ea848b74a3b3ccd07","fixation","img/fixation.png","null","","test","","","","","",""
"443.90000000037253","537753","pSARL_v2","pSARL_v2jmahqjwo","5ffe235ea848b74a3b3ccd07","reward","img/slot.png","74","","test","","","","","",""
"null","538519","pSARL_v2","pSARL_v2jmahqjwo","5ffe235ea848b74a3b3ccd07","points","<div class=""verylowPoints""> -3 </div>","null","na","test","","","","9","-3","8"
"363.30000000074506","538886","pSARL_v2","pSARL_v2jmahqjwo","5ffe235ea848b74a3b3ccd07","freq","img/green_2bandit_b2.png","70","70","test","1","204","204","10","",""
"null","539334","pSARL_v2","pSARL_v2jmahqjwo","5ffe235ea848b74a3b3ccd07","freq_resp","img/green_2bandit_b.png","70","70","test","","","","10","",""
"null","539501","pSARL_v2","pSARL_v2jmahqjwo","5ffe235ea848b74a3b3ccd07","fixation","img/fixation.png","null","","test","","","","","",""
"290.7999999988824","539795","pSARL_v2","pSARL_v2jmahqjwo","5ffe235ea848b74a3b3ccd07","freq","img/green_2bandit_b2.png","70","70","test","1","205","205","10","",""
"null","540313","pSARL_v2","pSARL_v2jmahqjwo","5ffe235ea848b74a3b3ccd07","freq_resp","img/green_2bandit_b.png","70","70","test","","","","10","",""
"null","540481","pSARL_v2","pSARL_v2jmahqjwo","5ffe235ea848b74a3b3ccd07","fixation","img/fixation.png","null","","test","","","","","",""
