"rt","time_elapsed","expId","subject","prolificID","trialType","stimulus","key_press","corrresp","phase","corr","trialNum","attentionRunNum","blockNum","points","rlNum"
"6231.700000047684","6239","pSARL_v2","pSARL_v2m8c3bwpg","5671927473f58b000d664293","","","","","","","","","","",""
"","9057","pSARL_v2","pSARL_v2m8c3bwpg","5671927473f58b000d664293","fullscreen","","","","","","","","","",""
"90979.90000009537","100042","pSARL_v2","pSARL_v2m8c3bwpg","5671927473f58b000d664293","","","","","","","","","","",""
"null","100857","pSARL_v2","pSARL_v2m8c3bwpg","5671927473f58b000d664293","freqPrac","img/green_2bandit_b2.png","null","70","prac","0","","","","",""
"null","101870","pSARL_v2","pSARL_v2m8c3bwpg","5671927473f58b000d664293","feedback","img/tooSlow.png","null","na","prac","","","","","",""
"null","102040","pSARL_v2","pSARL_v2m8c3bwpg","5671927473f58b000d664293","fixation","img/fixation.png","null","","prac","","","","","",""
"null","102856","pSARL_v2","pSARL_v2m8c3bwpg","5671927473f58b000d664293","infreqPrac","img/orange_2bandit_b2.png","null","68","prac","0","","","","",""
"null","103869","pSARL_v2","pSARL_v2m8c3bwpg","5671927473f58b000d664293","feedback","img/tooSlow.png","null","na","prac","","","","","",""
"null","104025","pSARL_v2","pSARL_v2m8c3bwpg","5671927473f58b000d664293","fixation","img/fixation.png","null","","prac","","","","","",""
"683.5","104712","pSARL_v2","pSARL_v2m8c3bwpg","5671927473f58b000d664293","freqPrac","img/green_2bandit_b2.png","70","70","prac","1","","","","",""
"683.5","104840","pSARL_v2","pSARL_v2m8c3bwpg","5671927473f58b000d664293","freqPrac_resp","img/green_2bandit_b.png","70","70","prac","","","","","",""
"null","105009","pSARL_v2","pSARL_v2m8c3bwpg","5671927473f58b000d664293","fixation","img/fixation.png","null","","prac","","","","","",""
"531.1000000238419","105543","pSARL_v2","pSARL_v2m8c3bwpg","5671927473f58b000d664293","infreqPrac","img/orange_2bandit_b2.png","68","68","prac","1","","","","",""
"531.1000000238419","105824","pSARL_v2","pSARL_v2m8c3bwpg","5671927473f58b000d664293","infreqPrac_resp","img/orange_2bandit_b.png","68","68","prac","","","","","",""
"null","105992","pSARL_v2","pSARL_v2m8c3bwpg","5671927473f58b000d664293","fixation","img/fixation.png","null","","prac","","","","","",""
"404.09999990463257","106401","pSARL_v2","pSARL_v2m8c3bwpg","5671927473f58b000d664293","infreqPrac","img/orange_2bandit_b2.png","68","68","prac","1","","","","",""
"404.09999990463257","106808","pSARL_v2","pSARL_v2m8c3bwpg","5671927473f58b000d664293","infreqPrac_resp","img/orange_2bandit_b.png","68","68","prac","","","","","",""
"null","106962","pSARL_v2","pSARL_v2m8c3bwpg","5671927473f58b000d664293","fixation","img/fixation.png","null","","prac","","","","","",""
"329.90000009536743","107295","pSARL_v2","pSARL_v2m8c3bwpg","5671927473f58b000d664293","infreqPrac","img/orange_2bandit_b2.png","68","68","prac","1","","","","",""
"329.90000009536743","107771","pSARL_v2","pSARL_v2m8c3bwpg","5671927473f58b000d664293","infreqPrac_resp","img/orange_2bandit_b.png","68","68","prac","","","","","",""
"null","107939","pSARL_v2","pSARL_v2m8c3bwpg","5671927473f58b000d664293","fixation","img/fixation.png","null","","prac","","","","","",""
"393.6999999284744","108336","pSARL_v2","pSARL_v2m8c3bwpg","5671927473f58b000d664293","freqPrac","img/green_2bandit_b2.png","70","70","prac","1","","","","",""
"393.6999999284744","108755","pSARL_v2","pSARL_v2m8c3bwpg","5671927473f58b000d664293","freqPrac_resp","img/green_2bandit_b.png","70","70","prac","","","","","",""
"null","108922","pSARL_v2","pSARL_v2m8c3bwpg","5671927473f58b000d664293","fixation","img/fixation.png","null","","prac","","","","","",""
"338.10000002384186","109264","pSARL_v2","pSARL_v2m8c3bwpg","5671927473f58b000d664293","infreqPrac","img/orange_2bandit_b2.png","68","68","prac","1","","","","",""
"338.10000002384186","109737","pSARL_v2","pSARL_v2m8c3bwpg","5671927473f58b000d664293","infreqPrac_resp","img/orange_2bandit_b.png","68","68","prac","","","","","",""
"null","109905","pSARL_v2","pSARL_v2m8c3bwpg","5671927473f58b000d664293","fixation","img/fixation.png","null","","prac","","","","","",""
"315.10000002384186","110224","pSARL_v2","pSARL_v2m8c3bwpg","5671927473f58b000d664293","freqPrac","img/green_2bandit_b2.png","70","70","prac","1","","","","",""
"315.10000002384186","110719","pSARL_v2","pSARL_v2m8c3bwpg","5671927473f58b000d664293","freqPrac_resp","img/green_2bandit_b.png","70","70","prac","","","","","",""
"null","110888","pSARL_v2","pSARL_v2m8c3bwpg","5671927473f58b000d664293","fixation","img/fixation.png","null","","prac","","","","","",""
"275.7999999523163","111167","pSARL_v2","pSARL_v2m8c3bwpg","5671927473f58b000d664293","freqPrac","img/green_2bandit_b2.png","68","70","prac","0","","","","",""
"275.7999999523163","111702","pSARL_v2","pSARL_v2m8c3bwpg","5671927473f58b000d664293","freqPrac_resp","img/green_2bandit_b.png","68","70","prac","","","","","",""
"null","112716","pSARL_v2","pSARL_v2m8c3bwpg","5671927473f58b000d664293","feedback","img/wrongKey.png","null","na","prac","","","","","",""
"null","112884","pSARL_v2","pSARL_v2m8c3bwpg","5671927473f58b000d664293","fixation","img/fixation.png","null","","prac","","","","","",""
"16279.899999976158","129168","pSARL_v2","pSARL_v2m8c3bwpg","5671927473f58b000d664293","","","","","prac","","","","","",""
"475.3000000715256","129647","pSARL_v2","pSARL_v2m8c3bwpg","5671927473f58b000d664293","rewardPractice","img/slot.png","74","","prac","","","","","",""
"null","130408","pSARL_v2","pSARL_v2m8c3bwpg","5671927473f58b000d664293","feedback","<div class=""veryhighPoints""> +15 </div>","null","na","prac","","","","","",""
"null","130576","pSARL_v2","pSARL_v2m8c3bwpg","5671927473f58b000d664293","fixation","img/fixation.png","null","","prac","","","","","",""
"10012.5","140593","pSARL_v2","pSARL_v2m8c3bwpg","5671927473f58b000d664293","","","","","prac","","","","","",""
"370.7000000476837","140968","pSARL_v2","pSARL_v2m8c3bwpg","5671927473f58b000d664293","freq","img/green_2bandit_b2.png","70","70","test","1","1","1","1","",""
"null","141408","pSARL_v2","pSARL_v2m8c3bwpg","5671927473f58b000d664293","freq_resp","img/green_2bandit_b.png","70","70","test","","","","1","",""
"null","141564","pSARL_v2","pSARL_v2m8c3bwpg","5671927473f58b000d664293","fixation","img/fixation.png","null","","test","","","","","",""
"375.2000000476837","141945","pSARL_v2","pSARL_v2m8c3bwpg","5671927473f58b000d664293","freq","img/green_2bandit_b2.png","70","70","test","1","2","2","1","",""
"null","142382","pSARL_v2","pSARL_v2m8c3bwpg","5671927473f58b000d664293","freq_resp","img/green_2bandit_b.png","70","70","test","","","","1","",""
"null","142550","pSARL_v2","pSARL_v2m8c3bwpg","5671927473f58b000d664293","fixation","img/fixation.png","null","","test","","","","","",""
"365.2999999523163","142920","pSARL_v2","pSARL_v2m8c3bwpg","5671927473f58b000d664293","freq","img/green_2bandit_b2.png","70","70","test","1","3","3","1","",""
"null","143365","pSARL_v2","pSARL_v2m8c3bwpg","5671927473f58b000d664293","freq_resp","img/green_2bandit_b.png","70","70","test","","","","1","",""
"null","143520","pSARL_v2","pSARL_v2m8c3bwpg","5671927473f58b000d664293","fixation","img/fixation.png","null","","test","","","","","",""
"347.7000000476837","143871","pSARL_v2","pSARL_v2m8c3bwpg","5671927473f58b000d664293","freq","img/green_2bandit_b2.png","70","70","test","1","4","4","1","",""
"null","144333","pSARL_v2","pSARL_v2m8c3bwpg","5671927473f58b000d664293","freq_resp","img/green_2bandit_b.png","70","70","test","","","","1","",""
"null","144487","pSARL_v2","pSARL_v2m8c3bwpg","5671927473f58b000d664293","fixation","img/fixation.png","null","","test","","","","","",""
"341.09999990463257","144831","pSARL_v2","pSARL_v2m8c3bwpg","5671927473f58b000d664293","freq","img/green_2bandit_b2.png","70","70","test","1","5","5","1","",""
"null","145302","pSARL_v2","pSARL_v2m8c3bwpg","5671927473f58b000d664293","freq_resp","img/green_2bandit_b.png","70","70","test","","","","1","",""
"null","145457","pSARL_v2","pSARL_v2m8c3bwpg","5671927473f58b000d664293","fixation","img/fixation.png","null","","test","","","","","",""
"378.7999999523163","145839","pSARL_v2","pSARL_v2m8c3bwpg","5671927473f58b000d664293","freq","img/green_2bandit_b2.png","70","70","test","1","6","6","1","",""
"null","146271","pSARL_v2","pSARL_v2m8c3bwpg","5671927473f58b000d664293","freq_resp","img/green_2bandit_b.png","70","70","test","","","","1","",""
"null","146439","pSARL_v2","pSARL_v2m8c3bwpg","5671927473f58b000d664293","fixation","img/fixation.png","null","","test","","","","","",""
"325.10000002384186","146768","pSARL_v2","pSARL_v2m8c3bwpg","5671927473f58b000d664293","freq","img/green_2bandit_b2.png","70","70","test","1","7","7","1","",""
"null","147256","pSARL_v2","pSARL_v2m8c3bwpg","5671927473f58b000d664293","freq_resp","img/green_2bandit_b.png","70","70","test","","","","1","",""
"null","147424","pSARL_v2","pSARL_v2m8c3bwpg","5671927473f58b000d664293","fixation","img/fixation.png","null","","test","","","","","",""
"348","147776","pSARL_v2","pSARL_v2m8c3bwpg","5671927473f58b000d664293","infreq","img/orange_2bandit_b2.png","68","68","test","1","8","8","1","",""
"null","148239","pSARL_v2","pSARL_v2m8c3bwpg","5671927473f58b000d664293","infreq_resp","img/orange_2bandit_b.png","68","68","test","","","","1","",""
"null","148394","pSARL_v2","pSARL_v2m8c3bwpg","5671927473f58b000d664293","fixation","img/fixation.png","null","","test","","","","","",""
"369.7999999523163","148767","pSARL_v2","pSARL_v2m8c3bwpg","5671927473f58b000d664293","freq","img/green_2bandit_b2.png","70","70","test","1","9","9","1","",""
"null","149207","pSARL_v2","pSARL_v2m8c3bwpg","5671927473f58b000d664293","freq_resp","img/green_2bandit_b.png","70","70","test","","","","1","",""
"null","149375","pSARL_v2","pSARL_v2m8c3bwpg","5671927473f58b000d664293","fixation","img/fixation.png","null","","test","","","","","",""
"396.89999997615814","149775","pSARL_v2","pSARL_v2m8c3bwpg","5671927473f58b000d664293","freq","img/green_2bandit_b2.png","70","70","test","1","10","10","1","",""
"null","150185","pSARL_v2","pSARL_v2m8c3bwpg","5671927473f58b000d664293","freq_resp","img/green_2bandit_b.png","70","70","test","","","","1","",""
"null","150340","pSARL_v2","pSARL_v2m8c3bwpg","5671927473f58b000d664293","fixation","img/fixation.png","null","","test","","","","","",""
"312","150656","pSARL_v2","pSARL_v2m8c3bwpg","5671927473f58b000d664293","freq","img/green_2bandit_b2.png","70","70","test","1","11","11","1","",""
"null","151149","pSARL_v2","pSARL_v2m8c3bwpg","5671927473f58b000d664293","freq_resp","img/green_2bandit_b.png","70","70","test","","","","1","",""
"null","151303","pSARL_v2","pSARL_v2m8c3bwpg","5671927473f58b000d664293","fixation","img/fixation.png","null","","test","","","","","",""
"284.6999999284744","151592","pSARL_v2","pSARL_v2m8c3bwpg","5671927473f58b000d664293","freq","img/green_2bandit_b2.png","70","70","test","1","12","12","1","",""
"null","152117","pSARL_v2","pSARL_v2m8c3bwpg","5671927473f58b000d664293","freq_resp","img/green_2bandit_b.png","70","70","test","","","","1","",""
"null","152271","pSARL_v2","pSARL_v2m8c3bwpg","5671927473f58b000d664293","fixation","img/fixation.png","null","","test","","","","","",""
"284.89999997615814","152560","pSARL_v2","pSARL_v2m8c3bwpg","5671927473f58b000d664293","freq","img/green_2bandit_b2.png","70","70","test","1","13","13","1","",""
"null","153085","pSARL_v2","pSARL_v2m8c3bwpg","5671927473f58b000d664293","freq_resp","img/green_2bandit_b.png","70","70","test","","","","1","",""
"null","153240","pSARL_v2","pSARL_v2m8c3bwpg","5671927473f58b000d664293","fixation","img/fixation.png","null","","test","","","","","",""
"275.7000000476837","153519","pSARL_v2","pSARL_v2m8c3bwpg","5671927473f58b000d664293","freq","img/green_2bandit_b2.png","70","70","test","1","14","14","1","",""
"null","154054","pSARL_v2","pSARL_v2m8c3bwpg","5671927473f58b000d664293","freq_resp","img/green_2bandit_b.png","70","70","test","","","","1","",""
"null","154223","pSARL_v2","pSARL_v2m8c3bwpg","5671927473f58b000d664293","fixation","img/fixation.png","null","","test","","","","","",""
"277.09999990463257","154504","pSARL_v2","pSARL_v2m8c3bwpg","5671927473f58b000d664293","freq","img/green_2bandit_b2.png","70","70","test","1","15","15","1","",""
"null","155037","pSARL_v2","pSARL_v2m8c3bwpg","5671927473f58b000d664293","freq_resp","img/green_2bandit_b.png","70","70","test","","","","1","",""
"null","155191","pSARL_v2","pSARL_v2m8c3bwpg","5671927473f58b000d664293","fixation","img/fixation.png","null","","test","","","","","",""
"276.2000000476837","155473","pSARL_v2","pSARL_v2m8c3bwpg","5671927473f58b000d664293","freq","img/green_2bandit_b2.png","70","70","test","1","16","16","1","",""
"null","156005","pSARL_v2","pSARL_v2m8c3bwpg","5671927473f58b000d664293","freq_resp","img/green_2bandit_b.png","70","70","test","","","","1","",""
"null","156171","pSARL_v2","pSARL_v2m8c3bwpg","5671927473f58b000d664293","fixation","img/fixation.png","null","","test","","","","","",""
"304.40000009536743","156479","pSARL_v2","pSARL_v2m8c3bwpg","5671927473f58b000d664293","freq","img/green_2bandit_b2.png","70","70","test","1","17","17","1","",""
"null","156988","pSARL_v2","pSARL_v2m8c3bwpg","5671927473f58b000d664293","freq_resp","img/green_2bandit_b.png","70","70","test","","","","1","",""
"null","157144","pSARL_v2","pSARL_v2m8c3bwpg","5671927473f58b000d664293","fixation","img/fixation.png","null","","test","","","","","",""
"259.8000000715256","157407","pSARL_v2","pSARL_v2m8c3bwpg","5671927473f58b000d664293","freq","img/green_2bandit_b2.png","70","70","test","1","18","18","1","",""
"null","157954","pSARL_v2","pSARL_v2m8c3bwpg","5671927473f58b000d664293","freq_resp","img/green_2bandit_b.png","70","70","test","","","","1","",""
"null","158123","pSARL_v2","pSARL_v2m8c3bwpg","5671927473f58b000d664293","fixation","img/fixation.png","null","","test","","","","","",""
"281","158409","pSARL_v2","pSARL_v2m8c3bwpg","5671927473f58b000d664293","freq","img/green_2bandit_b2.png","70","70","test","1","19","19","1","",""
"null","158942","pSARL_v2","pSARL_v2m8c3bwpg","5671927473f58b000d664293","freq_resp","img/green_2bandit_b.png","70","70","test","","","","1","",""
"null","159110","pSARL_v2","pSARL_v2m8c3bwpg","5671927473f58b000d664293","fixation","img/fixation.png","null","","test","","","","","",""
"341.89999997615814","159456","pSARL_v2","pSARL_v2m8c3bwpg","5671927473f58b000d664293","infreq","img/orange_2bandit_b2.png","68","68","test","1","20","20","1","",""
"null","159926","pSARL_v2","pSARL_v2m8c3bwpg","5671927473f58b000d664293","infreq_resp","img/orange_2bandit_b.png","68","68","test","","","","1","",""
"null","160094","pSARL_v2","pSARL_v2m8c3bwpg","5671927473f58b000d664293","fixation","img/fixation.png","null","","test","","","","","",""
"325.5","160424","pSARL_v2","pSARL_v2m8c3bwpg","5671927473f58b000d664293","freq","img/green_2bandit_b2.png","70","70","test","1","21","21","1","",""
"null","160910","pSARL_v2","pSARL_v2m8c3bwpg","5671927473f58b000d664293","freq_resp","img/green_2bandit_b.png","70","70","test","","","","1","",""
"null","161078","pSARL_v2","pSARL_v2m8c3bwpg","5671927473f58b000d664293","fixation","img/fixation.png","null","","test","","","","","",""
"469.7999999523163","161552","pSARL_v2","pSARL_v2m8c3bwpg","5671927473f58b000d664293","reward","img/slot.png","74","","test","","","","","",""
"null","162307","pSARL_v2","pSARL_v2m8c3bwpg","5671927473f58b000d664293","points","<div class=""verylowPoints""> -6 </div>","null","na","test","","","","1","-6","0"
"688.3000000715256","163000","pSARL_v2","pSARL_v2m8c3bwpg","5671927473f58b000d664293","freq","img/green_2bandit_b2.png","70","70","test","1","22","22","2","",""
"null","163127","pSARL_v2","pSARL_v2m8c3bwpg","5671927473f58b000d664293","freq_resp","img/green_2bandit_b.png","70","70","test","","","","2","",""
"null","163280","pSARL_v2","pSARL_v2m8c3bwpg","5671927473f58b000d664293","fixation","img/fixation.png","null","","test","","","","","",""
"371.60000002384186","163656","pSARL_v2","pSARL_v2m8c3bwpg","5671927473f58b000d664293","freq","img/green_2bandit_b2.png","70","70","test","1","23","23","2","",""
"null","164095","pSARL_v2","pSARL_v2m8c3bwpg","5671927473f58b000d664293","freq_resp","img/green_2bandit_b.png","70","70","test","","","","2","",""
"null","164250","pSARL_v2","pSARL_v2m8c3bwpg","5671927473f58b000d664293","fixation","img/fixation.png","null","","test","","","","","",""
"609.3000000715256","164863","pSARL_v2","pSARL_v2m8c3bwpg","5671927473f58b000d664293","infreq","img/orange_2bandit_b2.png","68","68","test","1","24","24","2","",""
"null","165064","pSARL_v2","pSARL_v2m8c3bwpg","5671927473f58b000d664293","infreq_resp","img/orange_2bandit_b.png","68","68","test","","","","2","",""
"null","165217","pSARL_v2","pSARL_v2m8c3bwpg","5671927473f58b000d664293","fixation","img/fixation.png","null","","test","","","","","",""
"410.7000000476837","165631","pSARL_v2","pSARL_v2m8c3bwpg","5671927473f58b000d664293","freq","img/green_2bandit_b2.png","70","70","test","1","25","25","2","",""
"null","166031","pSARL_v2","pSARL_v2m8c3bwpg","5671927473f58b000d664293","freq_resp","img/green_2bandit_b.png","70","70","test","","","","2","",""
"null","166199","pSARL_v2","pSARL_v2m8c3bwpg","5671927473f58b000d664293","fixation","img/fixation.png","null","","test","","","","","",""
"444.5","166647","pSARL_v2","pSARL_v2m8c3bwpg","5671927473f58b000d664293","infreq","img/orange_2bandit_b2.png","68","68","test","1","26","26","2","",""
"null","167016","pSARL_v2","pSARL_v2m8c3bwpg","5671927473f58b000d664293","infreq_resp","img/orange_2bandit_b.png","68","68","test","","","","2","",""
"null","167186","pSARL_v2","pSARL_v2m8c3bwpg","5671927473f58b000d664293","fixation","img/fixation.png","null","","test","","","","","",""
"377.5","167568","pSARL_v2","pSARL_v2m8c3bwpg","5671927473f58b000d664293","freq","img/green_2bandit_b2.png","70","70","test","1","27","27","2","",""
"null","167996","pSARL_v2","pSARL_v2m8c3bwpg","5671927473f58b000d664293","freq_resp","img/green_2bandit_b.png","70","70","test","","","","2","",""
"null","168154","pSARL_v2","pSARL_v2m8c3bwpg","5671927473f58b000d664293","fixation","img/fixation.png","null","","test","","","","","",""
"369.3000000715256","168527","pSARL_v2","pSARL_v2m8c3bwpg","5671927473f58b000d664293","freq","img/green_2bandit_b2.png","70","70","test","1","28","28","2","",""
"null","168970","pSARL_v2","pSARL_v2m8c3bwpg","5671927473f58b000d664293","freq_resp","img/green_2bandit_b.png","70","70","test","","","","2","",""
"null","169124","pSARL_v2","pSARL_v2m8c3bwpg","5671927473f58b000d664293","fixation","img/fixation.png","null","","test","","","","","",""
"391.10000002384186","169519","pSARL_v2","pSARL_v2m8c3bwpg","5671927473f58b000d664293","freq","img/green_2bandit_b2.png","70","70","test","1","29","29","2","",""
"null","169941","pSARL_v2","pSARL_v2m8c3bwpg","5671927473f58b000d664293","freq_resp","img/green_2bandit_b.png","70","70","test","","","","2","",""
"null","170110","pSARL_v2","pSARL_v2m8c3bwpg","5671927473f58b000d664293","fixation","img/fixation.png","null","","test","","","","","",""
"382","170496","pSARL_v2","pSARL_v2m8c3bwpg","5671927473f58b000d664293","freq","img/green_2bandit_b2.png","70","70","test","1","30","30","2","",""
"null","170926","pSARL_v2","pSARL_v2m8c3bwpg","5671927473f58b000d664293","freq_resp","img/green_2bandit_b.png","70","70","test","","","","2","",""
"null","171092","pSARL_v2","pSARL_v2m8c3bwpg","5671927473f58b000d664293","fixation","img/fixation.png","null","","test","","","","","",""
"351.90000009536743","171447","pSARL_v2","pSARL_v2m8c3bwpg","5671927473f58b000d664293","freq","img/green_2bandit_b2.png","70","70","test","1","31","31","2","",""
"null","171908","pSARL_v2","pSARL_v2m8c3bwpg","5671927473f58b000d664293","freq_resp","img/green_2bandit_b.png","70","70","test","","","","2","",""
"null","172062","pSARL_v2","pSARL_v2m8c3bwpg","5671927473f58b000d664293","fixation","img/fixation.png","null","","test","","","","","",""
"334.09999990463257","172400","pSARL_v2","pSARL_v2m8c3bwpg","5671927473f58b000d664293","freq","img/green_2bandit_b2.png","70","70","test","1","32","32","2","",""
"null","172876","pSARL_v2","pSARL_v2m8c3bwpg","5671927473f58b000d664293","freq_resp","img/green_2bandit_b.png","70","70","test","","","","2","",""
"null","173031","pSARL_v2","pSARL_v2m8c3bwpg","5671927473f58b000d664293","fixation","img/fixation.png","null","","test","","","","","",""
"325.5","173361","pSARL_v2","pSARL_v2m8c3bwpg","5671927473f58b000d664293","freq","img/green_2bandit_b2.png","70","70","test","1","33","33","2","",""
"null","173845","pSARL_v2","pSARL_v2m8c3bwpg","5671927473f58b000d664293","freq_resp","img/green_2bandit_b.png","70","70","test","","","","2","",""
"null","174013","pSARL_v2","pSARL_v2m8c3bwpg","5671927473f58b000d664293","fixation","img/fixation.png","null","","test","","","","","",""
"367.10000002384186","174383","pSARL_v2","pSARL_v2m8c3bwpg","5671927473f58b000d664293","freq","img/green_2bandit_b2.png","70","70","test","1","34","34","2","",""
"null","174829","pSARL_v2","pSARL_v2m8c3bwpg","5671927473f58b000d664293","freq_resp","img/green_2bandit_b.png","70","70","test","","","","2","",""
"null","174987","pSARL_v2","pSARL_v2m8c3bwpg","5671927473f58b000d664293","fixation","img/fixation.png","null","","test","","","","","",""
"353","175345","pSARL_v2","pSARL_v2m8c3bwpg","5671927473f58b000d664293","freq","img/green_2bandit_b2.png","70","70","test","1","35","35","2","",""
"null","175799","pSARL_v2","pSARL_v2m8c3bwpg","5671927473f58b000d664293","freq_resp","img/green_2bandit_b.png","70","70","test","","","","2","",""
"null","175966","pSARL_v2","pSARL_v2m8c3bwpg","5671927473f58b000d664293","fixation","img/fixation.png","null","","test","","","","","",""
"349.89999997615814","176321","pSARL_v2","pSARL_v2m8c3bwpg","5671927473f58b000d664293","freq","img/green_2bandit_b2.png","70","70","test","1","36","36","2","",""
"null","176786","pSARL_v2","pSARL_v2m8c3bwpg","5671927473f58b000d664293","freq_resp","img/green_2bandit_b.png","70","70","test","","","","2","",""
"null","176941","pSARL_v2","pSARL_v2m8c3bwpg","5671927473f58b000d664293","fixation","img/fixation.png","null","","test","","","","","",""
"384","177328","pSARL_v2","pSARL_v2m8c3bwpg","5671927473f58b000d664293","freq","img/green_2bandit_b2.png","70","70","test","1","37","37","2","",""
"null","177752","pSARL_v2","pSARL_v2m8c3bwpg","5671927473f58b000d664293","freq_resp","img/green_2bandit_b.png","70","70","test","","","","2","",""
"null","177921","pSARL_v2","pSARL_v2m8c3bwpg","5671927473f58b000d664293","fixation","img/fixation.png","null","","test","","","","","",""
"339.2999999523163","178264","pSARL_v2","pSARL_v2m8c3bwpg","5671927473f58b000d664293","freq","img/green_2bandit_b2.png","70","70","test","1","38","38","2","",""
"null","178740","pSARL_v2","pSARL_v2m8c3bwpg","5671927473f58b000d664293","freq_resp","img/green_2bandit_b.png","70","70","test","","","","2","",""
"null","178894","pSARL_v2","pSARL_v2m8c3bwpg","5671927473f58b000d664293","fixation","img/fixation.png","null","","test","","","","","",""
"342.2000000476837","179240","pSARL_v2","pSARL_v2m8c3bwpg","5671927473f58b000d664293","freq","img/green_2bandit_b2.png","70","70","test","1","39","39","2","",""
"null","179709","pSARL_v2","pSARL_v2m8c3bwpg","5671927473f58b000d664293","freq_resp","img/green_2bandit_b.png","70","70","test","","","","2","",""
"null","179863","pSARL_v2","pSARL_v2m8c3bwpg","5671927473f58b000d664293","fixation","img/fixation.png","null","","test","","","","","",""
"333.5","180199","pSARL_v2","pSARL_v2m8c3bwpg","5671927473f58b000d664293","freq","img/green_2bandit_b2.png","70","70","test","1","40","40","2","",""
"null","180676","pSARL_v2","pSARL_v2m8c3bwpg","5671927473f58b000d664293","freq_resp","img/green_2bandit_b.png","70","70","test","","","","2","",""
"null","180845","pSARL_v2","pSARL_v2m8c3bwpg","5671927473f58b000d664293","fixation","img/fixation.png","null","","test","","","","","",""
"423.7999999523163","181273","pSARL_v2","pSARL_v2m8c3bwpg","5671927473f58b000d664293","reward","img/slot.png","74","","test","","","","","",""
"null","182031","pSARL_v2","pSARL_v2m8c3bwpg","5671927473f58b000d664293","points","<div class=""verylowPoints""> -11 </div>","null","na","test","","","","2","-11","1"
"493.7999999523163","182528","pSARL_v2","pSARL_v2m8c3bwpg","5671927473f58b000d664293","freq","img/green_2bandit_b2.png","70","70","test","1","41","41","3","",""
"null","182847","pSARL_v2","pSARL_v2m8c3bwpg","5671927473f58b000d664293","freq_resp","img/green_2bandit_b.png","70","70","test","","","","3","",""
"null","183016","pSARL_v2","pSARL_v2m8c3bwpg","5671927473f58b000d664293","fixation","img/fixation.png","null","","test","","","","","",""
"388","183408","pSARL_v2","pSARL_v2m8c3bwpg","5671927473f58b000d664293","freq","img/green_2bandit_b2.png","70","70","test","1","42","42","3","",""
"null","183834","pSARL_v2","pSARL_v2m8c3bwpg","5671927473f58b000d664293","freq_resp","img/green_2bandit_b.png","70","70","test","","","","3","",""
"null","184002","pSARL_v2","pSARL_v2m8c3bwpg","5671927473f58b000d664293","fixation","img/fixation.png","null","","test","","","","","",""
"681.9000000953674","184687","pSARL_v2","pSARL_v2m8c3bwpg","5671927473f58b000d664293","freq","img/green_2bandit_b2.png","70","70","test","1","43","43","3","",""
"null","184817","pSARL_v2","pSARL_v2m8c3bwpg","5671927473f58b000d664293","freq_resp","img/green_2bandit_b.png","70","70","test","","","","3","",""
"null","184986","pSARL_v2","pSARL_v2m8c3bwpg","5671927473f58b000d664293","fixation","img/fixation.png","null","","test","","","","","",""
"290.5","185281","pSARL_v2","pSARL_v2m8c3bwpg","5671927473f58b000d664293","freq","img/green_2bandit_b2.png","70","70","test","1","44","44","3","",""
"null","185799","pSARL_v2","pSARL_v2m8c3bwpg","5671927473f58b000d664293","freq_resp","img/green_2bandit_b.png","70","70","test","","","","3","",""
"null","185954","pSARL_v2","pSARL_v2m8c3bwpg","5671927473f58b000d664293","fixation","img/fixation.png","null","","test","","","","","",""
"306.39999997615814","186265","pSARL_v2","pSARL_v2m8c3bwpg","5671927473f58b000d664293","freq","img/green_2bandit_b2.png","70","70","test","1","45","45","3","",""
"null","186769","pSARL_v2","pSARL_v2m8c3bwpg","5671927473f58b000d664293","freq_resp","img/green_2bandit_b.png","70","70","test","","","","3","",""
"null","186938","pSARL_v2","pSARL_v2m8c3bwpg","5671927473f58b000d664293","fixation","img/fixation.png","null","","test","","","","","",""
"362.60000002384186","187304","pSARL_v2","pSARL_v2m8c3bwpg","5671927473f58b000d664293","freq","img/green_2bandit_b2.png","70","70","test","1","46","46","3","",""
"null","187752","pSARL_v2","pSARL_v2m8c3bwpg","5671927473f58b000d664293","freq_resp","img/green_2bandit_b.png","70","70","test","","","","3","",""
"null","187908","pSARL_v2","pSARL_v2m8c3bwpg","5671927473f58b000d664293","fixation","img/fixation.png","null","","test","","","","","",""
"376.2999999523163","188288","pSARL_v2","pSARL_v2m8c3bwpg","5671927473f58b000d664293","freq","img/green_2bandit_b2.png","70","70","test","1","47","47","3","",""
"null","188717","pSARL_v2","pSARL_v2m8c3bwpg","5671927473f58b000d664293","freq_resp","img/green_2bandit_b.png","70","70","test","","","","3","",""
"null","188886","pSARL_v2","pSARL_v2m8c3bwpg","5671927473f58b000d664293","fixation","img/fixation.png","null","","test","","","","","",""
"190.5","189079","pSARL_v2","pSARL_v2m8c3bwpg","5671927473f58b000d664293","freq","img/green_2bandit_b2.png","70","70","test","1","48","48","3","",""
"null","189698","pSARL_v2","pSARL_v2m8c3bwpg","5671927473f58b000d664293","freq_resp","img/green_2bandit_b.png","70","70","test","","","","3","",""
"null","189867","pSARL_v2","pSARL_v2m8c3bwpg","5671927473f58b000d664293","fixation","img/fixation.png","null","","test","","","","","",""
"249","190120","pSARL_v2","pSARL_v2m8c3bwpg","5671927473f58b000d664293","freq","img/green_2bandit_b2.png","70","70","test","1","49","49","3","",""
"null","190679","pSARL_v2","pSARL_v2m8c3bwpg","5671927473f58b000d664293","freq_resp","img/green_2bandit_b.png","70","70","test","","","","3","",""
"null","190835","pSARL_v2","pSARL_v2m8c3bwpg","5671927473f58b000d664293","fixation","img/fixation.png","null","","test","","","","","",""
"304.8000000715256","191143","pSARL_v2","pSARL_v2m8c3bwpg","5671927473f58b000d664293","freq","img/green_2bandit_b2.png","70","70","test","1","50","50","3","",""
"null","191651","pSARL_v2","pSARL_v2m8c3bwpg","5671927473f58b000d664293","freq_resp","img/green_2bandit_b.png","70","70","test","","","","3","",""
"null","191819","pSARL_v2","pSARL_v2m8c3bwpg","5671927473f58b000d664293","fixation","img/fixation.png","null","","test","","","","","",""
"305","192129","pSARL_v2","pSARL_v2m8c3bwpg","5671927473f58b000d664293","freq","img/green_2bandit_b2.png","70","70","test","1","51","51","3","",""
"null","192635","pSARL_v2","pSARL_v2m8c3bwpg","5671927473f58b000d664293","freq_resp","img/green_2bandit_b.png","70","70","test","","","","3","",""
"null","192803","pSARL_v2","pSARL_v2m8c3bwpg","5671927473f58b000d664293","fixation","img/fixation.png","null","","test","","","","","",""
"361.6999999284744","193168","pSARL_v2","pSARL_v2m8c3bwpg","5671927473f58b000d664293","freq","img/green_2bandit_b2.png","70","70","test","1","52","52","3","",""
"null","193616","pSARL_v2","pSARL_v2m8c3bwpg","5671927473f58b000d664293","freq_resp","img/green_2bandit_b.png","70","70","test","","","","3","",""
"null","193785","pSARL_v2","pSARL_v2m8c3bwpg","5671927473f58b000d664293","fixation","img/fixation.png","null","","test","","","","","",""
"306.89999997615814","194097","pSARL_v2","pSARL_v2m8c3bwpg","5671927473f58b000d664293","freq","img/green_2bandit_b2.png","70","70","test","1","53","53","3","",""
"null","194601","pSARL_v2","pSARL_v2m8c3bwpg","5671927473f58b000d664293","freq_resp","img/green_2bandit_b.png","70","70","test","","","","3","",""
"null","194770","pSARL_v2","pSARL_v2m8c3bwpg","5671927473f58b000d664293","fixation","img/fixation.png","null","","test","","","","","",""
"266.3000000715256","195042","pSARL_v2","pSARL_v2m8c3bwpg","5671927473f58b000d664293","freq","img/green_2bandit_b2.png","70","70","test","1","54","54","3","",""
"null","195582","pSARL_v2","pSARL_v2m8c3bwpg","5671927473f58b000d664293","freq_resp","img/green_2bandit_b.png","70","70","test","","","","3","",""
"null","195751","pSARL_v2","pSARL_v2m8c3bwpg","5671927473f58b000d664293","fixation","img/fixation.png","null","","test","","","","","",""
"277.3000000715256","196033","pSARL_v2","pSARL_v2m8c3bwpg","5671927473f58b000d664293","freq","img/green_2bandit_b2.png","70","70","test","1","55","55","3","",""
"null","196567","pSARL_v2","pSARL_v2m8c3bwpg","5671927473f58b000d664293","freq_resp","img/green_2bandit_b.png","70","70","test","","","","3","",""
"null","196735","pSARL_v2","pSARL_v2m8c3bwpg","5671927473f58b000d664293","fixation","img/fixation.png","null","","test","","","","","",""
"541.6000000238419","197281","pSARL_v2","pSARL_v2m8c3bwpg","5671927473f58b000d664293","infreq","img/orange_2bandit_b2.png","70","68","test","0","56","56","3","",""
"null","197549","pSARL_v2","pSARL_v2m8c3bwpg","5671927473f58b000d664293","infreq_resp","img/orange_2bandit_b.png","70","68","test","","","","3","",""
"null","197703","pSARL_v2","pSARL_v2m8c3bwpg","5671927473f58b000d664293","fixation","img/fixation.png","null","","test","","","","","",""
"581.1999999284744","198287","pSARL_v2","pSARL_v2m8c3bwpg","5671927473f58b000d664293","freq","img/green_2bandit_b2.png","70","70","test","1","57","57","3","",""
"null","198515","pSARL_v2","pSARL_v2m8c3bwpg","5671927473f58b000d664293","freq_resp","img/green_2bandit_b.png","70","70","test","","","","3","",""
"null","198683","pSARL_v2","pSARL_v2m8c3bwpg","5671927473f58b000d664293","fixation","img/fixation.png","null","","test","","","","","",""
"null","199494","pSARL_v2","pSARL_v2m8c3bwpg","5671927473f58b000d664293","freq","img/green_2bandit_b2.png","null","70","test","0","58","58","3","",""
"null","199662","pSARL_v2","pSARL_v2m8c3bwpg","5671927473f58b000d664293","fixation","img/fixation.png","null","","test","","","","","",""
"453.8000000715256","200120","pSARL_v2","pSARL_v2m8c3bwpg","5671927473f58b000d664293","freq","img/green_2bandit_b2.png","70","70","test","1","59","59","3","",""
"null","200477","pSARL_v2","pSARL_v2m8c3bwpg","5671927473f58b000d664293","freq_resp","img/green_2bandit_b.png","70","70","test","","","","3","",""
"null","200645","pSARL_v2","pSARL_v2m8c3bwpg","5671927473f58b000d664293","fixation","img/fixation.png","null","","test","","","","","",""
"398.89999997615814","201049","pSARL_v2","pSARL_v2m8c3bwpg","5671927473f58b000d664293","infreq","img/orange_2bandit_b2.png","68","68","test","1","60","60","3","",""
"null","201462","pSARL_v2","pSARL_v2m8c3bwpg","5671927473f58b000d664293","infreq_resp","img/orange_2bandit_b.png","68","68","test","","","","3","",""
"null","201619","pSARL_v2","pSARL_v2m8c3bwpg","5671927473f58b000d664293","fixation","img/fixation.png","null","","test","","","","","",""
"505.60000002384186","202128","pSARL_v2","pSARL_v2m8c3bwpg","5671927473f58b000d664293","freq","img/green_2bandit_b2.png","70","70","test","1","61","61","3","",""
"null","202434","pSARL_v2","pSARL_v2m8c3bwpg","5671927473f58b000d664293","freq_resp","img/green_2bandit_b.png","70","70","test","","","","3","",""
"null","202601","pSARL_v2","pSARL_v2m8c3bwpg","5671927473f58b000d664293","fixation","img/fixation.png","null","","test","","","","","",""
"451.39999997615814","203057","pSARL_v2","pSARL_v2m8c3bwpg","5671927473f58b000d664293","freq","img/green_2bandit_b2.png","70","70","test","1","62","62","3","",""
"null","203416","pSARL_v2","pSARL_v2m8c3bwpg","5671927473f58b000d664293","freq_resp","img/green_2bandit_b.png","70","70","test","","","","3","",""
"null","203586","pSARL_v2","pSARL_v2m8c3bwpg","5671927473f58b000d664293","fixation","img/fixation.png","null","","test","","","","","",""
"418.6999999284744","204009","pSARL_v2","pSARL_v2m8c3bwpg","5671927473f58b000d664293","reward","img/slot.png","74","","test","","","","","",""
"null","204769","pSARL_v2","pSARL_v2m8c3bwpg","5671927473f58b000d664293","points","<div class=""verylowPoints""> -7 </div>","null","na","test","","","","3","-7","2"
"515","205289","pSARL_v2","pSARL_v2m8c3bwpg","5671927473f58b000d664293","freq","img/green_2bandit_b2.png","70","70","test","1","63","63","4","",""
"null","205584","pSARL_v2","pSARL_v2m8c3bwpg","5671927473f58b000d664293","freq_resp","img/green_2bandit_b.png","70","70","test","","","","4","",""
"null","205738","pSARL_v2","pSARL_v2m8c3bwpg","5671927473f58b000d664293","fixation","img/fixation.png","null","","test","","","","","",""
"634.3999999761581","206377","pSARL_v2","pSARL_v2m8c3bwpg","5671927473f58b000d664293","infreq","img/orange_2bandit_b2.png","68","68","test","1","64","64","4","",""
"null","206551","pSARL_v2","pSARL_v2m8c3bwpg","5671927473f58b000d664293","infreq_resp","img/orange_2bandit_b.png","68","68","test","","","","4","",""
"null","206720","pSARL_v2","pSARL_v2m8c3bwpg","5671927473f58b000d664293","fixation","img/fixation.png","null","","test","","","","","",""
"420.89999997615814","207145","pSARL_v2","pSARL_v2m8c3bwpg","5671927473f58b000d664293","freq","img/green_2bandit_b2.png","70","70","test","1","65","65","4","",""
"null","207536","pSARL_v2","pSARL_v2m8c3bwpg","5671927473f58b000d664293","freq_resp","img/green_2bandit_b.png","70","70","test","","","","4","",""
"null","207703","pSARL_v2","pSARL_v2m8c3bwpg","5671927473f58b000d664293","fixation","img/fixation.png","null","","test","","","","","",""
"373","208081","pSARL_v2","pSARL_v2m8c3bwpg","5671927473f58b000d664293","freq","img/green_2bandit_b2.png","70","70","test","1","66","66","4","",""
"null","208522","pSARL_v2","pSARL_v2m8c3bwpg","5671927473f58b000d664293","freq_resp","img/green_2bandit_b.png","70","70","test","","","","4","",""
"null","208691","pSARL_v2","pSARL_v2m8c3bwpg","5671927473f58b000d664293","fixation","img/fixation.png","null","","test","","","","","",""
"321.2000000476837","209017","pSARL_v2","pSARL_v2m8c3bwpg","5671927473f58b000d664293","freq","img/green_2bandit_b2.png","70","70","test","1","67","67","4","",""
"null","209507","pSARL_v2","pSARL_v2m8c3bwpg","5671927473f58b000d664293","freq_resp","img/green_2bandit_b.png","70","70","test","","","","4","",""
"null","209662","pSARL_v2","pSARL_v2m8c3bwpg","5671927473f58b000d664293","fixation","img/fixation.png","null","","test","","","","","",""
"382.60000002384186","210047","pSARL_v2","pSARL_v2m8c3bwpg","5671927473f58b000d664293","infreq","img/orange_2bandit_b2.png","68","68","test","1","68","68","4","",""
"null","210475","pSARL_v2","pSARL_v2m8c3bwpg","5671927473f58b000d664293","infreq_resp","img/orange_2bandit_b.png","68","68","test","","","","4","",""
"null","210629","pSARL_v2","pSARL_v2m8c3bwpg","5671927473f58b000d664293","fixation","img/fixation.png","null","","test","","","","","",""
"319","210953","pSARL_v2","pSARL_v2m8c3bwpg","5671927473f58b000d664293","freq","img/green_2bandit_b2.png","70","70","test","1","69","69","4","",""
"null","211440","pSARL_v2","pSARL_v2m8c3bwpg","5671927473f58b000d664293","freq_resp","img/green_2bandit_b.png","70","70","test","","","","4","",""
"null","211596","pSARL_v2","pSARL_v2m8c3bwpg","5671927473f58b000d664293","fixation","img/fixation.png","null","","test","","","","","",""
"352.10000002384186","211953","pSARL_v2","pSARL_v2m8c3bwpg","5671927473f58b000d664293","freq","img/green_2bandit_b2.png","70","70","test","1","70","70","4","",""
"null","212406","pSARL_v2","pSARL_v2m8c3bwpg","5671927473f58b000d664293","freq_resp","img/green_2bandit_b.png","70","70","test","","","","4","",""
"null","212561","pSARL_v2","pSARL_v2m8c3bwpg","5671927473f58b000d664293","fixation","img/fixation.png","null","","test","","","","","",""
"307.40000009536743","212871","pSARL_v2","pSARL_v2m8c3bwpg","5671927473f58b000d664293","freq","img/green_2bandit_b2.png","70","70","test","1","71","71","4","",""
"null","213376","pSARL_v2","pSARL_v2m8c3bwpg","5671927473f58b000d664293","freq_resp","img/green_2bandit_b.png","70","70","test","","","","4","",""
"null","213544","pSARL_v2","pSARL_v2m8c3bwpg","5671927473f58b000d664293","fixation","img/fixation.png","null","","test","","","","","",""
"276.10000002384186","213824","pSARL_v2","pSARL_v2m8c3bwpg","5671927473f58b000d664293","freq","img/green_2bandit_b2.png","70","70","test","1","72","72","4","",""
"null","214358","pSARL_v2","pSARL_v2m8c3bwpg","5671927473f58b000d664293","freq_resp","img/green_2bandit_b.png","70","70","test","","","","4","",""
"null","214527","pSARL_v2","pSARL_v2m8c3bwpg","5671927473f58b000d664293","fixation","img/fixation.png","null","","test","","","","","",""
"309.7000000476837","214841","pSARL_v2","pSARL_v2m8c3bwpg","5671927473f58b000d664293","freq","img/green_2bandit_b2.png","70","70","test","1","73","73","4","",""
"null","215343","pSARL_v2","pSARL_v2m8c3bwpg","5671927473f58b000d664293","freq_resp","img/green_2bandit_b.png","70","70","test","","","","4","",""
"null","215497","pSARL_v2","pSARL_v2m8c3bwpg","5671927473f58b000d664293","fixation","img/fixation.png","null","","test","","","","","",""
"290.89999997615814","215793","pSARL_v2","pSARL_v2m8c3bwpg","5671927473f58b000d664293","freq","img/green_2bandit_b2.png","70","70","test","1","74","74","4","",""
"null","216312","pSARL_v2","pSARL_v2m8c3bwpg","5671927473f58b000d664293","freq_resp","img/green_2bandit_b.png","70","70","test","","","","4","",""
"null","216481","pSARL_v2","pSARL_v2m8c3bwpg","5671927473f58b000d664293","fixation","img/fixation.png","null","","test","","","","","",""
"283.2000000476837","216769","pSARL_v2","pSARL_v2m8c3bwpg","5671927473f58b000d664293","freq","img/green_2bandit_b2.png","70","70","test","1","75","75","4","",""
"null","217296","pSARL_v2","pSARL_v2m8c3bwpg","5671927473f58b000d664293","freq_resp","img/green_2bandit_b.png","70","70","test","","","","4","",""
"null","217466","pSARL_v2","pSARL_v2m8c3bwpg","5671927473f58b000d664293","fixation","img/fixation.png","null","","test","","","","","",""
"273.89999997615814","217745","pSARL_v2","pSARL_v2m8c3bwpg","5671927473f58b000d664293","freq","img/green_2bandit_b2.png","70","70","test","1","76","76","4","",""
"null","218278","pSARL_v2","pSARL_v2m8c3bwpg","5671927473f58b000d664293","freq_resp","img/green_2bandit_b.png","70","70","test","","","","4","",""
"null","218433","pSARL_v2","pSARL_v2m8c3bwpg","5671927473f58b000d664293","fixation","img/fixation.png","null","","test","","","","","",""
"299.7000000476837","218735","pSARL_v2","pSARL_v2m8c3bwpg","5671927473f58b000d664293","freq","img/green_2bandit_b2.png","70","70","test","1","77","77","4","",""
"null","219246","pSARL_v2","pSARL_v2m8c3bwpg","5671927473f58b000d664293","freq_resp","img/green_2bandit_b.png","70","70","test","","","","4","",""
"null","219401","pSARL_v2","pSARL_v2m8c3bwpg","5671927473f58b000d664293","fixation","img/fixation.png","null","","test","","","","","",""
"291.5","219696","pSARL_v2","pSARL_v2m8c3bwpg","5671927473f58b000d664293","freq","img/green_2bandit_b2.png","70","70","test","1","78","78","4","",""
"null","220213","pSARL_v2","pSARL_v2m8c3bwpg","5671927473f58b000d664293","freq_resp","img/green_2bandit_b.png","70","70","test","","","","4","",""
"null","220369","pSARL_v2","pSARL_v2m8c3bwpg","5671927473f58b000d664293","fixation","img/fixation.png","null","","test","","","","","",""
"283","220657","pSARL_v2","pSARL_v2m8c3bwpg","5671927473f58b000d664293","freq","img/green_2bandit_b2.png","70","70","test","1","79","79","4","",""
"null","221181","pSARL_v2","pSARL_v2m8c3bwpg","5671927473f58b000d664293","freq_resp","img/green_2bandit_b.png","70","70","test","","","","4","",""
"null","221336","pSARL_v2","pSARL_v2m8c3bwpg","5671927473f58b000d664293","fixation","img/fixation.png","null","","test","","","","","",""
"268.2000000476837","221609","pSARL_v2","pSARL_v2m8c3bwpg","5671927473f58b000d664293","freq","img/green_2bandit_b2.png","70","70","test","1","80","80","4","",""
"null","222151","pSARL_v2","pSARL_v2m8c3bwpg","5671927473f58b000d664293","freq_resp","img/green_2bandit_b.png","70","70","test","","","","4","",""
"null","222305","pSARL_v2","pSARL_v2m8c3bwpg","5671927473f58b000d664293","fixation","img/fixation.png","null","","test","","","","","",""
"282.6999999284744","222593","pSARL_v2","pSARL_v2m8c3bwpg","5671927473f58b000d664293","freq","img/green_2bandit_b2.png","70","70","test","1","81","81","4","",""
"null","223120","pSARL_v2","pSARL_v2m8c3bwpg","5671927473f58b000d664293","freq_resp","img/green_2bandit_b.png","70","70","test","","","","4","",""
"null","223288","pSARL_v2","pSARL_v2m8c3bwpg","5671927473f58b000d664293","fixation","img/fixation.png","null","","test","","","","","",""
"283.7000000476837","223576","pSARL_v2","pSARL_v2m8c3bwpg","5671927473f58b000d664293","freq","img/green_2bandit_b2.png","70","70","test","1","82","82","4","",""
"null","224100","pSARL_v2","pSARL_v2m8c3bwpg","5671927473f58b000d664293","freq_resp","img/green_2bandit_b.png","70","70","test","","","","4","",""
"null","224256","pSARL_v2","pSARL_v2m8c3bwpg","5671927473f58b000d664293","fixation","img/fixation.png","null","","test","","","","","",""
"292.2000000476837","224553","pSARL_v2","pSARL_v2m8c3bwpg","5671927473f58b000d664293","freq","img/green_2bandit_b2.png","70","70","test","1","83","83","4","",""
"null","225073","pSARL_v2","pSARL_v2m8c3bwpg","5671927473f58b000d664293","freq_resp","img/green_2bandit_b.png","70","70","test","","","","4","",""
"null","225227","pSARL_v2","pSARL_v2m8c3bwpg","5671927473f58b000d664293","fixation","img/fixation.png","null","","test","","","","","",""
"385.2000000476837","225616","pSARL_v2","pSARL_v2m8c3bwpg","5671927473f58b000d664293","reward","img/slot.png","74","","test","","","","","",""
"null","226381","pSARL_v2","pSARL_v2m8c3bwpg","5671927473f58b000d664293","points","<div class=""verylowPoints""> -3 </div>","null","na","test","","","","4","-3","3"
"543.6000000238419","226929","pSARL_v2","pSARL_v2m8c3bwpg","5671927473f58b000d664293","freq","img/green_2bandit_b2.png","70","70","test","1","84","84","5","",""
"null","227203","pSARL_v2","pSARL_v2m8c3bwpg","5671927473f58b000d664293","freq_resp","img/green_2bandit_b.png","70","70","test","","","","5","",""
"null","227369","pSARL_v2","pSARL_v2m8c3bwpg","5671927473f58b000d664293","fixation","img/fixation.png","null","","test","","","","","",""
"363","227737","pSARL_v2","pSARL_v2m8c3bwpg","5671927473f58b000d664293","freq","img/green_2bandit_b2.png","70","70","test","1","85","85","5","",""
"null","228189","pSARL_v2","pSARL_v2m8c3bwpg","5671927473f58b000d664293","freq_resp","img/green_2bandit_b.png","70","70","test","","","","5","",""
"null","228358","pSARL_v2","pSARL_v2m8c3bwpg","5671927473f58b000d664293","fixation","img/fixation.png","null","","test","","","","","",""
"254.39999997615814","228617","pSARL_v2","pSARL_v2m8c3bwpg","5671927473f58b000d664293","freq","img/green_2bandit_b2.png","70","70","test","1","86","86","5","",""
"null","229179","pSARL_v2","pSARL_v2m8c3bwpg","5671927473f58b000d664293","freq_resp","img/green_2bandit_b.png","70","70","test","","","","5","",""
"null","229347","pSARL_v2","pSARL_v2m8c3bwpg","5671927473f58b000d664293","fixation","img/fixation.png","null","","test","","","","","",""
"289.60000002384186","229641","pSARL_v2","pSARL_v2m8c3bwpg","5671927473f58b000d664293","freq","img/green_2bandit_b2.png","70","70","test","1","87","87","5","",""
"null","230160","pSARL_v2","pSARL_v2m8c3bwpg","5671927473f58b000d664293","freq_resp","img/green_2bandit_b.png","70","70","test","","","","5","",""
"null","230327","pSARL_v2","pSARL_v2m8c3bwpg","5671927473f58b000d664293","fixation","img/fixation.png","null","","test","","","","","",""
"269.2000000476837","230600","pSARL_v2","pSARL_v2m8c3bwpg","5671927473f58b000d664293","freq","img/green_2bandit_b2.png","70","70","test","1","88","88","5","",""
"null","231138","pSARL_v2","pSARL_v2m8c3bwpg","5671927473f58b000d664293","freq_resp","img/green_2bandit_b.png","70","70","test","","","","5","",""
"null","231291","pSARL_v2","pSARL_v2m8c3bwpg","5671927473f58b000d664293","fixation","img/fixation.png","null","","test","","","","","",""
"264.2000000476837","231560","pSARL_v2","pSARL_v2m8c3bwpg","5671927473f58b000d664293","freq","img/green_2bandit_b2.png","70","70","test","1","89","89","5","",""
"null","232100","pSARL_v2","pSARL_v2m8c3bwpg","5671927473f58b000d664293","freq_resp","img/green_2bandit_b.png","70","70","test","","","","5","",""
"null","232255","pSARL_v2","pSARL_v2m8c3bwpg","5671927473f58b000d664293","fixation","img/fixation.png","null","","test","","","","","",""
"301.2000000476837","232561","pSARL_v2","pSARL_v2m8c3bwpg","5671927473f58b000d664293","freq","img/green_2bandit_b2.png","70","70","test","1","90","90","5","",""
"null","233067","pSARL_v2","pSARL_v2m8c3bwpg","5671927473f58b000d664293","freq_resp","img/green_2bandit_b.png","70","70","test","","","","5","",""
"null","233235","pSARL_v2","pSARL_v2m8c3bwpg","5671927473f58b000d664293","fixation","img/fixation.png","null","","test","","","","","",""
"312.7000000476837","233552","pSARL_v2","pSARL_v2m8c3bwpg","5671927473f58b000d664293","freq","img/green_2bandit_b2.png","70","70","test","1","91","91","5","",""
"null","234051","pSARL_v2","pSARL_v2m8c3bwpg","5671927473f58b000d664293","freq_resp","img/green_2bandit_b.png","70","70","test","","","","5","",""
"null","234219","pSARL_v2","pSARL_v2m8c3bwpg","5671927473f58b000d664293","fixation","img/fixation.png","null","","test","","","","","",""
"232.10000002384186","234456","pSARL_v2","pSARL_v2m8c3bwpg","5671927473f58b000d664293","freq","img/green_2bandit_b2.png","70","70","test","1","92","92","5","",""
"null","235036","pSARL_v2","pSARL_v2m8c3bwpg","5671927473f58b000d664293","freq_resp","img/green_2bandit_b.png","70","70","test","","","","5","",""
"null","235204","pSARL_v2","pSARL_v2m8c3bwpg","5671927473f58b000d664293","fixation","img/fixation.png","null","","test","","","","","",""
"271.89999997615814","235480","pSARL_v2","pSARL_v2m8c3bwpg","5671927473f58b000d664293","freq","img/green_2bandit_b2.png","70","70","test","1","93","93","5","",""
"null","236013","pSARL_v2","pSARL_v2m8c3bwpg","5671927473f58b000d664293","freq_resp","img/green_2bandit_b.png","70","70","test","","","","5","",""
"null","236167","pSARL_v2","pSARL_v2m8c3bwpg","5671927473f58b000d664293","fixation","img/fixation.png","null","","test","","","","","",""
"276.90000009536743","236448","pSARL_v2","pSARL_v2m8c3bwpg","5671927473f58b000d664293","freq","img/green_2bandit_b2.png","70","70","test","1","94","94","5","",""
"null","236981","pSARL_v2","pSARL_v2m8c3bwpg","5671927473f58b000d664293","freq_resp","img/green_2bandit_b.png","70","70","test","","","","5","",""
"null","237151","pSARL_v2","pSARL_v2m8c3bwpg","5671927473f58b000d664293","fixation","img/fixation.png","null","","test","","","","","",""
"276.5","237432","pSARL_v2","pSARL_v2m8c3bwpg","5671927473f58b000d664293","freq","img/green_2bandit_b2.png","70","70","test","1","95","95","5","",""
"null","237966","pSARL_v2","pSARL_v2m8c3bwpg","5671927473f58b000d664293","freq_resp","img/green_2bandit_b.png","70","70","test","","","","5","",""
"null","238120","pSARL_v2","pSARL_v2m8c3bwpg","5671927473f58b000d664293","fixation","img/fixation.png","null","","test","","","","","",""
"235.60000002384186","238360","pSARL_v2","pSARL_v2m8c3bwpg","5671927473f58b000d664293","freq","img/green_2bandit_b2.png","70","70","test","1","96","96","5","",""
"null","238933","pSARL_v2","pSARL_v2m8c3bwpg","5671927473f58b000d664293","freq_resp","img/green_2bandit_b.png","70","70","test","","","","5","",""
"null","239087","pSARL_v2","pSARL_v2m8c3bwpg","5671927473f58b000d664293","fixation","img/fixation.png","null","","test","","","","","",""
"436.40000009536743","239528","pSARL_v2","pSARL_v2m8c3bwpg","5671927473f58b000d664293","freq","img/green_2bandit_b2.png","70","70","test","1","97","97","5","",""
"null","239901","pSARL_v2","pSARL_v2m8c3bwpg","5671927473f58b000d664293","freq_resp","img/green_2bandit_b.png","70","70","test","","","","5","",""
"null","240069","pSARL_v2","pSARL_v2m8c3bwpg","5671927473f58b000d664293","fixation","img/fixation.png","null","","test","","","","","",""
"350.6999999284744","240423","pSARL_v2","pSARL_v2m8c3bwpg","5671927473f58b000d664293","freq","img/green_2bandit_b2.png","70","70","test","1","98","98","5","",""
"null","240884","pSARL_v2","pSARL_v2m8c3bwpg","5671927473f58b000d664293","freq_resp","img/green_2bandit_b.png","70","70","test","","","","5","",""
"null","241052","pSARL_v2","pSARL_v2m8c3bwpg","5671927473f58b000d664293","fixation","img/fixation.png","null","","test","","","","","",""
"312.10000002384186","241368","pSARL_v2","pSARL_v2m8c3bwpg","5671927473f58b000d664293","freq","img/green_2bandit_b2.png","70","70","test","1","99","99","5","",""
"null","241868","pSARL_v2","pSARL_v2m8c3bwpg","5671927473f58b000d664293","freq_resp","img/green_2bandit_b.png","70","70","test","","","","5","",""
"null","242036","pSARL_v2","pSARL_v2m8c3bwpg","5671927473f58b000d664293","fixation","img/fixation.png","null","","test","","","","","",""
"351.5","242391","pSARL_v2","pSARL_v2m8c3bwpg","5671927473f58b000d664293","infreq","img/orange_2bandit_b2.png","68","68","test","1","100","100","5","",""
"null","242852","pSARL_v2","pSARL_v2m8c3bwpg","5671927473f58b000d664293","infreq_resp","img/orange_2bandit_b.png","68","68","test","","","","5","",""
"null","243020","pSARL_v2","pSARL_v2m8c3bwpg","5671927473f58b000d664293","fixation","img/fixation.png","null","","test","","","","","",""
"407.39999997615814","243432","pSARL_v2","pSARL_v2m8c3bwpg","5671927473f58b000d664293","infreq","img/orange_2bandit_b2.png","68","68","test","1","101","101","5","",""
"null","243835","pSARL_v2","pSARL_v2m8c3bwpg","5671927473f58b000d664293","infreq_resp","img/orange_2bandit_b.png","68","68","test","","","","5","",""
"null","244005","pSARL_v2","pSARL_v2m8c3bwpg","5671927473f58b000d664293","fixation","img/fixation.png","null","","test","","","","","",""
"358.89999997615814","244368","pSARL_v2","pSARL_v2m8c3bwpg","5671927473f58b000d664293","freq","img/green_2bandit_b2.png","70","70","test","1","102","102","5","",""
"null","244820","pSARL_v2","pSARL_v2m8c3bwpg","5671927473f58b000d664293","freq_resp","img/green_2bandit_b.png","70","70","test","","","","5","",""
"null","244986","pSARL_v2","pSARL_v2m8c3bwpg","5671927473f58b000d664293","fixation","img/fixation.png","null","","test","","","","","",""
"361.5","245351","pSARL_v2","pSARL_v2m8c3bwpg","5671927473f58b000d664293","infreq","img/orange_2bandit_b2.png","68","68","test","1","103","103","5","",""
"null","245800","pSARL_v2","pSARL_v2m8c3bwpg","5671927473f58b000d664293","infreq_resp","img/orange_2bandit_b.png","68","68","test","","","","5","",""
"null","245955","pSARL_v2","pSARL_v2m8c3bwpg","5671927473f58b000d664293","fixation","img/fixation.png","null","","test","","","","","",""
"320.5","246281","pSARL_v2","pSARL_v2m8c3bwpg","5671927473f58b000d664293","freq","img/green_2bandit_b2.png","70","70","test","1","104","104","5","",""
"null","246768","pSARL_v2","pSARL_v2m8c3bwpg","5671927473f58b000d664293","freq_resp","img/green_2bandit_b.png","70","70","test","","","","5","",""
"null","246938","pSARL_v2","pSARL_v2m8c3bwpg","5671927473f58b000d664293","fixation","img/fixation.png","null","","test","","","","","",""
"306.39999997615814","247249","pSARL_v2","pSARL_v2m8c3bwpg","5671927473f58b000d664293","freq","img/green_2bandit_b2.png","70","70","test","1","105","105","5","",""
"null","247752","pSARL_v2","pSARL_v2m8c3bwpg","5671927473f58b000d664293","freq_resp","img/green_2bandit_b.png","70","70","test","","","","5","",""
"null","247908","pSARL_v2","pSARL_v2m8c3bwpg","5671927473f58b000d664293","fixation","img/fixation.png","null","","test","","","","","",""
"263.8000000715256","248175","pSARL_v2","pSARL_v2m8c3bwpg","5671927473f58b000d664293","freq","img/green_2bandit_b2.png","70","70","test","1","106","106","5","",""
"null","248720","pSARL_v2","pSARL_v2m8c3bwpg","5671927473f58b000d664293","freq_resp","img/green_2bandit_b.png","70","70","test","","","","5","",""
"null","248887","pSARL_v2","pSARL_v2m8c3bwpg","5671927473f58b000d664293","fixation","img/fixation.png","null","","test","","","","","",""
"380.5","249271","pSARL_v2","pSARL_v2m8c3bwpg","5671927473f58b000d664293","reward","img/slot.png","74","","test","","","","","",""
"null","250040","pSARL_v2","pSARL_v2m8c3bwpg","5671927473f58b000d664293","points","<div class=""veryhighPoints""> +1 </div>","null","na","test","","","","5","1","4"
"403.6999999284744","250447","pSARL_v2","pSARL_v2m8c3bwpg","5671927473f58b000d664293","freq","img/green_2bandit_b2.png","70","70","test","1","107","107","6","",""
"null","250855","pSARL_v2","pSARL_v2m8c3bwpg","5671927473f58b000d664293","freq_resp","img/green_2bandit_b.png","70","70","test","","","","6","",""
"null","251010","pSARL_v2","pSARL_v2m8c3bwpg","5671927473f58b000d664293","fixation","img/fixation.png","null","","test","","","","","",""
"337.7999999523163","251351","pSARL_v2","pSARL_v2m8c3bwpg","5671927473f58b000d664293","freq","img/green_2bandit_b2.png","70","70","test","1","108","108","6","",""
"null","251825","pSARL_v2","pSARL_v2m8c3bwpg","5671927473f58b000d664293","freq_resp","img/green_2bandit_b.png","70","70","test","","","","6","",""
"null","251979","pSARL_v2","pSARL_v2m8c3bwpg","5671927473f58b000d664293","fixation","img/fixation.png","null","","test","","","","","",""
"312.10000002384186","252294","pSARL_v2","pSARL_v2m8c3bwpg","5671927473f58b000d664293","freq","img/green_2bandit_b2.png","70","70","test","1","109","109","6","",""
"null","252797","pSARL_v2","pSARL_v2m8c3bwpg","5671927473f58b000d664293","freq_resp","img/green_2bandit_b.png","70","70","test","","","","6","",""
"null","252965","pSARL_v2","pSARL_v2m8c3bwpg","5671927473f58b000d664293","fixation","img/fixation.png","null","","test","","","","","",""
"294.8000000715256","253264","pSARL_v2","pSARL_v2m8c3bwpg","5671927473f58b000d664293","freq","img/green_2bandit_b2.png","70","70","test","1","110","110","6","",""
"null","253777","pSARL_v2","pSARL_v2m8c3bwpg","5671927473f58b000d664293","freq_resp","img/green_2bandit_b.png","70","70","test","","","","6","",""
"null","253932","pSARL_v2","pSARL_v2m8c3bwpg","5671927473f58b000d664293","fixation","img/fixation.png","null","","test","","","","","",""
"296","254232","pSARL_v2","pSARL_v2m8c3bwpg","5671927473f58b000d664293","freq","img/green_2bandit_b2.png","70","70","test","1","111","111","6","",""
"null","254747","pSARL_v2","pSARL_v2m8c3bwpg","5671927473f58b000d664293","freq_resp","img/green_2bandit_b.png","70","70","test","","","","6","",""
"null","254902","pSARL_v2","pSARL_v2m8c3bwpg","5671927473f58b000d664293","fixation","img/fixation.png","null","","test","","","","","",""
"310","255215","pSARL_v2","pSARL_v2m8c3bwpg","5671927473f58b000d664293","freq","img/green_2bandit_b2.png","70","70","test","1","112","112","6","",""
"null","255714","pSARL_v2","pSARL_v2m8c3bwpg","5671927473f58b000d664293","freq_resp","img/green_2bandit_b.png","70","70","test","","","","6","",""
"null","255869","pSARL_v2","pSARL_v2m8c3bwpg","5671927473f58b000d664293","fixation","img/fixation.png","null","","test","","","","","",""
"310.39999997615814","256183","pSARL_v2","pSARL_v2m8c3bwpg","5671927473f58b000d664293","freq","img/green_2bandit_b2.png","70","70","test","1","113","113","6","",""
"null","256681","pSARL_v2","pSARL_v2m8c3bwpg","5671927473f58b000d664293","freq_resp","img/green_2bandit_b.png","70","70","test","","","","6","",""
"null","256836","pSARL_v2","pSARL_v2m8c3bwpg","5671927473f58b000d664293","fixation","img/fixation.png","null","","test","","","","","",""
"311.5","257152","pSARL_v2","pSARL_v2m8c3bwpg","5671927473f58b000d664293","freq","img/green_2bandit_b2.png","70","70","test","1","114","114","6","",""
"null","257650","pSARL_v2","pSARL_v2m8c3bwpg","5671927473f58b000d664293","freq_resp","img/green_2bandit_b.png","70","70","test","","","","6","",""
"null","257819","pSARL_v2","pSARL_v2m8c3bwpg","5671927473f58b000d664293","fixation","img/fixation.png","null","","test","","","","","",""
"304.89999997615814","258128","pSARL_v2","pSARL_v2m8c3bwpg","5671927473f58b000d664293","freq","img/green_2bandit_b2.png","70","70","test","1","115","115","6","",""
"null","258635","pSARL_v2","pSARL_v2m8c3bwpg","5671927473f58b000d664293","freq_resp","img/green_2bandit_b.png","70","70","test","","","","6","",""
"null","258789","pSARL_v2","pSARL_v2m8c3bwpg","5671927473f58b000d664293","fixation","img/fixation.png","null","","test","","","","","",""
"422.39999997615814","259215","pSARL_v2","pSARL_v2m8c3bwpg","5671927473f58b000d664293","infreq","img/orange_2bandit_b2.png","68","68","test","1","116","116","6","",""
"null","259606","pSARL_v2","pSARL_v2m8c3bwpg","5671927473f58b000d664293","infreq_resp","img/orange_2bandit_b.png","68","68","test","","","","6","",""
"null","259760","pSARL_v2","pSARL_v2m8c3bwpg","5671927473f58b000d664293","fixation","img/fixation.png","null","","test","","","","","",""
"347.60000002384186","260112","pSARL_v2","pSARL_v2m8c3bwpg","5671927473f58b000d664293","freq","img/green_2bandit_b2.png","70","70","test","1","117","117","6","",""
"null","260574","pSARL_v2","pSARL_v2m8c3bwpg","5671927473f58b000d664293","freq_resp","img/green_2bandit_b.png","70","70","test","","","","6","",""
"null","260728","pSARL_v2","pSARL_v2m8c3bwpg","5671927473f58b000d664293","fixation","img/fixation.png","null","","test","","","","","",""
"442.89999997615814","261175","pSARL_v2","pSARL_v2m8c3bwpg","5671927473f58b000d664293","infreq","img/orange_2bandit_b2.png","68","68","test","1","118","118","6","",""
"null","261545","pSARL_v2","pSARL_v2m8c3bwpg","5671927473f58b000d664293","infreq_resp","img/orange_2bandit_b.png","68","68","test","","","","6","",""
"null","261712","pSARL_v2","pSARL_v2m8c3bwpg","5671927473f58b000d664293","fixation","img/fixation.png","null","","test","","","","","",""
"332","262047","pSARL_v2","pSARL_v2m8c3bwpg","5671927473f58b000d664293","freq","img/green_2bandit_b2.png","70","70","test","1","119","119","6","",""
"null","262527","pSARL_v2","pSARL_v2m8c3bwpg","5671927473f58b000d664293","freq_resp","img/green_2bandit_b.png","70","70","test","","","","6","",""
"null","262694","pSARL_v2","pSARL_v2m8c3bwpg","5671927473f58b000d664293","fixation","img/fixation.png","null","","test","","","","","",""
"309.1999999284744","263009","pSARL_v2","pSARL_v2m8c3bwpg","5671927473f58b000d664293","freq","img/green_2bandit_b2.png","70","70","test","1","120","120","6","",""
"null","263509","pSARL_v2","pSARL_v2m8c3bwpg","5671927473f58b000d664293","freq_resp","img/green_2bandit_b.png","70","70","test","","","","6","",""
"null","263664","pSARL_v2","pSARL_v2m8c3bwpg","5671927473f58b000d664293","fixation","img/fixation.png","null","","test","","","","","",""
"307.2000000476837","263975","pSARL_v2","pSARL_v2m8c3bwpg","5671927473f58b000d664293","freq","img/green_2bandit_b2.png","70","70","test","1","121","121","6","",""
"null","264476","pSARL_v2","pSARL_v2m8c3bwpg","5671927473f58b000d664293","freq_resp","img/green_2bandit_b.png","70","70","test","","","","6","",""
"null","264641","pSARL_v2","pSARL_v2m8c3bwpg","5671927473f58b000d664293","fixation","img/fixation.png","null","","test","","","","","",""
"322.7999999523163","264967","pSARL_v2","pSARL_v2m8c3bwpg","5671927473f58b000d664293","freq","img/green_2bandit_b2.png","70","70","test","1","122","122","6","",""
"null","265449","pSARL_v2","pSARL_v2m8c3bwpg","5671927473f58b000d664293","freq_resp","img/green_2bandit_b.png","70","70","test","","","","6","",""
"null","265618","pSARL_v2","pSARL_v2m8c3bwpg","5671927473f58b000d664293","fixation","img/fixation.png","null","","test","","","","","",""
"281.5","265904","pSARL_v2","pSARL_v2m8c3bwpg","5671927473f58b000d664293","freq","img/green_2bandit_b2.png","70","70","test","1","123","123","6","",""
"null","266430","pSARL_v2","pSARL_v2m8c3bwpg","5671927473f58b000d664293","freq_resp","img/green_2bandit_b.png","70","70","test","","","","6","",""
"null","266584","pSARL_v2","pSARL_v2m8c3bwpg","5671927473f58b000d664293","fixation","img/fixation.png","null","","test","","","","","",""
"315","266903","pSARL_v2","pSARL_v2m8c3bwpg","5671927473f58b000d664293","freq","img/green_2bandit_b2.png","70","70","test","1","124","124","6","",""
"null","267400","pSARL_v2","pSARL_v2m8c3bwpg","5671927473f58b000d664293","freq_resp","img/green_2bandit_b.png","70","70","test","","","","6","",""
"null","267555","pSARL_v2","pSARL_v2m8c3bwpg","5671927473f58b000d664293","fixation","img/fixation.png","null","","test","","","","","",""
"304","267863","pSARL_v2","pSARL_v2m8c3bwpg","5671927473f58b000d664293","freq","img/green_2bandit_b2.png","70","70","test","1","125","125","6","",""
"null","268372","pSARL_v2","pSARL_v2m8c3bwpg","5671927473f58b000d664293","freq_resp","img/green_2bandit_b.png","70","70","test","","","","6","",""
"null","268541","pSARL_v2","pSARL_v2m8c3bwpg","5671927473f58b000d664293","fixation","img/fixation.png","null","","test","","","","","",""
"287.5","268831","pSARL_v2","pSARL_v2m8c3bwpg","5671927473f58b000d664293","freq","img/green_2bandit_b2.png","70","70","test","1","126","126","6","",""
"null","269355","pSARL_v2","pSARL_v2m8c3bwpg","5671927473f58b000d664293","freq_resp","img/green_2bandit_b.png","70","70","test","","","","6","",""
"null","269508","pSARL_v2","pSARL_v2m8c3bwpg","5671927473f58b000d664293","fixation","img/fixation.png","null","","test","","","","","",""
"272.2000000476837","269786","pSARL_v2","pSARL_v2m8c3bwpg","5671927473f58b000d664293","freq","img/green_2bandit_b2.png","70","70","test","1","127","127","6","",""
"null","270324","pSARL_v2","pSARL_v2m8c3bwpg","5671927473f58b000d664293","freq_resp","img/green_2bandit_b.png","70","70","test","","","","6","",""
"null","270493","pSARL_v2","pSARL_v2m8c3bwpg","5671927473f58b000d664293","fixation","img/fixation.png","null","","test","","","","","",""
"279","270776","pSARL_v2","pSARL_v2m8c3bwpg","5671927473f58b000d664293","freq","img/green_2bandit_b2.png","70","70","test","1","128","128","6","",""
"null","271305","pSARL_v2","pSARL_v2m8c3bwpg","5671927473f58b000d664293","freq_resp","img/green_2bandit_b.png","70","70","test","","","","6","",""
"null","271460","pSARL_v2","pSARL_v2m8c3bwpg","5671927473f58b000d664293","fixation","img/fixation.png","null","","test","","","","","",""
"271.5","271735","pSARL_v2","pSARL_v2m8c3bwpg","5671927473f58b000d664293","freq","img/green_2bandit_b2.png","70","70","test","1","129","129","6","",""
"null","272278","pSARL_v2","pSARL_v2m8c3bwpg","5671927473f58b000d664293","freq_resp","img/green_2bandit_b.png","70","70","test","","","","6","",""
"null","272446","pSARL_v2","pSARL_v2m8c3bwpg","5671927473f58b000d664293","fixation","img/fixation.png","null","","test","","","","","",""
"309.1999999284744","272759","pSARL_v2","pSARL_v2m8c3bwpg","5671927473f58b000d664293","reward","img/slot.png","74","","test","","","","","",""
"null","273527","pSARL_v2","pSARL_v2m8c3bwpg","5671927473f58b000d664293","points","<div class=""verylowPoints""> -7 </div>","null","na","test","","","","6","-7","5"
"508.5","274040","pSARL_v2","pSARL_v2m8c3bwpg","5671927473f58b000d664293","freq","img/green_2bandit_b2.png","70","70","test","1","130","130","7","",""
"null","274342","pSARL_v2","pSARL_v2m8c3bwpg","5671927473f58b000d664293","freq_resp","img/green_2bandit_b.png","70","70","test","","","","7","",""
"null","274496","pSARL_v2","pSARL_v2m8c3bwpg","5671927473f58b000d664293","fixation","img/fixation.png","null","","test","","","","","",""
"459.89999997615814","274960","pSARL_v2","pSARL_v2m8c3bwpg","5671927473f58b000d664293","freq","img/green_2bandit_b2.png","70","70","test","1","131","131","7","",""
"null","275308","pSARL_v2","pSARL_v2m8c3bwpg","5671927473f58b000d664293","freq_resp","img/green_2bandit_b.png","70","70","test","","","","7","",""
"null","275478","pSARL_v2","pSARL_v2m8c3bwpg","5671927473f58b000d664293","fixation","img/fixation.png","null","","test","","","","","",""
"613.7000000476837","276096","pSARL_v2","pSARL_v2m8c3bwpg","5671927473f58b000d664293","freq","img/green_2bandit_b2.png","70","70","test","1","132","132","7","",""
"null","276292","pSARL_v2","pSARL_v2m8c3bwpg","5671927473f58b000d664293","freq_resp","img/green_2bandit_b.png","70","70","test","","","","7","",""
"null","276447","pSARL_v2","pSARL_v2m8c3bwpg","5671927473f58b000d664293","fixation","img/fixation.png","null","","test","","","","","",""
"324.2999999523163","276775","pSARL_v2","pSARL_v2m8c3bwpg","5671927473f58b000d664293","freq","img/green_2bandit_b2.png","70","70","test","1","133","133","7","",""
"null","277258","pSARL_v2","pSARL_v2m8c3bwpg","5671927473f58b000d664293","freq_resp","img/green_2bandit_b.png","70","70","test","","","","7","",""
"null","277413","pSARL_v2","pSARL_v2m8c3bwpg","5671927473f58b000d664293","fixation","img/fixation.png","null","","test","","","","","",""
"318.5","277735","pSARL_v2","pSARL_v2m8c3bwpg","5671927473f58b000d664293","freq","img/green_2bandit_b2.png","70","70","test","1","134","134","7","",""
"null","278228","pSARL_v2","pSARL_v2m8c3bwpg","5671927473f58b000d664293","freq_resp","img/green_2bandit_b.png","70","70","test","","","","7","",""
"null","278396","pSARL_v2","pSARL_v2m8c3bwpg","5671927473f58b000d664293","fixation","img/fixation.png","null","","test","","","","","",""
"311.2999999523163","278711","pSARL_v2","pSARL_v2m8c3bwpg","5671927473f58b000d664293","freq","img/green_2bandit_b2.png","70","70","test","1","135","135","7","",""
"null","279215","pSARL_v2","pSARL_v2m8c3bwpg","5671927473f58b000d664293","freq_resp","img/green_2bandit_b.png","70","70","test","","","","7","",""
"null","279385","pSARL_v2","pSARL_v2m8c3bwpg","5671927473f58b000d664293","fixation","img/fixation.png","null","","test","","","","","",""
"315.2999999523163","279704","pSARL_v2","pSARL_v2m8c3bwpg","5671927473f58b000d664293","freq","img/green_2bandit_b2.png","70","70","test","1","136","136","7","",""
"null","280199","pSARL_v2","pSARL_v2m8c3bwpg","5671927473f58b000d664293","freq_resp","img/green_2bandit_b.png","70","70","test","","","","7","",""
"null","280353","pSARL_v2","pSARL_v2m8c3bwpg","5671927473f58b000d664293","fixation","img/fixation.png","null","","test","","","","","",""
"314.39999997615814","280671","pSARL_v2","pSARL_v2m8c3bwpg","5671927473f58b000d664293","freq","img/green_2bandit_b2.png","70","70","test","1","137","137","7","",""
"null","281174","pSARL_v2","pSARL_v2m8c3bwpg","5671927473f58b000d664293","freq_resp","img/green_2bandit_b.png","70","70","test","","","","7","",""
"null","281330","pSARL_v2","pSARL_v2m8c3bwpg","5671927473f58b000d664293","fixation","img/fixation.png","null","","test","","","","","",""
"289.10000002384186","281623","pSARL_v2","pSARL_v2m8c3bwpg","5671927473f58b000d664293","infreq","img/orange_2bandit_b2.png","68","68","test","1","138","138","7","",""
"null","282146","pSARL_v2","pSARL_v2m8c3bwpg","5671927473f58b000d664293","infreq_resp","img/orange_2bandit_b.png","68","68","test","","","","7","",""
"null","282314","pSARL_v2","pSARL_v2m8c3bwpg","5671927473f58b000d664293","fixation","img/fixation.png","null","","test","","","","","",""
"313.39999997615814","282631","pSARL_v2","pSARL_v2m8c3bwpg","5671927473f58b000d664293","freq","img/green_2bandit_b2.png","70","70","test","1","139","139","7","",""
"null","283128","pSARL_v2","pSARL_v2m8c3bwpg","5671927473f58b000d664293","freq_resp","img/green_2bandit_b.png","70","70","test","","","","7","",""
"null","283283","pSARL_v2","pSARL_v2m8c3bwpg","5671927473f58b000d664293","fixation","img/fixation.png","null","","test","","","","","",""
"352.2000000476837","283640","pSARL_v2","pSARL_v2m8c3bwpg","5671927473f58b000d664293","freq","img/green_2bandit_b2.png","70","70","test","1","140","140","7","",""
"null","284098","pSARL_v2","pSARL_v2m8c3bwpg","5671927473f58b000d664293","freq_resp","img/green_2bandit_b.png","70","70","test","","","","7","",""
"null","284253","pSARL_v2","pSARL_v2m8c3bwpg","5671927473f58b000d664293","fixation","img/fixation.png","null","","test","","","","","",""
"334.7999999523163","284591","pSARL_v2","pSARL_v2m8c3bwpg","5671927473f58b000d664293","freq","img/green_2bandit_b2.png","70","70","test","1","141","141","7","",""
"null","285065","pSARL_v2","pSARL_v2m8c3bwpg","5671927473f58b000d664293","freq_resp","img/green_2bandit_b.png","70","70","test","","","","7","",""
"null","285233","pSARL_v2","pSARL_v2m8c3bwpg","5671927473f58b000d664293","fixation","img/fixation.png","null","","test","","","","","",""
"314","285552","pSARL_v2","pSARL_v2m8c3bwpg","5671927473f58b000d664293","freq","img/green_2bandit_b2.png","70","70","test","1","142","142","7","",""
"null","286049","pSARL_v2","pSARL_v2m8c3bwpg","5671927473f58b000d664293","freq_resp","img/green_2bandit_b.png","70","70","test","","","","7","",""
"null","286204","pSARL_v2","pSARL_v2m8c3bwpg","5671927473f58b000d664293","fixation","img/fixation.png","null","","test","","","","","",""
"319.40000009536743","286527","pSARL_v2","pSARL_v2m8c3bwpg","5671927473f58b000d664293","freq","img/green_2bandit_b2.png","70","70","test","1","143","143","7","",""
"null","287018","pSARL_v2","pSARL_v2m8c3bwpg","5671927473f58b000d664293","freq_resp","img/green_2bandit_b.png","70","70","test","","","","7","",""
"null","287186","pSARL_v2","pSARL_v2m8c3bwpg","5671927473f58b000d664293","fixation","img/fixation.png","null","","test","","","","","",""
"306","287495","pSARL_v2","pSARL_v2m8c3bwpg","5671927473f58b000d664293","freq","img/green_2bandit_b2.png","70","70","test","1","144","144","7","",""
"null","287998","pSARL_v2","pSARL_v2m8c3bwpg","5671927473f58b000d664293","freq_resp","img/green_2bandit_b.png","70","70","test","","","","7","",""
"null","288152","pSARL_v2","pSARL_v2m8c3bwpg","5671927473f58b000d664293","fixation","img/fixation.png","null","","test","","","","","",""
"259.1999999284744","288416","pSARL_v2","pSARL_v2m8c3bwpg","5671927473f58b000d664293","freq","img/green_2bandit_b2.png","70","70","test","1","145","145","7","",""
"null","288965","pSARL_v2","pSARL_v2m8c3bwpg","5671927473f58b000d664293","freq_resp","img/green_2bandit_b.png","70","70","test","","","","7","",""
"null","289119","pSARL_v2","pSARL_v2m8c3bwpg","5671927473f58b000d664293","fixation","img/fixation.png","null","","test","","","","","",""
"260.2999999523163","289383","pSARL_v2","pSARL_v2m8c3bwpg","5671927473f58b000d664293","freq","img/green_2bandit_b2.png","70","70","test","1","146","146","7","",""
"null","289937","pSARL_v2","pSARL_v2m8c3bwpg","5671927473f58b000d664293","freq_resp","img/green_2bandit_b.png","70","70","test","","","","7","",""
"null","290104","pSARL_v2","pSARL_v2m8c3bwpg","5671927473f58b000d664293","fixation","img/fixation.png","null","","test","","","","","",""
"267.3000000715256","290377","pSARL_v2","pSARL_v2m8c3bwpg","5671927473f58b000d664293","freq","img/green_2bandit_b2.png","70","70","test","1","147","147","7","",""
"null","290921","pSARL_v2","pSARL_v2m8c3bwpg","5671927473f58b000d664293","freq_resp","img/green_2bandit_b.png","70","70","test","","","","7","",""
"null","291089","pSARL_v2","pSARL_v2m8c3bwpg","5671927473f58b000d664293","fixation","img/fixation.png","null","","test","","","","","",""
"274.10000002384186","291367","pSARL_v2","pSARL_v2m8c3bwpg","5671927473f58b000d664293","freq","img/green_2bandit_b2.png","70","70","test","1","148","148","7","",""
"null","291908","pSARL_v2","pSARL_v2m8c3bwpg","5671927473f58b000d664293","freq_resp","img/green_2bandit_b.png","70","70","test","","","","7","",""
"null","292078","pSARL_v2","pSARL_v2m8c3bwpg","5671927473f58b000d664293","fixation","img/fixation.png","null","","test","","","","","",""
"262.39999997615814","292343","pSARL_v2","pSARL_v2m8c3bwpg","5671927473f58b000d664293","freq","img/green_2bandit_b2.png","70","70","test","1","149","149","7","",""
"null","292895","pSARL_v2","pSARL_v2m8c3bwpg","5671927473f58b000d664293","freq_resp","img/green_2bandit_b.png","70","70","test","","","","7","",""
"null","293050","pSARL_v2","pSARL_v2m8c3bwpg","5671927473f58b000d664293","fixation","img/fixation.png","null","","test","","","","","",""
"265.89999997615814","293321","pSARL_v2","pSARL_v2m8c3bwpg","5671927473f58b000d664293","freq","img/green_2bandit_b2.png","70","70","test","1","150","150","7","",""
"null","293873","pSARL_v2","pSARL_v2m8c3bwpg","5671927473f58b000d664293","freq_resp","img/green_2bandit_b.png","70","70","test","","","","7","",""
"null","294028","pSARL_v2","pSARL_v2m8c3bwpg","5671927473f58b000d664293","fixation","img/fixation.png","null","","test","","","","","",""
"376.40000009536743","294409","pSARL_v2","pSARL_v2m8c3bwpg","5671927473f58b000d664293","freq","img/green_2bandit_b2.png","70","70","test","1","151","151","7","",""
"null","294842","pSARL_v2","pSARL_v2m8c3bwpg","5671927473f58b000d664293","freq_resp","img/green_2bandit_b.png","70","70","test","","","","7","",""
"null","295011","pSARL_v2","pSARL_v2m8c3bwpg","5671927473f58b000d664293","fixation","img/fixation.png","null","","test","","","","","",""
"296.89999997615814","295313","pSARL_v2","pSARL_v2m8c3bwpg","5671927473f58b000d664293","infreq","img/orange_2bandit_b2.png","68","68","test","1","152","152","7","",""
"null","295828","pSARL_v2","pSARL_v2m8c3bwpg","5671927473f58b000d664293","infreq_resp","img/orange_2bandit_b.png","68","68","test","","","","7","",""
"null","295982","pSARL_v2","pSARL_v2m8c3bwpg","5671927473f58b000d664293","fixation","img/fixation.png","null","","test","","","","","",""
"310.60000002384186","296297","pSARL_v2","pSARL_v2m8c3bwpg","5671927473f58b000d664293","freq","img/green_2bandit_b2.png","70","70","test","1","153","153","7","",""
"null","296793","pSARL_v2","pSARL_v2m8c3bwpg","5671927473f58b000d664293","freq_resp","img/green_2bandit_b.png","70","70","test","","","","7","",""
"null","296948","pSARL_v2","pSARL_v2m8c3bwpg","5671927473f58b000d664293","fixation","img/fixation.png","null","","test","","","","","",""
"328.60000002384186","297280","pSARL_v2","pSARL_v2m8c3bwpg","5671927473f58b000d664293","freq","img/green_2bandit_b2.png","70","70","test","1","154","154","7","",""
"null","297766","pSARL_v2","pSARL_v2m8c3bwpg","5671927473f58b000d664293","freq_resp","img/green_2bandit_b.png","70","70","test","","","","7","",""
"null","297935","pSARL_v2","pSARL_v2m8c3bwpg","5671927473f58b000d664293","fixation","img/fixation.png","null","","test","","","","","",""
"277.5","298217","pSARL_v2","pSARL_v2m8c3bwpg","5671927473f58b000d664293","freq","img/green_2bandit_b2.png","70","70","test","1","155","155","7","",""
"null","298747","pSARL_v2","pSARL_v2m8c3bwpg","5671927473f58b000d664293","freq_resp","img/green_2bandit_b.png","70","70","test","","","","7","",""
"null","298902","pSARL_v2","pSARL_v2m8c3bwpg","5671927473f58b000d664293","fixation","img/fixation.png","null","","test","","","","","",""
"422","299329","pSARL_v2","pSARL_v2m8c3bwpg","5671927473f58b000d664293","reward","img/slot.png","74","","test","","","","","",""
"null","300086","pSARL_v2","pSARL_v2m8c3bwpg","5671927473f58b000d664293","points","<div class=""verylowPoints""> -6 </div>","null","na","test","","","","7","-6","6"
"350.39999997615814","300440","pSARL_v2","pSARL_v2m8c3bwpg","5671927473f58b000d664293","freq","img/green_2bandit_b2.png","70","70","test","1","156","156","8","",""
"null","300898","pSARL_v2","pSARL_v2m8c3bwpg","5671927473f58b000d664293","freq_resp","img/green_2bandit_b.png","70","70","test","","","","8","",""
"null","301053","pSARL_v2","pSARL_v2m8c3bwpg","5671927473f58b000d664293","fixation","img/fixation.png","null","","test","","","","","",""
"359.5","301417","pSARL_v2","pSARL_v2m8c3bwpg","5671927473f58b000d664293","freq","img/green_2bandit_b2.png","70","70","test","1","157","157","8","",""
"null","301869","pSARL_v2","pSARL_v2m8c3bwpg","5671927473f58b000d664293","freq_resp","img/green_2bandit_b.png","70","70","test","","","","8","",""
"null","302024","pSARL_v2","pSARL_v2m8c3bwpg","5671927473f58b000d664293","fixation","img/fixation.png","null","","test","","","","","",""
"348.89999997615814","302377","pSARL_v2","pSARL_v2m8c3bwpg","5671927473f58b000d664293","freq","img/green_2bandit_b2.png","70","70","test","1","158","158","8","",""
"null","302841","pSARL_v2","pSARL_v2m8c3bwpg","5671927473f58b000d664293","freq_resp","img/green_2bandit_b.png","70","70","test","","","","8","",""
"null","302995","pSARL_v2","pSARL_v2m8c3bwpg","5671927473f58b000d664293","fixation","img/fixation.png","null","","test","","","","","",""
"345.10000002384186","303345","pSARL_v2","pSARL_v2m8c3bwpg","5671927473f58b000d664293","freq","img/green_2bandit_b2.png","70","70","test","1","159","159","8","",""
"null","303811","pSARL_v2","pSARL_v2m8c3bwpg","5671927473f58b000d664293","freq_resp","img/green_2bandit_b.png","70","70","test","","","","8","",""
"null","303966","pSARL_v2","pSARL_v2m8c3bwpg","5671927473f58b000d664293","fixation","img/fixation.png","null","","test","","","","","",""
"342.7000000476837","304313","pSARL_v2","pSARL_v2m8c3bwpg","5671927473f58b000d664293","freq","img/green_2bandit_b2.png","70","70","test","1","160","160","8","",""
"null","304777","pSARL_v2","pSARL_v2m8c3bwpg","5671927473f58b000d664293","freq_resp","img/green_2bandit_b.png","70","70","test","","","","8","",""
"null","304931","pSARL_v2","pSARL_v2m8c3bwpg","5671927473f58b000d664293","fixation","img/fixation.png","null","","test","","","","","",""
"336.89999997615814","305273","pSARL_v2","pSARL_v2m8c3bwpg","5671927473f58b000d664293","freq","img/green_2bandit_b2.png","70","70","test","1","161","161","8","",""
"null","305747","pSARL_v2","pSARL_v2m8c3bwpg","5671927473f58b000d664293","freq_resp","img/green_2bandit_b.png","70","70","test","","","","8","",""
"null","305901","pSARL_v2","pSARL_v2m8c3bwpg","5671927473f58b000d664293","fixation","img/fixation.png","null","","test","","","","","",""
"335.39999997615814","306241","pSARL_v2","pSARL_v2m8c3bwpg","5671927473f58b000d664293","freq","img/green_2bandit_b2.png","70","70","test","1","162","162","8","",""
"null","306713","pSARL_v2","pSARL_v2m8c3bwpg","5671927473f58b000d664293","freq_resp","img/green_2bandit_b.png","70","70","test","","","","8","",""
"null","306868","pSARL_v2","pSARL_v2m8c3bwpg","5671927473f58b000d664293","fixation","img/fixation.png","null","","test","","","","","",""
"320.2999999523163","307191","pSARL_v2","pSARL_v2m8c3bwpg","5671927473f58b000d664293","freq","img/green_2bandit_b2.png","70","70","test","1","163","163","8","",""
"null","307684","pSARL_v2","pSARL_v2m8c3bwpg","5671927473f58b000d664293","freq_resp","img/green_2bandit_b.png","70","70","test","","","","8","",""
"null","307853","pSARL_v2","pSARL_v2m8c3bwpg","5671927473f58b000d664293","fixation","img/fixation.png","null","","test","","","","","",""
"294.89999997615814","308153","pSARL_v2","pSARL_v2m8c3bwpg","5671927473f58b000d664293","freq","img/green_2bandit_b2.png","70","70","test","1","164","164","8","",""
"null","308667","pSARL_v2","pSARL_v2m8c3bwpg","5671927473f58b000d664293","freq_resp","img/green_2bandit_b.png","70","70","test","","","","8","",""
"null","308837","pSARL_v2","pSARL_v2m8c3bwpg","5671927473f58b000d664293","fixation","img/fixation.png","null","","test","","","","","",""
"383.2999999523163","309224","pSARL_v2","pSARL_v2m8c3bwpg","5671927473f58b000d664293","infreq","img/orange_2bandit_b2.png","68","68","test","1","165","165","8","",""
"null","309648","pSARL_v2","pSARL_v2m8c3bwpg","5671927473f58b000d664293","infreq_resp","img/orange_2bandit_b.png","68","68","test","","","","8","",""
"null","309815","pSARL_v2","pSARL_v2m8c3bwpg","5671927473f58b000d664293","fixation","img/fixation.png","null","","test","","","","","",""
"469.10000002384186","310289","pSARL_v2","pSARL_v2m8c3bwpg","5671927473f58b000d664293","freq","img/green_2bandit_b2.png","70","70","test","1","166","166","8","",""
"null","310628","pSARL_v2","pSARL_v2m8c3bwpg","5671927473f58b000d664293","freq_resp","img/green_2bandit_b.png","70","70","test","","","","8","",""
"null","310784","pSARL_v2","pSARL_v2m8c3bwpg","5671927473f58b000d664293","fixation","img/fixation.png","null","","test","","","","","",""
"461.10000002384186","311250","pSARL_v2","pSARL_v2m8c3bwpg","5671927473f58b000d664293","infreq","img/orange_2bandit_b2.png","68","68","test","1","167","167","8","",""
"null","311603","pSARL_v2","pSARL_v2m8c3bwpg","5671927473f58b000d664293","infreq_resp","img/orange_2bandit_b.png","68","68","test","","","","8","",""
"null","311758","pSARL_v2","pSARL_v2m8c3bwpg","5671927473f58b000d664293","fixation","img/fixation.png","null","","test","","","","","",""
"301.6999999284744","312065","pSARL_v2","pSARL_v2m8c3bwpg","5671927473f58b000d664293","freq","img/green_2bandit_b2.png","70","70","test","1","168","168","8","",""
"null","312573","pSARL_v2","pSARL_v2m8c3bwpg","5671927473f58b000d664293","freq_resp","img/green_2bandit_b.png","70","70","test","","","","8","",""
"null","312728","pSARL_v2","pSARL_v2m8c3bwpg","5671927473f58b000d664293","fixation","img/fixation.png","null","","test","","","","","",""
"300.1999999284744","313032","pSARL_v2","pSARL_v2m8c3bwpg","5671927473f58b000d664293","freq","img/green_2bandit_b2.png","70","70","test","1","169","169","8","",""
"null","313542","pSARL_v2","pSARL_v2m8c3bwpg","5671927473f58b000d664293","freq_resp","img/green_2bandit_b.png","70","70","test","","","","8","",""
"null","313697","pSARL_v2","pSARL_v2m8c3bwpg","5671927473f58b000d664293","fixation","img/fixation.png","null","","test","","","","","",""
"274.7999999523163","313976","pSARL_v2","pSARL_v2m8c3bwpg","5671927473f58b000d664293","freq","img/green_2bandit_b2.png","70","70","test","1","170","170","8","",""
"null","314513","pSARL_v2","pSARL_v2m8c3bwpg","5671927473f58b000d664293","freq_resp","img/green_2bandit_b.png","70","70","test","","","","8","",""
"null","314667","pSARL_v2","pSARL_v2m8c3bwpg","5671927473f58b000d664293","fixation","img/fixation.png","null","","test","","","","","",""
"257","314928","pSARL_v2","pSARL_v2m8c3bwpg","5671927473f58b000d664293","freq","img/green_2bandit_b2.png","70","70","test","1","171","171","8","",""
"null","315483","pSARL_v2","pSARL_v2m8c3bwpg","5671927473f58b000d664293","freq_resp","img/green_2bandit_b.png","70","70","test","","","","8","",""
"null","315636","pSARL_v2","pSARL_v2m8c3bwpg","5671927473f58b000d664293","fixation","img/fixation.png","null","","test","","","","","",""
"271.89999997615814","315912","pSARL_v2","pSARL_v2m8c3bwpg","5671927473f58b000d664293","freq","img/green_2bandit_b2.png","70","70","test","1","172","172","8","",""
"null","316453","pSARL_v2","pSARL_v2m8c3bwpg","5671927473f58b000d664293","freq_resp","img/green_2bandit_b.png","70","70","test","","","","8","",""
"null","316607","pSARL_v2","pSARL_v2m8c3bwpg","5671927473f58b000d664293","fixation","img/fixation.png","null","","test","","","","","",""
"301.2999999523163","316912","pSARL_v2","pSARL_v2m8c3bwpg","5671927473f58b000d664293","freq","img/green_2bandit_b2.png","70","70","test","1","173","173","8","",""
"null","317424","pSARL_v2","pSARL_v2m8c3bwpg","5671927473f58b000d664293","freq_resp","img/green_2bandit_b.png","70","70","test","","","","8","",""
"null","317592","pSARL_v2","pSARL_v2m8c3bwpg","5671927473f58b000d664293","fixation","img/fixation.png","null","","test","","","","","",""
"283.7999999523163","317879","pSARL_v2","pSARL_v2m8c3bwpg","5671927473f58b000d664293","freq","img/green_2bandit_b2.png","70","70","test","1","174","174","8","",""
"null","318410","pSARL_v2","pSARL_v2m8c3bwpg","5671927473f58b000d664293","freq_resp","img/green_2bandit_b.png","70","70","test","","","","8","",""
"null","318577","pSARL_v2","pSARL_v2m8c3bwpg","5671927473f58b000d664293","fixation","img/fixation.png","null","","test","","","","","",""
"339","318919","pSARL_v2","pSARL_v2m8c3bwpg","5671927473f58b000d664293","freq","img/green_2bandit_b2.png","70","70","test","1","175","175","8","",""
"null","319395","pSARL_v2","pSARL_v2m8c3bwpg","5671927473f58b000d664293","freq_resp","img/green_2bandit_b.png","70","70","test","","","","8","",""
"null","319550","pSARL_v2","pSARL_v2m8c3bwpg","5671927473f58b000d664293","fixation","img/fixation.png","null","","test","","","","","",""
"302","319856","pSARL_v2","pSARL_v2m8c3bwpg","5671927473f58b000d664293","reward","img/slot.png","74","","test","","","","","",""
"null","320623","pSARL_v2","pSARL_v2m8c3bwpg","5671927473f58b000d664293","points","<div class=""verylowPoints""> -4 </div>","null","na","test","","","","8","-4","7"
"477","321105","pSARL_v2","pSARL_v2m8c3bwpg","5671927473f58b000d664293","freq","img/green_2bandit_b2.png","70","70","test","1","176","176","9","",""
"null","321440","pSARL_v2","pSARL_v2m8c3bwpg","5671927473f58b000d664293","freq_resp","img/green_2bandit_b.png","70","70","test","","","","9","",""
"null","321607","pSARL_v2","pSARL_v2m8c3bwpg","5671927473f58b000d664293","fixation","img/fixation.png","null","","test","","","","","",""
"501.09999990463257","322113","pSARL_v2","pSARL_v2m8c3bwpg","5671927473f58b000d664293","freq","img/green_2bandit_b2.png","70","70","test","1","177","177","9","",""
"null","322427","pSARL_v2","pSARL_v2m8c3bwpg","5671927473f58b000d664293","freq_resp","img/green_2bandit_b.png","70","70","test","","","","9","",""
"null","322594","pSARL_v2","pSARL_v2m8c3bwpg","5671927473f58b000d664293","fixation","img/fixation.png","null","","test","","","","","",""
"602","323201","pSARL_v2","pSARL_v2m8c3bwpg","5671927473f58b000d664293","freq","img/green_2bandit_b2.png","70","70","test","1","178","178","9","",""
"null","323413","pSARL_v2","pSARL_v2m8c3bwpg","5671927473f58b000d664293","freq_resp","img/green_2bandit_b.png","70","70","test","","","","9","",""
"null","323580","pSARL_v2","pSARL_v2m8c3bwpg","5671927473f58b000d664293","fixation","img/fixation.png","null","","test","","","","","",""
"408.1999999284744","323992","pSARL_v2","pSARL_v2m8c3bwpg","5671927473f58b000d664293","infreq","img/orange_2bandit_b2.png","68","68","test","1","179","179","9","",""
"null","324401","pSARL_v2","pSARL_v2m8c3bwpg","5671927473f58b000d664293","infreq_resp","img/orange_2bandit_b.png","68","68","test","","","","9","",""
"null","324570","pSARL_v2","pSARL_v2m8c3bwpg","5671927473f58b000d664293","fixation","img/fixation.png","null","","test","","","","","",""
"266.5","324840","pSARL_v2","pSARL_v2m8c3bwpg","5671927473f58b000d664293","freq","img/green_2bandit_b2.png","70","70","test","1","180","180","9","",""
"null","325385","pSARL_v2","pSARL_v2m8c3bwpg","5671927473f58b000d664293","freq_resp","img/green_2bandit_b.png","70","70","test","","","","9","",""
"null","325538","pSARL_v2","pSARL_v2m8c3bwpg","5671927473f58b000d664293","fixation","img/fixation.png","null","","test","","","","","",""
"353.7999999523163","325895","pSARL_v2","pSARL_v2m8c3bwpg","5671927473f58b000d664293","freq","img/green_2bandit_b2.png","70","70","test","1","181","181","9","",""
"null","326353","pSARL_v2","pSARL_v2m8c3bwpg","5671927473f58b000d664293","freq_resp","img/green_2bandit_b.png","70","70","test","","","","9","",""
"null","326509","pSARL_v2","pSARL_v2m8c3bwpg","5671927473f58b000d664293","fixation","img/fixation.png","null","","test","","","","","",""
"358.6999999284744","326872","pSARL_v2","pSARL_v2m8c3bwpg","5671927473f58b000d664293","freq","img/green_2bandit_b2.png","70","70","test","1","182","182","9","",""
"null","327321","pSARL_v2","pSARL_v2m8c3bwpg","5671927473f58b000d664293","freq_resp","img/green_2bandit_b.png","70","70","test","","","","9","",""
"null","327478","pSARL_v2","pSARL_v2m8c3bwpg","5671927473f58b000d664293","fixation","img/fixation.png","null","","test","","","","","",""
"334.2999999523163","327815","pSARL_v2","pSARL_v2m8c3bwpg","5671927473f58b000d664293","freq","img/green_2bandit_b2.png","70","70","test","1","183","183","9","",""
"null","328291","pSARL_v2","pSARL_v2m8c3bwpg","5671927473f58b000d664293","freq_resp","img/green_2bandit_b.png","70","70","test","","","","9","",""
"null","328460","pSARL_v2","pSARL_v2m8c3bwpg","5671927473f58b000d664293","fixation","img/fixation.png","null","","test","","","","","",""
"336","328801","pSARL_v2","pSARL_v2m8c3bwpg","5671927473f58b000d664293","freq","img/green_2bandit_b2.png","70","70","test","1","184","184","9","",""
"null","329274","pSARL_v2","pSARL_v2m8c3bwpg","5671927473f58b000d664293","freq_resp","img/green_2bandit_b.png","70","70","test","","","","9","",""
"null","329442","pSARL_v2","pSARL_v2m8c3bwpg","5671927473f58b000d664293","fixation","img/fixation.png","null","","test","","","","","",""
"322.10000002384186","329769","pSARL_v2","pSARL_v2m8c3bwpg","5671927473f58b000d664293","freq","img/green_2bandit_b2.png","70","70","test","1","185","185","9","",""
"null","330262","pSARL_v2","pSARL_v2m8c3bwpg","5671927473f58b000d664293","freq_resp","img/green_2bandit_b.png","70","70","test","","","","9","",""
"null","330430","pSARL_v2","pSARL_v2m8c3bwpg","5671927473f58b000d664293","fixation","img/fixation.png","null","","test","","","","","",""
"261.6999999284744","330697","pSARL_v2","pSARL_v2m8c3bwpg","5671927473f58b000d664293","freq","img/green_2bandit_b2.png","70","70","test","1","186","186","9","",""
"null","331244","pSARL_v2","pSARL_v2m8c3bwpg","5671927473f58b000d664293","freq_resp","img/green_2bandit_b.png","70","70","test","","","","9","",""
"null","331413","pSARL_v2","pSARL_v2m8c3bwpg","5671927473f58b000d664293","fixation","img/fixation.png","null","","test","","","","","",""
"255.5","331673","pSARL_v2","pSARL_v2m8c3bwpg","5671927473f58b000d664293","freq","img/green_2bandit_b2.png","70","70","test","1","187","187","9","",""
"null","332229","pSARL_v2","pSARL_v2m8c3bwpg","5671927473f58b000d664293","freq_resp","img/green_2bandit_b.png","70","70","test","","","","9","",""
"null","332397","pSARL_v2","pSARL_v2m8c3bwpg","5671927473f58b000d664293","fixation","img/fixation.png","null","","test","","","","","",""
"271.10000002384186","332673","pSARL_v2","pSARL_v2m8c3bwpg","5671927473f58b000d664293","freq","img/green_2bandit_b2.png","70","70","test","1","188","188","9","",""
"null","333213","pSARL_v2","pSARL_v2m8c3bwpg","5671927473f58b000d664293","freq_resp","img/green_2bandit_b.png","70","70","test","","","","9","",""
"null","333384","pSARL_v2","pSARL_v2m8c3bwpg","5671927473f58b000d664293","fixation","img/fixation.png","null","","test","","","","","",""
"276.39999997615814","333667","pSARL_v2","pSARL_v2m8c3bwpg","5671927473f58b000d664293","freq","img/green_2bandit_b2.png","70","70","test","1","189","189","9","",""
"null","334207","pSARL_v2","pSARL_v2m8c3bwpg","5671927473f58b000d664293","freq_resp","img/green_2bandit_b.png","70","70","test","","","","9","",""
"null","334373","pSARL_v2","pSARL_v2m8c3bwpg","5671927473f58b000d664293","fixation","img/fixation.png","null","","test","","","","","",""
"390.7999999523163","334768","pSARL_v2","pSARL_v2m8c3bwpg","5671927473f58b000d664293","infreq","img/orange_2bandit_b2.png","68","68","test","1","190","190","9","",""
"null","335187","pSARL_v2","pSARL_v2m8c3bwpg","5671927473f58b000d664293","infreq_resp","img/orange_2bandit_b.png","68","68","test","","","","9","",""
"null","335356","pSARL_v2","pSARL_v2m8c3bwpg","5671927473f58b000d664293","fixation","img/fixation.png","null","","test","","","","","",""
"353.10000002384186","335713","pSARL_v2","pSARL_v2m8c3bwpg","5671927473f58b000d664293","freq","img/green_2bandit_b2.png","70","70","test","1","191","191","9","",""
"null","336173","pSARL_v2","pSARL_v2m8c3bwpg","5671927473f58b000d664293","freq_resp","img/green_2bandit_b.png","70","70","test","","","","9","",""
"null","336328","pSARL_v2","pSARL_v2m8c3bwpg","5671927473f58b000d664293","fixation","img/fixation.png","null","","test","","","","","",""
"284.60000002384186","336616","pSARL_v2","pSARL_v2m8c3bwpg","5671927473f58b000d664293","freq","img/green_2bandit_b2.png","70","70","test","1","192","192","9","",""
"null","337140","pSARL_v2","pSARL_v2m8c3bwpg","5671927473f58b000d664293","freq_resp","img/green_2bandit_b.png","70","70","test","","","","9","",""
"null","337294","pSARL_v2","pSARL_v2m8c3bwpg","5671927473f58b000d664293","fixation","img/fixation.png","null","","test","","","","","",""
"262.5","337561","pSARL_v2","pSARL_v2m8c3bwpg","5671927473f58b000d664293","infreq","img/orange_2bandit_b2.png","70","68","test","0","193","193","9","",""
"null","338107","pSARL_v2","pSARL_v2m8c3bwpg","5671927473f58b000d664293","infreq_resp","img/orange_2bandit_b.png","70","68","test","","","","9","",""
"null","338275","pSARL_v2","pSARL_v2m8c3bwpg","5671927473f58b000d664293","fixation","img/fixation.png","null","","test","","","","","",""
"409.09999990463257","338688","pSARL_v2","pSARL_v2m8c3bwpg","5671927473f58b000d664293","freq","img/green_2bandit_b2.png","70","70","test","1","194","194","9","",""
"null","339094","pSARL_v2","pSARL_v2m8c3bwpg","5671927473f58b000d664293","freq_resp","img/green_2bandit_b.png","70","70","test","","","","9","",""
"null","339249","pSARL_v2","pSARL_v2m8c3bwpg","5671927473f58b000d664293","fixation","img/fixation.png","null","","test","","","","","",""
"299.8000000715256","339553","pSARL_v2","pSARL_v2m8c3bwpg","5671927473f58b000d664293","freq","img/green_2bandit_b2.png","70","70","test","1","195","195","9","",""
"null","340062","pSARL_v2","pSARL_v2m8c3bwpg","5671927473f58b000d664293","freq_resp","img/green_2bandit_b.png","70","70","test","","","","9","",""
"null","340232","pSARL_v2","pSARL_v2m8c3bwpg","5671927473f58b000d664293","fixation","img/fixation.png","null","","test","","","","","",""
"308.5","340544","pSARL_v2","pSARL_v2m8c3bwpg","5671927473f58b000d664293","freq","img/green_2bandit_b2.png","70","70","test","1","196","196","9","",""
"null","341047","pSARL_v2","pSARL_v2m8c3bwpg","5671927473f58b000d664293","freq_resp","img/green_2bandit_b.png","70","70","test","","","","9","",""
"null","341216","pSARL_v2","pSARL_v2m8c3bwpg","5671927473f58b000d664293","fixation","img/fixation.png","null","","test","","","","","",""
"308.39999997615814","341531","pSARL_v2","pSARL_v2m8c3bwpg","5671927473f58b000d664293","freq","img/green_2bandit_b2.png","70","70","test","1","197","197","9","",""
"null","342037","pSARL_v2","pSARL_v2m8c3bwpg","5671927473f58b000d664293","freq_resp","img/green_2bandit_b.png","70","70","test","","","","9","",""
"null","342194","pSARL_v2","pSARL_v2m8c3bwpg","5671927473f58b000d664293","fixation","img/fixation.png","null","","test","","","","","",""
"434.39999997615814","342634","pSARL_v2","pSARL_v2m8c3bwpg","5671927473f58b000d664293","reward","img/slot.png","74","","test","","","","","",""
"null","343389","pSARL_v2","pSARL_v2m8c3bwpg","5671927473f58b000d664293","points","<div class=""verylowPoints""> -3 </div>","null","na","test","","","","9","-3","8"
"479.60000002384186","343872","pSARL_v2","pSARL_v2m8c3bwpg","5671927473f58b000d664293","freq","img/green_2bandit_b2.png","70","70","test","1","198","198","10","",""
"null","344202","pSARL_v2","pSARL_v2m8c3bwpg","5671927473f58b000d664293","freq_resp","img/green_2bandit_b.png","70","70","test","","","","10","",""
"null","344356","pSARL_v2","pSARL_v2m8c3bwpg","5671927473f58b000d664293","fixation","img/fixation.png","null","","test","","","","","",""
"423.60000002384186","344785","pSARL_v2","pSARL_v2m8c3bwpg","5671927473f58b000d664293","freq","img/green_2bandit_b2.png","70","70","test","1","199","199","10","",""
"null","345168","pSARL_v2","pSARL_v2m8c3bwpg","5671927473f58b000d664293","freq_resp","img/green_2bandit_b.png","70","70","test","","","","10","",""
"null","345324","pSARL_v2","pSARL_v2m8c3bwpg","5671927473f58b000d664293","fixation","img/fixation.png","null","","test","","","","","",""
"352","345680","pSARL_v2","pSARL_v2m8c3bwpg","5671927473f58b000d664293","freq","img/green_2bandit_b2.png","70","70","test","1","200","200","10","",""
"null","346140","pSARL_v2","pSARL_v2m8c3bwpg","5671927473f58b000d664293","freq_resp","img/green_2bandit_b.png","70","70","test","","","","10","",""
"null","346294","pSARL_v2","pSARL_v2m8c3bwpg","5671927473f58b000d664293","fixation","img/fixation.png","null","","test","","","","","",""
"285.89999997615814","346584","pSARL_v2","pSARL_v2m8c3bwpg","5671927473f58b000d664293","freq","img/green_2bandit_b2.png","70","70","test","1","201","201","10","",""
"null","347108","pSARL_v2","pSARL_v2m8c3bwpg","5671927473f58b000d664293","freq_resp","img/green_2bandit_b.png","70","70","test","","","","10","",""
"null","347276","pSARL_v2","pSARL_v2m8c3bwpg","5671927473f58b000d664293","fixation","img/fixation.png","null","","test","","","","","",""
"279.89999997615814","347561","pSARL_v2","pSARL_v2m8c3bwpg","5671927473f58b000d664293","freq","img/green_2bandit_b2.png","70","70","test","1","202","202","10","",""
"null","348094","pSARL_v2","pSARL_v2m8c3bwpg","5671927473f58b000d664293","freq_resp","img/green_2bandit_b.png","70","70","test","","","","10","",""
"null","348263","pSARL_v2","pSARL_v2m8c3bwpg","5671927473f58b000d664293","fixation","img/fixation.png","null","","test","","","","","",""
"269.60000002384186","348537","pSARL_v2","pSARL_v2m8c3bwpg","5671927473f58b000d664293","freq","img/green_2bandit_b2.png","70","70","test","1","203","203","10","",""
"null","349080","pSARL_v2","pSARL_v2m8c3bwpg","5671927473f58b000d664293","freq_resp","img/green_2bandit_b.png","70","70","test","","","","10","",""
"null","349247","pSARL_v2","pSARL_v2m8c3bwpg","5671927473f58b000d664293","fixation","img/fixation.png","null","","test","","","","","",""
"260.7999999523163","349512","pSARL_v2","pSARL_v2m8c3bwpg","5671927473f58b000d664293","freq","img/green_2bandit_b2.png","70","70","test","1","204","204","10","",""
"null","350062","pSARL_v2","pSARL_v2m8c3bwpg","5671927473f58b000d664293","freq_resp","img/green_2bandit_b.png","70","70","test","","","","10","",""
"null","350231","pSARL_v2","pSARL_v2m8c3bwpg","5671927473f58b000d664293","fixation","img/fixation.png","null","","test","","","","","",""
"293.2000000476837","350529","pSARL_v2","pSARL_v2m8c3bwpg","5671927473f58b000d664293","freq","img/green_2bandit_b2.png","70","70","test","1","205","205","10","",""
"null","351048","pSARL_v2","pSARL_v2m8c3bwpg","5671927473f58b000d664293","freq_resp","img/green_2bandit_b.png","70","70","test","","","","10","",""
"null","351216","pSARL_v2","pSARL_v2m8c3bwpg","5671927473f58b000d664293","fixation","img/fixation.png","null","","test","","","","","",""
"251.5","351472","pSARL_v2","pSARL_v2m8c3bwpg","5671927473f58b000d664293","freq","img/green_2bandit_b2.png","70","70","test","1","206","206","10","",""
"null","352034","pSARL_v2","pSARL_v2m8c3bwpg","5671927473f58b000d664293","freq_resp","img/green_2bandit_b.png","70","70","test","","","","10","",""
