"rt","time_elapsed","expId","subject","prolificID","trialType","stimulus","key_press","corrresp","phase","corr","trialNum","attentionRunNum","blockNum","points","rlNum"
"6821.5","6825","pSARL_v2","pSARL_v259w0mnxt","600f4361d8ad4b1021236a24","","","","","","","","","","",""
"","9305","pSARL_v2","pSARL_v259w0mnxt","600f4361d8ad4b1021236a24","fullscreen","","","","","","","","","",""
"48501.89999997616","57810","pSARL_v2","pSARL_v259w0mnxt","600f4361d8ad4b1021236a24","","","","","","","","","","",""
"null","58615","pSARL_v2","pSARL_v259w0mnxt","600f4361d8ad4b1021236a24","freqPrac","img/orange_2bandit_b2.png","null","70","prac","0","","","","",""
"null","59629","pSARL_v2","pSARL_v259w0mnxt","600f4361d8ad4b1021236a24","feedback","img/tooSlow.png","null","na","prac","","","","","",""
"null","59785","pSARL_v2","pSARL_v259w0mnxt","600f4361d8ad4b1021236a24","fixation","img/fixation.png","null","","prac","","","","","",""
"560.1999999284744","60349","pSARL_v2","pSARL_v259w0mnxt","600f4361d8ad4b1021236a24","infreqPrac","img/green_2bandit_b2.png","68","68","prac","1","","","","",""
"560.1999999284744","60597","pSARL_v2","pSARL_v259w0mnxt","600f4361d8ad4b1021236a24","infreqPrac_resp","img/green_2bandit_b.png","68","68","prac","","","","","",""
"null","60765","pSARL_v2","pSARL_v259w0mnxt","600f4361d8ad4b1021236a24","fixation","img/fixation.png","null","","prac","","","","","",""
"370.39999997615814","61138","pSARL_v2","pSARL_v259w0mnxt","600f4361d8ad4b1021236a24","freqPrac","img/orange_2bandit_b2.png","70","70","prac","1","","","","",""
"370.39999997615814","61577","pSARL_v2","pSARL_v259w0mnxt","600f4361d8ad4b1021236a24","freqPrac_resp","img/orange_2bandit_b.png","70","70","prac","","","","","",""
"null","61733","pSARL_v2","pSARL_v259w0mnxt","600f4361d8ad4b1021236a24","fixation","img/fixation.png","null","","prac","","","","","",""
"394","62130","pSARL_v2","pSARL_v259w0mnxt","600f4361d8ad4b1021236a24","infreqPrac","img/green_2bandit_b2.png","70","68","prac","0","","","","",""
"394","62546","pSARL_v2","pSARL_v259w0mnxt","600f4361d8ad4b1021236a24","infreqPrac_resp","img/green_2bandit_b.png","70","68","prac","","","","","",""
"null","63555","pSARL_v2","pSARL_v259w0mnxt","600f4361d8ad4b1021236a24","feedback","img/wrongKey.png","null","na","prac","","","","","",""
"null","63710","pSARL_v2","pSARL_v259w0mnxt","600f4361d8ad4b1021236a24","fixation","img/fixation.png","null","","prac","","","","","",""
"521.7000000476837","64234","pSARL_v2","pSARL_v259w0mnxt","600f4361d8ad4b1021236a24","infreqPrac","img/green_2bandit_b2.png","68","68","prac","1","","","","",""
"521.7000000476837","64519","pSARL_v2","pSARL_v259w0mnxt","600f4361d8ad4b1021236a24","infreqPrac_resp","img/green_2bandit_b.png","68","68","prac","","","","","",""
"null","64676","pSARL_v2","pSARL_v259w0mnxt","600f4361d8ad4b1021236a24","fixation","img/fixation.png","null","","prac","","","","","",""
"315.39999997615814","64994","pSARL_v2","pSARL_v259w0mnxt","600f4361d8ad4b1021236a24","infreqPrac","img/green_2bandit_b2.png","68","68","prac","1","","","","",""
"315.39999997615814","65487","pSARL_v2","pSARL_v259w0mnxt","600f4361d8ad4b1021236a24","infreqPrac_resp","img/green_2bandit_b.png","68","68","prac","","","","","",""
"null","65644","pSARL_v2","pSARL_v259w0mnxt","600f4361d8ad4b1021236a24","fixation","img/fixation.png","null","","prac","","","","","",""
"340.2999999523163","65986","pSARL_v2","pSARL_v259w0mnxt","600f4361d8ad4b1021236a24","freqPrac","img/orange_2bandit_b2.png","70","70","prac","1","","","","",""
"340.2999999523163","66453","pSARL_v2","pSARL_v259w0mnxt","600f4361d8ad4b1021236a24","freqPrac_resp","img/orange_2bandit_b.png","70","70","prac","","","","","",""
"null","66608","pSARL_v2","pSARL_v259w0mnxt","600f4361d8ad4b1021236a24","fixation","img/fixation.png","null","","prac","","","","","",""
"327.3000000715256","66939","pSARL_v2","pSARL_v259w0mnxt","600f4361d8ad4b1021236a24","infreqPrac","img/green_2bandit_b2.png","68","68","prac","1","","","","",""
"327.3000000715256","67422","pSARL_v2","pSARL_v259w0mnxt","600f4361d8ad4b1021236a24","infreqPrac_resp","img/green_2bandit_b.png","68","68","prac","","","","","",""
"null","67576","pSARL_v2","pSARL_v259w0mnxt","600f4361d8ad4b1021236a24","fixation","img/fixation.png","null","","prac","","","","","",""
"319.7000000476837","67899","pSARL_v2","pSARL_v259w0mnxt","600f4361d8ad4b1021236a24","freqPrac","img/orange_2bandit_b2.png","70","70","prac","1","","","","",""
"319.7000000476837","68384","pSARL_v2","pSARL_v259w0mnxt","600f4361d8ad4b1021236a24","freqPrac_resp","img/orange_2bandit_b.png","70","70","prac","","","","","",""
"null","68538","pSARL_v2","pSARL_v259w0mnxt","600f4361d8ad4b1021236a24","fixation","img/fixation.png","null","","prac","","","","","",""
"501.3000000715256","69042","pSARL_v2","pSARL_v259w0mnxt","600f4361d8ad4b1021236a24","freqPrac","img/orange_2bandit_b2.png","70","70","prac","1","","","","",""
"501.3000000715256","69349","pSARL_v2","pSARL_v259w0mnxt","600f4361d8ad4b1021236a24","freqPrac_resp","img/orange_2bandit_b.png","70","70","prac","","","","","",""
"null","69504","pSARL_v2","pSARL_v259w0mnxt","600f4361d8ad4b1021236a24","fixation","img/fixation.png","null","","prac","","","","","",""
"17489.399999976158","86995","pSARL_v2","pSARL_v259w0mnxt","600f4361d8ad4b1021236a24","","","","","prac","","","","","",""
"1589","88587","pSARL_v2","pSARL_v259w0mnxt","600f4361d8ad4b1021236a24","rewardPractice","img/slot.png","74","","prac","","","","","",""
"null","89347","pSARL_v2","pSARL_v259w0mnxt","600f4361d8ad4b1021236a24","feedback","<div class=""veryhighPoints""> +15 </div>","null","na","prac","","","","","",""
"null","89503","pSARL_v2","pSARL_v259w0mnxt","600f4361d8ad4b1021236a24","fixation","img/fixation.png","null","","prac","","","","","",""
"11386.199999928474","100892","pSARL_v2","pSARL_v259w0mnxt","600f4361d8ad4b1021236a24","","","","","prac","","","","","",""
"null","101712","pSARL_v2","pSARL_v259w0mnxt","600f4361d8ad4b1021236a24","freq","img/orange_2bandit_b2.png","null","70","test","0","1","1","1","",""
"null","101866","pSARL_v2","pSARL_v259w0mnxt","600f4361d8ad4b1021236a24","fixation","img/fixation.png","null","","test","","","","","",""
"422.1999999284744","102291","pSARL_v2","pSARL_v259w0mnxt","600f4361d8ad4b1021236a24","freq","img/orange_2bandit_b2.png","70","70","test","1","2","2","1","",""
"null","102676","pSARL_v2","pSARL_v259w0mnxt","600f4361d8ad4b1021236a24","freq_resp","img/orange_2bandit_b.png","70","70","test","","","","1","",""
"null","102833","pSARL_v2","pSARL_v259w0mnxt","600f4361d8ad4b1021236a24","fixation","img/fixation.png","null","","test","","","","","",""
"510.89999997615814","103347","pSARL_v2","pSARL_v259w0mnxt","600f4361d8ad4b1021236a24","infreq","img/green_2bandit_b2.png","68","68","test","1","3","3","1","",""
"null","103648","pSARL_v2","pSARL_v259w0mnxt","600f4361d8ad4b1021236a24","infreq_resp","img/green_2bandit_b.png","68","68","test","","","","1","",""
"null","103804","pSARL_v2","pSARL_v259w0mnxt","600f4361d8ad4b1021236a24","fixation","img/fixation.png","null","","test","","","","","",""
"460.89999997615814","104267","pSARL_v2","pSARL_v259w0mnxt","600f4361d8ad4b1021236a24","freq","img/orange_2bandit_b2.png","70","70","test","1","4","4","1","",""
"null","104613","pSARL_v2","pSARL_v259w0mnxt","600f4361d8ad4b1021236a24","freq_resp","img/orange_2bandit_b.png","70","70","test","","","","1","",""
"null","104769","pSARL_v2","pSARL_v259w0mnxt","600f4361d8ad4b1021236a24","fixation","img/fixation.png","null","","test","","","","","",""
"359.6999999284744","105132","pSARL_v2","pSARL_v259w0mnxt","600f4361d8ad4b1021236a24","freq","img/orange_2bandit_b2.png","70","70","test","1","5","5","1","",""
"null","105579","pSARL_v2","pSARL_v259w0mnxt","600f4361d8ad4b1021236a24","freq_resp","img/orange_2bandit_b.png","70","70","test","","","","1","",""
"null","105735","pSARL_v2","pSARL_v259w0mnxt","600f4361d8ad4b1021236a24","fixation","img/fixation.png","null","","test","","","","","",""
"409.39999997615814","106147","pSARL_v2","pSARL_v259w0mnxt","600f4361d8ad4b1021236a24","freq","img/orange_2bandit_b2.png","70","70","test","1","6","6","1","",""
"null","106547","pSARL_v2","pSARL_v259w0mnxt","600f4361d8ad4b1021236a24","freq_resp","img/orange_2bandit_b.png","70","70","test","","","","1","",""
"null","106703","pSARL_v2","pSARL_v259w0mnxt","600f4361d8ad4b1021236a24","fixation","img/fixation.png","null","","test","","","","","",""
"401.89999997615814","107108","pSARL_v2","pSARL_v259w0mnxt","600f4361d8ad4b1021236a24","freq","img/orange_2bandit_b2.png","70","70","test","1","7","7","1","",""
"null","107514","pSARL_v2","pSARL_v259w0mnxt","600f4361d8ad4b1021236a24","freq_resp","img/orange_2bandit_b.png","70","70","test","","","","1","",""
"null","107669","pSARL_v2","pSARL_v259w0mnxt","600f4361d8ad4b1021236a24","fixation","img/fixation.png","null","","test","","","","","",""
"387.39999997615814","108059","pSARL_v2","pSARL_v259w0mnxt","600f4361d8ad4b1021236a24","freq","img/orange_2bandit_b2.png","70","70","test","1","8","8","1","",""
"null","108481","pSARL_v2","pSARL_v259w0mnxt","600f4361d8ad4b1021236a24","freq_resp","img/orange_2bandit_b.png","70","70","test","","","","1","",""
"null","108636","pSARL_v2","pSARL_v259w0mnxt","600f4361d8ad4b1021236a24","fixation","img/fixation.png","null","","test","","","","","",""
"412.5","109051","pSARL_v2","pSARL_v259w0mnxt","600f4361d8ad4b1021236a24","freq","img/orange_2bandit_b2.png","70","70","test","1","9","9","1","",""
"null","109446","pSARL_v2","pSARL_v259w0mnxt","600f4361d8ad4b1021236a24","freq_resp","img/orange_2bandit_b.png","70","70","test","","","","1","",""
"null","109602","pSARL_v2","pSARL_v259w0mnxt","600f4361d8ad4b1021236a24","fixation","img/fixation.png","null","","test","","","","","",""
"470.7000000476837","110075","pSARL_v2","pSARL_v259w0mnxt","600f4361d8ad4b1021236a24","freq","img/orange_2bandit_b2.png","70","70","test","1","10","10","1","",""
"null","110410","pSARL_v2","pSARL_v259w0mnxt","600f4361d8ad4b1021236a24","freq_resp","img/orange_2bandit_b.png","70","70","test","","","","1","",""
"null","110565","pSARL_v2","pSARL_v259w0mnxt","600f4361d8ad4b1021236a24","fixation","img/fixation.png","null","","test","","","","","",""
"365","110932","pSARL_v2","pSARL_v259w0mnxt","600f4361d8ad4b1021236a24","freq","img/orange_2bandit_b2.png","70","70","test","1","11","11","1","",""
"null","111378","pSARL_v2","pSARL_v259w0mnxt","600f4361d8ad4b1021236a24","freq_resp","img/orange_2bandit_b.png","70","70","test","","","","1","",""
"null","111533","pSARL_v2","pSARL_v259w0mnxt","600f4361d8ad4b1021236a24","fixation","img/fixation.png","null","","test","","","","","",""
"483.5","112020","pSARL_v2","pSARL_v259w0mnxt","600f4361d8ad4b1021236a24","freq","img/orange_2bandit_b2.png","70","70","test","1","12","12","1","",""
"null","112348","pSARL_v2","pSARL_v259w0mnxt","600f4361d8ad4b1021236a24","freq_resp","img/orange_2bandit_b.png","70","70","test","","","","1","",""
"null","112504","pSARL_v2","pSARL_v259w0mnxt","600f4361d8ad4b1021236a24","fixation","img/fixation.png","null","","test","","","","","",""
"464.90000009536743","112971","pSARL_v2","pSARL_v259w0mnxt","600f4361d8ad4b1021236a24","infreq","img/green_2bandit_b2.png","68","68","test","1","13","13","1","",""
"null","113313","pSARL_v2","pSARL_v259w0mnxt","600f4361d8ad4b1021236a24","infreq_resp","img/green_2bandit_b.png","68","68","test","","","","1","",""
"null","113469","pSARL_v2","pSARL_v259w0mnxt","600f4361d8ad4b1021236a24","fixation","img/fixation.png","null","","test","","","","","",""
"556.3999999761581","114028","pSARL_v2","pSARL_v259w0mnxt","600f4361d8ad4b1021236a24","freq","img/orange_2bandit_b2.png","70","70","test","1","14","14","1","",""
"null","114277","pSARL_v2","pSARL_v259w0mnxt","600f4361d8ad4b1021236a24","freq_resp","img/orange_2bandit_b.png","70","70","test","","","","1","",""
"null","114432","pSARL_v2","pSARL_v259w0mnxt","600f4361d8ad4b1021236a24","fixation","img/fixation.png","null","","test","","","","","",""
"384.7999999523163","114820","pSARL_v2","pSARL_v259w0mnxt","600f4361d8ad4b1021236a24","freq","img/orange_2bandit_b2.png","70","70","test","1","15","15","1","",""
"null","115242","pSARL_v2","pSARL_v259w0mnxt","600f4361d8ad4b1021236a24","freq_resp","img/orange_2bandit_b.png","70","70","test","","","","1","",""
"null","115399","pSARL_v2","pSARL_v259w0mnxt","600f4361d8ad4b1021236a24","fixation","img/fixation.png","null","","test","","","","","",""
"410.10000002384186","115812","pSARL_v2","pSARL_v259w0mnxt","600f4361d8ad4b1021236a24","freq","img/orange_2bandit_b2.png","70","70","test","1","16","16","1","",""
"null","116209","pSARL_v2","pSARL_v259w0mnxt","600f4361d8ad4b1021236a24","freq_resp","img/orange_2bandit_b.png","70","70","test","","","","1","",""
"null","116365","pSARL_v2","pSARL_v259w0mnxt","600f4361d8ad4b1021236a24","fixation","img/fixation.png","null","","test","","","","","",""
"331.89999997615814","116700","pSARL_v2","pSARL_v259w0mnxt","600f4361d8ad4b1021236a24","freq","img/orange_2bandit_b2.png","70","70","test","1","17","17","1","",""
"null","117176","pSARL_v2","pSARL_v259w0mnxt","600f4361d8ad4b1021236a24","freq_resp","img/orange_2bandit_b.png","70","70","test","","","","1","",""
"null","117331","pSARL_v2","pSARL_v259w0mnxt","600f4361d8ad4b1021236a24","fixation","img/fixation.png","null","","test","","","","","",""
"390.3000000715256","117723","pSARL_v2","pSARL_v259w0mnxt","600f4361d8ad4b1021236a24","freq","img/orange_2bandit_b2.png","70","70","test","1","18","18","1","",""
"null","118140","pSARL_v2","pSARL_v259w0mnxt","600f4361d8ad4b1021236a24","freq_resp","img/orange_2bandit_b.png","70","70","test","","","","1","",""
"null","118296","pSARL_v2","pSARL_v259w0mnxt","600f4361d8ad4b1021236a24","fixation","img/fixation.png","null","","test","","","","","",""
"312.89999997615814","118611","pSARL_v2","pSARL_v259w0mnxt","600f4361d8ad4b1021236a24","freq","img/orange_2bandit_b2.png","70","70","test","1","19","19","1","",""
"null","119112","pSARL_v2","pSARL_v259w0mnxt","600f4361d8ad4b1021236a24","freq_resp","img/orange_2bandit_b.png","70","70","test","","","","1","",""
"null","119268","pSARL_v2","pSARL_v259w0mnxt","600f4361d8ad4b1021236a24","fixation","img/fixation.png","null","","test","","","","","",""
"557.2999999523163","119827","pSARL_v2","pSARL_v259w0mnxt","600f4361d8ad4b1021236a24","reward","img/slot.png","74","","test","","","","","",""
"null","120594","pSARL_v2","pSARL_v259w0mnxt","600f4361d8ad4b1021236a24","points","<div class=""verylowPoints""> -6 </div>","null","na","test","","","","1","-6","0"
"600.2999999523163","121197","pSARL_v2","pSARL_v259w0mnxt","600f4361d8ad4b1021236a24","freq","img/orange_2bandit_b2.png","70","70","test","1","20","20","2","",""
"null","121403","pSARL_v2","pSARL_v259w0mnxt","600f4361d8ad4b1021236a24","freq_resp","img/orange_2bandit_b.png","70","70","test","","","","2","",""
"null","121560","pSARL_v2","pSARL_v259w0mnxt","600f4361d8ad4b1021236a24","fixation","img/fixation.png","null","","test","","","","","",""
"null","122371","pSARL_v2","pSARL_v259w0mnxt","600f4361d8ad4b1021236a24","freq","img/orange_2bandit_b2.png","null","70","test","0","21","21","2","",""
"null","122527","pSARL_v2","pSARL_v259w0mnxt","600f4361d8ad4b1021236a24","fixation","img/fixation.png","null","","test","","","","","",""
"513.8999999761581","123044","pSARL_v2","pSARL_v259w0mnxt","600f4361d8ad4b1021236a24","freq","img/orange_2bandit_b2.png","70","70","test","1","22","22","2","",""
"null","123340","pSARL_v2","pSARL_v259w0mnxt","600f4361d8ad4b1021236a24","freq_resp","img/orange_2bandit_b.png","70","70","test","","","","2","",""
"null","123495","pSARL_v2","pSARL_v259w0mnxt","600f4361d8ad4b1021236a24","fixation","img/fixation.png","null","","test","","","","","",""
"346.10000002384186","123844","pSARL_v2","pSARL_v259w0mnxt","600f4361d8ad4b1021236a24","freq","img/orange_2bandit_b2.png","70","70","test","1","23","23","2","",""
"null","124306","pSARL_v2","pSARL_v259w0mnxt","600f4361d8ad4b1021236a24","freq_resp","img/orange_2bandit_b.png","70","70","test","","","","2","",""
"null","124464","pSARL_v2","pSARL_v259w0mnxt","600f4361d8ad4b1021236a24","fixation","img/fixation.png","null","","test","","","","","",""
"457.60000002384186","124924","pSARL_v2","pSARL_v259w0mnxt","600f4361d8ad4b1021236a24","freq","img/orange_2bandit_b2.png","70","70","test","1","24","24","2","",""
"null","125274","pSARL_v2","pSARL_v259w0mnxt","600f4361d8ad4b1021236a24","freq_resp","img/orange_2bandit_b.png","70","70","test","","","","2","",""
"null","125431","pSARL_v2","pSARL_v259w0mnxt","600f4361d8ad4b1021236a24","fixation","img/fixation.png","null","","test","","","","","",""
"322.7000000476837","125757","pSARL_v2","pSARL_v259w0mnxt","600f4361d8ad4b1021236a24","freq","img/orange_2bandit_b2.png","70","70","test","1","25","25","2","",""
"null","126244","pSARL_v2","pSARL_v259w0mnxt","600f4361d8ad4b1021236a24","freq_resp","img/orange_2bandit_b.png","70","70","test","","","","2","",""
"null","126400","pSARL_v2","pSARL_v259w0mnxt","600f4361d8ad4b1021236a24","fixation","img/fixation.png","null","","test","","","","","",""
"313.39999997615814","126716","pSARL_v2","pSARL_v259w0mnxt","600f4361d8ad4b1021236a24","freq","img/orange_2bandit_b2.png","70","70","test","1","26","26","2","",""
"null","127208","pSARL_v2","pSARL_v259w0mnxt","600f4361d8ad4b1021236a24","freq_resp","img/orange_2bandit_b.png","70","70","test","","","","2","",""
"null","127363","pSARL_v2","pSARL_v259w0mnxt","600f4361d8ad4b1021236a24","fixation","img/fixation.png","null","","test","","","","","",""
"302.59999990463257","127668","pSARL_v2","pSARL_v259w0mnxt","600f4361d8ad4b1021236a24","freq","img/orange_2bandit_b2.png","70","70","test","1","27","27","2","",""
"null","128173","pSARL_v2","pSARL_v259w0mnxt","600f4361d8ad4b1021236a24","freq_resp","img/orange_2bandit_b.png","70","70","test","","","","2","",""
"null","128328","pSARL_v2","pSARL_v259w0mnxt","600f4361d8ad4b1021236a24","fixation","img/fixation.png","null","","test","","","","","",""
"329.7000000476837","128661","pSARL_v2","pSARL_v259w0mnxt","600f4361d8ad4b1021236a24","freq","img/orange_2bandit_b2.png","70","70","test","1","28","28","2","",""
"null","129143","pSARL_v2","pSARL_v259w0mnxt","600f4361d8ad4b1021236a24","freq_resp","img/orange_2bandit_b.png","70","70","test","","","","2","",""
"null","129299","pSARL_v2","pSARL_v259w0mnxt","600f4361d8ad4b1021236a24","fixation","img/fixation.png","null","","test","","","","","",""
"310.2000000476837","129613","pSARL_v2","pSARL_v259w0mnxt","600f4361d8ad4b1021236a24","freq","img/orange_2bandit_b2.png","70","70","test","1","29","29","2","",""
"null","130110","pSARL_v2","pSARL_v259w0mnxt","600f4361d8ad4b1021236a24","freq_resp","img/orange_2bandit_b.png","70","70","test","","","","2","",""
"null","130267","pSARL_v2","pSARL_v259w0mnxt","600f4361d8ad4b1021236a24","fixation","img/fixation.png","null","","test","","","","","",""
"270.89999997615814","130541","pSARL_v2","pSARL_v259w0mnxt","600f4361d8ad4b1021236a24","freq","img/orange_2bandit_b2.png","70","70","test","1","30","30","2","",""
"null","131076","pSARL_v2","pSARL_v259w0mnxt","600f4361d8ad4b1021236a24","freq_resp","img/orange_2bandit_b.png","70","70","test","","","","2","",""
"null","131231","pSARL_v2","pSARL_v259w0mnxt","600f4361d8ad4b1021236a24","fixation","img/fixation.png","null","","test","","","","","",""
"291.2000000476837","131525","pSARL_v2","pSARL_v259w0mnxt","600f4361d8ad4b1021236a24","freq","img/orange_2bandit_b2.png","70","70","test","1","31","31","2","",""
"null","132042","pSARL_v2","pSARL_v259w0mnxt","600f4361d8ad4b1021236a24","freq_resp","img/orange_2bandit_b.png","70","70","test","","","","2","",""
"null","132198","pSARL_v2","pSARL_v259w0mnxt","600f4361d8ad4b1021236a24","fixation","img/fixation.png","null","","test","","","","","",""
"411.60000002384186","132612","pSARL_v2","pSARL_v259w0mnxt","600f4361d8ad4b1021236a24","freq","img/orange_2bandit_b2.png","70","70","test","1","32","32","2","",""
"null","133005","pSARL_v2","pSARL_v259w0mnxt","600f4361d8ad4b1021236a24","freq_resp","img/orange_2bandit_b.png","70","70","test","","","","2","",""
"null","133162","pSARL_v2","pSARL_v259w0mnxt","600f4361d8ad4b1021236a24","fixation","img/fixation.png","null","","test","","","","","",""
"335.39999997615814","133500","pSARL_v2","pSARL_v259w0mnxt","600f4361d8ad4b1021236a24","infreq","img/green_2bandit_b2.png","70","68","test","0","33","33","2","",""
"null","133972","pSARL_v2","pSARL_v259w0mnxt","600f4361d8ad4b1021236a24","infreq_resp","img/green_2bandit_b.png","70","68","test","","","","2","",""
"null","134126","pSARL_v2","pSARL_v259w0mnxt","600f4361d8ad4b1021236a24","fixation","img/fixation.png","null","","test","","","","","",""
"75.39999997615814","134204","pSARL_v2","pSARL_v259w0mnxt","600f4361d8ad4b1021236a24","freq","img/orange_2bandit_b2.png","68","70","test","0","34","34","2","",""
"null","134938","pSARL_v2","pSARL_v259w0mnxt","600f4361d8ad4b1021236a24","freq_resp","img/orange_2bandit_b.png","68","70","test","","","","2","",""
"null","135095","pSARL_v2","pSARL_v259w0mnxt","600f4361d8ad4b1021236a24","fixation","img/fixation.png","null","","test","","","","","",""
"571","135669","pSARL_v2","pSARL_v259w0mnxt","600f4361d8ad4b1021236a24","freq","img/orange_2bandit_b2.png","70","70","test","1","35","35","2","",""
"null","135909","pSARL_v2","pSARL_v259w0mnxt","600f4361d8ad4b1021236a24","freq_resp","img/orange_2bandit_b.png","70","70","test","","","","2","",""
"null","136065","pSARL_v2","pSARL_v259w0mnxt","600f4361d8ad4b1021236a24","fixation","img/fixation.png","null","","test","","","","","",""
"368.60000002384186","136436","pSARL_v2","pSARL_v259w0mnxt","600f4361d8ad4b1021236a24","freq","img/orange_2bandit_b2.png","70","70","test","1","36","36","2","",""
"null","136874","pSARL_v2","pSARL_v259w0mnxt","600f4361d8ad4b1021236a24","freq_resp","img/orange_2bandit_b.png","70","70","test","","","","2","",""
"null","137030","pSARL_v2","pSARL_v259w0mnxt","600f4361d8ad4b1021236a24","fixation","img/fixation.png","null","","test","","","","","",""
"355.7000000476837","137389","pSARL_v2","pSARL_v259w0mnxt","600f4361d8ad4b1021236a24","freq","img/orange_2bandit_b2.png","70","70","test","1","37","37","2","",""
"null","137844","pSARL_v2","pSARL_v259w0mnxt","600f4361d8ad4b1021236a24","freq_resp","img/orange_2bandit_b.png","70","70","test","","","","2","",""
"null","137999","pSARL_v2","pSARL_v259w0mnxt","600f4361d8ad4b1021236a24","fixation","img/fixation.png","null","","test","","","","","",""
"506.7999999523163","138508","pSARL_v2","pSARL_v259w0mnxt","600f4361d8ad4b1021236a24","infreq","img/green_2bandit_b2.png","68","68","test","1","38","38","2","",""
"null","138808","pSARL_v2","pSARL_v259w0mnxt","600f4361d8ad4b1021236a24","infreq_resp","img/green_2bandit_b.png","68","68","test","","","","2","",""
"null","138964","pSARL_v2","pSARL_v259w0mnxt","600f4361d8ad4b1021236a24","fixation","img/fixation.png","null","","test","","","","","",""
"470.09999990463257","139437","pSARL_v2","pSARL_v259w0mnxt","600f4361d8ad4b1021236a24","freq","img/orange_2bandit_b2.png","70","70","test","1","39","39","2","",""
"null","139774","pSARL_v2","pSARL_v259w0mnxt","600f4361d8ad4b1021236a24","freq_resp","img/orange_2bandit_b.png","70","70","test","","","","2","",""
"null","139930","pSARL_v2","pSARL_v259w0mnxt","600f4361d8ad4b1021236a24","fixation","img/fixation.png","null","","test","","","","","",""
"360.10000002384186","140293","pSARL_v2","pSARL_v259w0mnxt","600f4361d8ad4b1021236a24","freq","img/orange_2bandit_b2.png","70","70","test","1","40","40","2","",""
"null","140742","pSARL_v2","pSARL_v259w0mnxt","600f4361d8ad4b1021236a24","freq_resp","img/orange_2bandit_b.png","70","70","test","","","","2","",""
"null","140898","pSARL_v2","pSARL_v259w0mnxt","600f4361d8ad4b1021236a24","fixation","img/fixation.png","null","","test","","","","","",""
"319.5","141220","pSARL_v2","pSARL_v259w0mnxt","600f4361d8ad4b1021236a24","freq","img/orange_2bandit_b2.png","70","70","test","1","41","41","2","",""
"null","141709","pSARL_v2","pSARL_v259w0mnxt","600f4361d8ad4b1021236a24","freq_resp","img/orange_2bandit_b.png","70","70","test","","","","2","",""
"null","141865","pSARL_v2","pSARL_v259w0mnxt","600f4361d8ad4b1021236a24","fixation","img/fixation.png","null","","test","","","","","",""
"370.10000002384186","142237","pSARL_v2","pSARL_v259w0mnxt","600f4361d8ad4b1021236a24","freq","img/orange_2bandit_b2.png","70","70","test","1","42","42","2","",""
"null","142679","pSARL_v2","pSARL_v259w0mnxt","600f4361d8ad4b1021236a24","freq_resp","img/orange_2bandit_b.png","70","70","test","","","","2","",""
"null","142833","pSARL_v2","pSARL_v259w0mnxt","600f4361d8ad4b1021236a24","fixation","img/fixation.png","null","","test","","","","","",""
"329.1999999284744","143165","pSARL_v2","pSARL_v259w0mnxt","600f4361d8ad4b1021236a24","freq","img/orange_2bandit_b2.png","70","70","test","1","43","43","2","",""
"null","143642","pSARL_v2","pSARL_v259w0mnxt","600f4361d8ad4b1021236a24","freq_resp","img/orange_2bandit_b.png","70","70","test","","","","2","",""
"null","143798","pSARL_v2","pSARL_v259w0mnxt","600f4361d8ad4b1021236a24","fixation","img/fixation.png","null","","test","","","","","",""
"315.89999997615814","144117","pSARL_v2","pSARL_v259w0mnxt","600f4361d8ad4b1021236a24","freq","img/orange_2bandit_b2.png","70","70","test","1","44","44","2","",""
"null","144610","pSARL_v2","pSARL_v259w0mnxt","600f4361d8ad4b1021236a24","freq_resp","img/orange_2bandit_b.png","70","70","test","","","","2","",""
"null","144765","pSARL_v2","pSARL_v259w0mnxt","600f4361d8ad4b1021236a24","fixation","img/fixation.png","null","","test","","","","","",""
"405.2000000476837","145173","pSARL_v2","pSARL_v259w0mnxt","600f4361d8ad4b1021236a24","freq","img/orange_2bandit_b2.png","70","70","test","1","45","45","2","",""
"null","145579","pSARL_v2","pSARL_v259w0mnxt","600f4361d8ad4b1021236a24","freq_resp","img/orange_2bandit_b.png","70","70","test","","","","2","",""
"null","145735","pSARL_v2","pSARL_v259w0mnxt","600f4361d8ad4b1021236a24","fixation","img/fixation.png","null","","test","","","","","",""
"931","146669","pSARL_v2","pSARL_v259w0mnxt","600f4361d8ad4b1021236a24","reward","img/slot.png","74","","test","","","","","",""
"null","147434","pSARL_v2","pSARL_v259w0mnxt","600f4361d8ad4b1021236a24","points","<div class=""verylowPoints""> -11 </div>","null","na","test","","","","2","-11","1"
"760.4000000953674","148197","pSARL_v2","pSARL_v259w0mnxt","600f4361d8ad4b1021236a24","freq","img/orange_2bandit_b2.png","70","70","test","1","46","46","3","",""
"null","148245","pSARL_v2","pSARL_v259w0mnxt","600f4361d8ad4b1021236a24","freq_resp","img/orange_2bandit_b.png","70","70","test","","","","3","",""
"null","148399","pSARL_v2","pSARL_v259w0mnxt","600f4361d8ad4b1021236a24","fixation","img/fixation.png","null","","test","","","","","",""
"498.5","148901","pSARL_v2","pSARL_v259w0mnxt","600f4361d8ad4b1021236a24","freq","img/orange_2bandit_b2.png","70","70","test","1","47","47","3","",""
"null","149212","pSARL_v2","pSARL_v259w0mnxt","600f4361d8ad4b1021236a24","freq_resp","img/orange_2bandit_b.png","70","70","test","","","","3","",""
"null","149366","pSARL_v2","pSARL_v259w0mnxt","600f4361d8ad4b1021236a24","fixation","img/fixation.png","null","","test","","","","","",""
"460.60000002384186","149829","pSARL_v2","pSARL_v259w0mnxt","600f4361d8ad4b1021236a24","freq","img/orange_2bandit_b2.png","70","70","test","1","48","48","3","",""
"null","150179","pSARL_v2","pSARL_v259w0mnxt","600f4361d8ad4b1021236a24","freq_resp","img/orange_2bandit_b.png","70","70","test","","","","3","",""
"null","150334","pSARL_v2","pSARL_v259w0mnxt","600f4361d8ad4b1021236a24","fixation","img/fixation.png","null","","test","","","","","",""
"444.60000002384186","150781","pSARL_v2","pSARL_v259w0mnxt","600f4361d8ad4b1021236a24","freq","img/orange_2bandit_b2.png","70","70","test","1","49","49","3","",""
"null","151144","pSARL_v2","pSARL_v259w0mnxt","600f4361d8ad4b1021236a24","freq_resp","img/orange_2bandit_b.png","70","70","test","","","","3","",""
"null","151300","pSARL_v2","pSARL_v259w0mnxt","600f4361d8ad4b1021236a24","fixation","img/fixation.png","null","","test","","","","","",""
"310","151613","pSARL_v2","pSARL_v259w0mnxt","600f4361d8ad4b1021236a24","freq","img/orange_2bandit_b2.png","70","70","test","1","50","50","3","",""
"null","152108","pSARL_v2","pSARL_v259w0mnxt","600f4361d8ad4b1021236a24","freq_resp","img/orange_2bandit_b.png","70","70","test","","","","3","",""
"null","152261","pSARL_v2","pSARL_v259w0mnxt","600f4361d8ad4b1021236a24","fixation","img/fixation.png","null","","test","","","","","",""
"493.7999999523163","152758","pSARL_v2","pSARL_v259w0mnxt","600f4361d8ad4b1021236a24","infreq","img/green_2bandit_b2.png","68","68","test","1","51","51","3","",""
"null","153075","pSARL_v2","pSARL_v259w0mnxt","600f4361d8ad4b1021236a24","infreq_resp","img/green_2bandit_b.png","68","68","test","","","","3","",""
"null","153231","pSARL_v2","pSARL_v259w0mnxt","600f4361d8ad4b1021236a24","fixation","img/fixation.png","null","","test","","","","","",""
"323.3000000715256","153558","pSARL_v2","pSARL_v259w0mnxt","600f4361d8ad4b1021236a24","freq","img/orange_2bandit_b2.png","70","70","test","1","52","52","3","",""
"null","154041","pSARL_v2","pSARL_v259w0mnxt","600f4361d8ad4b1021236a24","freq_resp","img/orange_2bandit_b.png","70","70","test","","","","3","",""
"null","154195","pSARL_v2","pSARL_v259w0mnxt","600f4361d8ad4b1021236a24","fixation","img/fixation.png","null","","test","","","","","",""
"255.10000002384186","154453","pSARL_v2","pSARL_v259w0mnxt","600f4361d8ad4b1021236a24","freq","img/orange_2bandit_b2.png","70","70","test","1","53","53","3","",""
"null","155007","pSARL_v2","pSARL_v259w0mnxt","600f4361d8ad4b1021236a24","freq_resp","img/orange_2bandit_b.png","70","70","test","","","","3","",""
"null","155163","pSARL_v2","pSARL_v259w0mnxt","600f4361d8ad4b1021236a24","fixation","img/fixation.png","null","","test","","","","","",""
"143.5","155309","pSARL_v2","pSARL_v259w0mnxt","600f4361d8ad4b1021236a24","freq","img/orange_2bandit_b2.png","70","70","test","1","54","54","3","",""
"null","155975","pSARL_v2","pSARL_v259w0mnxt","600f4361d8ad4b1021236a24","freq_resp","img/orange_2bandit_b.png","70","70","test","","","","3","",""
"null","156131","pSARL_v2","pSARL_v259w0mnxt","600f4361d8ad4b1021236a24","fixation","img/fixation.png","null","","test","","","","","",""
"135.60000002384186","156269","pSARL_v2","pSARL_v259w0mnxt","600f4361d8ad4b1021236a24","freq","img/orange_2bandit_b2.png","70","70","test","1","55","55","3","",""
"null","156941","pSARL_v2","pSARL_v259w0mnxt","600f4361d8ad4b1021236a24","freq_resp","img/orange_2bandit_b.png","70","70","test","","","","3","",""
"null","157098","pSARL_v2","pSARL_v259w0mnxt","600f4361d8ad4b1021236a24","fixation","img/fixation.png","null","","test","","","","","",""
"311.7999999523163","157413","pSARL_v2","pSARL_v259w0mnxt","600f4361d8ad4b1021236a24","freq","img/orange_2bandit_b2.png","70","70","test","1","56","56","3","",""
"null","157913","pSARL_v2","pSARL_v259w0mnxt","600f4361d8ad4b1021236a24","freq_resp","img/orange_2bandit_b.png","70","70","test","","","","3","",""
"null","158069","pSARL_v2","pSARL_v259w0mnxt","600f4361d8ad4b1021236a24","fixation","img/fixation.png","null","","test","","","","","",""
"269.2000000476837","158341","pSARL_v2","pSARL_v259w0mnxt","600f4361d8ad4b1021236a24","freq","img/orange_2bandit_b2.png","70","70","test","1","57","57","3","",""
"null","158877","pSARL_v2","pSARL_v259w0mnxt","600f4361d8ad4b1021236a24","freq_resp","img/orange_2bandit_b.png","70","70","test","","","","3","",""
"null","159032","pSARL_v2","pSARL_v259w0mnxt","600f4361d8ad4b1021236a24","fixation","img/fixation.png","null","","test","","","","","",""
"290.39999997615814","159325","pSARL_v2","pSARL_v259w0mnxt","600f4361d8ad4b1021236a24","freq","img/orange_2bandit_b2.png","70","70","test","1","58","58","3","",""
"null","159848","pSARL_v2","pSARL_v259w0mnxt","600f4361d8ad4b1021236a24","freq_resp","img/orange_2bandit_b.png","70","70","test","","","","3","",""
"null","160005","pSARL_v2","pSARL_v259w0mnxt","600f4361d8ad4b1021236a24","fixation","img/fixation.png","null","","test","","","","","",""
"309.5","160317","pSARL_v2","pSARL_v259w0mnxt","600f4361d8ad4b1021236a24","freq","img/orange_2bandit_b2.png","70","70","test","1","59","59","3","",""
"null","160815","pSARL_v2","pSARL_v259w0mnxt","600f4361d8ad4b1021236a24","freq_resp","img/orange_2bandit_b.png","70","70","test","","","","3","",""
"null","160969","pSARL_v2","pSARL_v259w0mnxt","600f4361d8ad4b1021236a24","fixation","img/fixation.png","null","","test","","","","","",""
"297.7000000476837","161270","pSARL_v2","pSARL_v259w0mnxt","600f4361d8ad4b1021236a24","freq","img/orange_2bandit_b2.png","70","70","test","1","60","60","3","",""
"null","161789","pSARL_v2","pSARL_v259w0mnxt","600f4361d8ad4b1021236a24","freq_resp","img/orange_2bandit_b.png","70","70","test","","","","3","",""
"null","161946","pSARL_v2","pSARL_v259w0mnxt","600f4361d8ad4b1021236a24","fixation","img/fixation.png","null","","test","","","","","",""
"280.60000002384186","162229","pSARL_v2","pSARL_v259w0mnxt","600f4361d8ad4b1021236a24","infreq","img/green_2bandit_b2.png","70","68","test","0","61","61","3","",""
"null","162757","pSARL_v2","pSARL_v259w0mnxt","600f4361d8ad4b1021236a24","infreq_resp","img/green_2bandit_b.png","70","68","test","","","","3","",""
"null","162914","pSARL_v2","pSARL_v259w0mnxt","600f4361d8ad4b1021236a24","fixation","img/fixation.png","null","","test","","","","","",""
"457.5","163375","pSARL_v2","pSARL_v259w0mnxt","600f4361d8ad4b1021236a24","freq","img/orange_2bandit_b2.png","70","70","test","1","62","62","3","",""
"null","163723","pSARL_v2","pSARL_v259w0mnxt","600f4361d8ad4b1021236a24","freq_resp","img/orange_2bandit_b.png","70","70","test","","","","3","",""
"null","163878","pSARL_v2","pSARL_v259w0mnxt","600f4361d8ad4b1021236a24","fixation","img/fixation.png","null","","test","","","","","",""
"389","164269","pSARL_v2","pSARL_v259w0mnxt","600f4361d8ad4b1021236a24","freq","img/orange_2bandit_b2.png","70","70","test","1","63","63","3","",""
"null","164692","pSARL_v2","pSARL_v259w0mnxt","600f4361d8ad4b1021236a24","freq_resp","img/orange_2bandit_b.png","70","70","test","","","","3","",""
"null","164847","pSARL_v2","pSARL_v259w0mnxt","600f4361d8ad4b1021236a24","fixation","img/fixation.png","null","","test","","","","","",""
"315","165165","pSARL_v2","pSARL_v259w0mnxt","600f4361d8ad4b1021236a24","freq","img/orange_2bandit_b2.png","70","70","test","1","64","64","3","",""
"null","165656","pSARL_v2","pSARL_v259w0mnxt","600f4361d8ad4b1021236a24","freq_resp","img/orange_2bandit_b.png","70","70","test","","","","3","",""
"null","165811","pSARL_v2","pSARL_v259w0mnxt","600f4361d8ad4b1021236a24","fixation","img/fixation.png","null","","test","","","","","",""
"271.10000002384186","166086","pSARL_v2","pSARL_v259w0mnxt","600f4361d8ad4b1021236a24","freq","img/orange_2bandit_b2.png","70","70","test","1","65","65","3","",""
"null","166623","pSARL_v2","pSARL_v259w0mnxt","600f4361d8ad4b1021236a24","freq_resp","img/orange_2bandit_b.png","70","70","test","","","","3","",""
"null","166777","pSARL_v2","pSARL_v259w0mnxt","600f4361d8ad4b1021236a24","fixation","img/fixation.png","null","","test","","","","","",""
"329.2000000476837","167109","pSARL_v2","pSARL_v259w0mnxt","600f4361d8ad4b1021236a24","freq","img/orange_2bandit_b2.png","70","70","test","1","66","66","3","",""
"null","167588","pSARL_v2","pSARL_v259w0mnxt","600f4361d8ad4b1021236a24","freq_resp","img/orange_2bandit_b.png","70","70","test","","","","3","",""
"null","167743","pSARL_v2","pSARL_v259w0mnxt","600f4361d8ad4b1021236a24","fixation","img/fixation.png","null","","test","","","","","",""
"507.5","168253","pSARL_v2","pSARL_v259w0mnxt","600f4361d8ad4b1021236a24","reward","img/slot.png","74","","test","","","","","",""
"null","169007","pSARL_v2","pSARL_v259w0mnxt","600f4361d8ad4b1021236a24","points","<div class=""verylowPoints""> -7 </div>","null","na","test","","","","3","-7","2"
"491.8000000715256","169501","pSARL_v2","pSARL_v259w0mnxt","600f4361d8ad4b1021236a24","freq","img/orange_2bandit_b2.png","70","70","test","1","67","67","4","",""
"null","169818","pSARL_v2","pSARL_v259w0mnxt","600f4361d8ad4b1021236a24","freq_resp","img/orange_2bandit_b.png","70","70","test","","","","4","",""
"null","169973","pSARL_v2","pSARL_v259w0mnxt","600f4361d8ad4b1021236a24","fixation","img/fixation.png","null","","test","","","","","",""
"317.89999997615814","170293","pSARL_v2","pSARL_v259w0mnxt","600f4361d8ad4b1021236a24","freq","img/orange_2bandit_b2.png","70","70","test","1","68","68","4","",""
"null","170779","pSARL_v2","pSARL_v259w0mnxt","600f4361d8ad4b1021236a24","freq_resp","img/orange_2bandit_b.png","70","70","test","","","","4","",""
"null","170935","pSARL_v2","pSARL_v259w0mnxt","600f4361d8ad4b1021236a24","fixation","img/fixation.png","null","","test","","","","","",""
"379.89999997615814","171317","pSARL_v2","pSARL_v259w0mnxt","600f4361d8ad4b1021236a24","freq","img/orange_2bandit_b2.png","70","70","test","1","69","69","4","",""
"null","171746","pSARL_v2","pSARL_v259w0mnxt","600f4361d8ad4b1021236a24","freq_resp","img/orange_2bandit_b.png","70","70","test","","","","4","",""
"null","171902","pSARL_v2","pSARL_v259w0mnxt","600f4361d8ad4b1021236a24","fixation","img/fixation.png","null","","test","","","","","",""
"300.8000000715256","172206","pSARL_v2","pSARL_v259w0mnxt","600f4361d8ad4b1021236a24","freq","img/orange_2bandit_b2.png","70","70","test","1","70","70","4","",""
"null","172713","pSARL_v2","pSARL_v259w0mnxt","600f4361d8ad4b1021236a24","freq_resp","img/orange_2bandit_b.png","70","70","test","","","","4","",""
"null","172868","pSARL_v2","pSARL_v259w0mnxt","600f4361d8ad4b1021236a24","fixation","img/fixation.png","null","","test","","","","","",""
"390.5","173262","pSARL_v2","pSARL_v259w0mnxt","600f4361d8ad4b1021236a24","freq","img/orange_2bandit_b2.png","70","70","test","1","71","71","4","",""
"null","173680","pSARL_v2","pSARL_v259w0mnxt","600f4361d8ad4b1021236a24","freq_resp","img/orange_2bandit_b.png","70","70","test","","","","4","",""
"null","173836","pSARL_v2","pSARL_v259w0mnxt","600f4361d8ad4b1021236a24","fixation","img/fixation.png","null","","test","","","","","",""
"279.2999999523163","174118","pSARL_v2","pSARL_v259w0mnxt","600f4361d8ad4b1021236a24","freq","img/orange_2bandit_b2.png","70","70","test","1","72","72","4","",""
"null","174650","pSARL_v2","pSARL_v259w0mnxt","600f4361d8ad4b1021236a24","freq_resp","img/orange_2bandit_b.png","70","70","test","","","","4","",""
"null","174807","pSARL_v2","pSARL_v259w0mnxt","600f4361d8ad4b1021236a24","fixation","img/fixation.png","null","","test","","","","","",""
"268","175077","pSARL_v2","pSARL_v259w0mnxt","600f4361d8ad4b1021236a24","freq","img/orange_2bandit_b2.png","70","70","test","1","73","73","4","",""
"null","175616","pSARL_v2","pSARL_v259w0mnxt","600f4361d8ad4b1021236a24","freq_resp","img/orange_2bandit_b.png","70","70","test","","","","4","",""
"null","175773","pSARL_v2","pSARL_v259w0mnxt","600f4361d8ad4b1021236a24","fixation","img/fixation.png","null","","test","","","","","",""
"381.6999999284744","176157","pSARL_v2","pSARL_v259w0mnxt","600f4361d8ad4b1021236a24","freq","img/orange_2bandit_b2.png","70","70","test","1","74","74","4","",""
"null","176583","pSARL_v2","pSARL_v259w0mnxt","600f4361d8ad4b1021236a24","freq_resp","img/orange_2bandit_b.png","70","70","test","","","","4","",""
"null","176739","pSARL_v2","pSARL_v259w0mnxt","600f4361d8ad4b1021236a24","fixation","img/fixation.png","null","","test","","","","","",""
"311.89999997615814","177053","pSARL_v2","pSARL_v259w0mnxt","600f4361d8ad4b1021236a24","freq","img/orange_2bandit_b2.png","70","70","test","1","75","75","4","",""
"null","177553","pSARL_v2","pSARL_v259w0mnxt","600f4361d8ad4b1021236a24","freq_resp","img/orange_2bandit_b.png","70","70","test","","","","4","",""
"null","177709","pSARL_v2","pSARL_v259w0mnxt","600f4361d8ad4b1021236a24","fixation","img/fixation.png","null","","test","","","","","",""
"365.6999999284744","178077","pSARL_v2","pSARL_v259w0mnxt","600f4361d8ad4b1021236a24","infreq","img/green_2bandit_b2.png","68","68","test","1","76","76","4","",""
"null","178520","pSARL_v2","pSARL_v259w0mnxt","600f4361d8ad4b1021236a24","infreq_resp","img/green_2bandit_b.png","68","68","test","","","","4","",""
"null","178675","pSARL_v2","pSARL_v259w0mnxt","600f4361d8ad4b1021236a24","fixation","img/fixation.png","null","","test","","","","","",""
"319.1999999284744","178997","pSARL_v2","pSARL_v259w0mnxt","600f4361d8ad4b1021236a24","freq","img/orange_2bandit_b2.png","70","70","test","1","77","77","4","",""
"null","179487","pSARL_v2","pSARL_v259w0mnxt","600f4361d8ad4b1021236a24","freq_resp","img/orange_2bandit_b.png","70","70","test","","","","4","",""
"null","179645","pSARL_v2","pSARL_v259w0mnxt","600f4361d8ad4b1021236a24","fixation","img/fixation.png","null","","test","","","","","",""
"246.10000002384186","179894","pSARL_v2","pSARL_v259w0mnxt","600f4361d8ad4b1021236a24","infreq","img/green_2bandit_b2.png","70","68","test","0","78","78","4","",""
"null","180455","pSARL_v2","pSARL_v259w0mnxt","600f4361d8ad4b1021236a24","infreq_resp","img/green_2bandit_b.png","70","68","test","","","","4","",""
"null","180611","pSARL_v2","pSARL_v259w0mnxt","600f4361d8ad4b1021236a24","fixation","img/fixation.png","null","","test","","","","","",""
"295.8000000715256","180909","pSARL_v2","pSARL_v259w0mnxt","600f4361d8ad4b1021236a24","freq","img/orange_2bandit_b2.png","70","70","test","1","79","79","4","",""
"null","181422","pSARL_v2","pSARL_v259w0mnxt","600f4361d8ad4b1021236a24","freq_resp","img/orange_2bandit_b.png","70","70","test","","","","4","",""
"null","181578","pSARL_v2","pSARL_v259w0mnxt","600f4361d8ad4b1021236a24","fixation","img/fixation.png","null","","test","","","","","",""
"320.3000000715256","181902","pSARL_v2","pSARL_v259w0mnxt","600f4361d8ad4b1021236a24","freq","img/orange_2bandit_b2.png","70","70","test","1","80","80","4","",""
"null","182390","pSARL_v2","pSARL_v259w0mnxt","600f4361d8ad4b1021236a24","freq_resp","img/orange_2bandit_b.png","70","70","test","","","","4","",""
"null","182545","pSARL_v2","pSARL_v259w0mnxt","600f4361d8ad4b1021236a24","fixation","img/fixation.png","null","","test","","","","","",""
"305.39999997615814","182854","pSARL_v2","pSARL_v259w0mnxt","600f4361d8ad4b1021236a24","freq","img/orange_2bandit_b2.png","70","70","test","1","81","81","4","",""
"null","183357","pSARL_v2","pSARL_v259w0mnxt","600f4361d8ad4b1021236a24","freq_resp","img/orange_2bandit_b.png","70","70","test","","","","4","",""
"null","183516","pSARL_v2","pSARL_v259w0mnxt","600f4361d8ad4b1021236a24","fixation","img/fixation.png","null","","test","","","","","",""
"326.5","183845","pSARL_v2","pSARL_v259w0mnxt","600f4361d8ad4b1021236a24","freq","img/orange_2bandit_b2.png","70","70","test","1","82","82","4","",""
"null","184327","pSARL_v2","pSARL_v259w0mnxt","600f4361d8ad4b1021236a24","freq_resp","img/orange_2bandit_b.png","70","70","test","","","","4","",""
"null","184483","pSARL_v2","pSARL_v259w0mnxt","600f4361d8ad4b1021236a24","fixation","img/fixation.png","null","","test","","","","","",""
"288.2999999523163","184774","pSARL_v2","pSARL_v259w0mnxt","600f4361d8ad4b1021236a24","freq","img/orange_2bandit_b2.png","70","70","test","1","83","83","4","",""
"null","185294","pSARL_v2","pSARL_v259w0mnxt","600f4361d8ad4b1021236a24","freq_resp","img/orange_2bandit_b.png","70","70","test","","","","4","",""
"null","185449","pSARL_v2","pSARL_v259w0mnxt","600f4361d8ad4b1021236a24","fixation","img/fixation.png","null","","test","","","","","",""
"305.39999997615814","185758","pSARL_v2","pSARL_v259w0mnxt","600f4361d8ad4b1021236a24","freq","img/orange_2bandit_b2.png","70","70","test","1","84","84","4","",""
"null","186257","pSARL_v2","pSARL_v259w0mnxt","600f4361d8ad4b1021236a24","freq_resp","img/orange_2bandit_b.png","70","70","test","","","","4","",""
"null","186413","pSARL_v2","pSARL_v259w0mnxt","600f4361d8ad4b1021236a24","fixation","img/fixation.png","null","","test","","","","","",""
"333.39999997615814","186749","pSARL_v2","pSARL_v259w0mnxt","600f4361d8ad4b1021236a24","freq","img/orange_2bandit_b2.png","70","70","test","1","85","85","4","",""
"null","187222","pSARL_v2","pSARL_v259w0mnxt","600f4361d8ad4b1021236a24","freq_resp","img/orange_2bandit_b.png","70","70","test","","","","4","",""
"null","187379","pSARL_v2","pSARL_v259w0mnxt","600f4361d8ad4b1021236a24","fixation","img/fixation.png","null","","test","","","","","",""
"319.2999999523163","187701","pSARL_v2","pSARL_v259w0mnxt","600f4361d8ad4b1021236a24","freq","img/orange_2bandit_b2.png","70","70","test","1","86","86","4","",""
"null","188187","pSARL_v2","pSARL_v259w0mnxt","600f4361d8ad4b1021236a24","freq_resp","img/orange_2bandit_b.png","70","70","test","","","","4","",""
"null","188342","pSARL_v2","pSARL_v259w0mnxt","600f4361d8ad4b1021236a24","fixation","img/fixation.png","null","","test","","","","","",""
"412.2999999523163","188758","pSARL_v2","pSARL_v259w0mnxt","600f4361d8ad4b1021236a24","infreq","img/green_2bandit_b2.png","68","68","test","1","87","87","4","",""
"null","189155","pSARL_v2","pSARL_v259w0mnxt","600f4361d8ad4b1021236a24","infreq_resp","img/green_2bandit_b.png","68","68","test","","","","4","",""
"null","189313","pSARL_v2","pSARL_v259w0mnxt","600f4361d8ad4b1021236a24","fixation","img/fixation.png","null","","test","","","","","",""
"329.10000002384186","189645","pSARL_v2","pSARL_v259w0mnxt","600f4361d8ad4b1021236a24","freq","img/orange_2bandit_b2.png","70","70","test","1","88","88","4","",""
"null","190127","pSARL_v2","pSARL_v259w0mnxt","600f4361d8ad4b1021236a24","freq_resp","img/orange_2bandit_b.png","70","70","test","","","","4","",""
"null","190281","pSARL_v2","pSARL_v259w0mnxt","600f4361d8ad4b1021236a24","fixation","img/fixation.png","null","","test","","","","","",""
"321.10000002384186","190605","pSARL_v2","pSARL_v259w0mnxt","600f4361d8ad4b1021236a24","freq","img/orange_2bandit_b2.png","70","70","test","1","89","89","4","",""
"null","191093","pSARL_v2","pSARL_v259w0mnxt","600f4361d8ad4b1021236a24","freq_resp","img/orange_2bandit_b.png","70","70","test","","","","4","",""
"null","191247","pSARL_v2","pSARL_v259w0mnxt","600f4361d8ad4b1021236a24","fixation","img/fixation.png","null","","test","","","","","",""
"691.2000000476837","191941","pSARL_v2","pSARL_v259w0mnxt","600f4361d8ad4b1021236a24","reward","img/slot.png","74","","test","","","","","",""
"null","192701","pSARL_v2","pSARL_v259w0mnxt","600f4361d8ad4b1021236a24","points","<div class=""verylowPoints""> -3 </div>","null","na","test","","","","4","-3","3"
"549.8000000715256","193253","pSARL_v2","pSARL_v259w0mnxt","600f4361d8ad4b1021236a24","freq","img/orange_2bandit_b2.png","70","70","test","1","90","90","5","",""
"null","193512","pSARL_v2","pSARL_v259w0mnxt","600f4361d8ad4b1021236a24","freq_resp","img/orange_2bandit_b.png","70","70","test","","","","5","",""
"null","193668","pSARL_v2","pSARL_v259w0mnxt","600f4361d8ad4b1021236a24","fixation","img/fixation.png","null","","test","","","","","",""
"437.7999999523163","194109","pSARL_v2","pSARL_v259w0mnxt","600f4361d8ad4b1021236a24","freq","img/orange_2bandit_b2.png","70","70","test","1","91","91","5","",""
"null","194484","pSARL_v2","pSARL_v259w0mnxt","600f4361d8ad4b1021236a24","freq_resp","img/orange_2bandit_b.png","70","70","test","","","","5","",""
"null","194641","pSARL_v2","pSARL_v259w0mnxt","600f4361d8ad4b1021236a24","fixation","img/fixation.png","null","","test","","","","","",""
"426.7999999523163","195070","pSARL_v2","pSARL_v259w0mnxt","600f4361d8ad4b1021236a24","freq","img/orange_2bandit_b2.png","70","70","test","1","92","92","5","",""
"null","195451","pSARL_v2","pSARL_v259w0mnxt","600f4361d8ad4b1021236a24","freq_resp","img/orange_2bandit_b.png","70","70","test","","","","5","",""
"null","195607","pSARL_v2","pSARL_v259w0mnxt","600f4361d8ad4b1021236a24","fixation","img/fixation.png","null","","test","","","","","",""
"379.60000002384186","195990","pSARL_v2","pSARL_v259w0mnxt","600f4361d8ad4b1021236a24","freq","img/orange_2bandit_b2.png","70","70","test","1","93","93","5","",""
"null","196415","pSARL_v2","pSARL_v259w0mnxt","600f4361d8ad4b1021236a24","freq_resp","img/orange_2bandit_b.png","70","70","test","","","","5","",""
"null","196570","pSARL_v2","pSARL_v259w0mnxt","600f4361d8ad4b1021236a24","fixation","img/fixation.png","null","","test","","","","","",""
"344.39999997615814","196917","pSARL_v2","pSARL_v259w0mnxt","600f4361d8ad4b1021236a24","freq","img/orange_2bandit_b2.png","70","70","test","1","94","94","5","",""
"null","197383","pSARL_v2","pSARL_v259w0mnxt","600f4361d8ad4b1021236a24","freq_resp","img/orange_2bandit_b.png","70","70","test","","","","5","",""
"null","197539","pSARL_v2","pSARL_v259w0mnxt","600f4361d8ad4b1021236a24","fixation","img/fixation.png","null","","test","","","","","",""
"295.2999999523163","197838","pSARL_v2","pSARL_v259w0mnxt","600f4361d8ad4b1021236a24","freq","img/orange_2bandit_b2.png","70","70","test","1","95","95","5","",""
"null","198347","pSARL_v2","pSARL_v259w0mnxt","600f4361d8ad4b1021236a24","freq_resp","img/orange_2bandit_b.png","70","70","test","","","","5","",""
"null","198503","pSARL_v2","pSARL_v259w0mnxt","600f4361d8ad4b1021236a24","fixation","img/fixation.png","null","","test","","","","","",""
"291.5","198797","pSARL_v2","pSARL_v259w0mnxt","600f4361d8ad4b1021236a24","freq","img/orange_2bandit_b2.png","70","70","test","1","96","96","5","",""
"null","199317","pSARL_v2","pSARL_v259w0mnxt","600f4361d8ad4b1021236a24","freq_resp","img/orange_2bandit_b.png","70","70","test","","","","5","",""
"null","199470","pSARL_v2","pSARL_v259w0mnxt","600f4361d8ad4b1021236a24","fixation","img/fixation.png","null","","test","","","","","",""
"373.2000000476837","199846","pSARL_v2","pSARL_v259w0mnxt","600f4361d8ad4b1021236a24","freq","img/orange_2bandit_b2.png","70","70","test","1","97","97","5","",""
"null","200284","pSARL_v2","pSARL_v259w0mnxt","600f4361d8ad4b1021236a24","freq_resp","img/orange_2bandit_b.png","70","70","test","","","","5","",""
"null","200440","pSARL_v2","pSARL_v259w0mnxt","600f4361d8ad4b1021236a24","fixation","img/fixation.png","null","","test","","","","","",""
"298.8000000715256","200741","pSARL_v2","pSARL_v259w0mnxt","600f4361d8ad4b1021236a24","freq","img/orange_2bandit_b2.png","70","70","test","1","98","98","5","",""
"null","201251","pSARL_v2","pSARL_v259w0mnxt","600f4361d8ad4b1021236a24","freq_resp","img/orange_2bandit_b.png","70","70","test","","","","5","",""
"null","201407","pSARL_v2","pSARL_v259w0mnxt","600f4361d8ad4b1021236a24","fixation","img/fixation.png","null","","test","","","","","",""
"291.5","201702","pSARL_v2","pSARL_v259w0mnxt","600f4361d8ad4b1021236a24","freq","img/orange_2bandit_b2.png","70","70","test","1","99","99","5","",""
"null","202219","pSARL_v2","pSARL_v259w0mnxt","600f4361d8ad4b1021236a24","freq_resp","img/orange_2bandit_b.png","70","70","test","","","","5","",""
"null","202376","pSARL_v2","pSARL_v259w0mnxt","600f4361d8ad4b1021236a24","fixation","img/fixation.png","null","","test","","","","","",""
"306.5","202685","pSARL_v2","pSARL_v259w0mnxt","600f4361d8ad4b1021236a24","freq","img/orange_2bandit_b2.png","70","70","test","1","100","100","5","",""
"null","203189","pSARL_v2","pSARL_v259w0mnxt","600f4361d8ad4b1021236a24","freq_resp","img/orange_2bandit_b.png","70","70","test","","","","5","",""
"null","203343","pSARL_v2","pSARL_v259w0mnxt","600f4361d8ad4b1021236a24","fixation","img/fixation.png","null","","test","","","","","",""
"299.40000009536743","203646","pSARL_v2","pSARL_v259w0mnxt","600f4361d8ad4b1021236a24","freq","img/orange_2bandit_b2.png","70","70","test","1","101","101","5","",""
"null","204155","pSARL_v2","pSARL_v259w0mnxt","600f4361d8ad4b1021236a24","freq_resp","img/orange_2bandit_b.png","70","70","test","","","","5","",""
"null","204313","pSARL_v2","pSARL_v259w0mnxt","600f4361d8ad4b1021236a24","fixation","img/fixation.png","null","","test","","","","","",""
"281.39999997615814","204597","pSARL_v2","pSARL_v259w0mnxt","600f4361d8ad4b1021236a24","infreq","img/green_2bandit_b2.png","70","68","test","0","102","102","5","",""
"null","205127","pSARL_v2","pSARL_v259w0mnxt","600f4361d8ad4b1021236a24","infreq_resp","img/green_2bandit_b.png","70","68","test","","","","5","",""
"null","205282","pSARL_v2","pSARL_v259w0mnxt","600f4361d8ad4b1021236a24","fixation","img/fixation.png","null","","test","","","","","",""
"337.7999999523163","205622","pSARL_v2","pSARL_v259w0mnxt","600f4361d8ad4b1021236a24","freq","img/orange_2bandit_b2.png","70","70","test","1","103","103","5","",""
"null","206095","pSARL_v2","pSARL_v259w0mnxt","600f4361d8ad4b1021236a24","freq_resp","img/orange_2bandit_b.png","70","70","test","","","","5","",""
"null","206250","pSARL_v2","pSARL_v259w0mnxt","600f4361d8ad4b1021236a24","fixation","img/fixation.png","null","","test","","","","","",""
"320.7000000476837","206574","pSARL_v2","pSARL_v259w0mnxt","600f4361d8ad4b1021236a24","freq","img/orange_2bandit_b2.png","70","70","test","1","104","104","5","",""
"null","207064","pSARL_v2","pSARL_v259w0mnxt","600f4361d8ad4b1021236a24","freq_resp","img/orange_2bandit_b.png","70","70","test","","","","5","",""
"null","207219","pSARL_v2","pSARL_v259w0mnxt","600f4361d8ad4b1021236a24","fixation","img/fixation.png","null","","test","","","","","",""
"311.40000009536743","207533","pSARL_v2","pSARL_v259w0mnxt","600f4361d8ad4b1021236a24","freq","img/orange_2bandit_b2.png","70","70","test","1","105","105","5","",""
"null","208029","pSARL_v2","pSARL_v259w0mnxt","600f4361d8ad4b1021236a24","freq_resp","img/orange_2bandit_b.png","70","70","test","","","","5","",""
"null","208185","pSARL_v2","pSARL_v259w0mnxt","600f4361d8ad4b1021236a24","fixation","img/fixation.png","null","","test","","","","","",""
"266","208454","pSARL_v2","pSARL_v259w0mnxt","600f4361d8ad4b1021236a24","freq","img/orange_2bandit_b2.png","70","70","test","1","106","106","5","",""
"null","208993","pSARL_v2","pSARL_v259w0mnxt","600f4361d8ad4b1021236a24","freq_resp","img/orange_2bandit_b.png","70","70","test","","","","5","",""
"null","209152","pSARL_v2","pSARL_v259w0mnxt","600f4361d8ad4b1021236a24","fixation","img/fixation.png","null","","test","","","","","",""
"290.7000000476837","209446","pSARL_v2","pSARL_v259w0mnxt","600f4361d8ad4b1021236a24","freq","img/orange_2bandit_b2.png","70","70","test","1","107","107","5","",""
"null","209964","pSARL_v2","pSARL_v259w0mnxt","600f4361d8ad4b1021236a24","freq_resp","img/orange_2bandit_b.png","70","70","test","","","","5","",""
"null","210118","pSARL_v2","pSARL_v259w0mnxt","600f4361d8ad4b1021236a24","fixation","img/fixation.png","null","","test","","","","","",""
"277.89999997615814","210399","pSARL_v2","pSARL_v259w0mnxt","600f4361d8ad4b1021236a24","freq","img/orange_2bandit_b2.png","70","70","test","1","108","108","5","",""
"null","210926","pSARL_v2","pSARL_v259w0mnxt","600f4361d8ad4b1021236a24","freq_resp","img/orange_2bandit_b.png","70","70","test","","","","5","",""
"null","211081","pSARL_v2","pSARL_v259w0mnxt","600f4361d8ad4b1021236a24","fixation","img/fixation.png","null","","test","","","","","",""
"338.3000000715256","211422","pSARL_v2","pSARL_v259w0mnxt","600f4361d8ad4b1021236a24","freq","img/orange_2bandit_b2.png","70","70","test","1","109","109","5","",""
"null","211898","pSARL_v2","pSARL_v259w0mnxt","600f4361d8ad4b1021236a24","freq_resp","img/orange_2bandit_b.png","70","70","test","","","","5","",""
"null","212053","pSARL_v2","pSARL_v259w0mnxt","600f4361d8ad4b1021236a24","fixation","img/fixation.png","null","","test","","","","","",""
"293.89999997615814","212350","pSARL_v2","pSARL_v259w0mnxt","600f4361d8ad4b1021236a24","freq","img/orange_2bandit_b2.png","70","70","test","1","110","110","5","",""
"null","212868","pSARL_v2","pSARL_v259w0mnxt","600f4361d8ad4b1021236a24","freq_resp","img/orange_2bandit_b.png","70","70","test","","","","5","",""
"null","213023","pSARL_v2","pSARL_v259w0mnxt","600f4361d8ad4b1021236a24","fixation","img/fixation.png","null","","test","","","","","",""
"339.7999999523163","213366","pSARL_v2","pSARL_v259w0mnxt","600f4361d8ad4b1021236a24","freq","img/orange_2bandit_b2.png","70","70","test","1","111","111","5","",""
"null","213834","pSARL_v2","pSARL_v259w0mnxt","600f4361d8ad4b1021236a24","freq_resp","img/orange_2bandit_b.png","70","70","test","","","","5","",""
"null","213990","pSARL_v2","pSARL_v259w0mnxt","600f4361d8ad4b1021236a24","fixation","img/fixation.png","null","","test","","","","","",""
"301.39999997615814","214295","pSARL_v2","pSARL_v259w0mnxt","600f4361d8ad4b1021236a24","freq","img/orange_2bandit_b2.png","70","70","test","1","112","112","5","",""
"null","214801","pSARL_v2","pSARL_v259w0mnxt","600f4361d8ad4b1021236a24","freq_resp","img/orange_2bandit_b.png","70","70","test","","","","5","",""
"null","214955","pSARL_v2","pSARL_v259w0mnxt","600f4361d8ad4b1021236a24","fixation","img/fixation.png","null","","test","","","","","",""
"415.7000000476837","215374","pSARL_v2","pSARL_v259w0mnxt","600f4361d8ad4b1021236a24","infreq","img/green_2bandit_b2.png","68","68","test","1","113","113","5","",""
"null","215765","pSARL_v2","pSARL_v259w0mnxt","600f4361d8ad4b1021236a24","infreq_resp","img/green_2bandit_b.png","68","68","test","","","","5","",""
"null","215920","pSARL_v2","pSARL_v259w0mnxt","600f4361d8ad4b1021236a24","fixation","img/fixation.png","null","","test","","","","","",""
"316.2000000476837","216239","pSARL_v2","pSARL_v259w0mnxt","600f4361d8ad4b1021236a24","freq","img/orange_2bandit_b2.png","70","70","test","1","114","114","5","",""
"null","216733","pSARL_v2","pSARL_v259w0mnxt","600f4361d8ad4b1021236a24","freq_resp","img/orange_2bandit_b.png","70","70","test","","","","5","",""
"null","216889","pSARL_v2","pSARL_v259w0mnxt","600f4361d8ad4b1021236a24","fixation","img/fixation.png","null","","test","","","","","",""
"393.39999997615814","217285","pSARL_v2","pSARL_v259w0mnxt","600f4361d8ad4b1021236a24","reward","img/slot.png","74","","test","","","","","",""
"null","218047","pSARL_v2","pSARL_v259w0mnxt","600f4361d8ad4b1021236a24","points","<div class=""veryhighPoints""> +1 </div>","null","na","test","","","","5","1","4"
"387.60000002384186","218438","pSARL_v2","pSARL_v259w0mnxt","600f4361d8ad4b1021236a24","freq","img/orange_2bandit_b2.png","70","70","test","1","115","115","6","",""
"null","218857","pSARL_v2","pSARL_v259w0mnxt","600f4361d8ad4b1021236a24","freq_resp","img/orange_2bandit_b.png","70","70","test","","","","6","",""
"null","219011","pSARL_v2","pSARL_v259w0mnxt","600f4361d8ad4b1021236a24","fixation","img/fixation.png","null","","test","","","","","",""
"567.6999999284744","219582","pSARL_v2","pSARL_v259w0mnxt","600f4361d8ad4b1021236a24","infreq","img/green_2bandit_b2.png","68","68","test","1","116","116","6","",""
"null","219819","pSARL_v2","pSARL_v259w0mnxt","600f4361d8ad4b1021236a24","infreq_resp","img/green_2bandit_b.png","68","68","test","","","","6","",""
"null","219976","pSARL_v2","pSARL_v259w0mnxt","600f4361d8ad4b1021236a24","fixation","img/fixation.png","null","","test","","","","","",""
"403.09999990463257","220381","pSARL_v2","pSARL_v259w0mnxt","600f4361d8ad4b1021236a24","freq","img/orange_2bandit_b2.png","70","70","test","1","117","117","6","",""
"null","220783","pSARL_v2","pSARL_v259w0mnxt","600f4361d8ad4b1021236a24","freq_resp","img/orange_2bandit_b.png","70","70","test","","","","6","",""
"null","220939","pSARL_v2","pSARL_v259w0mnxt","600f4361d8ad4b1021236a24","fixation","img/fixation.png","null","","test","","","","","",""
"296.60000002384186","221238","pSARL_v2","pSARL_v259w0mnxt","600f4361d8ad4b1021236a24","freq","img/orange_2bandit_b2.png","70","70","test","1","118","118","6","",""
"null","221749","pSARL_v2","pSARL_v259w0mnxt","600f4361d8ad4b1021236a24","freq_resp","img/orange_2bandit_b.png","70","70","test","","","","6","",""
"null","221907","pSARL_v2","pSARL_v259w0mnxt","600f4361d8ad4b1021236a24","fixation","img/fixation.png","null","","test","","","","","",""
"320.60000002384186","222230","pSARL_v2","pSARL_v259w0mnxt","600f4361d8ad4b1021236a24","freq","img/orange_2bandit_b2.png","70","70","test","1","119","119","6","",""
"null","222719","pSARL_v2","pSARL_v259w0mnxt","600f4361d8ad4b1021236a24","freq_resp","img/orange_2bandit_b.png","70","70","test","","","","6","",""
"null","222874","pSARL_v2","pSARL_v259w0mnxt","600f4361d8ad4b1021236a24","fixation","img/fixation.png","null","","test","","","","","",""
"305.1999999284744","223181","pSARL_v2","pSARL_v259w0mnxt","600f4361d8ad4b1021236a24","freq","img/orange_2bandit_b2.png","70","70","test","1","120","120","6","",""
"null","223688","pSARL_v2","pSARL_v259w0mnxt","600f4361d8ad4b1021236a24","freq_resp","img/orange_2bandit_b.png","70","70","test","","","","6","",""
"null","223845","pSARL_v2","pSARL_v259w0mnxt","600f4361d8ad4b1021236a24","fixation","img/fixation.png","null","","test","","","","","",""
"326.39999997615814","224174","pSARL_v2","pSARL_v259w0mnxt","600f4361d8ad4b1021236a24","freq","img/orange_2bandit_b2.png","70","70","test","1","121","121","6","",""
"null","224653","pSARL_v2","pSARL_v259w0mnxt","600f4361d8ad4b1021236a24","freq_resp","img/orange_2bandit_b.png","70","70","test","","","","6","",""
"null","224809","pSARL_v2","pSARL_v259w0mnxt","600f4361d8ad4b1021236a24","fixation","img/fixation.png","null","","test","","","","","",""
"290.3000000715256","225102","pSARL_v2","pSARL_v259w0mnxt","600f4361d8ad4b1021236a24","freq","img/orange_2bandit_b2.png","70","70","test","1","122","122","6","",""
"null","225621","pSARL_v2","pSARL_v259w0mnxt","600f4361d8ad4b1021236a24","freq_resp","img/orange_2bandit_b.png","70","70","test","","","","6","",""
"null","225778","pSARL_v2","pSARL_v259w0mnxt","600f4361d8ad4b1021236a24","fixation","img/fixation.png","null","","test","","","","","",""
"305.7000000476837","226087","pSARL_v2","pSARL_v259w0mnxt","600f4361d8ad4b1021236a24","freq","img/orange_2bandit_b2.png","70","70","test","1","123","123","6","",""
"null","226592","pSARL_v2","pSARL_v259w0mnxt","600f4361d8ad4b1021236a24","freq_resp","img/orange_2bandit_b.png","70","70","test","","","","6","",""
"null","226747","pSARL_v2","pSARL_v259w0mnxt","600f4361d8ad4b1021236a24","fixation","img/fixation.png","null","","test","","","","","",""
"361","227111","pSARL_v2","pSARL_v259w0mnxt","600f4361d8ad4b1021236a24","freq","img/orange_2bandit_b2.png","70","70","test","1","124","124","6","",""
"null","227557","pSARL_v2","pSARL_v259w0mnxt","600f4361d8ad4b1021236a24","freq_resp","img/orange_2bandit_b.png","70","70","test","","","","6","",""
"null","227715","pSARL_v2","pSARL_v259w0mnxt","600f4361d8ad4b1021236a24","fixation","img/fixation.png","null","","test","","","","","",""
"408.2000000476837","228126","pSARL_v2","pSARL_v259w0mnxt","600f4361d8ad4b1021236a24","infreq","img/green_2bandit_b2.png","68","68","test","1","125","125","6","",""
"null","228527","pSARL_v2","pSARL_v259w0mnxt","600f4361d8ad4b1021236a24","infreq_resp","img/green_2bandit_b.png","68","68","test","","","","6","",""
"null","228686","pSARL_v2","pSARL_v259w0mnxt","600f4361d8ad4b1021236a24","fixation","img/fixation.png","null","","test","","","","","",""
"365.7000000476837","229054","pSARL_v2","pSARL_v259w0mnxt","600f4361d8ad4b1021236a24","freq","img/orange_2bandit_b2.png","70","70","test","1","126","126","6","",""
"null","229499","pSARL_v2","pSARL_v259w0mnxt","600f4361d8ad4b1021236a24","freq_resp","img/orange_2bandit_b.png","70","70","test","","","","6","",""
"null","229653","pSARL_v2","pSARL_v259w0mnxt","600f4361d8ad4b1021236a24","fixation","img/fixation.png","null","","test","","","","","",""
"478.2999999523163","230135","pSARL_v2","pSARL_v259w0mnxt","600f4361d8ad4b1021236a24","infreq","img/green_2bandit_b2.png","68","68","test","1","127","127","6","",""
"null","230465","pSARL_v2","pSARL_v259w0mnxt","600f4361d8ad4b1021236a24","infreq_resp","img/green_2bandit_b.png","68","68","test","","","","6","",""
"null","230620","pSARL_v2","pSARL_v259w0mnxt","600f4361d8ad4b1021236a24","fixation","img/fixation.png","null","","test","","","","","",""
"311","230934","pSARL_v2","pSARL_v259w0mnxt","600f4361d8ad4b1021236a24","freq","img/orange_2bandit_b2.png","70","70","test","1","128","128","6","",""
"null","231430","pSARL_v2","pSARL_v259w0mnxt","600f4361d8ad4b1021236a24","freq_resp","img/orange_2bandit_b.png","70","70","test","","","","6","",""
"null","231586","pSARL_v2","pSARL_v259w0mnxt","600f4361d8ad4b1021236a24","fixation","img/fixation.png","null","","test","","","","","",""
"265.5","231854","pSARL_v2","pSARL_v259w0mnxt","600f4361d8ad4b1021236a24","freq","img/orange_2bandit_b2.png","70","70","test","1","129","129","6","",""
"null","232395","pSARL_v2","pSARL_v259w0mnxt","600f4361d8ad4b1021236a24","freq_resp","img/orange_2bandit_b.png","70","70","test","","","","6","",""
"null","232552","pSARL_v2","pSARL_v259w0mnxt","600f4361d8ad4b1021236a24","fixation","img/fixation.png","null","","test","","","","","",""
"324","232879","pSARL_v2","pSARL_v259w0mnxt","600f4361d8ad4b1021236a24","freq","img/orange_2bandit_b2.png","70","70","test","1","130","130","6","",""
"null","233360","pSARL_v2","pSARL_v259w0mnxt","600f4361d8ad4b1021236a24","freq_resp","img/orange_2bandit_b.png","70","70","test","","","","6","",""
"null","233516","pSARL_v2","pSARL_v259w0mnxt","600f4361d8ad4b1021236a24","fixation","img/fixation.png","null","","test","","","","","",""
"343.5","233863","pSARL_v2","pSARL_v259w0mnxt","600f4361d8ad4b1021236a24","freq","img/orange_2bandit_b2.png","70","70","test","1","131","131","6","",""
"null","234327","pSARL_v2","pSARL_v259w0mnxt","600f4361d8ad4b1021236a24","freq_resp","img/orange_2bandit_b.png","70","70","test","","","","6","",""
"null","234483","pSARL_v2","pSARL_v259w0mnxt","600f4361d8ad4b1021236a24","fixation","img/fixation.png","null","","test","","","","","",""
"368.60000002384186","234855","pSARL_v2","pSARL_v259w0mnxt","600f4361d8ad4b1021236a24","freq","img/orange_2bandit_b2.png","70","70","test","1","132","132","6","",""
"null","235296","pSARL_v2","pSARL_v259w0mnxt","600f4361d8ad4b1021236a24","freq_resp","img/orange_2bandit_b.png","70","70","test","","","","6","",""
"null","235450","pSARL_v2","pSARL_v259w0mnxt","600f4361d8ad4b1021236a24","fixation","img/fixation.png","null","","test","","","","","",""
"329.10000002384186","235783","pSARL_v2","pSARL_v259w0mnxt","600f4361d8ad4b1021236a24","freq","img/orange_2bandit_b2.png","70","70","test","1","133","133","6","",""
"null","236260","pSARL_v2","pSARL_v259w0mnxt","600f4361d8ad4b1021236a24","freq_resp","img/orange_2bandit_b.png","70","70","test","","","","6","",""
"null","236415","pSARL_v2","pSARL_v259w0mnxt","600f4361d8ad4b1021236a24","fixation","img/fixation.png","null","","test","","","","","",""
"316.60000002384186","236734","pSARL_v2","pSARL_v259w0mnxt","600f4361d8ad4b1021236a24","freq","img/orange_2bandit_b2.png","70","70","test","1","134","134","6","",""
"null","237222","pSARL_v2","pSARL_v259w0mnxt","600f4361d8ad4b1021236a24","freq_resp","img/orange_2bandit_b.png","70","70","test","","","","6","",""
"null","237378","pSARL_v2","pSARL_v259w0mnxt","600f4361d8ad4b1021236a24","fixation","img/fixation.png","null","","test","","","","","",""
"314","237695","pSARL_v2","pSARL_v259w0mnxt","600f4361d8ad4b1021236a24","freq","img/orange_2bandit_b2.png","70","70","test","1","135","135","6","",""
"null","238190","pSARL_v2","pSARL_v259w0mnxt","600f4361d8ad4b1021236a24","freq_resp","img/orange_2bandit_b.png","70","70","test","","","","6","",""
"null","238345","pSARL_v2","pSARL_v259w0mnxt","600f4361d8ad4b1021236a24","fixation","img/fixation.png","null","","test","","","","","",""
"362.8000000715256","238711","pSARL_v2","pSARL_v259w0mnxt","600f4361d8ad4b1021236a24","freq","img/orange_2bandit_b2.png","70","70","test","1","136","136","6","",""
"null","239155","pSARL_v2","pSARL_v259w0mnxt","600f4361d8ad4b1021236a24","freq_resp","img/orange_2bandit_b.png","70","70","test","","","","6","",""
"null","239309","pSARL_v2","pSARL_v259w0mnxt","600f4361d8ad4b1021236a24","fixation","img/fixation.png","null","","test","","","","","",""
"326.5","239638","pSARL_v2","pSARL_v259w0mnxt","600f4361d8ad4b1021236a24","freq","img/orange_2bandit_b2.png","70","70","test","1","137","137","6","",""
"null","240121","pSARL_v2","pSARL_v259w0mnxt","600f4361d8ad4b1021236a24","freq_resp","img/orange_2bandit_b.png","70","70","test","","","","6","",""
"null","240278","pSARL_v2","pSARL_v259w0mnxt","600f4361d8ad4b1021236a24","fixation","img/fixation.png","null","","test","","","","","",""
"309.7999999523163","240591","pSARL_v2","pSARL_v259w0mnxt","600f4361d8ad4b1021236a24","freq","img/orange_2bandit_b2.png","70","70","test","1","138","138","6","",""
"null","241087","pSARL_v2","pSARL_v259w0mnxt","600f4361d8ad4b1021236a24","freq_resp","img/orange_2bandit_b.png","70","70","test","","","","6","",""
"null","241243","pSARL_v2","pSARL_v259w0mnxt","600f4361d8ad4b1021236a24","fixation","img/fixation.png","null","","test","","","","","",""
"434","241680","pSARL_v2","pSARL_v259w0mnxt","600f4361d8ad4b1021236a24","reward","img/slot.png","74","","test","","","","","",""
"null","242447","pSARL_v2","pSARL_v259w0mnxt","600f4361d8ad4b1021236a24","points","<div class=""verylowPoints""> -7 </div>","null","na","test","","","","6","-7","5"
"342","242793","pSARL_v2","pSARL_v259w0mnxt","600f4361d8ad4b1021236a24","freq","img/orange_2bandit_b2.png","70","70","test","1","139","139","7","",""
"null","243257","pSARL_v2","pSARL_v259w0mnxt","600f4361d8ad4b1021236a24","freq_resp","img/orange_2bandit_b.png","70","70","test","","","","7","",""
"null","243412","pSARL_v2","pSARL_v259w0mnxt","600f4361d8ad4b1021236a24","fixation","img/fixation.png","null","","test","","","","","",""
"273","243688","pSARL_v2","pSARL_v259w0mnxt","600f4361d8ad4b1021236a24","freq","img/orange_2bandit_b2.png","70","70","test","1","140","140","7","",""
"null","244222","pSARL_v2","pSARL_v259w0mnxt","600f4361d8ad4b1021236a24","freq_resp","img/orange_2bandit_b.png","70","70","test","","","","7","",""
"null","244377","pSARL_v2","pSARL_v259w0mnxt","600f4361d8ad4b1021236a24","fixation","img/fixation.png","null","","test","","","","","",""
"292.2999999523163","244672","pSARL_v2","pSARL_v259w0mnxt","600f4361d8ad4b1021236a24","infreq","img/green_2bandit_b2.png","70","68","test","0","141","141","7","",""
"null","245190","pSARL_v2","pSARL_v259w0mnxt","600f4361d8ad4b1021236a24","infreq_resp","img/green_2bandit_b.png","70","68","test","","","","7","",""
"null","245346","pSARL_v2","pSARL_v259w0mnxt","600f4361d8ad4b1021236a24","fixation","img/fixation.png","null","","test","","","","","",""
"314.60000002384186","245663","pSARL_v2","pSARL_v259w0mnxt","600f4361d8ad4b1021236a24","freq","img/orange_2bandit_b2.png","70","70","test","1","142","142","7","",""
"null","246156","pSARL_v2","pSARL_v259w0mnxt","600f4361d8ad4b1021236a24","freq_resp","img/orange_2bandit_b.png","70","70","test","","","","7","",""
"null","246313","pSARL_v2","pSARL_v259w0mnxt","600f4361d8ad4b1021236a24","fixation","img/fixation.png","null","","test","","","","","",""
"332","246648","pSARL_v2","pSARL_v259w0mnxt","600f4361d8ad4b1021236a24","freq","img/orange_2bandit_b2.png","70","70","test","1","143","143","7","",""
"null","247124","pSARL_v2","pSARL_v259w0mnxt","600f4361d8ad4b1021236a24","freq_resp","img/orange_2bandit_b.png","70","70","test","","","","7","",""
"null","247282","pSARL_v2","pSARL_v259w0mnxt","600f4361d8ad4b1021236a24","fixation","img/fixation.png","null","","test","","","","","",""
"290.7000000476837","247575","pSARL_v2","pSARL_v259w0mnxt","600f4361d8ad4b1021236a24","freq","img/orange_2bandit_b2.png","70","70","test","1","144","144","7","",""
"null","248092","pSARL_v2","pSARL_v259w0mnxt","600f4361d8ad4b1021236a24","freq_resp","img/orange_2bandit_b.png","70","70","test","","","","7","",""
"null","248249","pSARL_v2","pSARL_v259w0mnxt","600f4361d8ad4b1021236a24","fixation","img/fixation.png","null","","test","","","","","",""
"309.89999997615814","248561","pSARL_v2","pSARL_v259w0mnxt","600f4361d8ad4b1021236a24","freq","img/orange_2bandit_b2.png","70","70","test","1","145","145","7","",""
"null","249063","pSARL_v2","pSARL_v259w0mnxt","600f4361d8ad4b1021236a24","freq_resp","img/orange_2bandit_b.png","70","70","test","","","","7","",""
"null","249218","pSARL_v2","pSARL_v259w0mnxt","600f4361d8ad4b1021236a24","fixation","img/fixation.png","null","","test","","","","","",""
"299.5","249520","pSARL_v2","pSARL_v259w0mnxt","600f4361d8ad4b1021236a24","freq","img/orange_2bandit_b2.png","70","70","test","1","146","146","7","",""
"null","250028","pSARL_v2","pSARL_v259w0mnxt","600f4361d8ad4b1021236a24","freq_resp","img/orange_2bandit_b.png","70","70","test","","","","7","",""
"null","250183","pSARL_v2","pSARL_v259w0mnxt","600f4361d8ad4b1021236a24","fixation","img/fixation.png","null","","test","","","","","",""
"358.10000002384186","250544","pSARL_v2","pSARL_v259w0mnxt","600f4361d8ad4b1021236a24","freq","img/orange_2bandit_b2.png","70","70","test","1","147","147","7","",""
"null","250995","pSARL_v2","pSARL_v259w0mnxt","600f4361d8ad4b1021236a24","freq_resp","img/orange_2bandit_b.png","70","70","test","","","","7","",""
"null","251150","pSARL_v2","pSARL_v259w0mnxt","600f4361d8ad4b1021236a24","fixation","img/fixation.png","null","","test","","","","","",""
"375.2999999523163","251528","pSARL_v2","pSARL_v259w0mnxt","600f4361d8ad4b1021236a24","freq","img/orange_2bandit_b2.png","70","70","test","1","148","148","7","",""
"null","251961","pSARL_v2","pSARL_v259w0mnxt","600f4361d8ad4b1021236a24","freq_resp","img/orange_2bandit_b.png","70","70","test","","","","7","",""
"null","252118","pSARL_v2","pSARL_v259w0mnxt","600f4361d8ad4b1021236a24","fixation","img/fixation.png","null","","test","","","","","",""
"367.5","252488","pSARL_v2","pSARL_v259w0mnxt","600f4361d8ad4b1021236a24","freq","img/orange_2bandit_b2.png","70","70","test","1","149","149","7","",""
"null","252929","pSARL_v2","pSARL_v259w0mnxt","600f4361d8ad4b1021236a24","freq_resp","img/orange_2bandit_b.png","70","70","test","","","","7","",""
"null","253085","pSARL_v2","pSARL_v259w0mnxt","600f4361d8ad4b1021236a24","fixation","img/fixation.png","null","","test","","","","","",""
"383.7000000476837","253472","pSARL_v2","pSARL_v259w0mnxt","600f4361d8ad4b1021236a24","infreq","img/green_2bandit_b2.png","68","68","test","1","150","150","7","",""
"null","253895","pSARL_v2","pSARL_v259w0mnxt","600f4361d8ad4b1021236a24","infreq_resp","img/green_2bandit_b.png","68","68","test","","","","7","",""
"null","254051","pSARL_v2","pSARL_v259w0mnxt","600f4361d8ad4b1021236a24","fixation","img/fixation.png","null","","test","","","","","",""
"313.6999999284744","254368","pSARL_v2","pSARL_v259w0mnxt","600f4361d8ad4b1021236a24","freq","img/orange_2bandit_b2.png","70","70","test","1","151","151","7","",""
"null","254863","pSARL_v2","pSARL_v259w0mnxt","600f4361d8ad4b1021236a24","freq_resp","img/orange_2bandit_b.png","70","70","test","","","","7","",""
"null","255016","pSARL_v2","pSARL_v259w0mnxt","600f4361d8ad4b1021236a24","fixation","img/fixation.png","null","","test","","","","","",""
"300.7000000476837","255320","pSARL_v2","pSARL_v259w0mnxt","600f4361d8ad4b1021236a24","freq","img/orange_2bandit_b2.png","70","70","test","1","152","152","7","",""
"null","255830","pSARL_v2","pSARL_v259w0mnxt","600f4361d8ad4b1021236a24","freq_resp","img/orange_2bandit_b.png","70","70","test","","","","7","",""
"null","255986","pSARL_v2","pSARL_v259w0mnxt","600f4361d8ad4b1021236a24","fixation","img/fixation.png","null","","test","","","","","",""
"291","256280","pSARL_v2","pSARL_v259w0mnxt","600f4361d8ad4b1021236a24","freq","img/orange_2bandit_b2.png","70","70","test","1","153","153","7","",""
"null","256795","pSARL_v2","pSARL_v259w0mnxt","600f4361d8ad4b1021236a24","freq_resp","img/orange_2bandit_b.png","70","70","test","","","","7","",""
"null","256950","pSARL_v2","pSARL_v259w0mnxt","600f4361d8ad4b1021236a24","fixation","img/fixation.png","null","","test","","","","","",""
"375.39999997615814","257327","pSARL_v2","pSARL_v259w0mnxt","600f4361d8ad4b1021236a24","freq","img/orange_2bandit_b2.png","70","70","test","1","154","154","7","",""
"null","257757","pSARL_v2","pSARL_v259w0mnxt","600f4361d8ad4b1021236a24","freq_resp","img/orange_2bandit_b.png","70","70","test","","","","7","",""
"null","257914","pSARL_v2","pSARL_v259w0mnxt","600f4361d8ad4b1021236a24","fixation","img/fixation.png","null","","test","","","","","",""
"371.5","258288","pSARL_v2","pSARL_v259w0mnxt","600f4361d8ad4b1021236a24","freq","img/orange_2bandit_b2.png","70","70","test","1","155","155","7","",""
"null","258723","pSARL_v2","pSARL_v259w0mnxt","600f4361d8ad4b1021236a24","freq_resp","img/orange_2bandit_b.png","70","70","test","","","","7","",""
"null","258880","pSARL_v2","pSARL_v259w0mnxt","600f4361d8ad4b1021236a24","fixation","img/fixation.png","null","","test","","","","","",""
"262.1999999284744","259146","pSARL_v2","pSARL_v259w0mnxt","600f4361d8ad4b1021236a24","freq","img/orange_2bandit_b2.png","70","70","test","1","156","156","7","",""
"null","259694","pSARL_v2","pSARL_v259w0mnxt","600f4361d8ad4b1021236a24","freq_resp","img/orange_2bandit_b.png","70","70","test","","","","7","",""
"null","259849","pSARL_v2","pSARL_v259w0mnxt","600f4361d8ad4b1021236a24","fixation","img/fixation.png","null","","test","","","","","",""
"283.60000002384186","260136","pSARL_v2","pSARL_v259w0mnxt","600f4361d8ad4b1021236a24","freq","img/orange_2bandit_b2.png","70","70","test","1","157","157","7","",""
"null","260662","pSARL_v2","pSARL_v259w0mnxt","600f4361d8ad4b1021236a24","freq_resp","img/orange_2bandit_b.png","70","70","test","","","","7","",""
"null","260818","pSARL_v2","pSARL_v259w0mnxt","600f4361d8ad4b1021236a24","fixation","img/fixation.png","null","","test","","","","","",""
"298.5","261120","pSARL_v2","pSARL_v259w0mnxt","600f4361d8ad4b1021236a24","freq","img/orange_2bandit_b2.png","70","70","test","1","158","158","7","",""
"null","261629","pSARL_v2","pSARL_v259w0mnxt","600f4361d8ad4b1021236a24","freq_resp","img/orange_2bandit_b.png","70","70","test","","","","7","",""
"null","261786","pSARL_v2","pSARL_v259w0mnxt","600f4361d8ad4b1021236a24","fixation","img/fixation.png","null","","test","","","","","",""
"386.89999997615814","262176","pSARL_v2","pSARL_v259w0mnxt","600f4361d8ad4b1021236a24","freq","img/orange_2bandit_b2.png","70","70","test","1","159","159","7","",""
"null","262598","pSARL_v2","pSARL_v259w0mnxt","600f4361d8ad4b1021236a24","freq_resp","img/orange_2bandit_b.png","70","70","test","","","","7","",""
"null","262754","pSARL_v2","pSARL_v259w0mnxt","600f4361d8ad4b1021236a24","fixation","img/fixation.png","null","","test","","","","","",""
"315.7000000476837","263072","pSARL_v2","pSARL_v259w0mnxt","600f4361d8ad4b1021236a24","freq","img/orange_2bandit_b2.png","70","70","test","1","160","160","7","",""
"null","263564","pSARL_v2","pSARL_v259w0mnxt","600f4361d8ad4b1021236a24","freq_resp","img/orange_2bandit_b.png","70","70","test","","","","7","",""
"null","263719","pSARL_v2","pSARL_v259w0mnxt","600f4361d8ad4b1021236a24","fixation","img/fixation.png","null","","test","","","","","",""
"334.5","264056","pSARL_v2","pSARL_v259w0mnxt","600f4361d8ad4b1021236a24","freq","img/orange_2bandit_b2.png","70","70","test","1","161","161","7","",""
"null","264532","pSARL_v2","pSARL_v259w0mnxt","600f4361d8ad4b1021236a24","freq_resp","img/orange_2bandit_b.png","70","70","test","","","","7","",""
"null","264688","pSARL_v2","pSARL_v259w0mnxt","600f4361d8ad4b1021236a24","fixation","img/fixation.png","null","","test","","","","","",""
"389.5","265080","pSARL_v2","pSARL_v259w0mnxt","600f4361d8ad4b1021236a24","freq","img/orange_2bandit_b2.png","70","70","test","1","162","162","7","",""
"null","265502","pSARL_v2","pSARL_v259w0mnxt","600f4361d8ad4b1021236a24","freq_resp","img/orange_2bandit_b.png","70","70","test","","","","7","",""
"null","265658","pSARL_v2","pSARL_v259w0mnxt","600f4361d8ad4b1021236a24","fixation","img/fixation.png","null","","test","","","","","",""
"274.89999997615814","265936","pSARL_v2","pSARL_v259w0mnxt","600f4361d8ad4b1021236a24","freq","img/orange_2bandit_b2.png","70","70","test","1","163","163","7","",""
"null","266468","pSARL_v2","pSARL_v259w0mnxt","600f4361d8ad4b1021236a24","freq_resp","img/orange_2bandit_b.png","70","70","test","","","","7","",""
"null","266624","pSARL_v2","pSARL_v259w0mnxt","600f4361d8ad4b1021236a24","fixation","img/fixation.png","null","","test","","","","","",""
"525.4000000953674","267152","pSARL_v2","pSARL_v259w0mnxt","600f4361d8ad4b1021236a24","reward","img/slot.png","74","","test","","","","","",""
"null","267915","pSARL_v2","pSARL_v259w0mnxt","600f4361d8ad4b1021236a24","points","<div class=""verylowPoints""> -6 </div>","null","na","test","","","","7","-6","6"
"378.7000000476837","268297","pSARL_v2","pSARL_v259w0mnxt","600f4361d8ad4b1021236a24","freq","img/orange_2bandit_b2.png","70","70","test","1","164","164","8","",""
"null","268724","pSARL_v2","pSARL_v259w0mnxt","600f4361d8ad4b1021236a24","freq_resp","img/orange_2bandit_b.png","70","70","test","","","","8","",""
"null","268880","pSARL_v2","pSARL_v259w0mnxt","600f4361d8ad4b1021236a24","fixation","img/fixation.png","null","","test","","","","","",""
"310.3000000715256","269193","pSARL_v2","pSARL_v259w0mnxt","600f4361d8ad4b1021236a24","freq","img/orange_2bandit_b2.png","70","70","test","1","165","165","8","",""
"null","269693","pSARL_v2","pSARL_v259w0mnxt","600f4361d8ad4b1021236a24","freq_resp","img/orange_2bandit_b.png","70","70","test","","","","8","",""
"null","269851","pSARL_v2","pSARL_v259w0mnxt","600f4361d8ad4b1021236a24","fixation","img/fixation.png","null","","test","","","","","",""
"322.7999999523163","270176","pSARL_v2","pSARL_v259w0mnxt","600f4361d8ad4b1021236a24","freq","img/orange_2bandit_b2.png","70","70","test","1","166","166","8","",""
"null","270661","pSARL_v2","pSARL_v259w0mnxt","600f4361d8ad4b1021236a24","freq_resp","img/orange_2bandit_b.png","70","70","test","","","","8","",""
"null","270819","pSARL_v2","pSARL_v259w0mnxt","600f4361d8ad4b1021236a24","fixation","img/fixation.png","null","","test","","","","","",""
"314.39999997615814","271136","pSARL_v2","pSARL_v259w0mnxt","600f4361d8ad4b1021236a24","freq","img/orange_2bandit_b2.png","70","70","test","1","167","167","8","",""
"null","271629","pSARL_v2","pSARL_v259w0mnxt","600f4361d8ad4b1021236a24","freq_resp","img/orange_2bandit_b.png","70","70","test","","","","8","",""
"null","271785","pSARL_v2","pSARL_v259w0mnxt","600f4361d8ad4b1021236a24","fixation","img/fixation.png","null","","test","","","","","",""
"332.39999997615814","272121","pSARL_v2","pSARL_v259w0mnxt","600f4361d8ad4b1021236a24","freq","img/orange_2bandit_b2.png","70","70","test","1","168","168","8","",""
"null","272595","pSARL_v2","pSARL_v259w0mnxt","600f4361d8ad4b1021236a24","freq_resp","img/orange_2bandit_b.png","70","70","test","","","","8","",""
"null","272750","pSARL_v2","pSARL_v259w0mnxt","600f4361d8ad4b1021236a24","fixation","img/fixation.png","null","","test","","","","","",""
"391.5","273145","pSARL_v2","pSARL_v259w0mnxt","600f4361d8ad4b1021236a24","freq","img/orange_2bandit_b2.png","70","70","test","1","169","169","8","",""
"null","273562","pSARL_v2","pSARL_v259w0mnxt","600f4361d8ad4b1021236a24","freq_resp","img/orange_2bandit_b.png","70","70","test","","","","8","",""
"null","273718","pSARL_v2","pSARL_v259w0mnxt","600f4361d8ad4b1021236a24","fixation","img/fixation.png","null","","test","","","","","",""
"343.1999999284744","274065","pSARL_v2","pSARL_v259w0mnxt","600f4361d8ad4b1021236a24","freq","img/orange_2bandit_b2.png","70","70","test","1","170","170","8","",""
"null","274530","pSARL_v2","pSARL_v259w0mnxt","600f4361d8ad4b1021236a24","freq_resp","img/orange_2bandit_b.png","70","70","test","","","","8","",""
"null","274688","pSARL_v2","pSARL_v259w0mnxt","600f4361d8ad4b1021236a24","fixation","img/fixation.png","null","","test","","","","","",""
"302.2999999523163","274994","pSARL_v2","pSARL_v259w0mnxt","600f4361d8ad4b1021236a24","freq","img/orange_2bandit_b2.png","70","70","test","1","171","171","8","",""
"null","275500","pSARL_v2","pSARL_v259w0mnxt","600f4361d8ad4b1021236a24","freq_resp","img/orange_2bandit_b.png","70","70","test","","","","8","",""
"null","275657","pSARL_v2","pSARL_v259w0mnxt","600f4361d8ad4b1021236a24","fixation","img/fixation.png","null","","test","","","","","",""
"348.1999999284744","276008","pSARL_v2","pSARL_v259w0mnxt","600f4361d8ad4b1021236a24","freq","img/orange_2bandit_b2.png","70","70","test","1","172","172","8","",""
"null","276464","pSARL_v2","pSARL_v259w0mnxt","600f4361d8ad4b1021236a24","freq_resp","img/orange_2bandit_b.png","70","70","test","","","","8","",""
"null","276618","pSARL_v2","pSARL_v259w0mnxt","600f4361d8ad4b1021236a24","fixation","img/fixation.png","null","","test","","","","","",""
"283.7999999523163","276905","pSARL_v2","pSARL_v259w0mnxt","600f4361d8ad4b1021236a24","freq","img/orange_2bandit_b2.png","70","70","test","1","173","173","8","",""
"null","277434","pSARL_v2","pSARL_v259w0mnxt","600f4361d8ad4b1021236a24","freq_resp","img/orange_2bandit_b.png","70","70","test","","","","8","",""
"null","277589","pSARL_v2","pSARL_v259w0mnxt","600f4361d8ad4b1021236a24","fixation","img/fixation.png","null","","test","","","","","",""
"456.6999999284744","278049","pSARL_v2","pSARL_v259w0mnxt","600f4361d8ad4b1021236a24","infreq","img/green_2bandit_b2.png","68","68","test","1","174","174","8","",""
"null","278399","pSARL_v2","pSARL_v259w0mnxt","600f4361d8ad4b1021236a24","infreq_resp","img/green_2bandit_b.png","68","68","test","","","","8","",""
"null","278554","pSARL_v2","pSARL_v259w0mnxt","600f4361d8ad4b1021236a24","fixation","img/fixation.png","null","","test","","","","","",""
"355","278912","pSARL_v2","pSARL_v259w0mnxt","600f4361d8ad4b1021236a24","freq","img/orange_2bandit_b2.png","70","70","test","1","175","175","8","",""
"null","279368","pSARL_v2","pSARL_v259w0mnxt","600f4361d8ad4b1021236a24","freq_resp","img/orange_2bandit_b.png","70","70","test","","","","8","",""
"null","279523","pSARL_v2","pSARL_v259w0mnxt","600f4361d8ad4b1021236a24","fixation","img/fixation.png","null","","test","","","","","",""
"283.89999997615814","279810","pSARL_v2","pSARL_v259w0mnxt","600f4361d8ad4b1021236a24","freq","img/orange_2bandit_b2.png","70","70","test","1","176","176","8","",""
"null","280331","pSARL_v2","pSARL_v259w0mnxt","600f4361d8ad4b1021236a24","freq_resp","img/orange_2bandit_b.png","70","70","test","","","","8","",""
"null","280488","pSARL_v2","pSARL_v259w0mnxt","600f4361d8ad4b1021236a24","fixation","img/fixation.png","null","","test","","","","","",""
"237.90000009536743","280729","pSARL_v2","pSARL_v259w0mnxt","600f4361d8ad4b1021236a24","freq","img/orange_2bandit_b2.png","70","70","test","1","177","177","8","",""
"null","281299","pSARL_v2","pSARL_v259w0mnxt","600f4361d8ad4b1021236a24","freq_resp","img/orange_2bandit_b.png","70","70","test","","","","8","",""
"null","281455","pSARL_v2","pSARL_v259w0mnxt","600f4361d8ad4b1021236a24","fixation","img/fixation.png","null","","test","","","","","",""
"359.10000002384186","281816","pSARL_v2","pSARL_v259w0mnxt","600f4361d8ad4b1021236a24","freq","img/orange_2bandit_b2.png","70","70","test","1","178","178","8","",""
"null","282261","pSARL_v2","pSARL_v259w0mnxt","600f4361d8ad4b1021236a24","freq_resp","img/orange_2bandit_b.png","70","70","test","","","","8","",""
"null","282417","pSARL_v2","pSARL_v259w0mnxt","600f4361d8ad4b1021236a24","fixation","img/fixation.png","null","","test","","","","","",""
"284.39999997615814","282704","pSARL_v2","pSARL_v259w0mnxt","600f4361d8ad4b1021236a24","freq","img/orange_2bandit_b2.png","70","70","test","1","179","179","8","",""
"null","283230","pSARL_v2","pSARL_v259w0mnxt","600f4361d8ad4b1021236a24","freq_resp","img/orange_2bandit_b.png","70","70","test","","","","8","",""
"null","283386","pSARL_v2","pSARL_v259w0mnxt","600f4361d8ad4b1021236a24","fixation","img/fixation.png","null","","test","","","","","",""
"307.2000000476837","283696","pSARL_v2","pSARL_v259w0mnxt","600f4361d8ad4b1021236a24","freq","img/orange_2bandit_b2.png","70","70","test","1","180","180","8","",""
"null","284203","pSARL_v2","pSARL_v259w0mnxt","600f4361d8ad4b1021236a24","freq_resp","img/orange_2bandit_b.png","70","70","test","","","","8","",""
"null","284358","pSARL_v2","pSARL_v259w0mnxt","600f4361d8ad4b1021236a24","fixation","img/fixation.png","null","","test","","","","","",""
"320","284681","pSARL_v2","pSARL_v259w0mnxt","600f4361d8ad4b1021236a24","freq","img/orange_2bandit_b2.png","70","70","test","1","181","181","8","",""
"null","285166","pSARL_v2","pSARL_v259w0mnxt","600f4361d8ad4b1021236a24","freq_resp","img/orange_2bandit_b.png","70","70","test","","","","8","",""
"null","285321","pSARL_v2","pSARL_v259w0mnxt","600f4361d8ad4b1021236a24","fixation","img/fixation.png","null","","test","","","","","",""
"252.80000007152557","285577","pSARL_v2","pSARL_v259w0mnxt","600f4361d8ad4b1021236a24","freq","img/orange_2bandit_b2.png","70","70","test","1","182","182","8","",""
"null","286130","pSARL_v2","pSARL_v259w0mnxt","600f4361d8ad4b1021236a24","freq_resp","img/orange_2bandit_b.png","70","70","test","","","","8","",""
"null","286288","pSARL_v2","pSARL_v259w0mnxt","600f4361d8ad4b1021236a24","fixation","img/fixation.png","null","","test","","","","","",""
"270.3000000715256","286561","pSARL_v2","pSARL_v259w0mnxt","600f4361d8ad4b1021236a24","freq","img/orange_2bandit_b2.png","70","70","test","1","183","183","8","",""
"null","287095","pSARL_v2","pSARL_v259w0mnxt","600f4361d8ad4b1021236a24","freq_resp","img/orange_2bandit_b.png","70","70","test","","","","8","",""
"null","287251","pSARL_v2","pSARL_v259w0mnxt","600f4361d8ad4b1021236a24","fixation","img/fixation.png","null","","test","","","","","",""
"266.89999997615814","287521","pSARL_v2","pSARL_v259w0mnxt","600f4361d8ad4b1021236a24","freq","img/orange_2bandit_b2.png","70","70","test","1","184","184","8","",""
"null","288059","pSARL_v2","pSARL_v259w0mnxt","600f4361d8ad4b1021236a24","freq_resp","img/orange_2bandit_b.png","70","70","test","","","","8","",""
"null","288214","pSARL_v2","pSARL_v259w0mnxt","600f4361d8ad4b1021236a24","fixation","img/fixation.png","null","","test","","","","","",""
"231.69999992847443","288449","pSARL_v2","pSARL_v259w0mnxt","600f4361d8ad4b1021236a24","freq","img/orange_2bandit_b2.png","70","70","test","1","185","185","8","",""
"null","289023","pSARL_v2","pSARL_v259w0mnxt","600f4361d8ad4b1021236a24","freq_resp","img/orange_2bandit_b.png","70","70","test","","","","8","",""
"null","289181","pSARL_v2","pSARL_v259w0mnxt","600f4361d8ad4b1021236a24","fixation","img/fixation.png","null","","test","","","","","",""
"473.7000000476837","289657","pSARL_v2","pSARL_v259w0mnxt","600f4361d8ad4b1021236a24","infreq","img/green_2bandit_b2.png","68","68","test","1","186","186","8","",""
"null","289992","pSARL_v2","pSARL_v259w0mnxt","600f4361d8ad4b1021236a24","infreq_resp","img/green_2bandit_b.png","68","68","test","","","","8","",""
"null","290150","pSARL_v2","pSARL_v259w0mnxt","600f4361d8ad4b1021236a24","fixation","img/fixation.png","null","","test","","","","","",""
"273.60000002384186","290426","pSARL_v2","pSARL_v259w0mnxt","600f4361d8ad4b1021236a24","freq","img/orange_2bandit_b2.png","70","70","test","1","187","187","8","",""
"null","290958","pSARL_v2","pSARL_v259w0mnxt","600f4361d8ad4b1021236a24","freq_resp","img/orange_2bandit_b.png","70","70","test","","","","8","",""
"null","291116","pSARL_v2","pSARL_v259w0mnxt","600f4361d8ad4b1021236a24","fixation","img/fixation.png","null","","test","","","","","",""
"257.60000002384186","291376","pSARL_v2","pSARL_v259w0mnxt","600f4361d8ad4b1021236a24","freq","img/orange_2bandit_b2.png","70","70","test","1","188","188","8","",""
"null","291924","pSARL_v2","pSARL_v259w0mnxt","600f4361d8ad4b1021236a24","freq_resp","img/orange_2bandit_b.png","70","70","test","","","","8","",""
"null","292081","pSARL_v2","pSARL_v259w0mnxt","600f4361d8ad4b1021236a24","fixation","img/fixation.png","null","","test","","","","","",""
"252.70000004768372","292336","pSARL_v2","pSARL_v259w0mnxt","600f4361d8ad4b1021236a24","freq","img/orange_2bandit_b2.png","70","70","test","1","189","189","8","",""
"null","292891","pSARL_v2","pSARL_v259w0mnxt","600f4361d8ad4b1021236a24","freq_resp","img/orange_2bandit_b.png","70","70","test","","","","8","",""
"null","293048","pSARL_v2","pSARL_v259w0mnxt","600f4361d8ad4b1021236a24","fixation","img/fixation.png","null","","test","","","","","",""
"494.5","293545","pSARL_v2","pSARL_v259w0mnxt","600f4361d8ad4b1021236a24","reward","img/slot.png","74","","test","","","","","",""
"null","294308","pSARL_v2","pSARL_v259w0mnxt","600f4361d8ad4b1021236a24","points","<div class=""verylowPoints""> -4 </div>","null","na","test","","","","8","-4","7"
"417.7999999523163","294729","pSARL_v2","pSARL_v259w0mnxt","600f4361d8ad4b1021236a24","freq","img/orange_2bandit_b2.png","70","70","test","1","190","190","9","",""
"null","295120","pSARL_v2","pSARL_v259w0mnxt","600f4361d8ad4b1021236a24","freq_resp","img/orange_2bandit_b.png","70","70","test","","","","9","",""
"null","295276","pSARL_v2","pSARL_v259w0mnxt","600f4361d8ad4b1021236a24","fixation","img/fixation.png","null","","test","","","","","",""
"305.6999999284744","295585","pSARL_v2","pSARL_v259w0mnxt","600f4361d8ad4b1021236a24","freq","img/orange_2bandit_b2.png","70","70","test","1","191","191","9","",""
"null","296084","pSARL_v2","pSARL_v259w0mnxt","600f4361d8ad4b1021236a24","freq_resp","img/orange_2bandit_b.png","70","70","test","","","","9","",""
"null","296240","pSARL_v2","pSARL_v259w0mnxt","600f4361d8ad4b1021236a24","fixation","img/fixation.png","null","","test","","","","","",""
"302.5","296545","pSARL_v2","pSARL_v259w0mnxt","600f4361d8ad4b1021236a24","freq","img/orange_2bandit_b2.png","70","70","test","1","192","192","9","",""
"null","297051","pSARL_v2","pSARL_v259w0mnxt","600f4361d8ad4b1021236a24","freq_resp","img/orange_2bandit_b.png","70","70","test","","","","9","",""
"null","297207","pSARL_v2","pSARL_v259w0mnxt","600f4361d8ad4b1021236a24","fixation","img/fixation.png","null","","test","","","","","",""
"287","297497","pSARL_v2","pSARL_v259w0mnxt","600f4361d8ad4b1021236a24","freq","img/orange_2bandit_b2.png","70","70","test","1","193","193","9","",""
"null","298014","pSARL_v2","pSARL_v259w0mnxt","600f4361d8ad4b1021236a24","freq_resp","img/orange_2bandit_b.png","70","70","test","","","","9","",""
"null","298168","pSARL_v2","pSARL_v259w0mnxt","600f4361d8ad4b1021236a24","fixation","img/fixation.png","null","","test","","","","","",""
"286.39999997615814","298457","pSARL_v2","pSARL_v259w0mnxt","600f4361d8ad4b1021236a24","freq","img/orange_2bandit_b2.png","70","70","test","1","194","194","9","",""
"null","298984","pSARL_v2","pSARL_v259w0mnxt","600f4361d8ad4b1021236a24","freq_resp","img/orange_2bandit_b.png","70","70","test","","","","9","",""
"null","299153","pSARL_v2","pSARL_v259w0mnxt","600f4361d8ad4b1021236a24","fixation","img/fixation.png","null","","test","","","","","",""
"252.89999997615814","299409","pSARL_v2","pSARL_v259w0mnxt","600f4361d8ad4b1021236a24","freq","img/orange_2bandit_b2.png","70","70","test","1","195","195","9","",""
"null","299962","pSARL_v2","pSARL_v259w0mnxt","600f4361d8ad4b1021236a24","freq_resp","img/orange_2bandit_b.png","70","70","test","","","","9","",""
"null","300119","pSARL_v2","pSARL_v259w0mnxt","600f4361d8ad4b1021236a24","fixation","img/fixation.png","null","","test","","","","","",""
"279.3000000715256","300401","pSARL_v2","pSARL_v259w0mnxt","600f4361d8ad4b1021236a24","freq","img/orange_2bandit_b2.png","70","70","test","1","196","196","9","",""
"null","300934","pSARL_v2","pSARL_v259w0mnxt","600f4361d8ad4b1021236a24","freq_resp","img/orange_2bandit_b.png","70","70","test","","","","9","",""
"null","301090","pSARL_v2","pSARL_v259w0mnxt","600f4361d8ad4b1021236a24","fixation","img/fixation.png","null","","test","","","","","",""
"261.10000002384186","301354","pSARL_v2","pSARL_v259w0mnxt","600f4361d8ad4b1021236a24","freq","img/orange_2bandit_b2.png","70","70","test","1","197","197","9","",""
"null","301898","pSARL_v2","pSARL_v259w0mnxt","600f4361d8ad4b1021236a24","freq_resp","img/orange_2bandit_b.png","70","70","test","","","","9","",""
"null","302055","pSARL_v2","pSARL_v259w0mnxt","600f4361d8ad4b1021236a24","fixation","img/fixation.png","null","","test","","","","","",""
"318.7000000476837","302377","pSARL_v2","pSARL_v259w0mnxt","600f4361d8ad4b1021236a24","freq","img/orange_2bandit_b2.png","70","70","test","1","198","198","9","",""
"null","302867","pSARL_v2","pSARL_v259w0mnxt","600f4361d8ad4b1021236a24","freq_resp","img/orange_2bandit_b.png","70","70","test","","","","9","",""
"null","303023","pSARL_v2","pSARL_v259w0mnxt","600f4361d8ad4b1021236a24","fixation","img/fixation.png","null","","test","","","","","",""
"270.59999990463257","303297","pSARL_v2","pSARL_v259w0mnxt","600f4361d8ad4b1021236a24","freq","img/orange_2bandit_b2.png","70","70","test","1","199","199","9","",""
"null","303836","pSARL_v2","pSARL_v259w0mnxt","600f4361d8ad4b1021236a24","freq_resp","img/orange_2bandit_b.png","70","70","test","","","","9","",""
"null","303991","pSARL_v2","pSARL_v259w0mnxt","600f4361d8ad4b1021236a24","fixation","img/fixation.png","null","","test","","","","","",""
"294.7999999523163","304289","pSARL_v2","pSARL_v259w0mnxt","600f4361d8ad4b1021236a24","freq","img/orange_2bandit_b2.png","70","70","test","1","200","200","9","",""
"null","304802","pSARL_v2","pSARL_v259w0mnxt","600f4361d8ad4b1021236a24","freq_resp","img/orange_2bandit_b.png","70","70","test","","","","9","",""
"null","304955","pSARL_v2","pSARL_v259w0mnxt","600f4361d8ad4b1021236a24","fixation","img/fixation.png","null","","test","","","","","",""
"290.7000000476837","305249","pSARL_v2","pSARL_v259w0mnxt","600f4361d8ad4b1021236a24","infreq","img/green_2bandit_b2.png","70","68","test","0","201","201","9","",""
"null","305765","pSARL_v2","pSARL_v259w0mnxt","600f4361d8ad4b1021236a24","infreq_resp","img/green_2bandit_b.png","70","68","test","","","","9","",""
"null","305921","pSARL_v2","pSARL_v259w0mnxt","600f4361d8ad4b1021236a24","fixation","img/fixation.png","null","","test","","","","","",""
"309.1999999284744","306233","pSARL_v2","pSARL_v259w0mnxt","600f4361d8ad4b1021236a24","freq","img/orange_2bandit_b2.png","70","70","test","1","202","202","9","",""
"null","306732","pSARL_v2","pSARL_v259w0mnxt","600f4361d8ad4b1021236a24","freq_resp","img/orange_2bandit_b.png","70","70","test","","","","9","",""
"null","306889","pSARL_v2","pSARL_v259w0mnxt","600f4361d8ad4b1021236a24","fixation","img/fixation.png","null","","test","","","","","",""
"269.10000002384186","307161","pSARL_v2","pSARL_v259w0mnxt","600f4361d8ad4b1021236a24","freq","img/orange_2bandit_b2.png","70","70","test","1","203","203","9","",""
"null","307699","pSARL_v2","pSARL_v259w0mnxt","600f4361d8ad4b1021236a24","freq_resp","img/orange_2bandit_b.png","70","70","test","","","","9","",""
"null","307855","pSARL_v2","pSARL_v259w0mnxt","600f4361d8ad4b1021236a24","fixation","img/fixation.png","null","","test","","","","","",""
"447.2000000476837","308305","pSARL_v2","pSARL_v259w0mnxt","600f4361d8ad4b1021236a24","freq","img/orange_2bandit_b2.png","70","70","test","1","204","204","9","",""
"null","308665","pSARL_v2","pSARL_v259w0mnxt","600f4361d8ad4b1021236a24","freq_resp","img/orange_2bandit_b.png","70","70","test","","","","9","",""
"null","308822","pSARL_v2","pSARL_v259w0mnxt","600f4361d8ad4b1021236a24","fixation","img/fixation.png","null","","test","","","","","",""
"471.8000000715256","309297","pSARL_v2","pSARL_v259w0mnxt","600f4361d8ad4b1021236a24","infreq","img/green_2bandit_b2.png","68","68","test","1","205","205","9","",""
"null","309633","pSARL_v2","pSARL_v259w0mnxt","600f4361d8ad4b1021236a24","infreq_resp","img/green_2bandit_b.png","68","68","test","","","","9","",""
"null","309788","pSARL_v2","pSARL_v259w0mnxt","600f4361d8ad4b1021236a24","fixation","img/fixation.png","null","","test","","","","","",""
"298.7000000476837","310089","pSARL_v2","pSARL_v259w0mnxt","600f4361d8ad4b1021236a24","freq","img/orange_2bandit_b2.png","70","70","test","1","206","206","9","",""
"null","310598","pSARL_v2","pSARL_v259w0mnxt","600f4361d8ad4b1021236a24","freq_resp","img/orange_2bandit_b.png","70","70","test","","","","9","",""
