"rt","time_elapsed","expId","subject","prolificID","trialType","stimulus","key_press","corrresp","phase","corr","trialNum","attentionRunNum","blockNum","points","rlNum"
"7244.100000023842","7249","pSARL_v2","pSARL_v2ldrgv3ey","60dfdb8bbef17b6739d12215","","","","","","","","","","",""
"","11116","pSARL_v2","pSARL_v2ldrgv3ey","60dfdb8bbef17b6739d12215","fullscreen","","","","","","","","","",""
"53977","65095","pSARL_v2","pSARL_v2ldrgv3ey","60dfdb8bbef17b6739d12215","","","","","","","","","","",""
"null","65910","pSARL_v2","pSARL_v2ldrgv3ey","60dfdb8bbef17b6739d12215","freqPrac","img/green_2bandit_a2.png","null","70","prac","0","","","","",""
"null","66920","pSARL_v2","pSARL_v2ldrgv3ey","60dfdb8bbef17b6739d12215","feedback","img/tooSlow.png","null","na","prac","","","","","",""
"null","67086","pSARL_v2","pSARL_v2ldrgv3ey","60dfdb8bbef17b6739d12215","fixation","img/fixation.png","null","","prac","","","","","",""
"480","67570","pSARL_v2","pSARL_v2ldrgv3ey","60dfdb8bbef17b6739d12215","infreqPrac","img/orange_2bandit_a2.png","68","68","prac","1","","","","",""
"480","67901","pSARL_v2","pSARL_v2ldrgv3ey","60dfdb8bbef17b6739d12215","infreqPrac_resp","img/orange_2bandit_a.png","68","68","prac","","","","","",""
"null","68056","pSARL_v2","pSARL_v2ldrgv3ey","60dfdb8bbef17b6739d12215","fixation","img/fixation.png","null","","prac","","","","","",""
"329.5","68390","pSARL_v2","pSARL_v2ldrgv3ey","60dfdb8bbef17b6739d12215","freqPrac","img/green_2bandit_a2.png","70","70","prac","1","","","","",""
"329.5","68876","pSARL_v2","pSARL_v2ldrgv3ey","60dfdb8bbef17b6739d12215","freqPrac_resp","img/green_2bandit_a.png","70","70","prac","","","","","",""
"null","69034","pSARL_v2","pSARL_v2ldrgv3ey","60dfdb8bbef17b6739d12215","fixation","img/fixation.png","null","","prac","","","","","",""
"325.60000002384186","69363","pSARL_v2","pSARL_v2ldrgv3ey","60dfdb8bbef17b6739d12215","infreqPrac","img/orange_2bandit_a2.png","68","68","prac","1","","","","",""
"325.60000002384186","69848","pSARL_v2","pSARL_v2ldrgv3ey","60dfdb8bbef17b6739d12215","infreqPrac_resp","img/orange_2bandit_a.png","68","68","prac","","","","","",""
"null","70015","pSARL_v2","pSARL_v2ldrgv3ey","60dfdb8bbef17b6739d12215","fixation","img/fixation.png","null","","prac","","","","","",""
"393.2000000476837","70412","pSARL_v2","pSARL_v2ldrgv3ey","60dfdb8bbef17b6739d12215","infreqPrac","img/orange_2bandit_a2.png","68","68","prac","1","","","","",""
"393.2000000476837","70831","pSARL_v2","pSARL_v2ldrgv3ey","60dfdb8bbef17b6739d12215","infreqPrac_resp","img/orange_2bandit_a.png","68","68","prac","","","","","",""
"null","70990","pSARL_v2","pSARL_v2ldrgv3ey","60dfdb8bbef17b6739d12215","fixation","img/fixation.png","null","","prac","","","","","",""
"351.89999997615814","71346","pSARL_v2","pSARL_v2ldrgv3ey","60dfdb8bbef17b6739d12215","infreqPrac","img/orange_2bandit_a2.png","68","68","prac","1","","","","",""
"351.89999997615814","71801","pSARL_v2","pSARL_v2ldrgv3ey","60dfdb8bbef17b6739d12215","infreqPrac_resp","img/orange_2bandit_a.png","68","68","prac","","","","","",""
"null","71970","pSARL_v2","pSARL_v2ldrgv3ey","60dfdb8bbef17b6739d12215","fixation","img/fixation.png","null","","prac","","","","","",""
"395.7000000476837","72369","pSARL_v2","pSARL_v2ldrgv3ey","60dfdb8bbef17b6739d12215","freqPrac","img/green_2bandit_a2.png","70","70","prac","1","","","","",""
"395.7000000476837","72785","pSARL_v2","pSARL_v2ldrgv3ey","60dfdb8bbef17b6739d12215","freqPrac_resp","img/green_2bandit_a.png","70","70","prac","","","","","",""
"null","72951","pSARL_v2","pSARL_v2ldrgv3ey","60dfdb8bbef17b6739d12215","fixation","img/fixation.png","null","","prac","","","","","",""
"392","73347","pSARL_v2","pSARL_v2ldrgv3ey","60dfdb8bbef17b6739d12215","infreqPrac","img/orange_2bandit_a2.png","70","68","prac","0","","","","",""
"392","73773","pSARL_v2","pSARL_v2ldrgv3ey","60dfdb8bbef17b6739d12215","infreqPrac_resp","img/orange_2bandit_a.png","70","68","prac","","","","","",""
"null","74787","pSARL_v2","pSARL_v2ldrgv3ey","60dfdb8bbef17b6739d12215","feedback","img/wrongKey.png","null","na","prac","","","","","",""
"null","74954","pSARL_v2","pSARL_v2ldrgv3ey","60dfdb8bbef17b6739d12215","fixation","img/fixation.png","null","","prac","","","","","",""
"532.3000000715256","75490","pSARL_v2","pSARL_v2ldrgv3ey","60dfdb8bbef17b6739d12215","freqPrac","img/green_2bandit_a2.png","70","70","prac","1","","","","",""
"532.3000000715256","75770","pSARL_v2","pSARL_v2ldrgv3ey","60dfdb8bbef17b6739d12215","freqPrac_resp","img/green_2bandit_a.png","70","70","prac","","","","","",""
"null","75928","pSARL_v2","pSARL_v2ldrgv3ey","60dfdb8bbef17b6739d12215","fixation","img/fixation.png","null","","prac","","","","","",""
"429.7999999523163","76360","pSARL_v2","pSARL_v2ldrgv3ey","60dfdb8bbef17b6739d12215","freqPrac","img/green_2bandit_a2.png","70","70","prac","1","","","","",""
"429.7999999523163","76741","pSARL_v2","pSARL_v2ldrgv3ey","60dfdb8bbef17b6739d12215","freqPrac_resp","img/green_2bandit_a.png","70","70","prac","","","","","",""
"null","76903","pSARL_v2","pSARL_v2ldrgv3ey","60dfdb8bbef17b6739d12215","fixation","img/fixation.png","null","","prac","","","","","",""
"18951.199999928474","95858","pSARL_v2","pSARL_v2ldrgv3ey","60dfdb8bbef17b6739d12215","","","","","prac","","","","","",""
"417.3000000715256","96279","pSARL_v2","pSARL_v2ldrgv3ey","60dfdb8bbef17b6739d12215","rewardPractice","img/slot.png","74","","prac","","","","","",""
"null","97044","pSARL_v2","pSARL_v2ldrgv3ey","60dfdb8bbef17b6739d12215","feedback","<div class=""veryhighPoints""> +15 </div>","null","na","prac","","","","","",""
"null","97215","pSARL_v2","pSARL_v2ldrgv3ey","60dfdb8bbef17b6739d12215","fixation","img/fixation.png","null","","prac","","","","","",""
"4363.700000047684","101582","pSARL_v2","pSARL_v2ldrgv3ey","60dfdb8bbef17b6739d12215","","","","","prac","","","","","",""
"633.7000000476837","102219","pSARL_v2","pSARL_v2ldrgv3ey","60dfdb8bbef17b6739d12215","freq","img/green_2bandit_a2.png","68","70","test","0","1","1","1","",""
"null","102396","pSARL_v2","pSARL_v2ldrgv3ey","60dfdb8bbef17b6739d12215","freq_resp","img/green_2bandit_a.png","68","70","test","","","","1","",""
"null","102564","pSARL_v2","pSARL_v2ldrgv3ey","60dfdb8bbef17b6739d12215","fixation","img/fixation.png","null","","test","","","","","",""
"350.09999990463257","102918","pSARL_v2","pSARL_v2ldrgv3ey","60dfdb8bbef17b6739d12215","freq","img/green_2bandit_a2.png","68","70","test","0","2","2","1","",""
"null","103382","pSARL_v2","pSARL_v2ldrgv3ey","60dfdb8bbef17b6739d12215","freq_resp","img/green_2bandit_a.png","68","70","test","","","","1","",""
"null","103543","pSARL_v2","pSARL_v2ldrgv3ey","60dfdb8bbef17b6739d12215","fixation","img/fixation.png","null","","test","","","","","",""
"434.5","103981","pSARL_v2","pSARL_v2ldrgv3ey","60dfdb8bbef17b6739d12215","infreq","img/orange_2bandit_a2.png","70","68","test","0","3","3","1","",""
"null","104355","pSARL_v2","pSARL_v2ldrgv3ey","60dfdb8bbef17b6739d12215","infreq_resp","img/orange_2bandit_a.png","70","68","test","","","","1","",""
"null","104518","pSARL_v2","pSARL_v2ldrgv3ey","60dfdb8bbef17b6739d12215","fixation","img/fixation.png","null","","test","","","","","",""
"283.6999999284744","104805","pSARL_v2","pSARL_v2ldrgv3ey","60dfdb8bbef17b6739d12215","freq","img/green_2bandit_a2.png","68","70","test","0","4","4","1","",""
"null","105329","pSARL_v2","pSARL_v2ldrgv3ey","60dfdb8bbef17b6739d12215","freq_resp","img/green_2bandit_a.png","68","70","test","","","","1","",""
"null","105495","pSARL_v2","pSARL_v2ldrgv3ey","60dfdb8bbef17b6739d12215","fixation","img/fixation.png","null","","test","","","","","",""
"259.7000000476837","105759","pSARL_v2","pSARL_v2ldrgv3ey","60dfdb8bbef17b6739d12215","freq","img/green_2bandit_a2.png","68","70","test","0","5","5","1","",""
"null","106310","pSARL_v2","pSARL_v2ldrgv3ey","60dfdb8bbef17b6739d12215","freq_resp","img/green_2bandit_a.png","68","70","test","","","","1","",""
"null","106473","pSARL_v2","pSARL_v2ldrgv3ey","60dfdb8bbef17b6739d12215","fixation","img/fixation.png","null","","test","","","","","",""
"296","106773","pSARL_v2","pSARL_v2ldrgv3ey","60dfdb8bbef17b6739d12215","freq","img/green_2bandit_a2.png","68","70","test","0","6","6","1","",""
"null","107297","pSARL_v2","pSARL_v2ldrgv3ey","60dfdb8bbef17b6739d12215","freq_resp","img/green_2bandit_a.png","68","70","test","","","","1","",""
"null","107462","pSARL_v2","pSARL_v2ldrgv3ey","60dfdb8bbef17b6739d12215","fixation","img/fixation.png","null","","test","","","","","",""
"254.60000002384186","107721","pSARL_v2","pSARL_v2ldrgv3ey","60dfdb8bbef17b6739d12215","freq","img/green_2bandit_a2.png","68","70","test","0","7","7","1","",""
"null","108282","pSARL_v2","pSARL_v2ldrgv3ey","60dfdb8bbef17b6739d12215","freq_resp","img/green_2bandit_a.png","68","70","test","","","","1","",""
"null","108451","pSARL_v2","pSARL_v2ldrgv3ey","60dfdb8bbef17b6739d12215","fixation","img/fixation.png","null","","test","","","","","",""
"339","108794","pSARL_v2","pSARL_v2ldrgv3ey","60dfdb8bbef17b6739d12215","freq","img/green_2bandit_a2.png","68","70","test","0","8","8","1","",""
"null","109270","pSARL_v2","pSARL_v2ldrgv3ey","60dfdb8bbef17b6739d12215","freq_resp","img/green_2bandit_a.png","68","70","test","","","","1","",""
"null","109432","pSARL_v2","pSARL_v2ldrgv3ey","60dfdb8bbef17b6739d12215","fixation","img/fixation.png","null","","test","","","","","",""
"277.09999990463257","109712","pSARL_v2","pSARL_v2ldrgv3ey","60dfdb8bbef17b6739d12215","freq","img/green_2bandit_a2.png","68","70","test","0","9","9","1","",""
"null","110248","pSARL_v2","pSARL_v2ldrgv3ey","60dfdb8bbef17b6739d12215","freq_resp","img/green_2bandit_a.png","68","70","test","","","","1","",""
"null","110403","pSARL_v2","pSARL_v2ldrgv3ey","60dfdb8bbef17b6739d12215","fixation","img/fixation.png","null","","test","","","","","",""
"285","110691","pSARL_v2","pSARL_v2ldrgv3ey","60dfdb8bbef17b6739d12215","freq","img/green_2bandit_a2.png","68","70","test","0","10","10","1","",""
"null","111220","pSARL_v2","pSARL_v2ldrgv3ey","60dfdb8bbef17b6739d12215","freq_resp","img/green_2bandit_a.png","68","70","test","","","","1","",""
"null","111383","pSARL_v2","pSARL_v2ldrgv3ey","60dfdb8bbef17b6739d12215","fixation","img/fixation.png","null","","test","","","","","",""
"290.89999997615814","111678","pSARL_v2","pSARL_v2ldrgv3ey","60dfdb8bbef17b6739d12215","freq","img/green_2bandit_a2.png","68","70","test","0","11","11","1","",""
"null","112197","pSARL_v2","pSARL_v2ldrgv3ey","60dfdb8bbef17b6739d12215","freq_resp","img/green_2bandit_a.png","68","70","test","","","","1","",""
"null","112369","pSARL_v2","pSARL_v2ldrgv3ey","60dfdb8bbef17b6739d12215","fixation","img/fixation.png","null","","test","","","","","",""
"250.39999997615814","112623","pSARL_v2","pSARL_v2ldrgv3ey","60dfdb8bbef17b6739d12215","freq","img/green_2bandit_a2.png","68","70","test","0","12","12","1","",""
"null","113204","pSARL_v2","pSARL_v2ldrgv3ey","60dfdb8bbef17b6739d12215","freq_resp","img/green_2bandit_a.png","68","70","test","","","","1","",""
"null","113372","pSARL_v2","pSARL_v2ldrgv3ey","60dfdb8bbef17b6739d12215","fixation","img/fixation.png","null","","test","","","","","",""
"355","113730","pSARL_v2","pSARL_v2ldrgv3ey","60dfdb8bbef17b6739d12215","infreq","img/orange_2bandit_a2.png","70","68","test","0","13","13","1","",""
"null","114184","pSARL_v2","pSARL_v2ldrgv3ey","60dfdb8bbef17b6739d12215","infreq_resp","img/orange_2bandit_a.png","70","68","test","","","","1","",""
"null","114352","pSARL_v2","pSARL_v2ldrgv3ey","60dfdb8bbef17b6739d12215","fixation","img/fixation.png","null","","test","","","","","",""
"453.8000000715256","114810","pSARL_v2","pSARL_v2ldrgv3ey","60dfdb8bbef17b6739d12215","freq","img/green_2bandit_a2.png","68","70","test","0","14","14","1","",""
"null","115163","pSARL_v2","pSARL_v2ldrgv3ey","60dfdb8bbef17b6739d12215","freq_resp","img/green_2bandit_a.png","68","70","test","","","","1","",""
"null","115330","pSARL_v2","pSARL_v2ldrgv3ey","60dfdb8bbef17b6739d12215","fixation","img/fixation.png","null","","test","","","","","",""
"300.39999997615814","115633","pSARL_v2","pSARL_v2ldrgv3ey","60dfdb8bbef17b6739d12215","freq","img/green_2bandit_a2.png","68","70","test","0","15","15","1","",""
"null","116148","pSARL_v2","pSARL_v2ldrgv3ey","60dfdb8bbef17b6739d12215","freq_resp","img/green_2bandit_a.png","68","70","test","","","","1","",""
"null","116314","pSARL_v2","pSARL_v2ldrgv3ey","60dfdb8bbef17b6739d12215","fixation","img/fixation.png","null","","test","","","","","",""
"262.60000002384186","116580","pSARL_v2","pSARL_v2ldrgv3ey","60dfdb8bbef17b6739d12215","freq","img/green_2bandit_a2.png","68","70","test","0","16","16","1","",""
"null","117131","pSARL_v2","pSARL_v2ldrgv3ey","60dfdb8bbef17b6739d12215","freq_resp","img/green_2bandit_a.png","68","70","test","","","","1","",""
"null","117292","pSARL_v2","pSARL_v2ldrgv3ey","60dfdb8bbef17b6739d12215","fixation","img/fixation.png","null","","test","","","","","",""
"270.7999999523163","117566","pSARL_v2","pSARL_v2ldrgv3ey","60dfdb8bbef17b6739d12215","freq","img/green_2bandit_a2.png","68","70","test","0","17","17","1","",""
"null","118106","pSARL_v2","pSARL_v2ldrgv3ey","60dfdb8bbef17b6739d12215","freq_resp","img/green_2bandit_a.png","68","70","test","","","","1","",""
"null","118272","pSARL_v2","pSARL_v2ldrgv3ey","60dfdb8bbef17b6739d12215","fixation","img/fixation.png","null","","test","","","","","",""
"268.3000000715256","118544","pSARL_v2","pSARL_v2ldrgv3ey","60dfdb8bbef17b6739d12215","freq","img/green_2bandit_a2.png","68","70","test","0","18","18","1","",""
"null","119089","pSARL_v2","pSARL_v2ldrgv3ey","60dfdb8bbef17b6739d12215","freq_resp","img/green_2bandit_a.png","68","70","test","","","","1","",""
"null","119255","pSARL_v2","pSARL_v2ldrgv3ey","60dfdb8bbef17b6739d12215","fixation","img/fixation.png","null","","test","","","","","",""
"273.39999997615814","119532","pSARL_v2","pSARL_v2ldrgv3ey","60dfdb8bbef17b6739d12215","freq","img/green_2bandit_a2.png","68","70","test","0","19","19","1","",""
"null","120075","pSARL_v2","pSARL_v2ldrgv3ey","60dfdb8bbef17b6739d12215","freq_resp","img/green_2bandit_a.png","68","70","test","","","","1","",""
"null","120246","pSARL_v2","pSARL_v2ldrgv3ey","60dfdb8bbef17b6739d12215","fixation","img/fixation.png","null","","test","","","","","",""
"511.39999997615814","120761","pSARL_v2","pSARL_v2ldrgv3ey","60dfdb8bbef17b6739d12215","reward","img/slot.png","74","","test","","","","","",""
"null","121524","pSARL_v2","pSARL_v2ldrgv3ey","60dfdb8bbef17b6739d12215","points","<div class=""verylowPoints""> -6 </div>","null","na","test","","","","1","-6","0"
"621.7999999523163","122150","pSARL_v2","pSARL_v2ldrgv3ey","60dfdb8bbef17b6739d12215","freq","img/green_2bandit_a2.png","68","70","test","0","20","20","2","",""
"null","122345","pSARL_v2","pSARL_v2ldrgv3ey","60dfdb8bbef17b6739d12215","freq_resp","img/green_2bandit_a.png","68","70","test","","","","2","",""
"null","122504","pSARL_v2","pSARL_v2ldrgv3ey","60dfdb8bbef17b6739d12215","fixation","img/fixation.png","null","","test","","","","","",""
"604.7000000476837","123112","pSARL_v2","pSARL_v2ldrgv3ey","60dfdb8bbef17b6739d12215","freq","img/green_2bandit_a2.png","68","70","test","0","21","21","2","",""
"null","123322","pSARL_v2","pSARL_v2ldrgv3ey","60dfdb8bbef17b6739d12215","freq_resp","img/green_2bandit_a.png","68","70","test","","","","2","",""
"null","123481","pSARL_v2","pSARL_v2ldrgv3ey","60dfdb8bbef17b6739d12215","fixation","img/fixation.png","null","","test","","","","","",""
"700.1000000238419","124184","pSARL_v2","pSARL_v2ldrgv3ey","60dfdb8bbef17b6739d12215","freq","img/green_2bandit_a2.png","68","70","test","0","22","22","2","",""
"null","124294","pSARL_v2","pSARL_v2ldrgv3ey","60dfdb8bbef17b6739d12215","freq_resp","img/green_2bandit_a.png","68","70","test","","","","2","",""
"null","124456","pSARL_v2","pSARL_v2ldrgv3ey","60dfdb8bbef17b6739d12215","fixation","img/fixation.png","null","","test","","","","","",""
"494.1999999284744","124953","pSARL_v2","pSARL_v2ldrgv3ey","60dfdb8bbef17b6739d12215","freq","img/green_2bandit_a2.png","68","70","test","0","23","23","2","",""
"null","125269","pSARL_v2","pSARL_v2ldrgv3ey","60dfdb8bbef17b6739d12215","freq_resp","img/green_2bandit_a.png","68","70","test","","","","2","",""
"null","125439","pSARL_v2","pSARL_v2ldrgv3ey","60dfdb8bbef17b6739d12215","fixation","img/fixation.png","null","","test","","","","","",""
"null","126250","pSARL_v2","pSARL_v2ldrgv3ey","60dfdb8bbef17b6739d12215","freq","img/green_2bandit_a2.png","null","70","test","0","24","24","2","",""
"null","126416","pSARL_v2","pSARL_v2ldrgv3ey","60dfdb8bbef17b6739d12215","fixation","img/fixation.png","null","","test","","","","","",""
"406.1999999284744","126826","pSARL_v2","pSARL_v2ldrgv3ey","60dfdb8bbef17b6739d12215","freq","img/green_2bandit_a2.png","68","70","test","0","25","25","2","",""
"null","127236","pSARL_v2","pSARL_v2ldrgv3ey","60dfdb8bbef17b6739d12215","freq_resp","img/green_2bandit_a.png","68","70","test","","","","2","",""
"null","127390","pSARL_v2","pSARL_v2ldrgv3ey","60dfdb8bbef17b6739d12215","fixation","img/fixation.png","null","","test","","","","","",""
"380","127774","pSARL_v2","pSARL_v2ldrgv3ey","60dfdb8bbef17b6739d12215","freq","img/green_2bandit_a2.png","68","70","test","0","26","26","2","",""
"null","128202","pSARL_v2","pSARL_v2ldrgv3ey","60dfdb8bbef17b6739d12215","freq_resp","img/green_2bandit_a.png","68","70","test","","","","2","",""
"null","128369","pSARL_v2","pSARL_v2ldrgv3ey","60dfdb8bbef17b6739d12215","fixation","img/fixation.png","null","","test","","","","","",""
"214","128586","pSARL_v2","pSARL_v2ldrgv3ey","60dfdb8bbef17b6739d12215","freq","img/green_2bandit_a2.png","68","70","test","0","27","27","2","",""
"null","129187","pSARL_v2","pSARL_v2ldrgv3ey","60dfdb8bbef17b6739d12215","freq_resp","img/green_2bandit_a.png","68","70","test","","","","2","",""
"null","129351","pSARL_v2","pSARL_v2ldrgv3ey","60dfdb8bbef17b6739d12215","fixation","img/fixation.png","null","","test","","","","","",""
"335.39999997615814","129690","pSARL_v2","pSARL_v2ldrgv3ey","60dfdb8bbef17b6739d12215","freq","img/green_2bandit_a2.png","68","70","test","0","28","28","2","",""
"null","130165","pSARL_v2","pSARL_v2ldrgv3ey","60dfdb8bbef17b6739d12215","freq_resp","img/green_2bandit_a.png","68","70","test","","","","2","",""
"null","130331","pSARL_v2","pSARL_v2ldrgv3ey","60dfdb8bbef17b6739d12215","fixation","img/fixation.png","null","","test","","","","","",""
"273.3000000715256","130608","pSARL_v2","pSARL_v2ldrgv3ey","60dfdb8bbef17b6739d12215","freq","img/green_2bandit_a2.png","68","70","test","0","29","29","2","",""
"null","131143","pSARL_v2","pSARL_v2ldrgv3ey","60dfdb8bbef17b6739d12215","freq_resp","img/green_2bandit_a.png","68","70","test","","","","2","",""
"null","131299","pSARL_v2","pSARL_v2ldrgv3ey","60dfdb8bbef17b6739d12215","fixation","img/fixation.png","null","","test","","","","","",""
"229.90000009536743","131532","pSARL_v2","pSARL_v2ldrgv3ey","60dfdb8bbef17b6739d12215","freq","img/green_2bandit_a2.png","68","70","test","0","30","30","2","",""
"null","132115","pSARL_v2","pSARL_v2ldrgv3ey","60dfdb8bbef17b6739d12215","freq_resp","img/green_2bandit_a.png","68","70","test","","","","2","",""
"null","132286","pSARL_v2","pSARL_v2ldrgv3ey","60dfdb8bbef17b6739d12215","fixation","img/fixation.png","null","","test","","","","","",""
"330","132620","pSARL_v2","pSARL_v2ldrgv3ey","60dfdb8bbef17b6739d12215","freq","img/green_2bandit_a2.png","68","70","test","0","31","31","2","",""
"null","133101","pSARL_v2","pSARL_v2ldrgv3ey","60dfdb8bbef17b6739d12215","freq_resp","img/green_2bandit_a.png","68","70","test","","","","2","",""
"null","133259","pSARL_v2","pSARL_v2ldrgv3ey","60dfdb8bbef17b6739d12215","fixation","img/fixation.png","null","","test","","","","","",""
"250.30000007152557","133514","pSARL_v2","pSARL_v2ldrgv3ey","60dfdb8bbef17b6739d12215","freq","img/green_2bandit_a2.png","68","70","test","0","32","32","2","",""
"null","134078","pSARL_v2","pSARL_v2ldrgv3ey","60dfdb8bbef17b6739d12215","freq_resp","img/green_2bandit_a.png","68","70","test","","","","2","",""
"null","134244","pSARL_v2","pSARL_v2ldrgv3ey","60dfdb8bbef17b6739d12215","fixation","img/fixation.png","null","","test","","","","","",""
"393.89999997615814","134641","pSARL_v2","pSARL_v2ldrgv3ey","60dfdb8bbef17b6739d12215","infreq","img/orange_2bandit_a2.png","70","68","test","0","33","33","2","",""
"null","135060","pSARL_v2","pSARL_v2ldrgv3ey","60dfdb8bbef17b6739d12215","infreq_resp","img/orange_2bandit_a.png","70","68","test","","","","2","",""
"null","135221","pSARL_v2","pSARL_v2ldrgv3ey","60dfdb8bbef17b6739d12215","fixation","img/fixation.png","null","","test","","","","","",""
"552.1999999284744","135776","pSARL_v2","pSARL_v2ldrgv3ey","60dfdb8bbef17b6739d12215","freq","img/green_2bandit_a2.png","68","70","test","0","34","34","2","",""
"null","136033","pSARL_v2","pSARL_v2ldrgv3ey","60dfdb8bbef17b6739d12215","freq_resp","img/green_2bandit_a.png","68","70","test","","","","2","",""
"null","136201","pSARL_v2","pSARL_v2ldrgv3ey","60dfdb8bbef17b6739d12215","fixation","img/fixation.png","null","","test","","","","","",""
"399.60000002384186","136605","pSARL_v2","pSARL_v2ldrgv3ey","60dfdb8bbef17b6739d12215","freq","img/green_2bandit_a2.png","68","70","test","0","35","35","2","",""
"null","137019","pSARL_v2","pSARL_v2ldrgv3ey","60dfdb8bbef17b6739d12215","freq_resp","img/green_2bandit_a.png","68","70","test","","","","2","",""
"null","137178","pSARL_v2","pSARL_v2ldrgv3ey","60dfdb8bbef17b6739d12215","fixation","img/fixation.png","null","","test","","","","","",""
"451.7000000476837","137634","pSARL_v2","pSARL_v2ldrgv3ey","60dfdb8bbef17b6739d12215","freq","img/green_2bandit_a2.png","68","70","test","0","36","36","2","",""
"null","137999","pSARL_v2","pSARL_v2ldrgv3ey","60dfdb8bbef17b6739d12215","freq_resp","img/green_2bandit_a.png","68","70","test","","","","2","",""
"null","138159","pSARL_v2","pSARL_v2ldrgv3ey","60dfdb8bbef17b6739d12215","fixation","img/fixation.png","null","","test","","","","","",""
"284.1999999284744","138447","pSARL_v2","pSARL_v2ldrgv3ey","60dfdb8bbef17b6739d12215","freq","img/green_2bandit_a2.png","68","70","test","0","37","37","2","",""
"null","138969","pSARL_v2","pSARL_v2ldrgv3ey","60dfdb8bbef17b6739d12215","freq_resp","img/green_2bandit_a.png","68","70","test","","","","2","",""
"null","139139","pSARL_v2","pSARL_v2ldrgv3ey","60dfdb8bbef17b6739d12215","fixation","img/fixation.png","null","","test","","","","","",""
"293.2999999523163","139438","pSARL_v2","pSARL_v2ldrgv3ey","60dfdb8bbef17b6739d12215","infreq","img/orange_2bandit_a2.png","68","68","test","1","38","38","2","",""
"null","139957","pSARL_v2","pSARL_v2ldrgv3ey","60dfdb8bbef17b6739d12215","infreq_resp","img/orange_2bandit_a.png","68","68","test","","","","2","",""
"null","140125","pSARL_v2","pSARL_v2ldrgv3ey","60dfdb8bbef17b6739d12215","fixation","img/fixation.png","null","","test","","","","","",""
"429.6999999284744","140559","pSARL_v2","pSARL_v2ldrgv3ey","60dfdb8bbef17b6739d12215","freq","img/green_2bandit_a2.png","68","70","test","0","39","39","2","",""
"null","140947","pSARL_v2","pSARL_v2ldrgv3ey","60dfdb8bbef17b6739d12215","freq_resp","img/green_2bandit_a.png","68","70","test","","","","2","",""
"null","141112","pSARL_v2","pSARL_v2ldrgv3ey","60dfdb8bbef17b6739d12215","fixation","img/fixation.png","null","","test","","","","","",""
"309.6999999284744","141426","pSARL_v2","pSARL_v2ldrgv3ey","60dfdb8bbef17b6739d12215","freq","img/green_2bandit_a2.png","68","70","test","0","40","40","2","",""
"null","141928","pSARL_v2","pSARL_v2ldrgv3ey","60dfdb8bbef17b6739d12215","freq_resp","img/green_2bandit_a.png","68","70","test","","","","2","",""
"null","142099","pSARL_v2","pSARL_v2ldrgv3ey","60dfdb8bbef17b6739d12215","fixation","img/fixation.png","null","","test","","","","","",""
"279.7999999523163","142383","pSARL_v2","pSARL_v2ldrgv3ey","60dfdb8bbef17b6739d12215","freq","img/green_2bandit_a2.png","68","70","test","0","41","41","2","",""
"null","142919","pSARL_v2","pSARL_v2ldrgv3ey","60dfdb8bbef17b6739d12215","freq_resp","img/green_2bandit_a.png","68","70","test","","","","2","",""
"null","143088","pSARL_v2","pSARL_v2ldrgv3ey","60dfdb8bbef17b6739d12215","fixation","img/fixation.png","null","","test","","","","","",""
"282.2000000476837","143374","pSARL_v2","pSARL_v2ldrgv3ey","60dfdb8bbef17b6739d12215","freq","img/green_2bandit_a2.png","68","70","test","0","42","42","2","",""
"null","143904","pSARL_v2","pSARL_v2ldrgv3ey","60dfdb8bbef17b6739d12215","freq_resp","img/green_2bandit_a.png","68","70","test","","","","2","",""
"null","144059","pSARL_v2","pSARL_v2ldrgv3ey","60dfdb8bbef17b6739d12215","fixation","img/fixation.png","null","","test","","","","","",""
"274.2000000476837","144337","pSARL_v2","pSARL_v2ldrgv3ey","60dfdb8bbef17b6739d12215","freq","img/green_2bandit_a2.png","68","70","test","0","43","43","2","",""
"null","144870","pSARL_v2","pSARL_v2ldrgv3ey","60dfdb8bbef17b6739d12215","freq_resp","img/green_2bandit_a.png","68","70","test","","","","2","",""
"null","145029","pSARL_v2","pSARL_v2ldrgv3ey","60dfdb8bbef17b6739d12215","fixation","img/fixation.png","null","","test","","","","","",""
"283.5","145316","pSARL_v2","pSARL_v2ldrgv3ey","60dfdb8bbef17b6739d12215","freq","img/green_2bandit_a2.png","68","70","test","0","44","44","2","",""
"null","145843","pSARL_v2","pSARL_v2ldrgv3ey","60dfdb8bbef17b6739d12215","freq_resp","img/green_2bandit_a.png","68","70","test","","","","2","",""
"null","145998","pSARL_v2","pSARL_v2ldrgv3ey","60dfdb8bbef17b6739d12215","fixation","img/fixation.png","null","","test","","","","","",""
"291","146293","pSARL_v2","pSARL_v2ldrgv3ey","60dfdb8bbef17b6739d12215","freq","img/green_2bandit_a2.png","68","70","test","0","45","45","2","",""
"null","146809","pSARL_v2","pSARL_v2ldrgv3ey","60dfdb8bbef17b6739d12215","freq_resp","img/green_2bandit_a.png","68","70","test","","","","2","",""
"null","146970","pSARL_v2","pSARL_v2ldrgv3ey","60dfdb8bbef17b6739d12215","fixation","img/fixation.png","null","","test","","","","","",""
"524.1000000238419","147497","pSARL_v2","pSARL_v2ldrgv3ey","60dfdb8bbef17b6739d12215","reward","img/slot.png","74","","test","","","","","",""
"null","148254","pSARL_v2","pSARL_v2ldrgv3ey","60dfdb8bbef17b6739d12215","points","<div class=""verylowPoints""> -11 </div>","null","na","test","","","","2","-11","1"
"675.7999999523163","148933","pSARL_v2","pSARL_v2ldrgv3ey","60dfdb8bbef17b6739d12215","freq","img/green_2bandit_a2.png","68","70","test","0","46","46","3","",""
"null","149071","pSARL_v2","pSARL_v2ldrgv3ey","60dfdb8bbef17b6739d12215","freq_resp","img/green_2bandit_a.png","68","70","test","","","","3","",""
"null","149238","pSARL_v2","pSARL_v2ldrgv3ey","60dfdb8bbef17b6739d12215","fixation","img/fixation.png","null","","test","","","","","",""
"461.5","149702","pSARL_v2","pSARL_v2ldrgv3ey","60dfdb8bbef17b6739d12215","freq","img/green_2bandit_a2.png","68","70","test","0","47","47","3","",""
"null","150055","pSARL_v2","pSARL_v2ldrgv3ey","60dfdb8bbef17b6739d12215","freq_resp","img/green_2bandit_a.png","68","70","test","","","","3","",""
"null","150222","pSARL_v2","pSARL_v2ldrgv3ey","60dfdb8bbef17b6739d12215","fixation","img/fixation.png","null","","test","","","","","",""
"294.5","150521","pSARL_v2","pSARL_v2ldrgv3ey","60dfdb8bbef17b6739d12215","freq","img/green_2bandit_a2.png","68","70","test","0","48","48","3","",""
"null","151039","pSARL_v2","pSARL_v2ldrgv3ey","60dfdb8bbef17b6739d12215","freq_resp","img/green_2bandit_a.png","68","70","test","","","","3","",""
"null","151199","pSARL_v2","pSARL_v2ldrgv3ey","60dfdb8bbef17b6739d12215","fixation","img/fixation.png","null","","test","","","","","",""
"257.2000000476837","151460","pSARL_v2","pSARL_v2ldrgv3ey","60dfdb8bbef17b6739d12215","freq","img/green_2bandit_a2.png","68","70","test","0","49","49","3","",""
"null","152019","pSARL_v2","pSARL_v2ldrgv3ey","60dfdb8bbef17b6739d12215","freq_resp","img/green_2bandit_a.png","68","70","test","","","","3","",""
"null","152188","pSARL_v2","pSARL_v2ldrgv3ey","60dfdb8bbef17b6739d12215","fixation","img/fixation.png","null","","test","","","","","",""
"295.5","152487","pSARL_v2","pSARL_v2ldrgv3ey","60dfdb8bbef17b6739d12215","freq","img/green_2bandit_a2.png","68","70","test","0","50","50","3","",""
"null","152998","pSARL_v2","pSARL_v2ldrgv3ey","60dfdb8bbef17b6739d12215","freq_resp","img/green_2bandit_a.png","68","70","test","","","","3","",""
"null","153161","pSARL_v2","pSARL_v2ldrgv3ey","60dfdb8bbef17b6739d12215","fixation","img/fixation.png","null","","test","","","","","",""
"456.7999999523163","153622","pSARL_v2","pSARL_v2ldrgv3ey","60dfdb8bbef17b6739d12215","infreq","img/orange_2bandit_a2.png","70","68","test","0","51","51","3","",""
"null","153973","pSARL_v2","pSARL_v2ldrgv3ey","60dfdb8bbef17b6739d12215","infreq_resp","img/orange_2bandit_a.png","70","68","test","","","","3","",""
"null","154130","pSARL_v2","pSARL_v2ldrgv3ey","60dfdb8bbef17b6739d12215","fixation","img/fixation.png","null","","test","","","","","",""
"465.1999999284744","154599","pSARL_v2","pSARL_v2ldrgv3ey","60dfdb8bbef17b6739d12215","freq","img/green_2bandit_a2.png","68","70","test","0","52","52","3","",""
"null","154939","pSARL_v2","pSARL_v2ldrgv3ey","60dfdb8bbef17b6739d12215","freq_resp","img/green_2bandit_a.png","68","70","test","","","","3","",""
"null","155105","pSARL_v2","pSARL_v2ldrgv3ey","60dfdb8bbef17b6739d12215","fixation","img/fixation.png","null","","test","","","","","",""
"337.60000002384186","155446","pSARL_v2","pSARL_v2ldrgv3ey","60dfdb8bbef17b6739d12215","freq","img/green_2bandit_a2.png","68","70","test","0","53","53","3","",""
"null","155922","pSARL_v2","pSARL_v2ldrgv3ey","60dfdb8bbef17b6739d12215","freq_resp","img/green_2bandit_a.png","68","70","test","","","","3","",""
"null","156086","pSARL_v2","pSARL_v2ldrgv3ey","60dfdb8bbef17b6739d12215","fixation","img/fixation.png","null","","test","","","","","",""
"306.7000000476837","156397","pSARL_v2","pSARL_v2ldrgv3ey","60dfdb8bbef17b6739d12215","freq","img/green_2bandit_a2.png","68","70","test","0","54","54","3","",""
"null","156898","pSARL_v2","pSARL_v2ldrgv3ey","60dfdb8bbef17b6739d12215","freq_resp","img/green_2bandit_a.png","68","70","test","","","","3","",""
"null","157061","pSARL_v2","pSARL_v2ldrgv3ey","60dfdb8bbef17b6739d12215","fixation","img/fixation.png","null","","test","","","","","",""
"260","157325","pSARL_v2","pSARL_v2ldrgv3ey","60dfdb8bbef17b6739d12215","freq","img/green_2bandit_a2.png","68","70","test","0","55","55","3","",""
"null","157877","pSARL_v2","pSARL_v2ldrgv3ey","60dfdb8bbef17b6739d12215","freq_resp","img/green_2bandit_a.png","68","70","test","","","","3","",""
"null","158044","pSARL_v2","pSARL_v2ldrgv3ey","60dfdb8bbef17b6739d12215","fixation","img/fixation.png","null","","test","","","","","",""
"306.89999997615814","158355","pSARL_v2","pSARL_v2ldrgv3ey","60dfdb8bbef17b6739d12215","freq","img/green_2bandit_a2.png","68","70","test","0","56","56","3","",""
"null","158853","pSARL_v2","pSARL_v2ldrgv3ey","60dfdb8bbef17b6739d12215","freq_resp","img/green_2bandit_a.png","68","70","test","","","","3","",""
"null","159011","pSARL_v2","pSARL_v2ldrgv3ey","60dfdb8bbef17b6739d12215","fixation","img/fixation.png","null","","test","","","","","",""
"251.20000004768372","159265","pSARL_v2","pSARL_v2ldrgv3ey","60dfdb8bbef17b6739d12215","freq","img/green_2bandit_a2.png","68","70","test","0","57","57","3","",""
"null","159825","pSARL_v2","pSARL_v2ldrgv3ey","60dfdb8bbef17b6739d12215","freq_resp","img/green_2bandit_a.png","68","70","test","","","","3","",""
"null","159992","pSARL_v2","pSARL_v2ldrgv3ey","60dfdb8bbef17b6739d12215","fixation","img/fixation.png","null","","test","","","","","",""
"269.1999999284744","160265","pSARL_v2","pSARL_v2ldrgv3ey","60dfdb8bbef17b6739d12215","freq","img/green_2bandit_a2.png","68","70","test","0","58","58","3","",""
"null","160805","pSARL_v2","pSARL_v2ldrgv3ey","60dfdb8bbef17b6739d12215","freq_resp","img/green_2bandit_a.png","68","70","test","","","","3","",""
"null","160962","pSARL_v2","pSARL_v2ldrgv3ey","60dfdb8bbef17b6739d12215","fixation","img/fixation.png","null","","test","","","","","",""
"270.60000002384186","161237","pSARL_v2","pSARL_v2ldrgv3ey","60dfdb8bbef17b6739d12215","freq","img/green_2bandit_a2.png","68","70","test","0","59","59","3","",""
"null","161777","pSARL_v2","pSARL_v2ldrgv3ey","60dfdb8bbef17b6739d12215","freq_resp","img/green_2bandit_a.png","68","70","test","","","","3","",""
"null","161941","pSARL_v2","pSARL_v2ldrgv3ey","60dfdb8bbef17b6739d12215","fixation","img/fixation.png","null","","test","","","","","",""
"230.09999990463257","162175","pSARL_v2","pSARL_v2ldrgv3ey","60dfdb8bbef17b6739d12215","freq","img/green_2bandit_a2.png","68","70","test","0","60","60","3","",""
"null","162758","pSARL_v2","pSARL_v2ldrgv3ey","60dfdb8bbef17b6739d12215","freq_resp","img/green_2bandit_a.png","68","70","test","","","","3","",""
"null","162920","pSARL_v2","pSARL_v2ldrgv3ey","60dfdb8bbef17b6739d12215","fixation","img/fixation.png","null","","test","","","","","",""
"343.60000002384186","163267","pSARL_v2","pSARL_v2ldrgv3ey","60dfdb8bbef17b6739d12215","infreq","img/orange_2bandit_a2.png","70","68","test","0","61","61","3","",""
"null","163740","pSARL_v2","pSARL_v2ldrgv3ey","60dfdb8bbef17b6739d12215","infreq_resp","img/orange_2bandit_a.png","70","68","test","","","","3","",""
"null","163907","pSARL_v2","pSARL_v2ldrgv3ey","60dfdb8bbef17b6739d12215","fixation","img/fixation.png","null","","test","","","","","",""
"436.2999999523163","164348","pSARL_v2","pSARL_v2ldrgv3ey","60dfdb8bbef17b6739d12215","freq","img/green_2bandit_a2.png","68","70","test","0","62","62","3","",""
"null","164716","pSARL_v2","pSARL_v2ldrgv3ey","60dfdb8bbef17b6739d12215","freq_resp","img/green_2bandit_a.png","68","70","test","","","","3","",""
"null","164871","pSARL_v2","pSARL_v2ldrgv3ey","60dfdb8bbef17b6739d12215","fixation","img/fixation.png","null","","test","","","","","",""
"389.10000002384186","165264","pSARL_v2","pSARL_v2ldrgv3ey","60dfdb8bbef17b6739d12215","freq","img/green_2bandit_a2.png","68","70","test","0","63","63","3","",""
"null","165685","pSARL_v2","pSARL_v2ldrgv3ey","60dfdb8bbef17b6739d12215","freq_resp","img/green_2bandit_a.png","68","70","test","","","","3","",""
"null","165853","pSARL_v2","pSARL_v2ldrgv3ey","60dfdb8bbef17b6739d12215","fixation","img/fixation.png","null","","test","","","","","",""
"286.10000002384186","166141","pSARL_v2","pSARL_v2ldrgv3ey","60dfdb8bbef17b6739d12215","freq","img/green_2bandit_a2.png","68","70","test","0","64","64","3","",""
"null","166666","pSARL_v2","pSARL_v2ldrgv3ey","60dfdb8bbef17b6739d12215","freq_resp","img/green_2bandit_a.png","68","70","test","","","","3","",""
"null","166821","pSARL_v2","pSARL_v2ldrgv3ey","60dfdb8bbef17b6739d12215","fixation","img/fixation.png","null","","test","","","","","",""
"252.70000004768372","167077","pSARL_v2","pSARL_v2ldrgv3ey","60dfdb8bbef17b6739d12215","freq","img/green_2bandit_a2.png","68","70","test","0","65","65","3","",""
"null","167640","pSARL_v2","pSARL_v2ldrgv3ey","60dfdb8bbef17b6739d12215","freq_resp","img/green_2bandit_a.png","68","70","test","","","","3","",""
"null","167797","pSARL_v2","pSARL_v2ldrgv3ey","60dfdb8bbef17b6739d12215","fixation","img/fixation.png","null","","test","","","","","",""
"275.39999997615814","168076","pSARL_v2","pSARL_v2ldrgv3ey","60dfdb8bbef17b6739d12215","freq","img/green_2bandit_a2.png","68","70","test","0","66","66","3","",""
"null","168610","pSARL_v2","pSARL_v2ldrgv3ey","60dfdb8bbef17b6739d12215","freq_resp","img/green_2bandit_a.png","68","70","test","","","","3","",""
"null","168772","pSARL_v2","pSARL_v2ldrgv3ey","60dfdb8bbef17b6739d12215","fixation","img/fixation.png","null","","test","","","","","",""
"527.6000000238419","169304","pSARL_v2","pSARL_v2ldrgv3ey","60dfdb8bbef17b6739d12215","reward","img/slot.png","74","","test","","","","","",""
"null","170064","pSARL_v2","pSARL_v2ldrgv3ey","60dfdb8bbef17b6739d12215","points","<div class=""verylowPoints""> -7 </div>","null","na","test","","","","3","-7","2"
"465.1999999284744","170533","pSARL_v2","pSARL_v2ldrgv3ey","60dfdb8bbef17b6739d12215","freq","img/green_2bandit_a2.png","68","70","test","0","67","67","4","",""
"null","170876","pSARL_v2","pSARL_v2ldrgv3ey","60dfdb8bbef17b6739d12215","freq_resp","img/green_2bandit_a.png","68","70","test","","","","4","",""
"null","171046","pSARL_v2","pSARL_v2ldrgv3ey","60dfdb8bbef17b6739d12215","fixation","img/fixation.png","null","","test","","","","","",""
"390.2999999523163","171441","pSARL_v2","pSARL_v2ldrgv3ey","60dfdb8bbef17b6739d12215","freq","img/green_2bandit_a2.png","68","70","test","0","68","68","4","",""
"null","171865","pSARL_v2","pSARL_v2ldrgv3ey","60dfdb8bbef17b6739d12215","freq_resp","img/green_2bandit_a.png","68","70","test","","","","4","",""
"null","172029","pSARL_v2","pSARL_v2ldrgv3ey","60dfdb8bbef17b6739d12215","fixation","img/fixation.png","null","","test","","","","","",""
"255.59999990463257","172288","pSARL_v2","pSARL_v2ldrgv3ey","60dfdb8bbef17b6739d12215","freq","img/green_2bandit_a2.png","68","70","test","0","69","69","4","",""
"null","172846","pSARL_v2","pSARL_v2ldrgv3ey","60dfdb8bbef17b6739d12215","freq_resp","img/green_2bandit_a.png","68","70","test","","","","4","",""
"null","173000","pSARL_v2","pSARL_v2ldrgv3ey","60dfdb8bbef17b6739d12215","fixation","img/fixation.png","null","","test","","","","","",""
"328.5","173332","pSARL_v2","pSARL_v2ldrgv3ey","60dfdb8bbef17b6739d12215","freq","img/green_2bandit_a2.png","68","70","test","0","70","70","4","",""
"null","173821","pSARL_v2","pSARL_v2ldrgv3ey","60dfdb8bbef17b6739d12215","freq_resp","img/green_2bandit_a.png","68","70","test","","","","4","",""
"null","173980","pSARL_v2","pSARL_v2ldrgv3ey","60dfdb8bbef17b6739d12215","fixation","img/fixation.png","null","","test","","","","","",""
"408.7999999523163","174392","pSARL_v2","pSARL_v2ldrgv3ey","60dfdb8bbef17b6739d12215","freq","img/green_2bandit_a2.png","68","70","test","0","71","71","4","",""
"null","174793","pSARL_v2","pSARL_v2ldrgv3ey","60dfdb8bbef17b6739d12215","freq_resp","img/green_2bandit_a.png","68","70","test","","","","4","",""
"null","174954","pSARL_v2","pSARL_v2ldrgv3ey","60dfdb8bbef17b6739d12215","fixation","img/fixation.png","null","","test","","","","","",""
"352.60000002384186","175311","pSARL_v2","pSARL_v2ldrgv3ey","60dfdb8bbef17b6739d12215","freq","img/green_2bandit_a2.png","68","70","test","0","72","72","4","",""
"null","175773","pSARL_v2","pSARL_v2ldrgv3ey","60dfdb8bbef17b6739d12215","freq_resp","img/green_2bandit_a.png","68","70","test","","","","4","",""
"null","175932","pSARL_v2","pSARL_v2ldrgv3ey","60dfdb8bbef17b6739d12215","fixation","img/fixation.png","null","","test","","","","","",""
"312.89999997615814","176248","pSARL_v2","pSARL_v2ldrgv3ey","60dfdb8bbef17b6739d12215","freq","img/green_2bandit_a2.png","68","70","test","0","73","73","4","",""
"null","176746","pSARL_v2","pSARL_v2ldrgv3ey","60dfdb8bbef17b6739d12215","freq_resp","img/green_2bandit_a.png","68","70","test","","","","4","",""
"null","176905","pSARL_v2","pSARL_v2ldrgv3ey","60dfdb8bbef17b6739d12215","fixation","img/fixation.png","null","","test","","","","","",""
"354.09999990463257","177263","pSARL_v2","pSARL_v2ldrgv3ey","60dfdb8bbef17b6739d12215","freq","img/green_2bandit_a2.png","68","70","test","0","74","74","4","",""
"null","177721","pSARL_v2","pSARL_v2ldrgv3ey","60dfdb8bbef17b6739d12215","freq_resp","img/green_2bandit_a.png","68","70","test","","","","4","",""
"null","177882","pSARL_v2","pSARL_v2ldrgv3ey","60dfdb8bbef17b6739d12215","fixation","img/fixation.png","null","","test","","","","","",""
"254.39999997615814","178140","pSARL_v2","pSARL_v2ldrgv3ey","60dfdb8bbef17b6739d12215","freq","img/green_2bandit_a2.png","68","70","test","0","75","75","4","",""
"null","178699","pSARL_v2","pSARL_v2ldrgv3ey","60dfdb8bbef17b6739d12215","freq_resp","img/green_2bandit_a.png","68","70","test","","","","4","",""
"null","178864","pSARL_v2","pSARL_v2ldrgv3ey","60dfdb8bbef17b6739d12215","fixation","img/fixation.png","null","","test","","","","","",""
"456.60000002384186","179324","pSARL_v2","pSARL_v2ldrgv3ey","60dfdb8bbef17b6739d12215","infreq","img/orange_2bandit_a2.png","70","68","test","0","76","76","4","",""
"null","179674","pSARL_v2","pSARL_v2ldrgv3ey","60dfdb8bbef17b6739d12215","infreq_resp","img/orange_2bandit_a.png","70","68","test","","","","4","",""
"null","179838","pSARL_v2","pSARL_v2ldrgv3ey","60dfdb8bbef17b6739d12215","fixation","img/fixation.png","null","","test","","","","","",""
"424.5","180267","pSARL_v2","pSARL_v2ldrgv3ey","60dfdb8bbef17b6739d12215","freq","img/green_2bandit_a2.png","68","70","test","0","77","77","4","",""
"null","180651","pSARL_v2","pSARL_v2ldrgv3ey","60dfdb8bbef17b6739d12215","freq_resp","img/green_2bandit_a.png","68","70","test","","","","4","",""
"null","180822","pSARL_v2","pSARL_v2ldrgv3ey","60dfdb8bbef17b6739d12215","fixation","img/fixation.png","null","","test","","","","","",""
"395.5","181221","pSARL_v2","pSARL_v2ldrgv3ey","60dfdb8bbef17b6739d12215","infreq","img/orange_2bandit_a2.png","70","68","test","0","78","78","4","",""
"null","181633","pSARL_v2","pSARL_v2ldrgv3ey","60dfdb8bbef17b6739d12215","infreq_resp","img/orange_2bandit_a.png","70","68","test","","","","4","",""
"null","181798","pSARL_v2","pSARL_v2ldrgv3ey","60dfdb8bbef17b6739d12215","fixation","img/fixation.png","null","","test","","","","","",""
"481.7999999523163","182284","pSARL_v2","pSARL_v2ldrgv3ey","60dfdb8bbef17b6739d12215","freq","img/green_2bandit_a2.png","68","70","test","0","79","79","4","",""
"null","182610","pSARL_v2","pSARL_v2ldrgv3ey","60dfdb8bbef17b6739d12215","freq_resp","img/green_2bandit_a.png","68","70","test","","","","4","",""
"null","182768","pSARL_v2","pSARL_v2ldrgv3ey","60dfdb8bbef17b6739d12215","fixation","img/fixation.png","null","","test","","","","","",""
"294.2000000476837","183067","pSARL_v2","pSARL_v2ldrgv3ey","60dfdb8bbef17b6739d12215","freq","img/green_2bandit_a2.png","68","70","test","0","80","80","4","",""
"null","183579","pSARL_v2","pSARL_v2ldrgv3ey","60dfdb8bbef17b6739d12215","freq_resp","img/green_2bandit_a.png","68","70","test","","","","4","",""
"null","183739","pSARL_v2","pSARL_v2ldrgv3ey","60dfdb8bbef17b6739d12215","fixation","img/fixation.png","null","","test","","","","","",""
"258.89999997615814","184002","pSARL_v2","pSARL_v2ldrgv3ey","60dfdb8bbef17b6739d12215","freq","img/green_2bandit_a2.png","68","70","test","0","81","81","4","",""
"null","184554","pSARL_v2","pSARL_v2ldrgv3ey","60dfdb8bbef17b6739d12215","freq_resp","img/green_2bandit_a.png","68","70","test","","","","4","",""
"null","184714","pSARL_v2","pSARL_v2ldrgv3ey","60dfdb8bbef17b6739d12215","fixation","img/fixation.png","null","","test","","","","","",""
"263.2999999523163","184981","pSARL_v2","pSARL_v2ldrgv3ey","60dfdb8bbef17b6739d12215","freq","img/green_2bandit_a2.png","68","70","test","0","82","82","4","",""
"null","185533","pSARL_v2","pSARL_v2ldrgv3ey","60dfdb8bbef17b6739d12215","freq_resp","img/green_2bandit_a.png","68","70","test","","","","4","",""
"null","185700","pSARL_v2","pSARL_v2ldrgv3ey","60dfdb8bbef17b6739d12215","fixation","img/fixation.png","null","","test","","","","","",""
"232.29999995231628","185936","pSARL_v2","pSARL_v2ldrgv3ey","60dfdb8bbef17b6739d12215","freq","img/green_2bandit_a2.png","68","70","test","0","83","83","4","",""
"null","186511","pSARL_v2","pSARL_v2ldrgv3ey","60dfdb8bbef17b6739d12215","freq_resp","img/green_2bandit_a.png","68","70","test","","","","4","",""
"null","186675","pSARL_v2","pSARL_v2ldrgv3ey","60dfdb8bbef17b6739d12215","fixation","img/fixation.png","null","","test","","","","","",""
"351","187030","pSARL_v2","pSARL_v2ldrgv3ey","60dfdb8bbef17b6739d12215","freq","img/green_2bandit_a2.png","68","70","test","0","84","84","4","",""
"null","187498","pSARL_v2","pSARL_v2ldrgv3ey","60dfdb8bbef17b6739d12215","freq_resp","img/green_2bandit_a.png","68","70","test","","","","4","",""
"null","187657","pSARL_v2","pSARL_v2ldrgv3ey","60dfdb8bbef17b6739d12215","fixation","img/fixation.png","null","","test","","","","","",""
"331.1999999284744","187993","pSARL_v2","pSARL_v2ldrgv3ey","60dfdb8bbef17b6739d12215","freq","img/green_2bandit_a2.png","68","70","test","0","85","85","4","",""
"null","188477","pSARL_v2","pSARL_v2ldrgv3ey","60dfdb8bbef17b6739d12215","freq_resp","img/green_2bandit_a.png","68","70","test","","","","4","",""
"null","188634","pSARL_v2","pSARL_v2ldrgv3ey","60dfdb8bbef17b6739d12215","fixation","img/fixation.png","null","","test","","","","","",""
"398.2000000476837","189037","pSARL_v2","pSARL_v2ldrgv3ey","60dfdb8bbef17b6739d12215","freq","img/green_2bandit_a2.png","68","70","test","0","86","86","4","",""
"null","189459","pSARL_v2","pSARL_v2ldrgv3ey","60dfdb8bbef17b6739d12215","freq_resp","img/green_2bandit_a.png","68","70","test","","","","4","",""
"null","189618","pSARL_v2","pSARL_v2ldrgv3ey","60dfdb8bbef17b6739d12215","fixation","img/fixation.png","null","","test","","","","","",""
"257.89999997615814","189880","pSARL_v2","pSARL_v2ldrgv3ey","60dfdb8bbef17b6739d12215","infreq","img/orange_2bandit_a2.png","68","68","test","1","87","87","4","",""
"null","190439","pSARL_v2","pSARL_v2ldrgv3ey","60dfdb8bbef17b6739d12215","infreq_resp","img/orange_2bandit_a.png","68","68","test","","","","4","",""
"null","190593","pSARL_v2","pSARL_v2ldrgv3ey","60dfdb8bbef17b6739d12215","fixation","img/fixation.png","null","","test","","","","","",""
"526.0999999046326","191124","pSARL_v2","pSARL_v2ldrgv3ey","60dfdb8bbef17b6739d12215","freq","img/green_2bandit_a2.png","68","70","test","0","88","88","4","",""
"null","191408","pSARL_v2","pSARL_v2ldrgv3ey","60dfdb8bbef17b6739d12215","freq_resp","img/green_2bandit_a.png","68","70","test","","","","4","",""
"null","191564","pSARL_v2","pSARL_v2ldrgv3ey","60dfdb8bbef17b6739d12215","fixation","img/fixation.png","null","","test","","","","","",""
"489.8000000715256","192057","pSARL_v2","pSARL_v2ldrgv3ey","60dfdb8bbef17b6739d12215","freq","img/green_2bandit_a2.png","68","70","test","0","89","89","4","",""
"null","192381","pSARL_v2","pSARL_v2ldrgv3ey","60dfdb8bbef17b6739d12215","freq_resp","img/green_2bandit_a.png","68","70","test","","","","4","",""
"null","192538","pSARL_v2","pSARL_v2ldrgv3ey","60dfdb8bbef17b6739d12215","fixation","img/fixation.png","null","","test","","","","","",""
"479.10000002384186","193022","pSARL_v2","pSARL_v2ldrgv3ey","60dfdb8bbef17b6739d12215","reward","img/slot.png","74","","test","","","","","",""
"null","193786","pSARL_v2","pSARL_v2ldrgv3ey","60dfdb8bbef17b6739d12215","points","<div class=""verylowPoints""> -3 </div>","null","na","test","","","","4","-3","3"
"494.10000002384186","194285","pSARL_v2","pSARL_v2ldrgv3ey","60dfdb8bbef17b6739d12215","freq","img/green_2bandit_a2.png","68","70","test","0","90","90","5","",""
"null","194598","pSARL_v2","pSARL_v2ldrgv3ey","60dfdb8bbef17b6739d12215","freq_resp","img/green_2bandit_a.png","68","70","test","","","","5","",""
"null","194757","pSARL_v2","pSARL_v2ldrgv3ey","60dfdb8bbef17b6739d12215","fixation","img/fixation.png","null","","test","","","","","",""
"316.2999999523163","195077","pSARL_v2","pSARL_v2ldrgv3ey","60dfdb8bbef17b6739d12215","freq","img/green_2bandit_a2.png","68","70","test","0","91","91","5","",""
"null","195578","pSARL_v2","pSARL_v2ldrgv3ey","60dfdb8bbef17b6739d12215","freq_resp","img/green_2bandit_a.png","68","70","test","","","","5","",""
"null","195744","pSARL_v2","pSARL_v2ldrgv3ey","60dfdb8bbef17b6739d12215","fixation","img/fixation.png","null","","test","","","","","",""
"267","196015","pSARL_v2","pSARL_v2ldrgv3ey","60dfdb8bbef17b6739d12215","freq","img/green_2bandit_a2.png","68","70","test","0","92","92","5","",""
"null","196565","pSARL_v2","pSARL_v2ldrgv3ey","60dfdb8bbef17b6739d12215","freq_resp","img/green_2bandit_a.png","68","70","test","","","","5","",""
"null","196725","pSARL_v2","pSARL_v2ldrgv3ey","60dfdb8bbef17b6739d12215","fixation","img/fixation.png","null","","test","","","","","",""
"230.39999997615814","196959","pSARL_v2","pSARL_v2ldrgv3ey","60dfdb8bbef17b6739d12215","freq","img/green_2bandit_a2.png","68","70","test","0","93","93","5","",""
"null","197539","pSARL_v2","pSARL_v2ldrgv3ey","60dfdb8bbef17b6739d12215","freq_resp","img/green_2bandit_a.png","68","70","test","","","","5","",""
"null","197703","pSARL_v2","pSARL_v2ldrgv3ey","60dfdb8bbef17b6739d12215","fixation","img/fixation.png","null","","test","","","","","",""
"241.70000004768372","197948","pSARL_v2","pSARL_v2ldrgv3ey","60dfdb8bbef17b6739d12215","freq","img/green_2bandit_a2.png","68","70","test","0","94","94","5","",""
"null","198527","pSARL_v2","pSARL_v2ldrgv3ey","60dfdb8bbef17b6739d12215","freq_resp","img/green_2bandit_a.png","68","70","test","","","","5","",""
"null","198692","pSARL_v2","pSARL_v2ldrgv3ey","60dfdb8bbef17b6739d12215","fixation","img/fixation.png","null","","test","","","","","",""
"268.8000000715256","198963","pSARL_v2","pSARL_v2ldrgv3ey","60dfdb8bbef17b6739d12215","freq","img/green_2bandit_a2.png","68","70","test","0","95","95","5","",""
"null","199509","pSARL_v2","pSARL_v2ldrgv3ey","60dfdb8bbef17b6739d12215","freq_resp","img/green_2bandit_a.png","68","70","test","","","","5","",""
"null","199674","pSARL_v2","pSARL_v2ldrgv3ey","60dfdb8bbef17b6739d12215","fixation","img/fixation.png","null","","test","","","","","",""
"236.29999995231628","199914","pSARL_v2","pSARL_v2ldrgv3ey","60dfdb8bbef17b6739d12215","freq","img/green_2bandit_a2.png","68","70","test","0","96","96","5","",""
"null","200483","pSARL_v2","pSARL_v2ldrgv3ey","60dfdb8bbef17b6739d12215","freq_resp","img/green_2bandit_a.png","68","70","test","","","","5","",""
"null","200638","pSARL_v2","pSARL_v2ldrgv3ey","60dfdb8bbef17b6739d12215","fixation","img/fixation.png","null","","test","","","","","",""
"239.80000007152557","200881","pSARL_v2","pSARL_v2ldrgv3ey","60dfdb8bbef17b6739d12215","freq","img/green_2bandit_a2.png","68","70","test","0","97","97","5","",""
"null","201454","pSARL_v2","pSARL_v2ldrgv3ey","60dfdb8bbef17b6739d12215","freq_resp","img/green_2bandit_a.png","68","70","test","","","","5","",""
"null","201619","pSARL_v2","pSARL_v2ldrgv3ey","60dfdb8bbef17b6739d12215","fixation","img/fixation.png","null","","test","","","","","",""
"293.7000000476837","201917","pSARL_v2","pSARL_v2ldrgv3ey","60dfdb8bbef17b6739d12215","freq","img/green_2bandit_a2.png","68","70","test","0","98","98","5","",""
"null","202430","pSARL_v2","pSARL_v2ldrgv3ey","60dfdb8bbef17b6739d12215","freq_resp","img/green_2bandit_a.png","68","70","test","","","","5","",""
"null","202591","pSARL_v2","pSARL_v2ldrgv3ey","60dfdb8bbef17b6739d12215","fixation","img/fixation.png","null","","test","","","","","",""
"261.60000002384186","202856","pSARL_v2","pSARL_v2ldrgv3ey","60dfdb8bbef17b6739d12215","freq","img/green_2bandit_a2.png","68","70","test","0","99","99","5","",""
"null","203404","pSARL_v2","pSARL_v2ldrgv3ey","60dfdb8bbef17b6739d12215","freq_resp","img/green_2bandit_a.png","68","70","test","","","","5","",""
"null","203568","pSARL_v2","pSARL_v2ldrgv3ey","60dfdb8bbef17b6739d12215","fixation","img/fixation.png","null","","test","","","","","",""
"365.7000000476837","203938","pSARL_v2","pSARL_v2ldrgv3ey","60dfdb8bbef17b6739d12215","freq","img/green_2bandit_a2.png","68","70","test","0","100","100","5","",""
"null","204383","pSARL_v2","pSARL_v2ldrgv3ey","60dfdb8bbef17b6739d12215","freq_resp","img/green_2bandit_a.png","68","70","test","","","","5","",""
"null","204546","pSARL_v2","pSARL_v2ldrgv3ey","60dfdb8bbef17b6739d12215","fixation","img/fixation.png","null","","test","","","","","",""
"365.5","204915","pSARL_v2","pSARL_v2ldrgv3ey","60dfdb8bbef17b6739d12215","freq","img/green_2bandit_a2.png","68","70","test","0","101","101","5","",""
"null","205363","pSARL_v2","pSARL_v2ldrgv3ey","60dfdb8bbef17b6739d12215","freq_resp","img/green_2bandit_a.png","68","70","test","","","","5","",""
"null","205523","pSARL_v2","pSARL_v2ldrgv3ey","60dfdb8bbef17b6739d12215","fixation","img/fixation.png","null","","test","","","","","",""
"424.7000000476837","205952","pSARL_v2","pSARL_v2ldrgv3ey","60dfdb8bbef17b6739d12215","infreq","img/orange_2bandit_a2.png","70","68","test","0","102","102","5","",""
"null","206349","pSARL_v2","pSARL_v2ldrgv3ey","60dfdb8bbef17b6739d12215","infreq_resp","img/orange_2bandit_a.png","70","68","test","","","","5","",""
"null","206509","pSARL_v2","pSARL_v2ldrgv3ey","60dfdb8bbef17b6739d12215","fixation","img/fixation.png","null","","test","","","","","",""
"412.39999997615814","206925","pSARL_v2","pSARL_v2ldrgv3ey","60dfdb8bbef17b6739d12215","freq","img/green_2bandit_a2.png","68","70","test","0","103","103","5","",""
"null","207322","pSARL_v2","pSARL_v2ldrgv3ey","60dfdb8bbef17b6739d12215","freq_resp","img/green_2bandit_a.png","68","70","test","","","","5","",""
"null","207481","pSARL_v2","pSARL_v2ldrgv3ey","60dfdb8bbef17b6739d12215","fixation","img/fixation.png","null","","test","","","","","",""
"312.39999997615814","207797","pSARL_v2","pSARL_v2ldrgv3ey","60dfdb8bbef17b6739d12215","freq","img/green_2bandit_a2.png","68","70","test","0","104","104","5","",""
"null","208301","pSARL_v2","pSARL_v2ldrgv3ey","60dfdb8bbef17b6739d12215","freq_resp","img/green_2bandit_a.png","68","70","test","","","","5","",""
"null","208466","pSARL_v2","pSARL_v2ldrgv3ey","60dfdb8bbef17b6739d12215","fixation","img/fixation.png","null","","test","","","","","",""
"276.3000000715256","208747","pSARL_v2","pSARL_v2ldrgv3ey","60dfdb8bbef17b6739d12215","freq","img/green_2bandit_a2.png","68","70","test","0","105","105","5","",""
"null","209292","pSARL_v2","pSARL_v2ldrgv3ey","60dfdb8bbef17b6739d12215","freq_resp","img/green_2bandit_a.png","68","70","test","","","","5","",""
"null","209453","pSARL_v2","pSARL_v2ldrgv3ey","60dfdb8bbef17b6739d12215","fixation","img/fixation.png","null","","test","","","","","",""
"252.80000007152557","209710","pSARL_v2","pSARL_v2ldrgv3ey","60dfdb8bbef17b6739d12215","freq","img/green_2bandit_a2.png","68","70","test","0","106","106","5","",""
"null","210272","pSARL_v2","pSARL_v2ldrgv3ey","60dfdb8bbef17b6739d12215","freq_resp","img/green_2bandit_a.png","68","70","test","","","","5","",""
"null","210440","pSARL_v2","pSARL_v2ldrgv3ey","60dfdb8bbef17b6739d12215","fixation","img/fixation.png","null","","test","","","","","",""
"257.7999999523163","210702","pSARL_v2","pSARL_v2ldrgv3ey","60dfdb8bbef17b6739d12215","freq","img/green_2bandit_a2.png","68","70","test","0","107","107","5","",""
"null","211251","pSARL_v2","pSARL_v2ldrgv3ey","60dfdb8bbef17b6739d12215","freq_resp","img/green_2bandit_a.png","68","70","test","","","","5","",""
"null","211412","pSARL_v2","pSARL_v2ldrgv3ey","60dfdb8bbef17b6739d12215","fixation","img/fixation.png","null","","test","","","","","",""
"241","211656","pSARL_v2","pSARL_v2ldrgv3ey","60dfdb8bbef17b6739d12215","freq","img/green_2bandit_a2.png","68","70","test","0","108","108","5","",""
"null","212230","pSARL_v2","pSARL_v2ldrgv3ey","60dfdb8bbef17b6739d12215","freq_resp","img/green_2bandit_a.png","68","70","test","","","","5","",""
"null","212397","pSARL_v2","pSARL_v2ldrgv3ey","60dfdb8bbef17b6739d12215","fixation","img/fixation.png","null","","test","","","","","",""
"263.89999997615814","212665","pSARL_v2","pSARL_v2ldrgv3ey","60dfdb8bbef17b6739d12215","freq","img/green_2bandit_a2.png","68","70","test","0","109","109","5","",""
"null","213205","pSARL_v2","pSARL_v2ldrgv3ey","60dfdb8bbef17b6739d12215","freq_resp","img/green_2bandit_a.png","68","70","test","","","","5","",""
"null","213371","pSARL_v2","pSARL_v2ldrgv3ey","60dfdb8bbef17b6739d12215","fixation","img/fixation.png","null","","test","","","","","",""
"308.60000002384186","213684","pSARL_v2","pSARL_v2ldrgv3ey","60dfdb8bbef17b6739d12215","freq","img/green_2bandit_a2.png","68","70","test","0","110","110","5","",""
"null","214191","pSARL_v2","pSARL_v2ldrgv3ey","60dfdb8bbef17b6739d12215","freq_resp","img/green_2bandit_a.png","68","70","test","","","","5","",""
"null","214357","pSARL_v2","pSARL_v2ldrgv3ey","60dfdb8bbef17b6739d12215","fixation","img/fixation.png","null","","test","","","","","",""
"325.40000009536743","214685","pSARL_v2","pSARL_v2ldrgv3ey","60dfdb8bbef17b6739d12215","freq","img/green_2bandit_a2.png","68","70","test","0","111","111","5","",""
"null","215179","pSARL_v2","pSARL_v2ldrgv3ey","60dfdb8bbef17b6739d12215","freq_resp","img/green_2bandit_a.png","68","70","test","","","","5","",""
"null","215336","pSARL_v2","pSARL_v2ldrgv3ey","60dfdb8bbef17b6739d12215","fixation","img/fixation.png","null","","test","","","","","",""
"285.5","215625","pSARL_v2","pSARL_v2ldrgv3ey","60dfdb8bbef17b6739d12215","freq","img/green_2bandit_a2.png","68","70","test","0","112","112","5","",""
"null","216150","pSARL_v2","pSARL_v2ldrgv3ey","60dfdb8bbef17b6739d12215","freq_resp","img/green_2bandit_a.png","68","70","test","","","","5","",""
"null","216306","pSARL_v2","pSARL_v2ldrgv3ey","60dfdb8bbef17b6739d12215","fixation","img/fixation.png","null","","test","","","","","",""
"398.39999997615814","216709","pSARL_v2","pSARL_v2ldrgv3ey","60dfdb8bbef17b6739d12215","infreq","img/orange_2bandit_a2.png","70","68","test","0","113","113","5","",""
"null","217123","pSARL_v2","pSARL_v2ldrgv3ey","60dfdb8bbef17b6739d12215","infreq_resp","img/orange_2bandit_a.png","70","68","test","","","","5","",""
"null","217278","pSARL_v2","pSARL_v2ldrgv3ey","60dfdb8bbef17b6739d12215","fixation","img/fixation.png","null","","test","","","","","",""
"415.6999999284744","217697","pSARL_v2","pSARL_v2ldrgv3ey","60dfdb8bbef17b6739d12215","freq","img/green_2bandit_a2.png","68","70","test","0","114","114","5","",""
"null","218096","pSARL_v2","pSARL_v2ldrgv3ey","60dfdb8bbef17b6739d12215","freq_resp","img/green_2bandit_a.png","68","70","test","","","","5","",""
"null","218261","pSARL_v2","pSARL_v2ldrgv3ey","60dfdb8bbef17b6739d12215","fixation","img/fixation.png","null","","test","","","","","",""
"470.39999997615814","218735","pSARL_v2","pSARL_v2ldrgv3ey","60dfdb8bbef17b6739d12215","reward","img/slot.png","74","","test","","","","","",""
"null","219498","pSARL_v2","pSARL_v2ldrgv3ey","60dfdb8bbef17b6739d12215","points","<div class=""veryhighPoints""> +1 </div>","null","na","test","","","","5","1","4"
"456.2999999523163","219959","pSARL_v2","pSARL_v2ldrgv3ey","60dfdb8bbef17b6739d12215","freq","img/green_2bandit_a2.png","68","70","test","0","115","115","6","",""
"null","220311","pSARL_v2","pSARL_v2ldrgv3ey","60dfdb8bbef17b6739d12215","freq_resp","img/green_2bandit_a.png","68","70","test","","","","6","",""
"null","220466","pSARL_v2","pSARL_v2ldrgv3ey","60dfdb8bbef17b6739d12215","fixation","img/fixation.png","null","","test","","","","","",""
"null","221278","pSARL_v2","pSARL_v2ldrgv3ey","60dfdb8bbef17b6739d12215","infreq","img/orange_2bandit_a2.png","null","68","test","0","116","116","6","",""
"null","221442","pSARL_v2","pSARL_v2ldrgv3ey","60dfdb8bbef17b6739d12215","fixation","img/fixation.png","null","","test","","","","","",""
"594.1999999284744","222041","pSARL_v2","pSARL_v2ldrgv3ey","60dfdb8bbef17b6739d12215","freq","img/green_2bandit_a2.png","68","70","test","0","117","117","6","",""
"null","222253","pSARL_v2","pSARL_v2ldrgv3ey","60dfdb8bbef17b6739d12215","freq_resp","img/green_2bandit_a.png","68","70","test","","","","6","",""
"null","222415","pSARL_v2","pSARL_v2ldrgv3ey","60dfdb8bbef17b6739d12215","fixation","img/fixation.png","null","","test","","","","","",""
"506.1999999284744","222926","pSARL_v2","pSARL_v2ldrgv3ey","60dfdb8bbef17b6739d12215","freq","img/green_2bandit_a2.png","68","70","test","0","118","118","6","",""
"null","223231","pSARL_v2","pSARL_v2ldrgv3ey","60dfdb8bbef17b6739d12215","freq_resp","img/green_2bandit_a.png","68","70","test","","","","6","",""
"null","223401","pSARL_v2","pSARL_v2ldrgv3ey","60dfdb8bbef17b6739d12215","fixation","img/fixation.png","null","","test","","","","","",""
"318.2000000476837","223723","pSARL_v2","pSARL_v2ldrgv3ey","60dfdb8bbef17b6739d12215","freq","img/green_2bandit_a2.png","68","70","test","0","119","119","6","",""
"null","224223","pSARL_v2","pSARL_v2ldrgv3ey","60dfdb8bbef17b6739d12215","freq_resp","img/green_2bandit_a.png","68","70","test","","","","6","",""
"null","224389","pSARL_v2","pSARL_v2ldrgv3ey","60dfdb8bbef17b6739d12215","fixation","img/fixation.png","null","","test","","","","","",""
"154.70000004768372","224548","pSARL_v2","pSARL_v2ldrgv3ey","60dfdb8bbef17b6739d12215","freq","img/green_2bandit_a2.png","68","70","test","0","120","120","6","",""
"null","225202","pSARL_v2","pSARL_v2ldrgv3ey","60dfdb8bbef17b6739d12215","freq_resp","img/green_2bandit_a.png","68","70","test","","","","6","",""
"null","225357","pSARL_v2","pSARL_v2ldrgv3ey","60dfdb8bbef17b6739d12215","fixation","img/fixation.png","null","","test","","","","","",""
"239.79999995231628","225600","pSARL_v2","pSARL_v2ldrgv3ey","60dfdb8bbef17b6739d12215","freq","img/green_2bandit_a2.png","68","70","test","0","121","121","6","",""
"null","226182","pSARL_v2","pSARL_v2ldrgv3ey","60dfdb8bbef17b6739d12215","freq_resp","img/green_2bandit_a.png","68","70","test","","","","6","",""
"null","226336","pSARL_v2","pSARL_v2ldrgv3ey","60dfdb8bbef17b6739d12215","fixation","img/fixation.png","null","","test","","","","","",""
"334.10000002384186","226674","pSARL_v2","pSARL_v2ldrgv3ey","60dfdb8bbef17b6739d12215","freq","img/green_2bandit_a2.png","68","70","test","0","122","122","6","",""
"null","227146","pSARL_v2","pSARL_v2ldrgv3ey","60dfdb8bbef17b6739d12215","freq_resp","img/green_2bandit_a.png","68","70","test","","","","6","",""
"null","227307","pSARL_v2","pSARL_v2ldrgv3ey","60dfdb8bbef17b6739d12215","fixation","img/fixation.png","null","","test","","","","","",""
"276.2999999523163","227587","pSARL_v2","pSARL_v2ldrgv3ey","60dfdb8bbef17b6739d12215","freq","img/green_2bandit_a2.png","68","70","test","0","123","123","6","",""
"null","228125","pSARL_v2","pSARL_v2ldrgv3ey","60dfdb8bbef17b6739d12215","freq_resp","img/green_2bandit_a.png","68","70","test","","","","6","",""
"null","228288","pSARL_v2","pSARL_v2ldrgv3ey","60dfdb8bbef17b6739d12215","fixation","img/fixation.png","null","","test","","","","","",""
"278.5","228570","pSARL_v2","pSARL_v2ldrgv3ey","60dfdb8bbef17b6739d12215","freq","img/green_2bandit_a2.png","68","70","test","0","124","124","6","",""
"null","229097","pSARL_v2","pSARL_v2ldrgv3ey","60dfdb8bbef17b6739d12215","freq_resp","img/green_2bandit_a.png","68","70","test","","","","6","",""
"null","229263","pSARL_v2","pSARL_v2ldrgv3ey","60dfdb8bbef17b6739d12215","fixation","img/fixation.png","null","","test","","","","","",""
"386.60000002384186","229653","pSARL_v2","pSARL_v2ldrgv3ey","60dfdb8bbef17b6739d12215","infreq","img/orange_2bandit_a2.png","70","68","test","0","125","125","6","",""
"null","230077","pSARL_v2","pSARL_v2ldrgv3ey","60dfdb8bbef17b6739d12215","infreq_resp","img/orange_2bandit_a.png","70","68","test","","","","6","",""
"null","230242","pSARL_v2","pSARL_v2ldrgv3ey","60dfdb8bbef17b6739d12215","fixation","img/fixation.png","null","","test","","","","","",""
"373","230619","pSARL_v2","pSARL_v2ldrgv3ey","60dfdb8bbef17b6739d12215","freq","img/green_2bandit_a2.png","68","70","test","0","126","126","6","",""
"null","231062","pSARL_v2","pSARL_v2ldrgv3ey","60dfdb8bbef17b6739d12215","freq_resp","img/green_2bandit_a.png","68","70","test","","","","6","",""
"null","231229","pSARL_v2","pSARL_v2ldrgv3ey","60dfdb8bbef17b6739d12215","fixation","img/fixation.png","null","","test","","","","","",""
"468.2000000476837","231700","pSARL_v2","pSARL_v2ldrgv3ey","60dfdb8bbef17b6739d12215","infreq","img/orange_2bandit_a2.png","70","68","test","0","127","127","6","",""
"null","232049","pSARL_v2","pSARL_v2ldrgv3ey","60dfdb8bbef17b6739d12215","infreq_resp","img/orange_2bandit_a.png","70","68","test","","","","6","",""
"null","232202","pSARL_v2","pSARL_v2ldrgv3ey","60dfdb8bbef17b6739d12215","fixation","img/fixation.png","null","","test","","","","","",""
"346.7000000476837","232552","pSARL_v2","pSARL_v2ldrgv3ey","60dfdb8bbef17b6739d12215","freq","img/green_2bandit_a2.png","68","70","test","0","128","128","6","",""
"null","233024","pSARL_v2","pSARL_v2ldrgv3ey","60dfdb8bbef17b6739d12215","freq_resp","img/green_2bandit_a.png","68","70","test","","","","6","",""
"null","233185","pSARL_v2","pSARL_v2ldrgv3ey","60dfdb8bbef17b6739d12215","fixation","img/fixation.png","null","","test","","","","","",""
"348","233537","pSARL_v2","pSARL_v2ldrgv3ey","60dfdb8bbef17b6739d12215","freq","img/green_2bandit_a2.png","68","70","test","0","129","129","6","",""
"null","234004","pSARL_v2","pSARL_v2ldrgv3ey","60dfdb8bbef17b6739d12215","freq_resp","img/green_2bandit_a.png","68","70","test","","","","6","",""
"null","234161","pSARL_v2","pSARL_v2ldrgv3ey","60dfdb8bbef17b6739d12215","fixation","img/fixation.png","null","","test","","","","","",""
"247.30000007152557","234412","pSARL_v2","pSARL_v2ldrgv3ey","60dfdb8bbef17b6739d12215","freq","img/green_2bandit_a2.png","68","70","test","0","130","130","6","",""
"null","234984","pSARL_v2","pSARL_v2ldrgv3ey","60dfdb8bbef17b6739d12215","freq_resp","img/green_2bandit_a.png","68","70","test","","","","6","",""
"null","235151","pSARL_v2","pSARL_v2ldrgv3ey","60dfdb8bbef17b6739d12215","fixation","img/fixation.png","null","","test","","","","","",""
"238.20000004768372","235393","pSARL_v2","pSARL_v2ldrgv3ey","60dfdb8bbef17b6739d12215","freq","img/green_2bandit_a2.png","68","70","test","0","131","131","6","",""
"null","235966","pSARL_v2","pSARL_v2ldrgv3ey","60dfdb8bbef17b6739d12215","freq_resp","img/green_2bandit_a.png","68","70","test","","","","6","",""
"null","236121","pSARL_v2","pSARL_v2ldrgv3ey","60dfdb8bbef17b6739d12215","fixation","img/fixation.png","null","","test","","","","","",""
"248.39999997615814","236373","pSARL_v2","pSARL_v2ldrgv3ey","60dfdb8bbef17b6739d12215","freq","img/green_2bandit_a2.png","68","70","test","0","132","132","6","",""
"null","236937","pSARL_v2","pSARL_v2ldrgv3ey","60dfdb8bbef17b6739d12215","freq_resp","img/green_2bandit_a.png","68","70","test","","","","6","",""
"null","237099","pSARL_v2","pSARL_v2ldrgv3ey","60dfdb8bbef17b6739d12215","fixation","img/fixation.png","null","","test","","","","","",""
"207.90000009536743","237309","pSARL_v2","pSARL_v2ldrgv3ey","60dfdb8bbef17b6739d12215","freq","img/green_2bandit_a2.png","68","70","test","0","133","133","6","",""
"null","237911","pSARL_v2","pSARL_v2ldrgv3ey","60dfdb8bbef17b6739d12215","freq_resp","img/green_2bandit_a.png","68","70","test","","","","6","",""
"null","238079","pSARL_v2","pSARL_v2ldrgv3ey","60dfdb8bbef17b6739d12215","fixation","img/fixation.png","null","","test","","","","","",""
"98","238181","pSARL_v2","pSARL_v2ldrgv3ey","60dfdb8bbef17b6739d12215","freq","img/green_2bandit_a2.png","68","70","test","0","134","134","6","",""
"null","238902","pSARL_v2","pSARL_v2ldrgv3ey","60dfdb8bbef17b6739d12215","freq_resp","img/green_2bandit_a.png","68","70","test","","","","6","",""
"null","239056","pSARL_v2","pSARL_v2ldrgv3ey","60dfdb8bbef17b6739d12215","fixation","img/fixation.png","null","","test","","","","","",""
"122.89999997615814","239183","pSARL_v2","pSARL_v2ldrgv3ey","60dfdb8bbef17b6739d12215","freq","img/green_2bandit_a2.png","68","70","test","0","135","135","6","",""
"null","239865","pSARL_v2","pSARL_v2ldrgv3ey","60dfdb8bbef17b6739d12215","freq_resp","img/green_2bandit_a.png","68","70","test","","","","6","",""
"null","240022","pSARL_v2","pSARL_v2ldrgv3ey","60dfdb8bbef17b6739d12215","fixation","img/fixation.png","null","","test","","","","","",""
"115.80000007152557","240142","pSARL_v2","pSARL_v2ldrgv3ey","60dfdb8bbef17b6739d12215","freq","img/green_2bandit_a2.png","68","70","test","0","136","136","6","",""
"null","240835","pSARL_v2","pSARL_v2ldrgv3ey","60dfdb8bbef17b6739d12215","freq_resp","img/green_2bandit_a.png","68","70","test","","","","6","",""
"null","241003","pSARL_v2","pSARL_v2ldrgv3ey","60dfdb8bbef17b6739d12215","fixation","img/fixation.png","null","","test","","","","","",""
"373.10000002384186","241379","pSARL_v2","pSARL_v2ldrgv3ey","60dfdb8bbef17b6739d12215","freq","img/green_2bandit_a2.png","68","70","test","0","137","137","6","",""
"null","241816","pSARL_v2","pSARL_v2ldrgv3ey","60dfdb8bbef17b6739d12215","freq_resp","img/green_2bandit_a.png","68","70","test","","","","6","",""
"null","241986","pSARL_v2","pSARL_v2ldrgv3ey","60dfdb8bbef17b6739d12215","fixation","img/fixation.png","null","","test","","","","","",""
"403","242393","pSARL_v2","pSARL_v2ldrgv3ey","60dfdb8bbef17b6739d12215","freq","img/green_2bandit_a2.png","68","70","test","0","138","138","6","",""
"null","242797","pSARL_v2","pSARL_v2ldrgv3ey","60dfdb8bbef17b6739d12215","freq_resp","img/green_2bandit_a.png","68","70","test","","","","6","",""
"null","242956","pSARL_v2","pSARL_v2ldrgv3ey","60dfdb8bbef17b6739d12215","fixation","img/fixation.png","null","","test","","","","","",""
"512.7000000476837","243473","pSARL_v2","pSARL_v2ldrgv3ey","60dfdb8bbef17b6739d12215","reward","img/slot.png","74","","test","","","","","",""
"null","244236","pSARL_v2","pSARL_v2ldrgv3ey","60dfdb8bbef17b6739d12215","points","<div class=""verylowPoints""> -7 </div>","null","na","test","","","","6","-7","5"
"414.7999999523163","244654","pSARL_v2","pSARL_v2ldrgv3ey","60dfdb8bbef17b6739d12215","freq","img/green_2bandit_a2.png","68","70","test","0","139","139","7","",""
"null","245047","pSARL_v2","pSARL_v2ldrgv3ey","60dfdb8bbef17b6739d12215","freq_resp","img/green_2bandit_a.png","68","70","test","","","","7","",""
"null","245206","pSARL_v2","pSARL_v2ldrgv3ey","60dfdb8bbef17b6739d12215","fixation","img/fixation.png","null","","test","","","","","",""
"289.10000002384186","245499","pSARL_v2","pSARL_v2ldrgv3ey","60dfdb8bbef17b6739d12215","freq","img/green_2bandit_a2.png","68","70","test","0","140","140","7","",""
"null","246014","pSARL_v2","pSARL_v2ldrgv3ey","60dfdb8bbef17b6739d12215","freq_resp","img/green_2bandit_a.png","68","70","test","","","","7","",""
"null","246172","pSARL_v2","pSARL_v2ldrgv3ey","60dfdb8bbef17b6739d12215","fixation","img/fixation.png","null","","test","","","","","",""
"489","246665","pSARL_v2","pSARL_v2ldrgv3ey","60dfdb8bbef17b6739d12215","infreq","img/orange_2bandit_a2.png","70","68","test","0","141","141","7","",""
"null","246989","pSARL_v2","pSARL_v2ldrgv3ey","60dfdb8bbef17b6739d12215","infreq_resp","img/orange_2bandit_a.png","70","68","test","","","","7","",""
"null","247156","pSARL_v2","pSARL_v2ldrgv3ey","60dfdb8bbef17b6739d12215","fixation","img/fixation.png","null","","test","","","","","",""
"421.2999999523163","247582","pSARL_v2","pSARL_v2ldrgv3ey","60dfdb8bbef17b6739d12215","freq","img/green_2bandit_a2.png","68","70","test","0","142","142","7","",""
"null","247965","pSARL_v2","pSARL_v2ldrgv3ey","60dfdb8bbef17b6739d12215","freq_resp","img/green_2bandit_a.png","68","70","test","","","","7","",""
"null","248130","pSARL_v2","pSARL_v2ldrgv3ey","60dfdb8bbef17b6739d12215","fixation","img/fixation.png","null","","test","","","","","",""
"297.5","248431","pSARL_v2","pSARL_v2ldrgv3ey","60dfdb8bbef17b6739d12215","freq","img/green_2bandit_a2.png","68","70","test","0","143","143","7","",""
"null","248949","pSARL_v2","pSARL_v2ldrgv3ey","60dfdb8bbef17b6739d12215","freq_resp","img/green_2bandit_a.png","68","70","test","","","","7","",""
"null","249128","pSARL_v2","pSARL_v2ldrgv3ey","60dfdb8bbef17b6739d12215","fixation","img/fixation.png","null","","test","","","","","",""
"373.8000000715256","249506","pSARL_v2","pSARL_v2ldrgv3ey","60dfdb8bbef17b6739d12215","freq","img/green_2bandit_a2.png","68","70","test","0","144","144","7","",""
"null","249944","pSARL_v2","pSARL_v2ldrgv3ey","60dfdb8bbef17b6739d12215","freq_resp","img/green_2bandit_a.png","68","70","test","","","","7","",""
"null","250107","pSARL_v2","pSARL_v2ldrgv3ey","60dfdb8bbef17b6739d12215","fixation","img/fixation.png","null","","test","","","","","",""
"428.5","250539","pSARL_v2","pSARL_v2ldrgv3ey","60dfdb8bbef17b6739d12215","freq","img/green_2bandit_a2.png","68","70","test","0","145","145","7","",""
"null","250915","pSARL_v2","pSARL_v2ldrgv3ey","60dfdb8bbef17b6739d12215","freq_resp","img/green_2bandit_a.png","68","70","test","","","","7","",""
"null","251071","pSARL_v2","pSARL_v2ldrgv3ey","60dfdb8bbef17b6739d12215","fixation","img/fixation.png","null","","test","","","","","",""
"312.7999999523163","251388","pSARL_v2","pSARL_v2ldrgv3ey","60dfdb8bbef17b6739d12215","freq","img/green_2bandit_a2.png","68","70","test","0","146","146","7","",""
"null","251888","pSARL_v2","pSARL_v2ldrgv3ey","60dfdb8bbef17b6739d12215","freq_resp","img/green_2bandit_a.png","68","70","test","","","","7","",""
"null","252057","pSARL_v2","pSARL_v2ldrgv3ey","60dfdb8bbef17b6739d12215","fixation","img/fixation.png","null","","test","","","","","",""
"307","252367","pSARL_v2","pSARL_v2ldrgv3ey","60dfdb8bbef17b6739d12215","freq","img/green_2bandit_a2.png","68","70","test","0","147","147","7","",""
"null","252869","pSARL_v2","pSARL_v2ldrgv3ey","60dfdb8bbef17b6739d12215","freq_resp","img/green_2bandit_a.png","68","70","test","","","","7","",""
"null","253024","pSARL_v2","pSARL_v2ldrgv3ey","60dfdb8bbef17b6739d12215","fixation","img/fixation.png","null","","test","","","","","",""
"277.1999999284744","253305","pSARL_v2","pSARL_v2ldrgv3ey","60dfdb8bbef17b6739d12215","freq","img/green_2bandit_a2.png","68","70","test","0","148","148","7","",""
"null","253839","pSARL_v2","pSARL_v2ldrgv3ey","60dfdb8bbef17b6739d12215","freq_resp","img/green_2bandit_a.png","68","70","test","","","","7","",""
"null","254005","pSARL_v2","pSARL_v2ldrgv3ey","60dfdb8bbef17b6739d12215","fixation","img/fixation.png","null","","test","","","","","",""
"329.2000000476837","254338","pSARL_v2","pSARL_v2ldrgv3ey","60dfdb8bbef17b6739d12215","freq","img/green_2bandit_a2.png","68","70","test","0","149","149","7","",""
"null","254812","pSARL_v2","pSARL_v2ldrgv3ey","60dfdb8bbef17b6739d12215","freq_resp","img/green_2bandit_a.png","68","70","test","","","","7","",""
"null","254968","pSARL_v2","pSARL_v2ldrgv3ey","60dfdb8bbef17b6739d12215","fixation","img/fixation.png","null","","test","","","","","",""
"374.89999997615814","255347","pSARL_v2","pSARL_v2ldrgv3ey","60dfdb8bbef17b6739d12215","infreq","img/orange_2bandit_a2.png","70","68","test","0","150","150","7","",""
"null","255789","pSARL_v2","pSARL_v2ldrgv3ey","60dfdb8bbef17b6739d12215","infreq_resp","img/orange_2bandit_a.png","70","68","test","","","","7","",""
"null","255944","pSARL_v2","pSARL_v2ldrgv3ey","60dfdb8bbef17b6739d12215","fixation","img/fixation.png","null","","test","","","","","",""
"372.7999999523163","256320","pSARL_v2","pSARL_v2ldrgv3ey","60dfdb8bbef17b6739d12215","freq","img/green_2bandit_a2.png","68","70","test","0","151","151","7","",""
"null","256756","pSARL_v2","pSARL_v2ldrgv3ey","60dfdb8bbef17b6739d12215","freq_resp","img/green_2bandit_a.png","68","70","test","","","","7","",""
"null","256921","pSARL_v2","pSARL_v2ldrgv3ey","60dfdb8bbef17b6739d12215","fixation","img/fixation.png","null","","test","","","","","",""
"350.10000002384186","257275","pSARL_v2","pSARL_v2ldrgv3ey","60dfdb8bbef17b6739d12215","freq","img/green_2bandit_a2.png","68","70","test","0","152","152","7","",""
"null","257740","pSARL_v2","pSARL_v2ldrgv3ey","60dfdb8bbef17b6739d12215","freq_resp","img/green_2bandit_a.png","68","70","test","","","","7","",""
"null","257905","pSARL_v2","pSARL_v2ldrgv3ey","60dfdb8bbef17b6739d12215","fixation","img/fixation.png","null","","test","","","","","",""
"333.5","258242","pSARL_v2","pSARL_v2ldrgv3ey","60dfdb8bbef17b6739d12215","freq","img/green_2bandit_a2.png","68","70","test","0","153","153","7","",""
"null","258725","pSARL_v2","pSARL_v2ldrgv3ey","60dfdb8bbef17b6739d12215","freq_resp","img/green_2bandit_a.png","68","70","test","","","","7","",""
"null","258883","pSARL_v2","pSARL_v2ldrgv3ey","60dfdb8bbef17b6739d12215","fixation","img/fixation.png","null","","test","","","","","",""
"342.10000002384186","259229","pSARL_v2","pSARL_v2ldrgv3ey","60dfdb8bbef17b6739d12215","freq","img/green_2bandit_a2.png","68","70","test","0","154","154","7","",""
"null","259701","pSARL_v2","pSARL_v2ldrgv3ey","60dfdb8bbef17b6739d12215","freq_resp","img/green_2bandit_a.png","68","70","test","","","","7","",""
"null","259865","pSARL_v2","pSARL_v2ldrgv3ey","60dfdb8bbef17b6739d12215","fixation","img/fixation.png","null","","test","","","","","",""
"275.90000009536743","260145","pSARL_v2","pSARL_v2ldrgv3ey","60dfdb8bbef17b6739d12215","freq","img/green_2bandit_a2.png","68","70","test","0","155","155","7","",""
"null","260687","pSARL_v2","pSARL_v2ldrgv3ey","60dfdb8bbef17b6739d12215","freq_resp","img/green_2bandit_a.png","68","70","test","","","","7","",""
"null","260845","pSARL_v2","pSARL_v2ldrgv3ey","60dfdb8bbef17b6739d12215","fixation","img/fixation.png","null","","test","","","","","",""
"263.3000000715256","261112","pSARL_v2","pSARL_v2ldrgv3ey","60dfdb8bbef17b6739d12215","freq","img/green_2bandit_a2.png","68","70","test","0","156","156","7","",""
"null","261663","pSARL_v2","pSARL_v2ldrgv3ey","60dfdb8bbef17b6739d12215","freq_resp","img/green_2bandit_a.png","68","70","test","","","","7","",""
"null","261821","pSARL_v2","pSARL_v2ldrgv3ey","60dfdb8bbef17b6739d12215","fixation","img/fixation.png","null","","test","","","","","",""
"261.2999999523163","262087","pSARL_v2","pSARL_v2ldrgv3ey","60dfdb8bbef17b6739d12215","freq","img/green_2bandit_a2.png","68","70","test","0","157","157","7","",""
"null","262631","pSARL_v2","pSARL_v2ldrgv3ey","60dfdb8bbef17b6739d12215","freq_resp","img/green_2bandit_a.png","68","70","test","","","","7","",""
"null","262800","pSARL_v2","pSARL_v2ldrgv3ey","60dfdb8bbef17b6739d12215","fixation","img/fixation.png","null","","test","","","","","",""
"249.39999997615814","263053","pSARL_v2","pSARL_v2ldrgv3ey","60dfdb8bbef17b6739d12215","freq","img/green_2bandit_a2.png","68","70","test","0","158","158","7","",""
"null","263610","pSARL_v2","pSARL_v2ldrgv3ey","60dfdb8bbef17b6739d12215","freq_resp","img/green_2bandit_a.png","68","70","test","","","","7","",""
"null","263777","pSARL_v2","pSARL_v2ldrgv3ey","60dfdb8bbef17b6739d12215","fixation","img/fixation.png","null","","test","","","","","",""
"235.5","264016","pSARL_v2","pSARL_v2ldrgv3ey","60dfdb8bbef17b6739d12215","freq","img/green_2bandit_a2.png","68","70","test","0","159","159","7","",""
"null","264595","pSARL_v2","pSARL_v2ldrgv3ey","60dfdb8bbef17b6739d12215","freq_resp","img/green_2bandit_a.png","68","70","test","","","","7","",""
"null","264759","pSARL_v2","pSARL_v2ldrgv3ey","60dfdb8bbef17b6739d12215","fixation","img/fixation.png","null","","test","","","","","",""
"277.39999997615814","265040","pSARL_v2","pSARL_v2ldrgv3ey","60dfdb8bbef17b6739d12215","freq","img/green_2bandit_a2.png","68","70","test","0","160","160","7","",""
"null","265573","pSARL_v2","pSARL_v2ldrgv3ey","60dfdb8bbef17b6739d12215","freq_resp","img/green_2bandit_a.png","68","70","test","","","","7","",""
"null","265739","pSARL_v2","pSARL_v2ldrgv3ey","60dfdb8bbef17b6739d12215","fixation","img/fixation.png","null","","test","","","","","",""
"387.89999997615814","266130","pSARL_v2","pSARL_v2ldrgv3ey","60dfdb8bbef17b6739d12215","freq","img/green_2bandit_a2.png","68","70","test","0","161","161","7","",""
"null","266549","pSARL_v2","pSARL_v2ldrgv3ey","60dfdb8bbef17b6739d12215","freq_resp","img/green_2bandit_a.png","68","70","test","","","","7","",""
"null","266716","pSARL_v2","pSARL_v2ldrgv3ey","60dfdb8bbef17b6739d12215","fixation","img/fixation.png","null","","test","","","","","",""
"287.7000000476837","267007","pSARL_v2","pSARL_v2ldrgv3ey","60dfdb8bbef17b6739d12215","freq","img/green_2bandit_a2.png","68","70","test","0","162","162","7","",""
"null","267531","pSARL_v2","pSARL_v2ldrgv3ey","60dfdb8bbef17b6739d12215","freq_resp","img/green_2bandit_a.png","68","70","test","","","","7","",""
"null","267697","pSARL_v2","pSARL_v2ldrgv3ey","60dfdb8bbef17b6739d12215","fixation","img/fixation.png","null","","test","","","","","",""
"245","267945","pSARL_v2","pSARL_v2ldrgv3ey","60dfdb8bbef17b6739d12215","freq","img/green_2bandit_a2.png","68","70","test","0","163","163","7","",""
"null","268511","pSARL_v2","pSARL_v2ldrgv3ey","60dfdb8bbef17b6739d12215","freq_resp","img/green_2bandit_a.png","68","70","test","","","","7","",""
"null","268678","pSARL_v2","pSARL_v2ldrgv3ey","60dfdb8bbef17b6739d12215","fixation","img/fixation.png","null","","test","","","","","",""
"512.5","269194","pSARL_v2","pSARL_v2ldrgv3ey","60dfdb8bbef17b6739d12215","reward","img/slot.png","74","","test","","","","","",""
"null","269948","pSARL_v2","pSARL_v2ldrgv3ey","60dfdb8bbef17b6739d12215","points","<div class=""verylowPoints""> -6 </div>","null","na","test","","","","7","-6","6"
"484.60000002384186","270436","pSARL_v2","pSARL_v2ldrgv3ey","60dfdb8bbef17b6739d12215","freq","img/green_2bandit_a2.png","68","70","test","0","164","164","8","",""
"null","270765","pSARL_v2","pSARL_v2ldrgv3ey","60dfdb8bbef17b6739d12215","freq_resp","img/green_2bandit_a.png","68","70","test","","","","8","",""
"null","270931","pSARL_v2","pSARL_v2ldrgv3ey","60dfdb8bbef17b6739d12215","fixation","img/fixation.png","null","","test","","","","","",""
"306.90000009536743","271241","pSARL_v2","pSARL_v2ldrgv3ey","60dfdb8bbef17b6739d12215","freq","img/green_2bandit_a2.png","68","70","test","0","165","165","8","",""
"null","271746","pSARL_v2","pSARL_v2ldrgv3ey","60dfdb8bbef17b6739d12215","freq_resp","img/green_2bandit_a.png","68","70","test","","","","8","",""
"null","271908","pSARL_v2","pSARL_v2ldrgv3ey","60dfdb8bbef17b6739d12215","fixation","img/fixation.png","null","","test","","","","","",""
"392.6999999284744","272304","pSARL_v2","pSARL_v2ldrgv3ey","60dfdb8bbef17b6739d12215","freq","img/green_2bandit_a2.png","68","70","test","0","166","166","8","",""
"null","272726","pSARL_v2","pSARL_v2ldrgv3ey","60dfdb8bbef17b6739d12215","freq_resp","img/green_2bandit_a.png","68","70","test","","","","8","",""
"null","272892","pSARL_v2","pSARL_v2ldrgv3ey","60dfdb8bbef17b6739d12215","fixation","img/fixation.png","null","","test","","","","","",""
"256.2999999523163","273152","pSARL_v2","pSARL_v2ldrgv3ey","60dfdb8bbef17b6739d12215","freq","img/green_2bandit_a2.png","68","70","test","0","167","167","8","",""
"null","273704","pSARL_v2","pSARL_v2ldrgv3ey","60dfdb8bbef17b6739d12215","freq_resp","img/green_2bandit_a.png","68","70","test","","","","8","",""
"null","273868","pSARL_v2","pSARL_v2ldrgv3ey","60dfdb8bbef17b6739d12215","fixation","img/fixation.png","null","","test","","","","","",""
"254.10000002384186","274126","pSARL_v2","pSARL_v2ldrgv3ey","60dfdb8bbef17b6739d12215","freq","img/green_2bandit_a2.png","68","70","test","0","168","168","8","",""
"null","274678","pSARL_v2","pSARL_v2ldrgv3ey","60dfdb8bbef17b6739d12215","freq_resp","img/green_2bandit_a.png","68","70","test","","","","8","",""
"null","274846","pSARL_v2","pSARL_v2ldrgv3ey","60dfdb8bbef17b6739d12215","fixation","img/fixation.png","null","","test","","","","","",""
"219.39999997615814","275070","pSARL_v2","pSARL_v2ldrgv3ey","60dfdb8bbef17b6739d12215","freq","img/green_2bandit_a2.png","68","70","test","0","169","169","8","",""
"null","275658","pSARL_v2","pSARL_v2ldrgv3ey","60dfdb8bbef17b6739d12215","freq_resp","img/green_2bandit_a.png","68","70","test","","","","8","",""
"null","275825","pSARL_v2","pSARL_v2ldrgv3ey","60dfdb8bbef17b6739d12215","fixation","img/fixation.png","null","","test","","","","","",""
"244.70000004768372","276074","pSARL_v2","pSARL_v2ldrgv3ey","60dfdb8bbef17b6739d12215","freq","img/green_2bandit_a2.png","68","70","test","0","170","170","8","",""
"null","276635","pSARL_v2","pSARL_v2ldrgv3ey","60dfdb8bbef17b6739d12215","freq_resp","img/green_2bandit_a.png","68","70","test","","","","8","",""
"null","276790","pSARL_v2","pSARL_v2ldrgv3ey","60dfdb8bbef17b6739d12215","fixation","img/fixation.png","null","","test","","","","","",""
"244","277038","pSARL_v2","pSARL_v2ldrgv3ey","60dfdb8bbef17b6739d12215","freq","img/green_2bandit_a2.png","68","70","test","0","171","171","8","",""
"null","277611","pSARL_v2","pSARL_v2ldrgv3ey","60dfdb8bbef17b6739d12215","freq_resp","img/green_2bandit_a.png","68","70","test","","","","8","",""
"null","277767","pSARL_v2","pSARL_v2ldrgv3ey","60dfdb8bbef17b6739d12215","fixation","img/fixation.png","null","","test","","","","","",""
"252.5","278023","pSARL_v2","pSARL_v2ldrgv3ey","60dfdb8bbef17b6739d12215","freq","img/green_2bandit_a2.png","68","70","test","0","172","172","8","",""
"null","278583","pSARL_v2","pSARL_v2ldrgv3ey","60dfdb8bbef17b6739d12215","freq_resp","img/green_2bandit_a.png","68","70","test","","","","8","",""
"null","278751","pSARL_v2","pSARL_v2ldrgv3ey","60dfdb8bbef17b6739d12215","fixation","img/fixation.png","null","","test","","","","","",""
"92.79999995231628","278848","pSARL_v2","pSARL_v2ldrgv3ey","60dfdb8bbef17b6739d12215","freq","img/green_2bandit_a2.png","68","70","test","0","173","173","8","",""
"null","279574","pSARL_v2","pSARL_v2ldrgv3ey","60dfdb8bbef17b6739d12215","freq_resp","img/green_2bandit_a.png","68","70","test","","","","8","",""
"null","279730","pSARL_v2","pSARL_v2ldrgv3ey","60dfdb8bbef17b6739d12215","fixation","img/fixation.png","null","","test","","","","","",""
"113.10000002384186","279847","pSARL_v2","pSARL_v2ldrgv3ey","60dfdb8bbef17b6739d12215","infreq","img/orange_2bandit_a2.png","68","68","test","1","174","174","8","",""
"null","280541","pSARL_v2","pSARL_v2ldrgv3ey","60dfdb8bbef17b6739d12215","infreq_resp","img/orange_2bandit_a.png","68","68","test","","","","8","",""
"null","280696","pSARL_v2","pSARL_v2ldrgv3ey","60dfdb8bbef17b6739d12215","fixation","img/fixation.png","null","","test","","","","","",""
"329.7000000476837","281029","pSARL_v2","pSARL_v2ldrgv3ey","60dfdb8bbef17b6739d12215","freq","img/green_2bandit_a2.png","68","70","test","0","175","175","8","",""
"null","281514","pSARL_v2","pSARL_v2ldrgv3ey","60dfdb8bbef17b6739d12215","freq_resp","img/green_2bandit_a.png","68","70","test","","","","8","",""
"null","281670","pSARL_v2","pSARL_v2ldrgv3ey","60dfdb8bbef17b6739d12215","fixation","img/fixation.png","null","","test","","","","","",""
"278.7000000476837","281952","pSARL_v2","pSARL_v2ldrgv3ey","60dfdb8bbef17b6739d12215","freq","img/green_2bandit_a2.png","68","70","test","0","176","176","8","",""
"null","282489","pSARL_v2","pSARL_v2ldrgv3ey","60dfdb8bbef17b6739d12215","freq_resp","img/green_2bandit_a.png","68","70","test","","","","8","",""
"null","282647","pSARL_v2","pSARL_v2ldrgv3ey","60dfdb8bbef17b6739d12215","fixation","img/fixation.png","null","","test","","","","","",""
"295","282946","pSARL_v2","pSARL_v2ldrgv3ey","60dfdb8bbef17b6739d12215","freq","img/green_2bandit_a2.png","68","70","test","0","177","177","8","",""
"null","283465","pSARL_v2","pSARL_v2ldrgv3ey","60dfdb8bbef17b6739d12215","freq_resp","img/green_2bandit_a.png","68","70","test","","","","8","",""
"null","283628","pSARL_v2","pSARL_v2ldrgv3ey","60dfdb8bbef17b6739d12215","fixation","img/fixation.png","null","","test","","","","","",""
"243.09999990463257","283874","pSARL_v2","pSARL_v2ldrgv3ey","60dfdb8bbef17b6739d12215","freq","img/green_2bandit_a2.png","68","70","test","0","178","178","8","",""
"null","284447","pSARL_v2","pSARL_v2ldrgv3ey","60dfdb8bbef17b6739d12215","freq_resp","img/green_2bandit_a.png","68","70","test","","","","8","",""
"null","284611","pSARL_v2","pSARL_v2ldrgv3ey","60dfdb8bbef17b6739d12215","fixation","img/fixation.png","null","","test","","","","","",""
"252.70000004768372","284867","pSARL_v2","pSARL_v2ldrgv3ey","60dfdb8bbef17b6739d12215","freq","img/green_2bandit_a2.png","68","70","test","0","179","179","8","",""
"null","285422","pSARL_v2","pSARL_v2ldrgv3ey","60dfdb8bbef17b6739d12215","freq_resp","img/green_2bandit_a.png","68","70","test","","","","8","",""
"null","285586","pSARL_v2","pSARL_v2ldrgv3ey","60dfdb8bbef17b6739d12215","fixation","img/fixation.png","null","","test","","","","","",""
"276.39999997615814","285866","pSARL_v2","pSARL_v2ldrgv3ey","60dfdb8bbef17b6739d12215","freq","img/green_2bandit_a2.png","68","70","test","0","180","180","8","",""
"null","286398","pSARL_v2","pSARL_v2ldrgv3ey","60dfdb8bbef17b6739d12215","freq_resp","img/green_2bandit_a.png","68","70","test","","","","8","",""
"null","286561","pSARL_v2","pSARL_v2ldrgv3ey","60dfdb8bbef17b6739d12215","fixation","img/fixation.png","null","","test","","","","","",""
"241.40000009536743","286806","pSARL_v2","pSARL_v2ldrgv3ey","60dfdb8bbef17b6739d12215","freq","img/green_2bandit_a2.png","68","70","test","0","181","181","8","",""
"null","287377","pSARL_v2","pSARL_v2ldrgv3ey","60dfdb8bbef17b6739d12215","freq_resp","img/green_2bandit_a.png","68","70","test","","","","8","",""
"null","287542","pSARL_v2","pSARL_v2ldrgv3ey","60dfdb8bbef17b6739d12215","fixation","img/fixation.png","null","","test","","","","","",""
"228.5","287774","pSARL_v2","pSARL_v2ldrgv3ey","60dfdb8bbef17b6739d12215","freq","img/green_2bandit_a2.png","68","70","test","0","182","182","8","",""
"null","288354","pSARL_v2","pSARL_v2ldrgv3ey","60dfdb8bbef17b6739d12215","freq_resp","img/green_2bandit_a.png","68","70","test","","","","8","",""
"null","288510","pSARL_v2","pSARL_v2ldrgv3ey","60dfdb8bbef17b6739d12215","fixation","img/fixation.png","null","","test","","","","","",""
"233.70000004768372","288748","pSARL_v2","pSARL_v2ldrgv3ey","60dfdb8bbef17b6739d12215","freq","img/green_2bandit_a2.png","68","70","test","0","183","183","8","",""
"null","289324","pSARL_v2","pSARL_v2ldrgv3ey","60dfdb8bbef17b6739d12215","freq_resp","img/green_2bandit_a.png","68","70","test","","","","8","",""
"null","289490","pSARL_v2","pSARL_v2ldrgv3ey","60dfdb8bbef17b6739d12215","fixation","img/fixation.png","null","","test","","","","","",""
"260.6999999284744","289755","pSARL_v2","pSARL_v2ldrgv3ey","60dfdb8bbef17b6739d12215","freq","img/green_2bandit_a2.png","68","70","test","0","184","184","8","",""
"null","290307","pSARL_v2","pSARL_v2ldrgv3ey","60dfdb8bbef17b6739d12215","freq_resp","img/green_2bandit_a.png","68","70","test","","","","8","",""
"null","290462","pSARL_v2","pSARL_v2ldrgv3ey","60dfdb8bbef17b6739d12215","fixation","img/fixation.png","null","","test","","","","","",""
"357.89999997615814","290824","pSARL_v2","pSARL_v2ldrgv3ey","60dfdb8bbef17b6739d12215","freq","img/green_2bandit_a2.png","68","70","test","0","185","185","8","",""
"null","291276","pSARL_v2","pSARL_v2ldrgv3ey","60dfdb8bbef17b6739d12215","freq_resp","img/green_2bandit_a.png","68","70","test","","","","8","",""
"null","291442","pSARL_v2","pSARL_v2ldrgv3ey","60dfdb8bbef17b6739d12215","fixation","img/fixation.png","null","","test","","","","","",""
"426.89999997615814","291872","pSARL_v2","pSARL_v2ldrgv3ey","60dfdb8bbef17b6739d12215","infreq","img/orange_2bandit_a2.png","70","68","test","0","186","186","8","",""
"null","292259","pSARL_v2","pSARL_v2ldrgv3ey","60dfdb8bbef17b6739d12215","infreq_resp","img/orange_2bandit_a.png","70","68","test","","","","8","",""
"null","292416","pSARL_v2","pSARL_v2ldrgv3ey","60dfdb8bbef17b6739d12215","fixation","img/fixation.png","null","","test","","","","","",""
"371.5","292791","pSARL_v2","pSARL_v2ldrgv3ey","60dfdb8bbef17b6739d12215","freq","img/green_2bandit_a2.png","68","70","test","0","187","187","8","",""
"null","293227","pSARL_v2","pSARL_v2ldrgv3ey","60dfdb8bbef17b6739d12215","freq_resp","img/green_2bandit_a.png","68","70","test","","","","8","",""
"null","293382","pSARL_v2","pSARL_v2ldrgv3ey","60dfdb8bbef17b6739d12215","fixation","img/fixation.png","null","","test","","","","","",""
"439.5","293825","pSARL_v2","pSARL_v2ldrgv3ey","60dfdb8bbef17b6739d12215","freq","img/green_2bandit_a2.png","68","70","test","0","188","188","8","",""
"null","294202","pSARL_v2","pSARL_v2ldrgv3ey","60dfdb8bbef17b6739d12215","freq_resp","img/green_2bandit_a.png","68","70","test","","","","8","",""
"null","294366","pSARL_v2","pSARL_v2ldrgv3ey","60dfdb8bbef17b6739d12215","fixation","img/fixation.png","null","","test","","","","","",""
"288.7999999523163","294659","pSARL_v2","pSARL_v2ldrgv3ey","60dfdb8bbef17b6739d12215","freq","img/green_2bandit_a2.png","68","70","test","0","189","189","8","",""
"null","295182","pSARL_v2","pSARL_v2ldrgv3ey","60dfdb8bbef17b6739d12215","freq_resp","img/green_2bandit_a.png","68","70","test","","","","8","",""
"null","295351","pSARL_v2","pSARL_v2ldrgv3ey","60dfdb8bbef17b6739d12215","fixation","img/fixation.png","null","","test","","","","","",""
"461.90000009536743","295816","pSARL_v2","pSARL_v2ldrgv3ey","60dfdb8bbef17b6739d12215","reward","img/slot.png","74","","test","","","","","",""
"null","296579","pSARL_v2","pSARL_v2ldrgv3ey","60dfdb8bbef17b6739d12215","points","<div class=""verylowPoints""> -4 </div>","null","na","test","","","","8","-4","7"
"472.5","297055","pSARL_v2","pSARL_v2ldrgv3ey","60dfdb8bbef17b6739d12215","freq","img/green_2bandit_a2.png","68","70","test","0","190","190","9","",""
"null","297393","pSARL_v2","pSARL_v2ldrgv3ey","60dfdb8bbef17b6739d12215","freq_resp","img/green_2bandit_a.png","68","70","test","","","","9","",""
"null","297555","pSARL_v2","pSARL_v2ldrgv3ey","60dfdb8bbef17b6739d12215","fixation","img/fixation.png","null","","test","","","","","",""
"264.2000000476837","297823","pSARL_v2","pSARL_v2ldrgv3ey","60dfdb8bbef17b6739d12215","freq","img/green_2bandit_a2.png","68","70","test","0","191","191","9","",""
"null","298377","pSARL_v2","pSARL_v2ldrgv3ey","60dfdb8bbef17b6739d12215","freq_resp","img/green_2bandit_a.png","68","70","test","","","","9","",""
"null","298535","pSARL_v2","pSARL_v2ldrgv3ey","60dfdb8bbef17b6739d12215","fixation","img/fixation.png","null","","test","","","","","",""
"255.10000002384186","298793","pSARL_v2","pSARL_v2ldrgv3ey","60dfdb8bbef17b6739d12215","freq","img/green_2bandit_a2.png","68","70","test","0","192","192","9","",""
"null","299350","pSARL_v2","pSARL_v2ldrgv3ey","60dfdb8bbef17b6739d12215","freq_resp","img/green_2bandit_a.png","68","70","test","","","","9","",""
"null","299509","pSARL_v2","pSARL_v2ldrgv3ey","60dfdb8bbef17b6739d12215","fixation","img/fixation.png","null","","test","","","","","",""
"252.89999997615814","299766","pSARL_v2","pSARL_v2ldrgv3ey","60dfdb8bbef17b6739d12215","freq","img/green_2bandit_a2.png","68","70","test","0","193","193","9","",""
"null","300320","pSARL_v2","pSARL_v2ldrgv3ey","60dfdb8bbef17b6739d12215","freq_resp","img/green_2bandit_a.png","68","70","test","","","","9","",""
"null","300486","pSARL_v2","pSARL_v2ldrgv3ey","60dfdb8bbef17b6739d12215","fixation","img/fixation.png","null","","test","","","","","",""
"190.29999995231628","300679","pSARL_v2","pSARL_v2ldrgv3ey","60dfdb8bbef17b6739d12215","freq","img/green_2bandit_a2.png","68","70","test","0","194","194","9","",""
"null","301301","pSARL_v2","pSARL_v2ldrgv3ey","60dfdb8bbef17b6739d12215","freq_resp","img/green_2bandit_a.png","68","70","test","","","","9","",""
"null","301467","pSARL_v2","pSARL_v2ldrgv3ey","60dfdb8bbef17b6739d12215","fixation","img/fixation.png","null","","test","","","","","",""
"137.70000004768372","301608","pSARL_v2","pSARL_v2ldrgv3ey","60dfdb8bbef17b6739d12215","freq","img/green_2bandit_a2.png","68","70","test","0","195","195","9","",""
"null","302276","pSARL_v2","pSARL_v2ldrgv3ey","60dfdb8bbef17b6739d12215","freq_resp","img/green_2bandit_a.png","68","70","test","","","","9","",""
"null","302433","pSARL_v2","pSARL_v2ldrgv3ey","60dfdb8bbef17b6739d12215","fixation","img/fixation.png","null","","test","","","","","",""
"214.79999995231628","302651","pSARL_v2","pSARL_v2ldrgv3ey","60dfdb8bbef17b6739d12215","freq","img/green_2bandit_a2.png","68","70","test","0","196","196","9","",""
"null","303248","pSARL_v2","pSARL_v2ldrgv3ey","60dfdb8bbef17b6739d12215","freq_resp","img/green_2bandit_a.png","68","70","test","","","","9","",""
"null","303408","pSARL_v2","pSARL_v2ldrgv3ey","60dfdb8bbef17b6739d12215","fixation","img/fixation.png","null","","test","","","","","",""
"228.89999997615814","303640","pSARL_v2","pSARL_v2ldrgv3ey","60dfdb8bbef17b6739d12215","freq","img/green_2bandit_a2.png","68","70","test","0","197","197","9","",""
"null","304230","pSARL_v2","pSARL_v2ldrgv3ey","60dfdb8bbef17b6739d12215","freq_resp","img/green_2bandit_a.png","68","70","test","","","","9","",""
"null","304395","pSARL_v2","pSARL_v2ldrgv3ey","60dfdb8bbef17b6739d12215","fixation","img/fixation.png","null","","test","","","","","",""
"333.89999997615814","304732","pSARL_v2","pSARL_v2ldrgv3ey","60dfdb8bbef17b6739d12215","freq","img/green_2bandit_a2.png","68","70","test","0","198","198","9","",""
"null","305214","pSARL_v2","pSARL_v2ldrgv3ey","60dfdb8bbef17b6739d12215","freq_resp","img/green_2bandit_a.png","68","70","test","","","","9","",""
"null","305381","pSARL_v2","pSARL_v2ldrgv3ey","60dfdb8bbef17b6739d12215","fixation","img/fixation.png","null","","test","","","","","",""
"297.89999997615814","305683","pSARL_v2","pSARL_v2ldrgv3ey","60dfdb8bbef17b6739d12215","freq","img/green_2bandit_a2.png","68","70","test","0","199","199","9","",""
"null","306200","pSARL_v2","pSARL_v2ldrgv3ey","60dfdb8bbef17b6739d12215","freq_resp","img/green_2bandit_a.png","68","70","test","","","","9","",""
"null","306364","pSARL_v2","pSARL_v2ldrgv3ey","60dfdb8bbef17b6739d12215","fixation","img/fixation.png","null","","test","","","","","",""
"312.5","306681","pSARL_v2","pSARL_v2ldrgv3ey","60dfdb8bbef17b6739d12215","freq","img/green_2bandit_a2.png","68","70","test","0","200","200","9","",""
"null","307178","pSARL_v2","pSARL_v2ldrgv3ey","60dfdb8bbef17b6739d12215","freq_resp","img/green_2bandit_a.png","68","70","test","","","","9","",""
"null","307345","pSARL_v2","pSARL_v2ldrgv3ey","60dfdb8bbef17b6739d12215","fixation","img/fixation.png","null","","test","","","","","",""
"443.40000009536743","307791","pSARL_v2","pSARL_v2ldrgv3ey","60dfdb8bbef17b6739d12215","infreq","img/orange_2bandit_a2.png","70","68","test","0","201","201","9","",""
"null","308162","pSARL_v2","pSARL_v2ldrgv3ey","60dfdb8bbef17b6739d12215","infreq_resp","img/orange_2bandit_a.png","70","68","test","","","","9","",""
"null","308321","pSARL_v2","pSARL_v2ldrgv3ey","60dfdb8bbef17b6739d12215","fixation","img/fixation.png","null","","test","","","","","",""
"364.60000002384186","308689","pSARL_v2","pSARL_v2ldrgv3ey","60dfdb8bbef17b6739d12215","freq","img/green_2bandit_a2.png","68","70","test","0","202","202","9","",""
"null","309136","pSARL_v2","pSARL_v2ldrgv3ey","60dfdb8bbef17b6739d12215","freq_resp","img/green_2bandit_a.png","68","70","test","","","","9","",""
"null","309294","pSARL_v2","pSARL_v2ldrgv3ey","60dfdb8bbef17b6739d12215","fixation","img/fixation.png","null","","test","","","","","",""
"260.59999990463257","309559","pSARL_v2","pSARL_v2ldrgv3ey","60dfdb8bbef17b6739d12215","freq","img/green_2bandit_a2.png","68","70","test","0","203","203","9","",""
"null","310104","pSARL_v2","pSARL_v2ldrgv3ey","60dfdb8bbef17b6739d12215","freq_resp","img/green_2bandit_a.png","68","70","test","","","","9","",""
"null","310270","pSARL_v2","pSARL_v2ldrgv3ey","60dfdb8bbef17b6739d12215","fixation","img/fixation.png","null","","test","","","","","",""
"218.80000007152557","310494","pSARL_v2","pSARL_v2ldrgv3ey","60dfdb8bbef17b6739d12215","freq","img/green_2bandit_a2.png","68","70","test","0","204","204","9","",""
"null","311091","pSARL_v2","pSARL_v2ldrgv3ey","60dfdb8bbef17b6739d12215","freq_resp","img/green_2bandit_a.png","68","70","test","","","","9","",""
"null","311258","pSARL_v2","pSARL_v2ldrgv3ey","60dfdb8bbef17b6739d12215","fixation","img/fixation.png","null","","test","","","","","",""
"105.80000007152557","311367","pSARL_v2","pSARL_v2ldrgv3ey","60dfdb8bbef17b6739d12215","infreq","img/orange_2bandit_a2.png","68","68","test","1","205","205","9","",""
"null","312076","pSARL_v2","pSARL_v2ldrgv3ey","60dfdb8bbef17b6739d12215","infreq_resp","img/orange_2bandit_a.png","68","68","test","","","","9","",""
"null","312245","pSARL_v2","pSARL_v2ldrgv3ey","60dfdb8bbef17b6739d12215","fixation","img/fixation.png","null","","test","","","","","",""
"null","313055","pSARL_v2","pSARL_v2ldrgv3ey","60dfdb8bbef17b6739d12215","freq","img/green_2bandit_a2.png","null","70","test","0","206","206","9","",""
"null","313209","pSARL_v2","pSARL_v2ldrgv3ey","60dfdb8bbef17b6739d12215","fixation","img/fixation.png","null","","test","","","","","",""
"736.3000000715256","313950","pSARL_v2","pSARL_v2ldrgv3ey","60dfdb8bbef17b6739d12215","freq","img/green_2bandit_a2.png","68","70","test","0","207","207","9","",""
"null","314033","pSARL_v2","pSARL_v2ldrgv3ey","60dfdb8bbef17b6739d12215","freq_resp","img/green_2bandit_a.png","68","70","test","","","","9","",""
