"rt","time_elapsed","expId","subject","prolificID","trialType","stimulus","key_press","corrresp","phase","corr","trialNum","attentionRunNum","blockNum","points","rlNum"
"1502109.0999999046","1502112","pSARL_v2","pSARL_v2uqp7bv5h","62952c60095ebfbdca7ec2ac","","","","","","","","","","",""
"","1504657","pSARL_v2","pSARL_v2uqp7bv5h","62952c60095ebfbdca7ec2ac","fullscreen","","","","","","","","","",""
"261654.59999990463","1766315","pSARL_v2","pSARL_v2uqp7bv5h","62952c60095ebfbdca7ec2ac","","","","","","","","","","",""
"null","1767120","pSARL_v2","pSARL_v2uqp7bv5h","62952c60095ebfbdca7ec2ac","freqPrac","img/orange_2bandit_b2.png","null","70","prac","0","","","","",""
"null","1768132","pSARL_v2","pSARL_v2uqp7bv5h","62952c60095ebfbdca7ec2ac","feedback","img/tooSlow.png","null","na","prac","","","","","",""
"null","1768286","pSARL_v2","pSARL_v2uqp7bv5h","62952c60095ebfbdca7ec2ac","fixation","img/fixation.png","null","","prac","","","","","",""
"null","1769095","pSARL_v2","pSARL_v2uqp7bv5h","62952c60095ebfbdca7ec2ac","infreqPrac","img/green_2bandit_b2.png","null","68","prac","0","","","","",""
"null","1770109","pSARL_v2","pSARL_v2uqp7bv5h","62952c60095ebfbdca7ec2ac","feedback","img/tooSlow.png","null","na","prac","","","","","",""
"null","1770265","pSARL_v2","pSARL_v2uqp7bv5h","62952c60095ebfbdca7ec2ac","fixation","img/fixation.png","null","","prac","","","","","",""
"467.7999999523163","1770736","pSARL_v2","pSARL_v2uqp7bv5h","62952c60095ebfbdca7ec2ac","freqPrac","img/orange_2bandit_b2.png","70","70","prac","1","","","","",""
"467.7999999523163","1771071","pSARL_v2","pSARL_v2uqp7bv5h","62952c60095ebfbdca7ec2ac","freqPrac_resp","img/orange_2bandit_b.png","70","70","prac","","","","","",""
"null","1771228","pSARL_v2","pSARL_v2uqp7bv5h","62952c60095ebfbdca7ec2ac","fixation","img/fixation.png","null","","prac","","","","","",""
"497.40000009536743","1771728","pSARL_v2","pSARL_v2uqp7bv5h","62952c60095ebfbdca7ec2ac","infreqPrac","img/green_2bandit_b2.png","68","68","prac","1","","","","",""
"497.40000009536743","1772034","pSARL_v2","pSARL_v2uqp7bv5h","62952c60095ebfbdca7ec2ac","infreqPrac_resp","img/green_2bandit_b.png","68","68","prac","","","","","",""
"null","1772190","pSARL_v2","pSARL_v2uqp7bv5h","62952c60095ebfbdca7ec2ac","fixation","img/fixation.png","null","","prac","","","","","",""
"295.10000014305115","1772488","pSARL_v2","pSARL_v2uqp7bv5h","62952c60095ebfbdca7ec2ac","infreqPrac","img/green_2bandit_b2.png","68","68","prac","1","","","","",""
"295.10000014305115","1773000","pSARL_v2","pSARL_v2uqp7bv5h","62952c60095ebfbdca7ec2ac","infreqPrac_resp","img/green_2bandit_b.png","68","68","prac","","","","","",""
"null","1773157","pSARL_v2","pSARL_v2uqp7bv5h","62952c60095ebfbdca7ec2ac","fixation","img/fixation.png","null","","prac","","","","","",""
"425.09999990463257","1773584","pSARL_v2","pSARL_v2uqp7bv5h","62952c60095ebfbdca7ec2ac","infreqPrac","img/green_2bandit_b2.png","68","68","prac","1","","","","",""
"425.09999990463257","1773967","pSARL_v2","pSARL_v2uqp7bv5h","62952c60095ebfbdca7ec2ac","infreqPrac_resp","img/green_2bandit_b.png","68","68","prac","","","","","",""
"null","1774122","pSARL_v2","pSARL_v2uqp7bv5h","62952c60095ebfbdca7ec2ac","fixation","img/fixation.png","null","","prac","","","","","",""
"571.2000000476837","1774696","pSARL_v2","pSARL_v2uqp7bv5h","62952c60095ebfbdca7ec2ac","freqPrac","img/orange_2bandit_b2.png","68","70","prac","0","","","","",""
"571.2000000476837","1774930","pSARL_v2","pSARL_v2uqp7bv5h","62952c60095ebfbdca7ec2ac","freqPrac_resp","img/orange_2bandit_b.png","68","70","prac","","","","","",""
"null","1775943","pSARL_v2","pSARL_v2uqp7bv5h","62952c60095ebfbdca7ec2ac","feedback","img/wrongKey.png","null","na","prac","","","","","",""
"null","1776112","pSARL_v2","pSARL_v2uqp7bv5h","62952c60095ebfbdca7ec2ac","fixation","img/fixation.png","null","","prac","","","","","",""
"622.5","1776736","pSARL_v2","pSARL_v2uqp7bv5h","62952c60095ebfbdca7ec2ac","infreqPrac","img/green_2bandit_b2.png","68","68","prac","1","","","","",""
"622.5","1776930","pSARL_v2","pSARL_v2uqp7bv5h","62952c60095ebfbdca7ec2ac","infreqPrac_resp","img/green_2bandit_b.png","68","68","prac","","","","","",""
"null","1777086","pSARL_v2","pSARL_v2uqp7bv5h","62952c60095ebfbdca7ec2ac","fixation","img/fixation.png","null","","prac","","","","","",""
"480","1777568","pSARL_v2","pSARL_v2uqp7bv5h","62952c60095ebfbdca7ec2ac","freqPrac","img/orange_2bandit_b2.png","70","70","prac","1","","","","",""
"480","1777892","pSARL_v2","pSARL_v2uqp7bv5h","62952c60095ebfbdca7ec2ac","freqPrac_resp","img/orange_2bandit_b.png","70","70","prac","","","","","",""
"null","1778049","pSARL_v2","pSARL_v2uqp7bv5h","62952c60095ebfbdca7ec2ac","fixation","img/fixation.png","null","","prac","","","","","",""
"444.7999999523163","1778496","pSARL_v2","pSARL_v2uqp7bv5h","62952c60095ebfbdca7ec2ac","freqPrac","img/orange_2bandit_b2.png","70","70","prac","1","","","","",""
"444.7999999523163","1778868","pSARL_v2","pSARL_v2uqp7bv5h","62952c60095ebfbdca7ec2ac","freqPrac_resp","img/orange_2bandit_b.png","70","70","prac","","","","","",""
"null","1779024","pSARL_v2","pSARL_v2uqp7bv5h","62952c60095ebfbdca7ec2ac","fixation","img/fixation.png","null","","prac","","","","","",""
"59189.800000190735","1838216","pSARL_v2","pSARL_v2uqp7bv5h","62952c60095ebfbdca7ec2ac","","","","","prac","","","","","",""
"1118.2000000476837","1839336","pSARL_v2","pSARL_v2uqp7bv5h","62952c60095ebfbdca7ec2ac","rewardPractice","img/slot.png","74","","prac","","","","","",""
"null","1840104","pSARL_v2","pSARL_v2uqp7bv5h","62952c60095ebfbdca7ec2ac","feedback","<div class=""veryhighPoints""> +15 </div>","null","na","prac","","","","","",""
"null","1840261","pSARL_v2","pSARL_v2uqp7bv5h","62952c60095ebfbdca7ec2ac","fixation","img/fixation.png","null","","prac","","","","","",""
"111473.39999985695","1951737","pSARL_v2","pSARL_v2uqp7bv5h","62952c60095ebfbdca7ec2ac","","","","","prac","","","","","",""
"null","1952546","pSARL_v2","pSARL_v2uqp7bv5h","62952c60095ebfbdca7ec2ac","freq","img/orange_2bandit_b2.png","null","70","test","0","1","1","1","",""
"null","1952699","pSARL_v2","pSARL_v2uqp7bv5h","62952c60095ebfbdca7ec2ac","fixation","img/fixation.png","null","","test","","","","","",""
"602.0999999046326","1953304","pSARL_v2","pSARL_v2uqp7bv5h","62952c60095ebfbdca7ec2ac","freq","img/orange_2bandit_b2.png","68","70","test","0","2","2","1","",""
"null","1953509","pSARL_v2","pSARL_v2uqp7bv5h","62952c60095ebfbdca7ec2ac","freq_resp","img/orange_2bandit_b.png","68","70","test","","","","1","",""
"null","1953665","pSARL_v2","pSARL_v2uqp7bv5h","62952c60095ebfbdca7ec2ac","fixation","img/fixation.png","null","","test","","","","","",""
"572.0999999046326","1954239","pSARL_v2","pSARL_v2uqp7bv5h","62952c60095ebfbdca7ec2ac","freq","img/orange_2bandit_b2.png","68","70","test","0","3","3","1","",""
"null","1954470","pSARL_v2","pSARL_v2uqp7bv5h","62952c60095ebfbdca7ec2ac","freq_resp","img/orange_2bandit_b.png","68","70","test","","","","1","",""
"null","1954626","pSARL_v2","pSARL_v2uqp7bv5h","62952c60095ebfbdca7ec2ac","fixation","img/fixation.png","null","","test","","","","","",""
"747.5","1955376","pSARL_v2","pSARL_v2uqp7bv5h","62952c60095ebfbdca7ec2ac","freq","img/orange_2bandit_b2.png","68","70","test","0","4","4","1","",""
"null","1955437","pSARL_v2","pSARL_v2uqp7bv5h","62952c60095ebfbdca7ec2ac","freq_resp","img/orange_2bandit_b.png","68","70","test","","","","1","",""
"null","1955592","pSARL_v2","pSARL_v2uqp7bv5h","62952c60095ebfbdca7ec2ac","fixation","img/fixation.png","null","","test","","","","","",""
"null","1956410","pSARL_v2","pSARL_v2uqp7bv5h","62952c60095ebfbdca7ec2ac","freq","img/orange_2bandit_b2.png","null","70","test","0","5","5","1","",""
"null","1956567","pSARL_v2","pSARL_v2uqp7bv5h","62952c60095ebfbdca7ec2ac","fixation","img/fixation.png","null","","test","","","","","",""
"14.400000095367432","1956584","pSARL_v2","pSARL_v2uqp7bv5h","62952c60095ebfbdca7ec2ac","infreq","img/green_2bandit_b2.png","70","68","test","0","6","6","1","",""
"null","1957377","pSARL_v2","pSARL_v2uqp7bv5h","62952c60095ebfbdca7ec2ac","infreq_resp","img/green_2bandit_b.png","70","68","test","","","","1","",""
"null","1957532","pSARL_v2","pSARL_v2uqp7bv5h","62952c60095ebfbdca7ec2ac","fixation","img/fixation.png","null","","test","","","","","",""
"null","1958350","pSARL_v2","pSARL_v2uqp7bv5h","62952c60095ebfbdca7ec2ac","infreq","img/green_2bandit_b2.png","null","68","test","0","7","7","1","",""
"null","1958504","pSARL_v2","pSARL_v2uqp7bv5h","62952c60095ebfbdca7ec2ac","fixation","img/fixation.png","null","","test","","","","","",""
"77.19999980926514","1958583","pSARL_v2","pSARL_v2uqp7bv5h","62952c60095ebfbdca7ec2ac","freq","img/orange_2bandit_b2.png","68","70","test","0","8","8","1","",""
"null","1959313","pSARL_v2","pSARL_v2uqp7bv5h","62952c60095ebfbdca7ec2ac","freq_resp","img/orange_2bandit_b.png","68","70","test","","","","1","",""
"null","1959468","pSARL_v2","pSARL_v2uqp7bv5h","62952c60095ebfbdca7ec2ac","fixation","img/fixation.png","null","","test","","","","","",""
"489.59999990463257","1959960","pSARL_v2","pSARL_v2uqp7bv5h","62952c60095ebfbdca7ec2ac","freq","img/orange_2bandit_b2.png","70","70","test","1","9","9","1","",""
"null","1960276","pSARL_v2","pSARL_v2uqp7bv5h","62952c60095ebfbdca7ec2ac","freq_resp","img/orange_2bandit_b.png","70","70","test","","","","1","",""
"null","1960431","pSARL_v2","pSARL_v2uqp7bv5h","62952c60095ebfbdca7ec2ac","fixation","img/fixation.png","null","","test","","","","","",""
"471.5","1960905","pSARL_v2","pSARL_v2uqp7bv5h","62952c60095ebfbdca7ec2ac","freq","img/orange_2bandit_b2.png","70","70","test","1","10","10","1","",""
"null","1961248","pSARL_v2","pSARL_v2uqp7bv5h","62952c60095ebfbdca7ec2ac","freq_resp","img/orange_2bandit_b.png","70","70","test","","","","1","",""
"null","1961404","pSARL_v2","pSARL_v2uqp7bv5h","62952c60095ebfbdca7ec2ac","fixation","img/fixation.png","null","","test","","","","","",""
"498.09999990463257","1961904","pSARL_v2","pSARL_v2uqp7bv5h","62952c60095ebfbdca7ec2ac","freq","img/orange_2bandit_b2.png","70","70","test","1","11","11","1","",""
"null","1962210","pSARL_v2","pSARL_v2uqp7bv5h","62952c60095ebfbdca7ec2ac","freq_resp","img/orange_2bandit_b.png","70","70","test","","","","1","",""
"null","1962366","pSARL_v2","pSARL_v2uqp7bv5h","62952c60095ebfbdca7ec2ac","fixation","img/fixation.png","null","","test","","","","","",""
"560.9000000953674","1962929","pSARL_v2","pSARL_v2uqp7bv5h","62952c60095ebfbdca7ec2ac","freq","img/orange_2bandit_b2.png","70","70","test","1","12","12","1","",""
"null","1963175","pSARL_v2","pSARL_v2uqp7bv5h","62952c60095ebfbdca7ec2ac","freq_resp","img/orange_2bandit_b.png","70","70","test","","","","1","",""
"null","1963330","pSARL_v2","pSARL_v2uqp7bv5h","62952c60095ebfbdca7ec2ac","fixation","img/fixation.png","null","","test","","","","","",""
"524.5","1963857","pSARL_v2","pSARL_v2uqp7bv5h","62952c60095ebfbdca7ec2ac","freq","img/orange_2bandit_b2.png","70","70","test","1","13","13","1","",""
"null","1964138","pSARL_v2","pSARL_v2uqp7bv5h","62952c60095ebfbdca7ec2ac","freq_resp","img/orange_2bandit_b.png","70","70","test","","","","1","",""
"null","1964292","pSARL_v2","pSARL_v2uqp7bv5h","62952c60095ebfbdca7ec2ac","fixation","img/fixation.png","null","","test","","","","","",""
"513.4000000953674","1964808","pSARL_v2","pSARL_v2uqp7bv5h","62952c60095ebfbdca7ec2ac","freq","img/orange_2bandit_b2.png","70","70","test","1","14","14","1","",""
"null","1965101","pSARL_v2","pSARL_v2uqp7bv5h","62952c60095ebfbdca7ec2ac","freq_resp","img/orange_2bandit_b.png","70","70","test","","","","1","",""
"null","1965257","pSARL_v2","pSARL_v2uqp7bv5h","62952c60095ebfbdca7ec2ac","fixation","img/fixation.png","null","","test","","","","","",""
"316.69999980926514","1965576","pSARL_v2","pSARL_v2uqp7bv5h","62952c60095ebfbdca7ec2ac","freq","img/orange_2bandit_b2.png","70","70","test","1","15","15","1","",""
"null","1966065","pSARL_v2","pSARL_v2uqp7bv5h","62952c60095ebfbdca7ec2ac","freq_resp","img/orange_2bandit_b.png","70","70","test","","","","1","",""
"null","1966220","pSARL_v2","pSARL_v2uqp7bv5h","62952c60095ebfbdca7ec2ac","fixation","img/fixation.png","null","","test","","","","","",""
"337.2000000476837","1966560","pSARL_v2","pSARL_v2uqp7bv5h","62952c60095ebfbdca7ec2ac","freq","img/orange_2bandit_b2.png","70","70","test","1","16","16","1","",""
"null","1967029","pSARL_v2","pSARL_v2uqp7bv5h","62952c60095ebfbdca7ec2ac","freq_resp","img/orange_2bandit_b.png","70","70","test","","","","1","",""
"null","1967185","pSARL_v2","pSARL_v2uqp7bv5h","62952c60095ebfbdca7ec2ac","fixation","img/fixation.png","null","","test","","","","","",""
"252.09999990463257","1967440","pSARL_v2","pSARL_v2uqp7bv5h","62952c60095ebfbdca7ec2ac","freq","img/orange_2bandit_b2.png","70","70","test","1","17","17","1","",""
"null","1967993","pSARL_v2","pSARL_v2uqp7bv5h","62952c60095ebfbdca7ec2ac","freq_resp","img/orange_2bandit_b.png","70","70","test","","","","1","",""
"null","1968149","pSARL_v2","pSARL_v2uqp7bv5h","62952c60095ebfbdca7ec2ac","fixation","img/fixation.png","null","","test","","","","","",""
"256.2999999523163","1968408","pSARL_v2","pSARL_v2uqp7bv5h","62952c60095ebfbdca7ec2ac","freq","img/orange_2bandit_b2.png","70","70","test","1","18","18","1","",""
"null","1968956","pSARL_v2","pSARL_v2uqp7bv5h","62952c60095ebfbdca7ec2ac","freq_resp","img/orange_2bandit_b.png","70","70","test","","","","1","",""
"null","1969125","pSARL_v2","pSARL_v2uqp7bv5h","62952c60095ebfbdca7ec2ac","fixation","img/fixation.png","null","","test","","","","","",""
"248.29999995231628","1969376","pSARL_v2","pSARL_v2uqp7bv5h","62952c60095ebfbdca7ec2ac","freq","img/orange_2bandit_b2.png","70","70","test","1","19","19","1","",""
"null","1969935","pSARL_v2","pSARL_v2uqp7bv5h","62952c60095ebfbdca7ec2ac","freq_resp","img/orange_2bandit_b.png","70","70","test","","","","1","",""
"null","1970088","pSARL_v2","pSARL_v2uqp7bv5h","62952c60095ebfbdca7ec2ac","fixation","img/fixation.png","null","","test","","","","","",""
"229.5","1970320","pSARL_v2","pSARL_v2uqp7bv5h","62952c60095ebfbdca7ec2ac","freq","img/orange_2bandit_b2.png","70","70","test","1","20","20","1","",""
"null","1970897","pSARL_v2","pSARL_v2uqp7bv5h","62952c60095ebfbdca7ec2ac","freq_resp","img/orange_2bandit_b.png","70","70","test","","","","1","",""
"null","1971053","pSARL_v2","pSARL_v2uqp7bv5h","62952c60095ebfbdca7ec2ac","fixation","img/fixation.png","null","","test","","","","","",""
"225.70000004768372","1971281","pSARL_v2","pSARL_v2uqp7bv5h","62952c60095ebfbdca7ec2ac","freq","img/orange_2bandit_b2.png","70","70","test","1","21","21","1","",""
"null","1971865","pSARL_v2","pSARL_v2uqp7bv5h","62952c60095ebfbdca7ec2ac","freq_resp","img/orange_2bandit_b.png","70","70","test","","","","1","",""
"null","1972022","pSARL_v2","pSARL_v2uqp7bv5h","62952c60095ebfbdca7ec2ac","fixation","img/fixation.png","null","","test","","","","","",""
"968.1000001430511","1972993","pSARL_v2","pSARL_v2uqp7bv5h","62952c60095ebfbdca7ec2ac","reward","img/slot.png","74","","test","","","","","",""
"null","1973749","pSARL_v2","pSARL_v2uqp7bv5h","62952c60095ebfbdca7ec2ac","points","<div class=""verylowPoints""> -6 </div>","null","na","test","","","","1","-6","0"
"null","1974558","pSARL_v2","pSARL_v2uqp7bv5h","62952c60095ebfbdca7ec2ac","freq","img/orange_2bandit_b2.png","null","70","test","0","22","22","2","",""
"null","1974714","pSARL_v2","pSARL_v2uqp7bv5h","62952c60095ebfbdca7ec2ac","fixation","img/fixation.png","null","","test","","","","","",""
"387.5","1975104","pSARL_v2","pSARL_v2uqp7bv5h","62952c60095ebfbdca7ec2ac","infreq","img/green_2bandit_b2.png","70","68","test","0","23","23","2","",""
"null","1975526","pSARL_v2","pSARL_v2uqp7bv5h","62952c60095ebfbdca7ec2ac","infreq_resp","img/green_2bandit_b.png","70","68","test","","","","2","",""
"null","1975685","pSARL_v2","pSARL_v2uqp7bv5h","62952c60095ebfbdca7ec2ac","fixation","img/fixation.png","null","","test","","","","","",""
"416.7999999523163","1976104","pSARL_v2","pSARL_v2uqp7bv5h","62952c60095ebfbdca7ec2ac","freq","img/orange_2bandit_b2.png","68","70","test","0","24","24","2","",""
"null","1976494","pSARL_v2","pSARL_v2uqp7bv5h","62952c60095ebfbdca7ec2ac","freq_resp","img/orange_2bandit_b.png","68","70","test","","","","2","",""
"null","1976648","pSARL_v2","pSARL_v2uqp7bv5h","62952c60095ebfbdca7ec2ac","fixation","img/fixation.png","null","","test","","","","","",""
"573.2999999523163","1977224","pSARL_v2","pSARL_v2uqp7bv5h","62952c60095ebfbdca7ec2ac","freq","img/orange_2bandit_b2.png","70","70","test","1","25","25","2","",""
"null","1977454","pSARL_v2","pSARL_v2uqp7bv5h","62952c60095ebfbdca7ec2ac","freq_resp","img/orange_2bandit_b.png","70","70","test","","","","2","",""
"null","1977609","pSARL_v2","pSARL_v2uqp7bv5h","62952c60095ebfbdca7ec2ac","fixation","img/fixation.png","null","","test","","","","","",""
"436","1978048","pSARL_v2","pSARL_v2uqp7bv5h","62952c60095ebfbdca7ec2ac","freq","img/orange_2bandit_b2.png","70","70","test","1","26","26","2","",""
"null","1978418","pSARL_v2","pSARL_v2uqp7bv5h","62952c60095ebfbdca7ec2ac","freq_resp","img/orange_2bandit_b.png","70","70","test","","","","2","",""
"null","1978572","pSARL_v2","pSARL_v2uqp7bv5h","62952c60095ebfbdca7ec2ac","fixation","img/fixation.png","null","","test","","","","","",""
"369.19999980926514","1978944","pSARL_v2","pSARL_v2uqp7bv5h","62952c60095ebfbdca7ec2ac","freq","img/orange_2bandit_b2.png","70","70","test","1","27","27","2","",""
"null","1979382","pSARL_v2","pSARL_v2uqp7bv5h","62952c60095ebfbdca7ec2ac","freq_resp","img/orange_2bandit_b.png","70","70","test","","","","2","",""
"null","1979536","pSARL_v2","pSARL_v2uqp7bv5h","62952c60095ebfbdca7ec2ac","fixation","img/fixation.png","null","","test","","","","","",""
"333.30000019073486","1979872","pSARL_v2","pSARL_v2uqp7bv5h","62952c60095ebfbdca7ec2ac","freq","img/orange_2bandit_b2.png","70","70","test","1","28","28","2","",""
"null","1980342","pSARL_v2","pSARL_v2uqp7bv5h","62952c60095ebfbdca7ec2ac","freq_resp","img/orange_2bandit_b.png","70","70","test","","","","2","",""
"null","1980499","pSARL_v2","pSARL_v2uqp7bv5h","62952c60095ebfbdca7ec2ac","fixation","img/fixation.png","null","","test","","","","","",""
"283.40000009536743","1980784","pSARL_v2","pSARL_v2uqp7bv5h","62952c60095ebfbdca7ec2ac","freq","img/orange_2bandit_b2.png","70","70","test","1","29","29","2","",""
"null","1981318","pSARL_v2","pSARL_v2uqp7bv5h","62952c60095ebfbdca7ec2ac","freq_resp","img/orange_2bandit_b.png","70","70","test","","","","2","",""
"null","1981471","pSARL_v2","pSARL_v2uqp7bv5h","62952c60095ebfbdca7ec2ac","fixation","img/fixation.png","null","","test","","","","","",""
"200.19999980926514","1981674","pSARL_v2","pSARL_v2uqp7bv5h","62952c60095ebfbdca7ec2ac","freq","img/orange_2bandit_b2.png","70","70","test","1","30","30","2","",""
"null","1982284","pSARL_v2","pSARL_v2uqp7bv5h","62952c60095ebfbdca7ec2ac","freq_resp","img/orange_2bandit_b.png","70","70","test","","","","2","",""
"null","1982440","pSARL_v2","pSARL_v2uqp7bv5h","62952c60095ebfbdca7ec2ac","fixation","img/fixation.png","null","","test","","","","","",""
"126.20000004768372","1982568","pSARL_v2","pSARL_v2uqp7bv5h","62952c60095ebfbdca7ec2ac","freq","img/orange_2bandit_b2.png","70","70","test","1","31","31","2","",""
"null","1983252","pSARL_v2","pSARL_v2uqp7bv5h","62952c60095ebfbdca7ec2ac","freq_resp","img/orange_2bandit_b.png","70","70","test","","","","2","",""
"null","1983405","pSARL_v2","pSARL_v2uqp7bv5h","62952c60095ebfbdca7ec2ac","fixation","img/fixation.png","null","","test","","","","","",""
"111.59999990463257","1983520","pSARL_v2","pSARL_v2uqp7bv5h","62952c60095ebfbdca7ec2ac","freq","img/orange_2bandit_b2.png","70","70","test","1","32","32","2","",""
"null","1984216","pSARL_v2","pSARL_v2uqp7bv5h","62952c60095ebfbdca7ec2ac","freq_resp","img/orange_2bandit_b.png","70","70","test","","","","2","",""
"null","1984371","pSARL_v2","pSARL_v2uqp7bv5h","62952c60095ebfbdca7ec2ac","fixation","img/fixation.png","null","","test","","","","","",""
"115.5","1984489","pSARL_v2","pSARL_v2uqp7bv5h","62952c60095ebfbdca7ec2ac","freq","img/orange_2bandit_b2.png","70","70","test","1","33","33","2","",""
"null","1985177","pSARL_v2","pSARL_v2uqp7bv5h","62952c60095ebfbdca7ec2ac","freq_resp","img/orange_2bandit_b.png","70","70","test","","","","2","",""
"null","1985333","pSARL_v2","pSARL_v2uqp7bv5h","62952c60095ebfbdca7ec2ac","fixation","img/fixation.png","null","","test","","","","","",""
"224.60000014305115","1985560","pSARL_v2","pSARL_v2uqp7bv5h","62952c60095ebfbdca7ec2ac","freq","img/orange_2bandit_b2.png","70","70","test","1","34","34","2","",""
"null","1986143","pSARL_v2","pSARL_v2uqp7bv5h","62952c60095ebfbdca7ec2ac","freq_resp","img/orange_2bandit_b.png","70","70","test","","","","2","",""
"null","1986311","pSARL_v2","pSARL_v2uqp7bv5h","62952c60095ebfbdca7ec2ac","fixation","img/fixation.png","null","","test","","","","","",""
"198.39999985694885","1986513","pSARL_v2","pSARL_v2uqp7bv5h","62952c60095ebfbdca7ec2ac","freq","img/orange_2bandit_b2.png","70","70","test","1","35","35","2","",""
"null","1987122","pSARL_v2","pSARL_v2uqp7bv5h","62952c60095ebfbdca7ec2ac","freq_resp","img/orange_2bandit_b.png","70","70","test","","","","2","",""
"null","1987276","pSARL_v2","pSARL_v2uqp7bv5h","62952c60095ebfbdca7ec2ac","fixation","img/fixation.png","null","","test","","","","","",""
"273.5","1987552","pSARL_v2","pSARL_v2uqp7bv5h","62952c60095ebfbdca7ec2ac","infreq","img/green_2bandit_b2.png","70","68","test","0","36","36","2","",""
"null","1988088","pSARL_v2","pSARL_v2uqp7bv5h","62952c60095ebfbdca7ec2ac","infreq_resp","img/green_2bandit_b.png","70","68","test","","","","2","",""
"null","1988244","pSARL_v2","pSARL_v2uqp7bv5h","62952c60095ebfbdca7ec2ac","fixation","img/fixation.png","null","","test","","","","","",""
"504.89999985694885","1988751","pSARL_v2","pSARL_v2uqp7bv5h","62952c60095ebfbdca7ec2ac","freq","img/orange_2bandit_b2.png","70","70","test","1","37","37","2","",""
"null","1989054","pSARL_v2","pSARL_v2uqp7bv5h","62952c60095ebfbdca7ec2ac","freq_resp","img/orange_2bandit_b.png","70","70","test","","","","2","",""
"null","1989209","pSARL_v2","pSARL_v2uqp7bv5h","62952c60095ebfbdca7ec2ac","fixation","img/fixation.png","null","","test","","","","","",""
"468.59999990463257","1989680","pSARL_v2","pSARL_v2uqp7bv5h","62952c60095ebfbdca7ec2ac","freq","img/orange_2bandit_b2.png","70","70","test","1","38","38","2","",""
"null","1990015","pSARL_v2","pSARL_v2uqp7bv5h","62952c60095ebfbdca7ec2ac","freq_resp","img/orange_2bandit_b.png","70","70","test","","","","2","",""
"null","1990168","pSARL_v2","pSARL_v2uqp7bv5h","62952c60095ebfbdca7ec2ac","fixation","img/fixation.png","null","","test","","","","","",""
"381.2999999523163","1990552","pSARL_v2","pSARL_v2uqp7bv5h","62952c60095ebfbdca7ec2ac","freq","img/orange_2bandit_b2.png","70","70","test","1","39","39","2","",""
"null","1990973","pSARL_v2","pSARL_v2uqp7bv5h","62952c60095ebfbdca7ec2ac","freq_resp","img/orange_2bandit_b.png","70","70","test","","","","2","",""
"null","1991130","pSARL_v2","pSARL_v2uqp7bv5h","62952c60095ebfbdca7ec2ac","fixation","img/fixation.png","null","","test","","","","","",""
"291.7000000476837","1991425","pSARL_v2","pSARL_v2uqp7bv5h","62952c60095ebfbdca7ec2ac","freq","img/orange_2bandit_b2.png","70","70","test","1","40","40","2","",""
"null","1991940","pSARL_v2","pSARL_v2uqp7bv5h","62952c60095ebfbdca7ec2ac","freq_resp","img/orange_2bandit_b.png","70","70","test","","","","2","",""
"null","1992095","pSARL_v2","pSARL_v2uqp7bv5h","62952c60095ebfbdca7ec2ac","fixation","img/fixation.png","null","","test","","","","","",""
"294.89999985694885","1992393","pSARL_v2","pSARL_v2uqp7bv5h","62952c60095ebfbdca7ec2ac","freq","img/orange_2bandit_b2.png","70","70","test","1","41","41","2","",""
"null","1992902","pSARL_v2","pSARL_v2uqp7bv5h","62952c60095ebfbdca7ec2ac","freq_resp","img/orange_2bandit_b.png","70","70","test","","","","2","",""
"null","1993059","pSARL_v2","pSARL_v2uqp7bv5h","62952c60095ebfbdca7ec2ac","fixation","img/fixation.png","null","","test","","","","","",""
"227.20000004768372","1993288","pSARL_v2","pSARL_v2uqp7bv5h","62952c60095ebfbdca7ec2ac","freq","img/orange_2bandit_b2.png","70","70","test","1","42","42","2","",""
"null","1993864","pSARL_v2","pSARL_v2uqp7bv5h","62952c60095ebfbdca7ec2ac","freq_resp","img/orange_2bandit_b.png","70","70","test","","","","2","",""
"null","1994019","pSARL_v2","pSARL_v2uqp7bv5h","62952c60095ebfbdca7ec2ac","fixation","img/fixation.png","null","","test","","","","","",""
"258.89999985694885","1994280","pSARL_v2","pSARL_v2uqp7bv5h","62952c60095ebfbdca7ec2ac","freq","img/orange_2bandit_b2.png","70","70","test","1","43","43","2","",""
"null","1994830","pSARL_v2","pSARL_v2uqp7bv5h","62952c60095ebfbdca7ec2ac","freq_resp","img/orange_2bandit_b.png","70","70","test","","","","2","",""
"null","1994986","pSARL_v2","pSARL_v2uqp7bv5h","62952c60095ebfbdca7ec2ac","fixation","img/fixation.png","null","","test","","","","","",""
"595.4000000953674","1995584","pSARL_v2","pSARL_v2uqp7bv5h","62952c60095ebfbdca7ec2ac","reward","img/slot.png","74","","test","","","","","",""
"null","1996348","pSARL_v2","pSARL_v2uqp7bv5h","62952c60095ebfbdca7ec2ac","points","<div class=""verylowPoints""> -11 </div>","null","na","test","","","","2","-11","1"
"529.8000001907349","1996880","pSARL_v2","pSARL_v2uqp7bv5h","62952c60095ebfbdca7ec2ac","freq","img/orange_2bandit_b2.png","70","70","test","1","44","44","3","",""
"null","1997164","pSARL_v2","pSARL_v2uqp7bv5h","62952c60095ebfbdca7ec2ac","freq_resp","img/orange_2bandit_b.png","70","70","test","","","","3","",""
"null","1997319","pSARL_v2","pSARL_v2uqp7bv5h","62952c60095ebfbdca7ec2ac","fixation","img/fixation.png","null","","test","","","","","",""
"343.19999980926514","1997665","pSARL_v2","pSARL_v2uqp7bv5h","62952c60095ebfbdca7ec2ac","freq","img/orange_2bandit_b2.png","70","70","test","1","45","45","3","",""
"null","1998130","pSARL_v2","pSARL_v2uqp7bv5h","62952c60095ebfbdca7ec2ac","freq_resp","img/orange_2bandit_b.png","70","70","test","","","","3","",""
"null","1998287","pSARL_v2","pSARL_v2uqp7bv5h","62952c60095ebfbdca7ec2ac","fixation","img/fixation.png","null","","test","","","","","",""
"326.5","1998616","pSARL_v2","pSARL_v2uqp7bv5h","62952c60095ebfbdca7ec2ac","freq","img/orange_2bandit_b2.png","70","70","test","1","46","46","3","",""
"null","1999095","pSARL_v2","pSARL_v2uqp7bv5h","62952c60095ebfbdca7ec2ac","freq_resp","img/orange_2bandit_b.png","70","70","test","","","","3","",""
"null","1999249","pSARL_v2","pSARL_v2uqp7bv5h","62952c60095ebfbdca7ec2ac","fixation","img/fixation.png","null","","test","","","","","",""
"206.30000019073486","1999457","pSARL_v2","pSARL_v2uqp7bv5h","62952c60095ebfbdca7ec2ac","freq","img/orange_2bandit_b2.png","70","70","test","1","47","47","3","",""
"null","2000069","pSARL_v2","pSARL_v2uqp7bv5h","62952c60095ebfbdca7ec2ac","freq_resp","img/orange_2bandit_b.png","70","70","test","","","","3","",""
"null","2000224","pSARL_v2","pSARL_v2uqp7bv5h","62952c60095ebfbdca7ec2ac","fixation","img/fixation.png","null","","test","","","","","",""
"317.7000000476837","2000544","pSARL_v2","pSARL_v2uqp7bv5h","62952c60095ebfbdca7ec2ac","freq","img/orange_2bandit_b2.png","70","70","test","1","48","48","3","",""
"null","2001031","pSARL_v2","pSARL_v2uqp7bv5h","62952c60095ebfbdca7ec2ac","freq_resp","img/orange_2bandit_b.png","70","70","test","","","","3","",""
"null","2001186","pSARL_v2","pSARL_v2uqp7bv5h","62952c60095ebfbdca7ec2ac","fixation","img/fixation.png","null","","test","","","","","",""
"571.7000000476837","2001760","pSARL_v2","pSARL_v2uqp7bv5h","62952c60095ebfbdca7ec2ac","freq","img/orange_2bandit_b2.png","70","70","test","1","49","49","3","",""
"null","2001992","pSARL_v2","pSARL_v2uqp7bv5h","62952c60095ebfbdca7ec2ac","freq_resp","img/orange_2bandit_b.png","70","70","test","","","","3","",""
"null","2002147","pSARL_v2","pSARL_v2uqp7bv5h","62952c60095ebfbdca7ec2ac","fixation","img/fixation.png","null","","test","","","","","",""
"780","2002929","pSARL_v2","pSARL_v2uqp7bv5h","62952c60095ebfbdca7ec2ac","freq","img/orange_2bandit_b2.png","70","70","test","1","50","50","3","",""
"null","2002952","pSARL_v2","pSARL_v2uqp7bv5h","62952c60095ebfbdca7ec2ac","freq_resp","img/orange_2bandit_b.png","70","70","test","","","","3","",""
"null","2003111","pSARL_v2","pSARL_v2uqp7bv5h","62952c60095ebfbdca7ec2ac","fixation","img/fixation.png","null","","test","","","","","",""
"654","2003768","pSARL_v2","pSARL_v2uqp7bv5h","62952c60095ebfbdca7ec2ac","freq","img/orange_2bandit_b2.png","70","70","test","1","51","51","3","",""
"null","2003922","pSARL_v2","pSARL_v2uqp7bv5h","62952c60095ebfbdca7ec2ac","freq_resp","img/orange_2bandit_b.png","70","70","test","","","","3","",""
"null","2004078","pSARL_v2","pSARL_v2uqp7bv5h","62952c60095ebfbdca7ec2ac","fixation","img/fixation.png","null","","test","","","","","",""
"519.7000000476837","2004600","pSARL_v2","pSARL_v2uqp7bv5h","62952c60095ebfbdca7ec2ac","freq","img/orange_2bandit_b2.png","70","70","test","1","52","52","3","",""
"null","2004888","pSARL_v2","pSARL_v2uqp7bv5h","62952c60095ebfbdca7ec2ac","freq_resp","img/orange_2bandit_b.png","70","70","test","","","","3","",""
"null","2005044","pSARL_v2","pSARL_v2uqp7bv5h","62952c60095ebfbdca7ec2ac","fixation","img/fixation.png","null","","test","","","","","",""
"441.40000009536743","2005488","pSARL_v2","pSARL_v2uqp7bv5h","62952c60095ebfbdca7ec2ac","freq","img/orange_2bandit_b2.png","70","70","test","1","53","53","3","",""
"null","2005863","pSARL_v2","pSARL_v2uqp7bv5h","62952c60095ebfbdca7ec2ac","freq_resp","img/orange_2bandit_b.png","70","70","test","","","","3","",""
"null","2006018","pSARL_v2","pSARL_v2uqp7bv5h","62952c60095ebfbdca7ec2ac","fixation","img/fixation.png","null","","test","","","","","",""
"300","2006320","pSARL_v2","pSARL_v2uqp7bv5h","62952c60095ebfbdca7ec2ac","freq","img/orange_2bandit_b2.png","70","70","test","1","54","54","3","",""
"null","2006824","pSARL_v2","pSARL_v2uqp7bv5h","62952c60095ebfbdca7ec2ac","freq_resp","img/orange_2bandit_b.png","70","70","test","","","","3","",""
"null","2006979","pSARL_v2","pSARL_v2uqp7bv5h","62952c60095ebfbdca7ec2ac","fixation","img/fixation.png","null","","test","","","","","",""
"123.29999995231628","2007104","pSARL_v2","pSARL_v2uqp7bv5h","62952c60095ebfbdca7ec2ac","freq","img/orange_2bandit_b2.png","70","70","test","1","55","55","3","",""
"null","2007788","pSARL_v2","pSARL_v2uqp7bv5h","62952c60095ebfbdca7ec2ac","freq_resp","img/orange_2bandit_b.png","70","70","test","","","","3","",""
"null","2007942","pSARL_v2","pSARL_v2uqp7bv5h","62952c60095ebfbdca7ec2ac","fixation","img/fixation.png","null","","test","","","","","",""
"15","2007960","pSARL_v2","pSARL_v2uqp7bv5h","62952c60095ebfbdca7ec2ac","freq","img/orange_2bandit_b2.png","70","70","test","1","56","56","3","",""
"null","2008755","pSARL_v2","pSARL_v2uqp7bv5h","62952c60095ebfbdca7ec2ac","freq_resp","img/orange_2bandit_b.png","70","70","test","","","","3","",""
"null","2008909","pSARL_v2","pSARL_v2uqp7bv5h","62952c60095ebfbdca7ec2ac","fixation","img/fixation.png","null","","test","","","","","",""
"272.7999999523163","2009184","pSARL_v2","pSARL_v2uqp7bv5h","62952c60095ebfbdca7ec2ac","freq","img/orange_2bandit_b2.png","70","70","test","1","57","57","3","",""
"null","2009720","pSARL_v2","pSARL_v2uqp7bv5h","62952c60095ebfbdca7ec2ac","freq_resp","img/orange_2bandit_b.png","70","70","test","","","","3","",""
"null","2009874","pSARL_v2","pSARL_v2uqp7bv5h","62952c60095ebfbdca7ec2ac","fixation","img/fixation.png","null","","test","","","","","",""
"515.0999999046326","2010391","pSARL_v2","pSARL_v2uqp7bv5h","62952c60095ebfbdca7ec2ac","infreq","img/green_2bandit_b2.png","70","68","test","0","58","58","3","",""
"null","2010680","pSARL_v2","pSARL_v2uqp7bv5h","62952c60095ebfbdca7ec2ac","infreq_resp","img/green_2bandit_b.png","70","68","test","","","","3","",""
"null","2010842","pSARL_v2","pSARL_v2uqp7bv5h","62952c60095ebfbdca7ec2ac","fixation","img/fixation.png","null","","test","","","","","",""
"572","2011417","pSARL_v2","pSARL_v2uqp7bv5h","62952c60095ebfbdca7ec2ac","freq","img/orange_2bandit_b2.png","70","70","test","1","59","59","3","",""
"null","2011650","pSARL_v2","pSARL_v2uqp7bv5h","62952c60095ebfbdca7ec2ac","freq_resp","img/orange_2bandit_b.png","70","70","test","","","","3","",""
"null","2011806","pSARL_v2","pSARL_v2uqp7bv5h","62952c60095ebfbdca7ec2ac","fixation","img/fixation.png","null","","test","","","","","",""
"560.8000001907349","2012369","pSARL_v2","pSARL_v2uqp7bv5h","62952c60095ebfbdca7ec2ac","freq","img/orange_2bandit_b2.png","70","70","test","1","60","60","3","",""
"null","2012614","pSARL_v2","pSARL_v2uqp7bv5h","62952c60095ebfbdca7ec2ac","freq_resp","img/orange_2bandit_b.png","70","70","test","","","","3","",""
"null","2012769","pSARL_v2","pSARL_v2uqp7bv5h","62952c60095ebfbdca7ec2ac","fixation","img/fixation.png","null","","test","","","","","",""
"430","2013202","pSARL_v2","pSARL_v2uqp7bv5h","62952c60095ebfbdca7ec2ac","freq","img/orange_2bandit_b2.png","70","70","test","1","61","61","3","",""
"null","2013579","pSARL_v2","pSARL_v2uqp7bv5h","62952c60095ebfbdca7ec2ac","freq_resp","img/orange_2bandit_b.png","70","70","test","","","","3","",""
"null","2013735","pSARL_v2","pSARL_v2uqp7bv5h","62952c60095ebfbdca7ec2ac","fixation","img/fixation.png","null","","test","","","","","",""
"317.60000014305115","2014055","pSARL_v2","pSARL_v2uqp7bv5h","62952c60095ebfbdca7ec2ac","freq","img/orange_2bandit_b2.png","70","70","test","1","62","62","3","",""
"null","2014545","pSARL_v2","pSARL_v2uqp7bv5h","62952c60095ebfbdca7ec2ac","freq_resp","img/orange_2bandit_b.png","70","70","test","","","","3","",""
"null","2014699","pSARL_v2","pSARL_v2uqp7bv5h","62952c60095ebfbdca7ec2ac","fixation","img/fixation.png","null","","test","","","","","",""
"242","2014944","pSARL_v2","pSARL_v2uqp7bv5h","62952c60095ebfbdca7ec2ac","freq","img/orange_2bandit_b2.png","70","70","test","1","63","63","3","",""
"null","2015508","pSARL_v2","pSARL_v2uqp7bv5h","62952c60095ebfbdca7ec2ac","freq_resp","img/orange_2bandit_b.png","70","70","test","","","","3","",""
"null","2015662","pSARL_v2","pSARL_v2uqp7bv5h","62952c60095ebfbdca7ec2ac","fixation","img/fixation.png","null","","test","","","","","",""
"207.19999980926514","2015872","pSARL_v2","pSARL_v2uqp7bv5h","62952c60095ebfbdca7ec2ac","freq","img/orange_2bandit_b2.png","70","70","test","1","64","64","3","",""
"null","2016474","pSARL_v2","pSARL_v2uqp7bv5h","62952c60095ebfbdca7ec2ac","freq_resp","img/orange_2bandit_b.png","70","70","test","","","","3","",""
"null","2016628","pSARL_v2","pSARL_v2uqp7bv5h","62952c60095ebfbdca7ec2ac","fixation","img/fixation.png","null","","test","","","","","",""
"113.40000009536743","2016744","pSARL_v2","pSARL_v2uqp7bv5h","62952c60095ebfbdca7ec2ac","infreq","img/green_2bandit_b2.png","70","68","test","0","65","65","3","",""
"null","2017447","pSARL_v2","pSARL_v2uqp7bv5h","62952c60095ebfbdca7ec2ac","infreq_resp","img/green_2bandit_b.png","70","68","test","","","","3","",""
"null","2017614","pSARL_v2","pSARL_v2uqp7bv5h","62952c60095ebfbdca7ec2ac","fixation","img/fixation.png","null","","test","","","","","",""
"464.09999990463257","2018080","pSARL_v2","pSARL_v2uqp7bv5h","62952c60095ebfbdca7ec2ac","freq","img/orange_2bandit_b2.png","70","70","test","1","66","66","3","",""
"null","2018422","pSARL_v2","pSARL_v2uqp7bv5h","62952c60095ebfbdca7ec2ac","freq_resp","img/orange_2bandit_b.png","70","70","test","","","","3","",""
"null","2018591","pSARL_v2","pSARL_v2uqp7bv5h","62952c60095ebfbdca7ec2ac","fixation","img/fixation.png","null","","test","","","","","",""
"623","2019216","pSARL_v2","pSARL_v2uqp7bv5h","62952c60095ebfbdca7ec2ac","reward","img/slot.png","74","","test","","","","","",""
"null","2019973","pSARL_v2","pSARL_v2uqp7bv5h","62952c60095ebfbdca7ec2ac","points","<div class=""verylowPoints""> -7 </div>","null","na","test","","","","3","-7","2"
"null","2020782","pSARL_v2","pSARL_v2uqp7bv5h","62952c60095ebfbdca7ec2ac","freq","img/orange_2bandit_b2.png","null","70","test","0","67","67","4","",""
"null","2020938","pSARL_v2","pSARL_v2uqp7bv5h","62952c60095ebfbdca7ec2ac","fixation","img/fixation.png","null","","test","","","","","",""
"117.10000014305115","2021057","pSARL_v2","pSARL_v2uqp7bv5h","62952c60095ebfbdca7ec2ac","freq","img/orange_2bandit_b2.png","70","70","test","1","68","68","4","",""
"null","2021746","pSARL_v2","pSARL_v2uqp7bv5h","62952c60095ebfbdca7ec2ac","freq_resp","img/orange_2bandit_b.png","70","70","test","","","","4","",""
"null","2021901","pSARL_v2","pSARL_v2uqp7bv5h","62952c60095ebfbdca7ec2ac","fixation","img/fixation.png","null","","test","","","","","",""
"392.89999985694885","2022296","pSARL_v2","pSARL_v2uqp7bv5h","62952c60095ebfbdca7ec2ac","freq","img/orange_2bandit_b2.png","68","70","test","0","69","69","4","",""
"null","2022720","pSARL_v2","pSARL_v2uqp7bv5h","62952c60095ebfbdca7ec2ac","freq_resp","img/orange_2bandit_b.png","68","70","test","","","","4","",""
"null","2022876","pSARL_v2","pSARL_v2uqp7bv5h","62952c60095ebfbdca7ec2ac","fixation","img/fixation.png","null","","test","","","","","",""
"297.2000000476837","2023176","pSARL_v2","pSARL_v2uqp7bv5h","62952c60095ebfbdca7ec2ac","freq","img/orange_2bandit_b2.png","70","70","test","1","70","70","4","",""
"null","2023680","pSARL_v2","pSARL_v2uqp7bv5h","62952c60095ebfbdca7ec2ac","freq_resp","img/orange_2bandit_b.png","70","70","test","","","","4","",""
"null","2023835","pSARL_v2","pSARL_v2uqp7bv5h","62952c60095ebfbdca7ec2ac","fixation","img/fixation.png","null","","test","","","","","",""
"227.59999990463257","2024065","pSARL_v2","pSARL_v2uqp7bv5h","62952c60095ebfbdca7ec2ac","freq","img/orange_2bandit_b2.png","70","70","test","1","71","71","4","",""
"null","2024645","pSARL_v2","pSARL_v2uqp7bv5h","62952c60095ebfbdca7ec2ac","freq_resp","img/orange_2bandit_b.png","70","70","test","","","","4","",""
"null","2024801","pSARL_v2","pSARL_v2uqp7bv5h","62952c60095ebfbdca7ec2ac","fixation","img/fixation.png","null","","test","","","","","",""
"92.90000009536743","2024896","pSARL_v2","pSARL_v2uqp7bv5h","62952c60095ebfbdca7ec2ac","freq","img/orange_2bandit_b2.png","70","70","test","1","72","72","4","",""
"null","2025610","pSARL_v2","pSARL_v2uqp7bv5h","62952c60095ebfbdca7ec2ac","freq_resp","img/orange_2bandit_b.png","70","70","test","","","","4","",""
"null","2025765","pSARL_v2","pSARL_v2uqp7bv5h","62952c60095ebfbdca7ec2ac","fixation","img/fixation.png","null","","test","","","","","",""
"null","2026575","pSARL_v2","pSARL_v2uqp7bv5h","62952c60095ebfbdca7ec2ac","freq","img/orange_2bandit_b2.png","null","70","test","0","73","73","4","",""
"null","2026730","pSARL_v2","pSARL_v2uqp7bv5h","62952c60095ebfbdca7ec2ac","fixation","img/fixation.png","null","","test","","","","","",""
"588","2027320","pSARL_v2","pSARL_v2uqp7bv5h","62952c60095ebfbdca7ec2ac","infreq","img/green_2bandit_b2.png","70","68","test","0","74","74","4","",""
"null","2027537","pSARL_v2","pSARL_v2uqp7bv5h","62952c60095ebfbdca7ec2ac","infreq_resp","img/green_2bandit_b.png","70","68","test","","","","4","",""
"null","2027694","pSARL_v2","pSARL_v2uqp7bv5h","62952c60095ebfbdca7ec2ac","fixation","img/fixation.png","null","","test","","","","","",""
"407.7000000476837","2028104","pSARL_v2","pSARL_v2uqp7bv5h","62952c60095ebfbdca7ec2ac","freq","img/orange_2bandit_b2.png","68","70","test","0","75","75","4","",""
"null","2028500","pSARL_v2","pSARL_v2uqp7bv5h","62952c60095ebfbdca7ec2ac","freq_resp","img/orange_2bandit_b.png","68","70","test","","","","4","",""
"null","2028656","pSARL_v2","pSARL_v2uqp7bv5h","62952c60095ebfbdca7ec2ac","fixation","img/fixation.png","null","","test","","","","","",""
"525.2000000476837","2029184","pSARL_v2","pSARL_v2uqp7bv5h","62952c60095ebfbdca7ec2ac","freq","img/orange_2bandit_b2.png","70","70","test","1","76","76","4","",""
"null","2029464","pSARL_v2","pSARL_v2uqp7bv5h","62952c60095ebfbdca7ec2ac","freq_resp","img/orange_2bandit_b.png","70","70","test","","","","4","",""
"null","2029618","pSARL_v2","pSARL_v2uqp7bv5h","62952c60095ebfbdca7ec2ac","fixation","img/fixation.png","null","","test","","","","","",""
"299","2029920","pSARL_v2","pSARL_v2uqp7bv5h","62952c60095ebfbdca7ec2ac","freq","img/orange_2bandit_b2.png","70","70","test","1","77","77","4","",""
"null","2030429","pSARL_v2","pSARL_v2uqp7bv5h","62952c60095ebfbdca7ec2ac","freq_resp","img/orange_2bandit_b.png","70","70","test","","","","4","",""
"null","2030584","pSARL_v2","pSARL_v2uqp7bv5h","62952c60095ebfbdca7ec2ac","fixation","img/fixation.png","null","","test","","","","","",""
"317.5","2030905","pSARL_v2","pSARL_v2uqp7bv5h","62952c60095ebfbdca7ec2ac","freq","img/orange_2bandit_b2.png","70","70","test","1","78","78","4","",""
"null","2031389","pSARL_v2","pSARL_v2uqp7bv5h","62952c60095ebfbdca7ec2ac","freq_resp","img/orange_2bandit_b.png","70","70","test","","","","4","",""
"null","2031544","pSARL_v2","pSARL_v2uqp7bv5h","62952c60095ebfbdca7ec2ac","fixation","img/fixation.png","null","","test","","","","","",""
"221.79999995231628","2031768","pSARL_v2","pSARL_v2uqp7bv5h","62952c60095ebfbdca7ec2ac","freq","img/orange_2bandit_b2.png","70","70","test","1","79","79","4","",""
"null","2032354","pSARL_v2","pSARL_v2uqp7bv5h","62952c60095ebfbdca7ec2ac","freq_resp","img/orange_2bandit_b.png","70","70","test","","","","4","",""
"null","2032509","pSARL_v2","pSARL_v2uqp7bv5h","62952c60095ebfbdca7ec2ac","fixation","img/fixation.png","null","","test","","","","","",""
"24.5","2032536","pSARL_v2","pSARL_v2uqp7bv5h","62952c60095ebfbdca7ec2ac","freq","img/orange_2bandit_b2.png","70","70","test","1","80","80","4","",""
"null","2033323","pSARL_v2","pSARL_v2uqp7bv5h","62952c60095ebfbdca7ec2ac","freq_resp","img/orange_2bandit_b.png","70","70","test","","","","4","",""
"null","2033479","pSARL_v2","pSARL_v2uqp7bv5h","62952c60095ebfbdca7ec2ac","fixation","img/fixation.png","null","","test","","","","","",""
"38.799999952316284","2033520","pSARL_v2","pSARL_v2uqp7bv5h","62952c60095ebfbdca7ec2ac","freq","img/orange_2bandit_b2.png","70","70","test","1","81","81","4","",""
"null","2034285","pSARL_v2","pSARL_v2uqp7bv5h","62952c60095ebfbdca7ec2ac","freq_resp","img/orange_2bandit_b.png","70","70","test","","","","4","",""
"null","2034440","pSARL_v2","pSARL_v2uqp7bv5h","62952c60095ebfbdca7ec2ac","fixation","img/fixation.png","null","","test","","","","","",""
"126.70000004768372","2034569","pSARL_v2","pSARL_v2uqp7bv5h","62952c60095ebfbdca7ec2ac","freq","img/orange_2bandit_b2.png","70","70","test","1","82","82","4","",""
"null","2035247","pSARL_v2","pSARL_v2uqp7bv5h","62952c60095ebfbdca7ec2ac","freq_resp","img/orange_2bandit_b.png","70","70","test","","","","4","",""
"null","2035403","pSARL_v2","pSARL_v2uqp7bv5h","62952c60095ebfbdca7ec2ac","fixation","img/fixation.png","null","","test","","","","","",""
"67.30000019073486","2035473","pSARL_v2","pSARL_v2uqp7bv5h","62952c60095ebfbdca7ec2ac","freq","img/orange_2bandit_b2.png","70","70","test","1","83","83","4","",""
"null","2036211","pSARL_v2","pSARL_v2uqp7bv5h","62952c60095ebfbdca7ec2ac","freq_resp","img/orange_2bandit_b.png","70","70","test","","","","4","",""
"null","2036366","pSARL_v2","pSARL_v2uqp7bv5h","62952c60095ebfbdca7ec2ac","fixation","img/fixation.png","null","","test","","","","","",""
"39.200000047683716","2036408","pSARL_v2","pSARL_v2uqp7bv5h","62952c60095ebfbdca7ec2ac","infreq","img/green_2bandit_b2.png","70","68","test","0","84","84","4","",""
"null","2037186","pSARL_v2","pSARL_v2uqp7bv5h","62952c60095ebfbdca7ec2ac","infreq_resp","img/green_2bandit_b.png","70","68","test","","","","4","",""
"null","2037341","pSARL_v2","pSARL_v2uqp7bv5h","62952c60095ebfbdca7ec2ac","fixation","img/fixation.png","null","","test","","","","","",""
"800.6000001430511","2038144","pSARL_v2","pSARL_v2uqp7bv5h","62952c60095ebfbdca7ec2ac","freq","img/orange_2bandit_b2.png","70","70","test","1","85","85","4","",""
"null","2038304","pSARL_v2","pSARL_v2uqp7bv5h","62952c60095ebfbdca7ec2ac","fixation","img/fixation.png","null","","test","","","","","",""
"null","2039110","pSARL_v2","pSARL_v2uqp7bv5h","62952c60095ebfbdca7ec2ac","freq","img/orange_2bandit_b2.png","null","70","test","0","86","86","4","",""
"null","2039266","pSARL_v2","pSARL_v2uqp7bv5h","62952c60095ebfbdca7ec2ac","fixation","img/fixation.png","null","","test","","","","","",""
"null","2040070","pSARL_v2","pSARL_v2uqp7bv5h","62952c60095ebfbdca7ec2ac","freq","img/orange_2bandit_b2.png","null","70","test","0","87","87","4","",""
"null","2040224","pSARL_v2","pSARL_v2uqp7bv5h","62952c60095ebfbdca7ec2ac","fixation","img/fixation.png","null","","test","","","","","",""
"126.29999995231628","2040353","pSARL_v2","pSARL_v2uqp7bv5h","62952c60095ebfbdca7ec2ac","freq","img/orange_2bandit_b2.png","70","70","test","1","88","88","4","",""
"null","2041031","pSARL_v2","pSARL_v2uqp7bv5h","62952c60095ebfbdca7ec2ac","freq_resp","img/orange_2bandit_b.png","70","70","test","","","","4","",""
"null","2041187","pSARL_v2","pSARL_v2uqp7bv5h","62952c60095ebfbdca7ec2ac","fixation","img/fixation.png","null","","test","","","","","",""
"107","2041296","pSARL_v2","pSARL_v2uqp7bv5h","62952c60095ebfbdca7ec2ac","freq","img/orange_2bandit_b2.png","70","70","test","1","89","89","4","",""
"null","2041992","pSARL_v2","pSARL_v2uqp7bv5h","62952c60095ebfbdca7ec2ac","freq_resp","img/orange_2bandit_b.png","70","70","test","","","","4","",""
"null","2042149","pSARL_v2","pSARL_v2uqp7bv5h","62952c60095ebfbdca7ec2ac","fixation","img/fixation.png","null","","test","","","","","",""
"56.10000014305115","2042208","pSARL_v2","pSARL_v2uqp7bv5h","62952c60095ebfbdca7ec2ac","freq","img/orange_2bandit_b2.png","70","70","test","1","90","90","4","",""
"null","2042968","pSARL_v2","pSARL_v2uqp7bv5h","62952c60095ebfbdca7ec2ac","freq_resp","img/orange_2bandit_b.png","70","70","test","","","","4","",""
"null","2043125","pSARL_v2","pSARL_v2uqp7bv5h","62952c60095ebfbdca7ec2ac","fixation","img/fixation.png","null","","test","","","","","",""
"null","2043932","pSARL_v2","pSARL_v2uqp7bv5h","62952c60095ebfbdca7ec2ac","freq","img/orange_2bandit_b2.png","null","70","test","0","91","91","4","",""
"null","2044088","pSARL_v2","pSARL_v2uqp7bv5h","62952c60095ebfbdca7ec2ac","fixation","img/fixation.png","null","","test","","","","","",""
"478.09999990463257","2044568","pSARL_v2","pSARL_v2uqp7bv5h","62952c60095ebfbdca7ec2ac","reward","img/slot.png","74","","test","","","","","",""
"null","2045329","pSARL_v2","pSARL_v2uqp7bv5h","62952c60095ebfbdca7ec2ac","points","<div class=""verylowPoints""> -3 </div>","null","na","test","","","","4","-3","3"
"622.0999999046326","2045953","pSARL_v2","pSARL_v2uqp7bv5h","62952c60095ebfbdca7ec2ac","freq","img/orange_2bandit_b2.png","70","70","test","1","92","92","5","",""
"null","2046139","pSARL_v2","pSARL_v2uqp7bv5h","62952c60095ebfbdca7ec2ac","freq_resp","img/orange_2bandit_b.png","70","70","test","","","","5","",""
"null","2046294","pSARL_v2","pSARL_v2uqp7bv5h","62952c60095ebfbdca7ec2ac","fixation","img/fixation.png","null","","test","","","","","",""
"null","2047104","pSARL_v2","pSARL_v2uqp7bv5h","62952c60095ebfbdca7ec2ac","freq","img/orange_2bandit_b2.png","null","70","test","0","93","93","5","",""
"null","2047258","pSARL_v2","pSARL_v2uqp7bv5h","62952c60095ebfbdca7ec2ac","fixation","img/fixation.png","null","","test","","","","","",""
"null","2048067","pSARL_v2","pSARL_v2uqp7bv5h","62952c60095ebfbdca7ec2ac","freq","img/orange_2bandit_b2.png","null","70","test","0","94","94","5","",""
"null","2048222","pSARL_v2","pSARL_v2uqp7bv5h","62952c60095ebfbdca7ec2ac","fixation","img/fixation.png","null","","test","","","","","",""
"439.5","2048665","pSARL_v2","pSARL_v2uqp7bv5h","62952c60095ebfbdca7ec2ac","infreq","img/green_2bandit_b2.png","68","68","test","1","95","95","5","",""
"null","2049035","pSARL_v2","pSARL_v2uqp7bv5h","62952c60095ebfbdca7ec2ac","infreq_resp","img/green_2bandit_b.png","68","68","test","","","","5","",""
"null","2049188","pSARL_v2","pSARL_v2uqp7bv5h","62952c60095ebfbdca7ec2ac","fixation","img/fixation.png","null","","test","","","","","",""
"305.19999980926514","2049496","pSARL_v2","pSARL_v2uqp7bv5h","62952c60095ebfbdca7ec2ac","freq","img/orange_2bandit_b2.png","70","70","test","1","96","96","5","",""
"null","2049993","pSARL_v2","pSARL_v2uqp7bv5h","62952c60095ebfbdca7ec2ac","freq_resp","img/orange_2bandit_b.png","70","70","test","","","","5","",""
"null","2050149","pSARL_v2","pSARL_v2uqp7bv5h","62952c60095ebfbdca7ec2ac","fixation","img/fixation.png","null","","test","","","","","",""
"439.7999999523163","2050592","pSARL_v2","pSARL_v2uqp7bv5h","62952c60095ebfbdca7ec2ac","infreq","img/green_2bandit_b2.png","68","68","test","1","97","97","5","",""
"null","2050967","pSARL_v2","pSARL_v2uqp7bv5h","62952c60095ebfbdca7ec2ac","infreq_resp","img/green_2bandit_b.png","68","68","test","","","","5","",""
"null","2051123","pSARL_v2","pSARL_v2uqp7bv5h","62952c60095ebfbdca7ec2ac","fixation","img/fixation.png","null","","test","","","","","",""
"594.1000001430511","2051720","pSARL_v2","pSARL_v2uqp7bv5h","62952c60095ebfbdca7ec2ac","freq","img/orange_2bandit_b2.png","70","70","test","1","98","98","5","",""
"null","2051934","pSARL_v2","pSARL_v2uqp7bv5h","62952c60095ebfbdca7ec2ac","freq_resp","img/orange_2bandit_b.png","70","70","test","","","","5","",""
"null","2052089","pSARL_v2","pSARL_v2uqp7bv5h","62952c60095ebfbdca7ec2ac","fixation","img/fixation.png","null","","test","","","","","",""
"588.7999999523163","2052680","pSARL_v2","pSARL_v2uqp7bv5h","62952c60095ebfbdca7ec2ac","freq","img/orange_2bandit_b2.png","70","70","test","1","99","99","5","",""
"null","2052896","pSARL_v2","pSARL_v2uqp7bv5h","62952c60095ebfbdca7ec2ac","freq_resp","img/orange_2bandit_b.png","70","70","test","","","","5","",""
"null","2053052","pSARL_v2","pSARL_v2uqp7bv5h","62952c60095ebfbdca7ec2ac","fixation","img/fixation.png","null","","test","","","","","",""
"777.9000000953674","2053832","pSARL_v2","pSARL_v2uqp7bv5h","62952c60095ebfbdca7ec2ac","freq","img/orange_2bandit_b2.png","70","70","test","1","100","100","5","",""
"null","2053857","pSARL_v2","pSARL_v2uqp7bv5h","62952c60095ebfbdca7ec2ac","freq_resp","img/orange_2bandit_b.png","70","70","test","","","","5","",""
"null","2054019","pSARL_v2","pSARL_v2uqp7bv5h","62952c60095ebfbdca7ec2ac","fixation","img/fixation.png","null","","test","","","","","",""
"754.8999998569489","2054776","pSARL_v2","pSARL_v2uqp7bv5h","62952c60095ebfbdca7ec2ac","freq","img/orange_2bandit_b2.png","70","70","test","1","101","101","5","",""
"null","2054828","pSARL_v2","pSARL_v2uqp7bv5h","62952c60095ebfbdca7ec2ac","freq_resp","img/orange_2bandit_b.png","70","70","test","","","","5","",""
"null","2054984","pSARL_v2","pSARL_v2uqp7bv5h","62952c60095ebfbdca7ec2ac","fixation","img/fixation.png","null","","test","","","","","",""
"764.2999999523163","2055752","pSARL_v2","pSARL_v2uqp7bv5h","62952c60095ebfbdca7ec2ac","freq","img/orange_2bandit_b2.png","70","70","test","1","102","102","5","",""
"null","2055790","pSARL_v2","pSARL_v2uqp7bv5h","62952c60095ebfbdca7ec2ac","freq_resp","img/orange_2bandit_b.png","70","70","test","","","","5","",""
"null","2055950","pSARL_v2","pSARL_v2uqp7bv5h","62952c60095ebfbdca7ec2ac","fixation","img/fixation.png","null","","test","","","","","",""
"736.7000000476837","2056689","pSARL_v2","pSARL_v2uqp7bv5h","62952c60095ebfbdca7ec2ac","freq","img/orange_2bandit_b2.png","70","70","test","1","103","103","5","",""
"null","2056756","pSARL_v2","pSARL_v2uqp7bv5h","62952c60095ebfbdca7ec2ac","freq_resp","img/orange_2bandit_b.png","70","70","test","","","","5","",""
"null","2056912","pSARL_v2","pSARL_v2uqp7bv5h","62952c60095ebfbdca7ec2ac","fixation","img/fixation.png","null","","test","","","","","",""
"692.6000001430511","2057607","pSARL_v2","pSARL_v2uqp7bv5h","62952c60095ebfbdca7ec2ac","freq","img/orange_2bandit_b2.png","70","70","test","1","104","104","5","",""
"null","2057721","pSARL_v2","pSARL_v2uqp7bv5h","62952c60095ebfbdca7ec2ac","freq_resp","img/orange_2bandit_b.png","70","70","test","","","","5","",""
"null","2057874","pSARL_v2","pSARL_v2uqp7bv5h","62952c60095ebfbdca7ec2ac","fixation","img/fixation.png","null","","test","","","","","",""
"658.7999999523163","2058536","pSARL_v2","pSARL_v2uqp7bv5h","62952c60095ebfbdca7ec2ac","freq","img/orange_2bandit_b2.png","70","70","test","1","105","105","5","",""
"null","2058686","pSARL_v2","pSARL_v2uqp7bv5h","62952c60095ebfbdca7ec2ac","freq_resp","img/orange_2bandit_b.png","70","70","test","","","","5","",""
"null","2058840","pSARL_v2","pSARL_v2uqp7bv5h","62952c60095ebfbdca7ec2ac","fixation","img/fixation.png","null","","test","","","","","",""
"598.2000000476837","2059440","pSARL_v2","pSARL_v2uqp7bv5h","62952c60095ebfbdca7ec2ac","freq","img/orange_2bandit_b2.png","70","70","test","1","106","106","5","",""
"null","2059647","pSARL_v2","pSARL_v2uqp7bv5h","62952c60095ebfbdca7ec2ac","freq_resp","img/orange_2bandit_b.png","70","70","test","","","","5","",""
"null","2059804","pSARL_v2","pSARL_v2uqp7bv5h","62952c60095ebfbdca7ec2ac","fixation","img/fixation.png","null","","test","","","","","",""
"481.60000014305115","2060288","pSARL_v2","pSARL_v2uqp7bv5h","62952c60095ebfbdca7ec2ac","freq","img/orange_2bandit_b2.png","70","70","test","1","107","107","5","",""
"null","2060611","pSARL_v2","pSARL_v2uqp7bv5h","62952c60095ebfbdca7ec2ac","freq_resp","img/orange_2bandit_b.png","70","70","test","","","","5","",""
"null","2060767","pSARL_v2","pSARL_v2uqp7bv5h","62952c60095ebfbdca7ec2ac","fixation","img/fixation.png","null","","test","","","","","",""
"439.09999990463257","2061209","pSARL_v2","pSARL_v2uqp7bv5h","62952c60095ebfbdca7ec2ac","freq","img/orange_2bandit_b2.png","70","70","test","1","108","108","5","",""
"null","2061572","pSARL_v2","pSARL_v2uqp7bv5h","62952c60095ebfbdca7ec2ac","freq_resp","img/orange_2bandit_b.png","70","70","test","","","","5","",""
"null","2061727","pSARL_v2","pSARL_v2uqp7bv5h","62952c60095ebfbdca7ec2ac","fixation","img/fixation.png","null","","test","","","","","",""
"406.59999990463257","2062136","pSARL_v2","pSARL_v2uqp7bv5h","62952c60095ebfbdca7ec2ac","freq","img/orange_2bandit_b2.png","70","70","test","1","109","109","5","",""
"null","2062537","pSARL_v2","pSARL_v2uqp7bv5h","62952c60095ebfbdca7ec2ac","freq_resp","img/orange_2bandit_b.png","70","70","test","","","","5","",""
"null","2062692","pSARL_v2","pSARL_v2uqp7bv5h","62952c60095ebfbdca7ec2ac","fixation","img/fixation.png","null","","test","","","","","",""
"320.5","2063015","pSARL_v2","pSARL_v2uqp7bv5h","62952c60095ebfbdca7ec2ac","freq","img/orange_2bandit_b2.png","70","70","test","1","110","110","5","",""
"null","2063502","pSARL_v2","pSARL_v2uqp7bv5h","62952c60095ebfbdca7ec2ac","freq_resp","img/orange_2bandit_b.png","70","70","test","","","","5","",""
"null","2063657","pSARL_v2","pSARL_v2uqp7bv5h","62952c60095ebfbdca7ec2ac","fixation","img/fixation.png","null","","test","","","","","",""
"291.90000009536743","2063951","pSARL_v2","pSARL_v2uqp7bv5h","62952c60095ebfbdca7ec2ac","freq","img/orange_2bandit_b2.png","70","70","test","1","111","111","5","",""
"null","2064467","pSARL_v2","pSARL_v2uqp7bv5h","62952c60095ebfbdca7ec2ac","freq_resp","img/orange_2bandit_b.png","70","70","test","","","","5","",""
"null","2064621","pSARL_v2","pSARL_v2uqp7bv5h","62952c60095ebfbdca7ec2ac","fixation","img/fixation.png","null","","test","","","","","",""
"296.09999990463257","2064920","pSARL_v2","pSARL_v2uqp7bv5h","62952c60095ebfbdca7ec2ac","infreq","img/green_2bandit_b2.png","70","68","test","0","112","112","5","",""
"null","2065441","pSARL_v2","pSARL_v2uqp7bv5h","62952c60095ebfbdca7ec2ac","infreq_resp","img/green_2bandit_b.png","70","68","test","","","","5","",""
"null","2065598","pSARL_v2","pSARL_v2uqp7bv5h","62952c60095ebfbdca7ec2ac","fixation","img/fixation.png","null","","test","","","","","",""
"558.8999998569489","2066160","pSARL_v2","pSARL_v2uqp7bv5h","62952c60095ebfbdca7ec2ac","freq","img/orange_2bandit_b2.png","70","70","test","1","113","113","5","",""
"null","2066408","pSARL_v2","pSARL_v2uqp7bv5h","62952c60095ebfbdca7ec2ac","freq_resp","img/orange_2bandit_b.png","70","70","test","","","","5","",""
"null","2066562","pSARL_v2","pSARL_v2uqp7bv5h","62952c60095ebfbdca7ec2ac","fixation","img/fixation.png","null","","test","","","","","",""
"404.90000009536743","2066969","pSARL_v2","pSARL_v2uqp7bv5h","62952c60095ebfbdca7ec2ac","freq","img/orange_2bandit_b2.png","70","70","test","1","114","114","5","",""
"null","2067367","pSARL_v2","pSARL_v2uqp7bv5h","62952c60095ebfbdca7ec2ac","freq_resp","img/orange_2bandit_b.png","70","70","test","","","","5","",""
"null","2067523","pSARL_v2","pSARL_v2uqp7bv5h","62952c60095ebfbdca7ec2ac","fixation","img/fixation.png","null","","test","","","","","",""
"515","2068040","pSARL_v2","pSARL_v2uqp7bv5h","62952c60095ebfbdca7ec2ac","reward","img/slot.png","74","","test","","","","","",""
"null","2068795","pSARL_v2","pSARL_v2uqp7bv5h","62952c60095ebfbdca7ec2ac","points","<div class=""veryhighPoints""> +1 </div>","null","na","test","","","","5","1","4"
"314","2069111","pSARL_v2","pSARL_v2uqp7bv5h","62952c60095ebfbdca7ec2ac","freq","img/orange_2bandit_b2.png","70","70","test","1","115","115","6","",""
"null","2069602","pSARL_v2","pSARL_v2uqp7bv5h","62952c60095ebfbdca7ec2ac","freq_resp","img/orange_2bandit_b.png","70","70","test","","","","6","",""
"null","2069758","pSARL_v2","pSARL_v2uqp7bv5h","62952c60095ebfbdca7ec2ac","fixation","img/fixation.png","null","","test","","","","","",""
"246.20000004768372","2070007","pSARL_v2","pSARL_v2uqp7bv5h","62952c60095ebfbdca7ec2ac","freq","img/orange_2bandit_b2.png","70","70","test","1","116","116","6","",""
"null","2070564","pSARL_v2","pSARL_v2uqp7bv5h","62952c60095ebfbdca7ec2ac","freq_resp","img/orange_2bandit_b.png","70","70","test","","","","6","",""
"null","2070721","pSARL_v2","pSARL_v2uqp7bv5h","62952c60095ebfbdca7ec2ac","fixation","img/fixation.png","null","","test","","","","","",""
"188.40000009536743","2070912","pSARL_v2","pSARL_v2uqp7bv5h","62952c60095ebfbdca7ec2ac","freq","img/orange_2bandit_b2.png","70","70","test","1","117","117","6","",""
"null","2071533","pSARL_v2","pSARL_v2uqp7bv5h","62952c60095ebfbdca7ec2ac","freq_resp","img/orange_2bandit_b.png","70","70","test","","","","6","",""
"null","2071689","pSARL_v2","pSARL_v2uqp7bv5h","62952c60095ebfbdca7ec2ac","fixation","img/fixation.png","null","","test","","","","","",""
"85.20000004768372","2071776","pSARL_v2","pSARL_v2uqp7bv5h","62952c60095ebfbdca7ec2ac","freq","img/orange_2bandit_b2.png","70","70","test","1","118","118","6","",""
"null","2072497","pSARL_v2","pSARL_v2uqp7bv5h","62952c60095ebfbdca7ec2ac","freq_resp","img/orange_2bandit_b.png","70","70","test","","","","6","",""
"null","2072653","pSARL_v2","pSARL_v2uqp7bv5h","62952c60095ebfbdca7ec2ac","fixation","img/fixation.png","null","","test","","","","","",""
"64.20000004768372","2072720","pSARL_v2","pSARL_v2uqp7bv5h","62952c60095ebfbdca7ec2ac","infreq","img/green_2bandit_b2.png","70","68","test","0","119","119","6","",""
"null","2073462","pSARL_v2","pSARL_v2uqp7bv5h","62952c60095ebfbdca7ec2ac","infreq_resp","img/green_2bandit_b.png","70","68","test","","","","6","",""
"null","2073618","pSARL_v2","pSARL_v2uqp7bv5h","62952c60095ebfbdca7ec2ac","fixation","img/fixation.png","null","","test","","","","","",""
"435.59999990463257","2074056","pSARL_v2","pSARL_v2uqp7bv5h","62952c60095ebfbdca7ec2ac","freq","img/orange_2bandit_b2.png","70","70","test","1","120","120","6","",""
"null","2074427","pSARL_v2","pSARL_v2uqp7bv5h","62952c60095ebfbdca7ec2ac","freq_resp","img/orange_2bandit_b.png","70","70","test","","","","6","",""
"null","2074583","pSARL_v2","pSARL_v2uqp7bv5h","62952c60095ebfbdca7ec2ac","fixation","img/fixation.png","null","","test","","","","","",""
"326.39999985694885","2074912","pSARL_v2","pSARL_v2uqp7bv5h","62952c60095ebfbdca7ec2ac","freq","img/orange_2bandit_b2.png","70","70","test","1","121","121","6","",""
"null","2075390","pSARL_v2","pSARL_v2uqp7bv5h","62952c60095ebfbdca7ec2ac","freq_resp","img/orange_2bandit_b.png","70","70","test","","","","6","",""
"null","2075546","pSARL_v2","pSARL_v2uqp7bv5h","62952c60095ebfbdca7ec2ac","fixation","img/fixation.png","null","","test","","","","","",""
"236.09999990463257","2075784","pSARL_v2","pSARL_v2uqp7bv5h","62952c60095ebfbdca7ec2ac","freq","img/orange_2bandit_b2.png","70","70","test","1","122","122","6","",""
"null","2076352","pSARL_v2","pSARL_v2uqp7bv5h","62952c60095ebfbdca7ec2ac","freq_resp","img/orange_2bandit_b.png","70","70","test","","","","6","",""
"null","2076509","pSARL_v2","pSARL_v2uqp7bv5h","62952c60095ebfbdca7ec2ac","fixation","img/fixation.png","null","","test","","","","","",""
"271.89999985694885","2076784","pSARL_v2","pSARL_v2uqp7bv5h","62952c60095ebfbdca7ec2ac","freq","img/orange_2bandit_b2.png","70","70","test","1","123","123","6","",""
"null","2077315","pSARL_v2","pSARL_v2uqp7bv5h","62952c60095ebfbdca7ec2ac","freq_resp","img/orange_2bandit_b.png","70","70","test","","","","6","",""
"null","2077470","pSARL_v2","pSARL_v2uqp7bv5h","62952c60095ebfbdca7ec2ac","fixation","img/fixation.png","null","","test","","","","","",""
"193.5","2077666","pSARL_v2","pSARL_v2uqp7bv5h","62952c60095ebfbdca7ec2ac","freq","img/orange_2bandit_b2.png","70","70","test","1","124","124","6","",""
"null","2078280","pSARL_v2","pSARL_v2uqp7bv5h","62952c60095ebfbdca7ec2ac","freq_resp","img/orange_2bandit_b.png","70","70","test","","","","6","",""
"null","2078435","pSARL_v2","pSARL_v2uqp7bv5h","62952c60095ebfbdca7ec2ac","fixation","img/fixation.png","null","","test","","","","","",""
"178.30000019073486","2078616","pSARL_v2","pSARL_v2uqp7bv5h","62952c60095ebfbdca7ec2ac","freq","img/orange_2bandit_b2.png","70","70","test","1","125","125","6","",""
"null","2079254","pSARL_v2","pSARL_v2uqp7bv5h","62952c60095ebfbdca7ec2ac","freq_resp","img/orange_2bandit_b.png","70","70","test","","","","6","",""
"null","2079408","pSARL_v2","pSARL_v2uqp7bv5h","62952c60095ebfbdca7ec2ac","fixation","img/fixation.png","null","","test","","","","","",""
"173.69999980926514","2079584","pSARL_v2","pSARL_v2uqp7bv5h","62952c60095ebfbdca7ec2ac","freq","img/orange_2bandit_b2.png","70","70","test","1","126","126","6","",""
"null","2080214","pSARL_v2","pSARL_v2uqp7bv5h","62952c60095ebfbdca7ec2ac","freq_resp","img/orange_2bandit_b.png","70","70","test","","","","6","",""
"null","2080368","pSARL_v2","pSARL_v2uqp7bv5h","62952c60095ebfbdca7ec2ac","fixation","img/fixation.png","null","","test","","","","","",""
"141.90000009536743","2080512","pSARL_v2","pSARL_v2uqp7bv5h","62952c60095ebfbdca7ec2ac","freq","img/orange_2bandit_b2.png","70","70","test","1","127","127","6","",""
"null","2081174","pSARL_v2","pSARL_v2uqp7bv5h","62952c60095ebfbdca7ec2ac","freq_resp","img/orange_2bandit_b.png","70","70","test","","","","6","",""
"null","2081328","pSARL_v2","pSARL_v2uqp7bv5h","62952c60095ebfbdca7ec2ac","fixation","img/fixation.png","null","","test","","","","","",""
"69.29999995231628","2081400","pSARL_v2","pSARL_v2uqp7bv5h","62952c60095ebfbdca7ec2ac","freq","img/orange_2bandit_b2.png","70","70","test","1","128","128","6","",""
"null","2082134","pSARL_v2","pSARL_v2uqp7bv5h","62952c60095ebfbdca7ec2ac","freq_resp","img/orange_2bandit_b.png","70","70","test","","","","6","",""
"null","2082288","pSARL_v2","pSARL_v2uqp7bv5h","62952c60095ebfbdca7ec2ac","fixation","img/fixation.png","null","","test","","","","","",""
"22","2082312","pSARL_v2","pSARL_v2uqp7bv5h","62952c60095ebfbdca7ec2ac","freq","img/orange_2bandit_b2.png","70","70","test","1","129","129","6","",""
"null","2083098","pSARL_v2","pSARL_v2uqp7bv5h","62952c60095ebfbdca7ec2ac","freq_resp","img/orange_2bandit_b.png","70","70","test","","","","6","",""
"null","2083254","pSARL_v2","pSARL_v2uqp7bv5h","62952c60095ebfbdca7ec2ac","fixation","img/fixation.png","null","","test","","","","","",""
"6.799999952316284","2083263","pSARL_v2","pSARL_v2uqp7bv5h","62952c60095ebfbdca7ec2ac","freq","img/orange_2bandit_b2.png","70","70","test","1","130","130","6","",""
"null","2084063","pSARL_v2","pSARL_v2uqp7bv5h","62952c60095ebfbdca7ec2ac","freq_resp","img/orange_2bandit_b.png","70","70","test","","","","6","",""
"null","2084220","pSARL_v2","pSARL_v2uqp7bv5h","62952c60095ebfbdca7ec2ac","fixation","img/fixation.png","null","","test","","","","","",""
"513.4000000953674","2084736","pSARL_v2","pSARL_v2uqp7bv5h","62952c60095ebfbdca7ec2ac","infreq","img/green_2bandit_b2.png","68","68","test","1","131","131","6","",""
"null","2085025","pSARL_v2","pSARL_v2uqp7bv5h","62952c60095ebfbdca7ec2ac","infreq_resp","img/green_2bandit_b.png","68","68","test","","","","6","",""
"null","2085182","pSARL_v2","pSARL_v2uqp7bv5h","62952c60095ebfbdca7ec2ac","fixation","img/fixation.png","null","","test","","","","","",""
"311.5","2085496","pSARL_v2","pSARL_v2uqp7bv5h","62952c60095ebfbdca7ec2ac","freq","img/orange_2bandit_b2.png","70","70","test","1","132","132","6","",""
"null","2085992","pSARL_v2","pSARL_v2uqp7bv5h","62952c60095ebfbdca7ec2ac","freq_resp","img/orange_2bandit_b.png","70","70","test","","","","6","",""
"null","2086149","pSARL_v2","pSARL_v2uqp7bv5h","62952c60095ebfbdca7ec2ac","fixation","img/fixation.png","null","","test","","","","","",""
"248.70000004768372","2086401","pSARL_v2","pSARL_v2uqp7bv5h","62952c60095ebfbdca7ec2ac","freq","img/orange_2bandit_b2.png","70","70","test","1","133","133","6","",""
"null","2086969","pSARL_v2","pSARL_v2uqp7bv5h","62952c60095ebfbdca7ec2ac","freq_resp","img/orange_2bandit_b.png","70","70","test","","","","6","",""
"null","2087123","pSARL_v2","pSARL_v2uqp7bv5h","62952c60095ebfbdca7ec2ac","fixation","img/fixation.png","null","","test","","","","","",""
"145.70000004768372","2087272","pSARL_v2","pSARL_v2uqp7bv5h","62952c60095ebfbdca7ec2ac","freq","img/orange_2bandit_b2.png","70","70","test","1","134","134","6","",""
"null","2087938","pSARL_v2","pSARL_v2uqp7bv5h","62952c60095ebfbdca7ec2ac","freq_resp","img/orange_2bandit_b.png","70","70","test","","","","6","",""
"null","2088095","pSARL_v2","pSARL_v2uqp7bv5h","62952c60095ebfbdca7ec2ac","fixation","img/fixation.png","null","","test","","","","","",""
"111.70000004768372","2088209","pSARL_v2","pSARL_v2uqp7bv5h","62952c60095ebfbdca7ec2ac","freq","img/orange_2bandit_b2.png","70","70","test","1","135","135","6","",""
"null","2088914","pSARL_v2","pSARL_v2uqp7bv5h","62952c60095ebfbdca7ec2ac","freq_resp","img/orange_2bandit_b.png","70","70","test","","","","6","",""
"null","2089070","pSARL_v2","pSARL_v2uqp7bv5h","62952c60095ebfbdca7ec2ac","fixation","img/fixation.png","null","","test","","","","","",""
"160.09999990463257","2089232","pSARL_v2","pSARL_v2uqp7bv5h","62952c60095ebfbdca7ec2ac","freq","img/orange_2bandit_b2.png","70","70","test","1","136","136","6","",""
"null","2089878","pSARL_v2","pSARL_v2uqp7bv5h","62952c60095ebfbdca7ec2ac","freq_resp","img/orange_2bandit_b.png","70","70","test","","","","6","",""
"null","2090033","pSARL_v2","pSARL_v2uqp7bv5h","62952c60095ebfbdca7ec2ac","fixation","img/fixation.png","null","","test","","","","","",""
"404","2090440","pSARL_v2","pSARL_v2uqp7bv5h","62952c60095ebfbdca7ec2ac","reward","img/slot.png","74","","test","","","","","",""
"null","2091203","pSARL_v2","pSARL_v2uqp7bv5h","62952c60095ebfbdca7ec2ac","points","<div class=""verylowPoints""> -7 </div>","null","na","test","","","","6","-7","5"
"null","2092009","pSARL_v2","pSARL_v2uqp7bv5h","62952c60095ebfbdca7ec2ac","freq","img/orange_2bandit_b2.png","null","70","test","0","137","137","7","",""
"null","2092167","pSARL_v2","pSARL_v2uqp7bv5h","62952c60095ebfbdca7ec2ac","fixation","img/fixation.png","null","","test","","","","","",""
"null","2092973","pSARL_v2","pSARL_v2uqp7bv5h","62952c60095ebfbdca7ec2ac","freq","img/orange_2bandit_b2.png","null","70","test","0","138","138","7","",""
"null","2093129","pSARL_v2","pSARL_v2uqp7bv5h","62952c60095ebfbdca7ec2ac","fixation","img/fixation.png","null","","test","","","","","",""
"null","2093939","pSARL_v2","pSARL_v2uqp7bv5h","62952c60095ebfbdca7ec2ac","freq","img/orange_2bandit_b2.png","null","70","test","0","139","139","7","",""
"null","2094094","pSARL_v2","pSARL_v2uqp7bv5h","62952c60095ebfbdca7ec2ac","fixation","img/fixation.png","null","","test","","","","","",""
"null","2094906","pSARL_v2","pSARL_v2uqp7bv5h","62952c60095ebfbdca7ec2ac","freq","img/orange_2bandit_b2.png","null","70","test","0","140","140","7","",""
"null","2095062","pSARL_v2","pSARL_v2uqp7bv5h","62952c60095ebfbdca7ec2ac","fixation","img/fixation.png","null","","test","","","","","",""
"null","2095869","pSARL_v2","pSARL_v2uqp7bv5h","62952c60095ebfbdca7ec2ac","freq","img/orange_2bandit_b2.png","null","70","test","0","141","141","7","",""
"null","2096026","pSARL_v2","pSARL_v2uqp7bv5h","62952c60095ebfbdca7ec2ac","fixation","img/fixation.png","null","","test","","","","","",""
"null","2096836","pSARL_v2","pSARL_v2uqp7bv5h","62952c60095ebfbdca7ec2ac","freq","img/orange_2bandit_b2.png","null","70","test","0","142","142","7","",""
"null","2096990","pSARL_v2","pSARL_v2uqp7bv5h","62952c60095ebfbdca7ec2ac","fixation","img/fixation.png","null","","test","","","","","",""
"768.0999999046326","2097760","pSARL_v2","pSARL_v2uqp7bv5h","62952c60095ebfbdca7ec2ac","freq","img/orange_2bandit_b2.png","70","70","test","1","143","143","7","",""
"null","2097794","pSARL_v2","pSARL_v2uqp7bv5h","62952c60095ebfbdca7ec2ac","freq_resp","img/orange_2bandit_b.png","70","70","test","","","","7","",""
"null","2097949","pSARL_v2","pSARL_v2uqp7bv5h","62952c60095ebfbdca7ec2ac","fixation","img/fixation.png","null","","test","","","","","",""
"745.9000000953674","2098698","pSARL_v2","pSARL_v2uqp7bv5h","62952c60095ebfbdca7ec2ac","infreq","img/green_2bandit_b2.png","70","68","test","0","144","144","7","",""
"null","2098757","pSARL_v2","pSARL_v2uqp7bv5h","62952c60095ebfbdca7ec2ac","infreq_resp","img/green_2bandit_b.png","70","68","test","","","","7","",""
"null","2098913","pSARL_v2","pSARL_v2uqp7bv5h","62952c60095ebfbdca7ec2ac","fixation","img/fixation.png","null","","test","","","","","",""
"524.0999999046326","2099439","pSARL_v2","pSARL_v2uqp7bv5h","62952c60095ebfbdca7ec2ac","infreq","img/green_2bandit_b2.png","68","68","test","1","145","145","7","",""
"null","2099733","pSARL_v2","pSARL_v2uqp7bv5h","62952c60095ebfbdca7ec2ac","infreq_resp","img/green_2bandit_b.png","68","68","test","","","","7","",""
"null","2099888","pSARL_v2","pSARL_v2uqp7bv5h","62952c60095ebfbdca7ec2ac","fixation","img/fixation.png","null","","test","","","","","",""
"709.2999999523163","2100600","pSARL_v2","pSARL_v2uqp7bv5h","62952c60095ebfbdca7ec2ac","freq","img/orange_2bandit_b2.png","70","70","test","1","146","146","7","",""
"null","2100694","pSARL_v2","pSARL_v2uqp7bv5h","62952c60095ebfbdca7ec2ac","freq_resp","img/orange_2bandit_b.png","70","70","test","","","","7","",""
"null","2100851","pSARL_v2","pSARL_v2uqp7bv5h","62952c60095ebfbdca7ec2ac","fixation","img/fixation.png","null","","test","","","","","",""
"null","2101660","pSARL_v2","pSARL_v2uqp7bv5h","62952c60095ebfbdca7ec2ac","freq","img/orange_2bandit_b2.png","null","70","test","0","147","147","7","",""
"null","2101818","pSARL_v2","pSARL_v2uqp7bv5h","62952c60095ebfbdca7ec2ac","fixation","img/fixation.png","null","","test","","","","","",""
"null","2102629","pSARL_v2","pSARL_v2uqp7bv5h","62952c60095ebfbdca7ec2ac","freq","img/orange_2bandit_b2.png","null","70","test","0","148","148","7","",""
"null","2102783","pSARL_v2","pSARL_v2uqp7bv5h","62952c60095ebfbdca7ec2ac","fixation","img/fixation.png","null","","test","","","","","",""
"null","2103591","pSARL_v2","pSARL_v2uqp7bv5h","62952c60095ebfbdca7ec2ac","freq","img/orange_2bandit_b2.png","null","70","test","0","149","149","7","",""
"null","2103744","pSARL_v2","pSARL_v2uqp7bv5h","62952c60095ebfbdca7ec2ac","fixation","img/fixation.png","null","","test","","","","","",""
"null","2104551","pSARL_v2","pSARL_v2uqp7bv5h","62952c60095ebfbdca7ec2ac","freq","img/orange_2bandit_b2.png","null","70","test","0","150","150","7","",""
"null","2104707","pSARL_v2","pSARL_v2uqp7bv5h","62952c60095ebfbdca7ec2ac","fixation","img/fixation.png","null","","test","","","","","",""
"null","2105516","pSARL_v2","pSARL_v2uqp7bv5h","62952c60095ebfbdca7ec2ac","freq","img/orange_2bandit_b2.png","null","70","test","0","151","151","7","",""
"null","2105671","pSARL_v2","pSARL_v2uqp7bv5h","62952c60095ebfbdca7ec2ac","fixation","img/fixation.png","null","","test","","","","","",""
"null","2106481","pSARL_v2","pSARL_v2uqp7bv5h","62952c60095ebfbdca7ec2ac","freq","img/orange_2bandit_b2.png","null","70","test","0","152","152","7","",""
"null","2106637","pSARL_v2","pSARL_v2uqp7bv5h","62952c60095ebfbdca7ec2ac","fixation","img/fixation.png","null","","test","","","","","",""
"344.7000000476837","2106984","pSARL_v2","pSARL_v2uqp7bv5h","62952c60095ebfbdca7ec2ac","freq","img/orange_2bandit_b2.png","68","70","test","0","153","153","7","",""
"null","2107448","pSARL_v2","pSARL_v2uqp7bv5h","62952c60095ebfbdca7ec2ac","freq_resp","img/orange_2bandit_b.png","68","70","test","","","","7","",""
"null","2107605","pSARL_v2","pSARL_v2uqp7bv5h","62952c60095ebfbdca7ec2ac","fixation","img/fixation.png","null","","test","","","","","",""
"656.7000000476837","2108264","pSARL_v2","pSARL_v2uqp7bv5h","62952c60095ebfbdca7ec2ac","freq","img/orange_2bandit_b2.png","70","70","test","1","154","154","7","",""
"null","2108415","pSARL_v2","pSARL_v2uqp7bv5h","62952c60095ebfbdca7ec2ac","freq_resp","img/orange_2bandit_b.png","70","70","test","","","","7","",""
"null","2108571","pSARL_v2","pSARL_v2uqp7bv5h","62952c60095ebfbdca7ec2ac","fixation","img/fixation.png","null","","test","","","","","",""
"467.59999990463257","2109041","pSARL_v2","pSARL_v2uqp7bv5h","62952c60095ebfbdca7ec2ac","freq","img/orange_2bandit_b2.png","70","70","test","1","155","155","7","",""
"null","2109390","pSARL_v2","pSARL_v2uqp7bv5h","62952c60095ebfbdca7ec2ac","freq_resp","img/orange_2bandit_b.png","70","70","test","","","","7","",""
"null","2109545","pSARL_v2","pSARL_v2uqp7bv5h","62952c60095ebfbdca7ec2ac","fixation","img/fixation.png","null","","test","","","","","",""
"396.7000000476837","2109944","pSARL_v2","pSARL_v2uqp7bv5h","62952c60095ebfbdca7ec2ac","freq","img/orange_2bandit_b2.png","70","70","test","1","156","156","7","",""
"null","2110355","pSARL_v2","pSARL_v2uqp7bv5h","62952c60095ebfbdca7ec2ac","freq_resp","img/orange_2bandit_b.png","70","70","test","","","","7","",""
"null","2110510","pSARL_v2","pSARL_v2uqp7bv5h","62952c60095ebfbdca7ec2ac","fixation","img/fixation.png","null","","test","","","","","",""
"343.7999999523163","2110856","pSARL_v2","pSARL_v2uqp7bv5h","62952c60095ebfbdca7ec2ac","freq","img/orange_2bandit_b2.png","70","70","test","1","157","157","7","",""
"null","2111317","pSARL_v2","pSARL_v2uqp7bv5h","62952c60095ebfbdca7ec2ac","freq_resp","img/orange_2bandit_b.png","70","70","test","","","","7","",""
"null","2111474","pSARL_v2","pSARL_v2uqp7bv5h","62952c60095ebfbdca7ec2ac","fixation","img/fixation.png","null","","test","","","","","",""
"379.69999980926514","2111856","pSARL_v2","pSARL_v2uqp7bv5h","62952c60095ebfbdca7ec2ac","freq","img/orange_2bandit_b2.png","70","70","test","1","158","158","7","",""
"null","2112283","pSARL_v2","pSARL_v2uqp7bv5h","62952c60095ebfbdca7ec2ac","freq_resp","img/orange_2bandit_b.png","70","70","test","","","","7","",""
"null","2112440","pSARL_v2","pSARL_v2uqp7bv5h","62952c60095ebfbdca7ec2ac","fixation","img/fixation.png","null","","test","","","","","",""
"348.90000009536743","2112791","pSARL_v2","pSARL_v2uqp7bv5h","62952c60095ebfbdca7ec2ac","freq","img/orange_2bandit_b2.png","70","70","test","1","159","159","7","",""
"null","2113248","pSARL_v2","pSARL_v2uqp7bv5h","62952c60095ebfbdca7ec2ac","freq_resp","img/orange_2bandit_b.png","70","70","test","","","","7","",""
"null","2113403","pSARL_v2","pSARL_v2uqp7bv5h","62952c60095ebfbdca7ec2ac","fixation","img/fixation.png","null","","test","","","","","",""
"297.2000000476837","2113704","pSARL_v2","pSARL_v2uqp7bv5h","62952c60095ebfbdca7ec2ac","freq","img/orange_2bandit_b2.png","70","70","test","1","160","160","7","",""
"null","2114211","pSARL_v2","pSARL_v2uqp7bv5h","62952c60095ebfbdca7ec2ac","freq_resp","img/orange_2bandit_b.png","70","70","test","","","","7","",""
"null","2114365","pSARL_v2","pSARL_v2uqp7bv5h","62952c60095ebfbdca7ec2ac","fixation","img/fixation.png","null","","test","","","","","",""
"616.5","2114985","pSARL_v2","pSARL_v2uqp7bv5h","62952c60095ebfbdca7ec2ac","reward","img/slot.png","74","","test","","","","","",""
"null","2115738","pSARL_v2","pSARL_v2uqp7bv5h","62952c60095ebfbdca7ec2ac","points","<div class=""verylowPoints""> -6 </div>","null","na","test","","","","7","-6","6"
"459.59999990463257","2116201","pSARL_v2","pSARL_v2uqp7bv5h","62952c60095ebfbdca7ec2ac","freq","img/orange_2bandit_b2.png","70","70","test","1","161","161","8","",""
"null","2116548","pSARL_v2","pSARL_v2uqp7bv5h","62952c60095ebfbdca7ec2ac","freq_resp","img/orange_2bandit_b.png","70","70","test","","","","8","",""
"null","2116702","pSARL_v2","pSARL_v2uqp7bv5h","62952c60095ebfbdca7ec2ac","fixation","img/fixation.png","null","","test","","","","","",""
"551.6000001430511","2117258","pSARL_v2","pSARL_v2uqp7bv5h","62952c60095ebfbdca7ec2ac","freq","img/orange_2bandit_b2.png","70","70","test","1","162","162","8","",""
"null","2117522","pSARL_v2","pSARL_v2uqp7bv5h","62952c60095ebfbdca7ec2ac","freq_resp","img/orange_2bandit_b.png","70","70","test","","","","8","",""
"null","2117676","pSARL_v2","pSARL_v2uqp7bv5h","62952c60095ebfbdca7ec2ac","fixation","img/fixation.png","null","","test","","","","","",""
"393.2000000476837","2118072","pSARL_v2","pSARL_v2uqp7bv5h","62952c60095ebfbdca7ec2ac","freq","img/orange_2bandit_b2.png","70","70","test","1","163","163","8","",""
"null","2118490","pSARL_v2","pSARL_v2uqp7bv5h","62952c60095ebfbdca7ec2ac","freq_resp","img/orange_2bandit_b.png","70","70","test","","","","8","",""
"null","2118645","pSARL_v2","pSARL_v2uqp7bv5h","62952c60095ebfbdca7ec2ac","fixation","img/fixation.png","null","","test","","","","","",""
"304.5","2118952","pSARL_v2","pSARL_v2uqp7bv5h","62952c60095ebfbdca7ec2ac","freq","img/orange_2bandit_b2.png","70","70","test","1","164","164","8","",""
"null","2119453","pSARL_v2","pSARL_v2uqp7bv5h","62952c60095ebfbdca7ec2ac","freq_resp","img/orange_2bandit_b.png","70","70","test","","","","8","",""
"null","2119609","pSARL_v2","pSARL_v2uqp7bv5h","62952c60095ebfbdca7ec2ac","fixation","img/fixation.png","null","","test","","","","","",""
"157.09999990463257","2119769","pSARL_v2","pSARL_v2uqp7bv5h","62952c60095ebfbdca7ec2ac","freq","img/orange_2bandit_b2.png","70","70","test","1","165","165","8","",""
"null","2120415","pSARL_v2","pSARL_v2uqp7bv5h","62952c60095ebfbdca7ec2ac","freq_resp","img/orange_2bandit_b.png","70","70","test","","","","8","",""
"null","2120571","pSARL_v2","pSARL_v2uqp7bv5h","62952c60095ebfbdca7ec2ac","fixation","img/fixation.png","null","","test","","","","","",""
"25.700000047683716","2120599","pSARL_v2","pSARL_v2uqp7bv5h","62952c60095ebfbdca7ec2ac","infreq","img/green_2bandit_b2.png","70","68","test","0","166","166","8","",""
"null","2121378","pSARL_v2","pSARL_v2uqp7bv5h","62952c60095ebfbdca7ec2ac","infreq_resp","img/green_2bandit_b.png","70","68","test","","","","8","",""
"null","2121535","pSARL_v2","pSARL_v2uqp7bv5h","62952c60095ebfbdca7ec2ac","fixation","img/fixation.png","null","","test","","","","","",""
"582.4000000953674","2122120","pSARL_v2","pSARL_v2uqp7bv5h","62952c60095ebfbdca7ec2ac","freq","img/orange_2bandit_b2.png","70","70","test","1","167","167","8","",""
"null","2122345","pSARL_v2","pSARL_v2uqp7bv5h","62952c60095ebfbdca7ec2ac","freq_resp","img/orange_2bandit_b.png","70","70","test","","","","8","",""
"null","2122498","pSARL_v2","pSARL_v2uqp7bv5h","62952c60095ebfbdca7ec2ac","fixation","img/fixation.png","null","","test","","","","","",""
"498.90000009536743","2123000","pSARL_v2","pSARL_v2uqp7bv5h","62952c60095ebfbdca7ec2ac","freq","img/orange_2bandit_b2.png","70","70","test","1","168","168","8","",""
"null","2123306","pSARL_v2","pSARL_v2uqp7bv5h","62952c60095ebfbdca7ec2ac","freq_resp","img/orange_2bandit_b.png","70","70","test","","","","8","",""
"null","2123460","pSARL_v2","pSARL_v2uqp7bv5h","62952c60095ebfbdca7ec2ac","fixation","img/fixation.png","null","","test","","","","","",""
"498.2000000476837","2123961","pSARL_v2","pSARL_v2uqp7bv5h","62952c60095ebfbdca7ec2ac","freq","img/orange_2bandit_b2.png","70","70","test","1","169","169","8","",""
"null","2124280","pSARL_v2","pSARL_v2uqp7bv5h","62952c60095ebfbdca7ec2ac","freq_resp","img/orange_2bandit_b.png","70","70","test","","","","8","",""
"null","2124437","pSARL_v2","pSARL_v2uqp7bv5h","62952c60095ebfbdca7ec2ac","fixation","img/fixation.png","null","","test","","","","","",""
"264.40000009536743","2124704","pSARL_v2","pSARL_v2uqp7bv5h","62952c60095ebfbdca7ec2ac","freq","img/orange_2bandit_b2.png","70","70","test","1","170","170","8","",""
"null","2125247","pSARL_v2","pSARL_v2uqp7bv5h","62952c60095ebfbdca7ec2ac","freq_resp","img/orange_2bandit_b.png","70","70","test","","","","8","",""
"null","2125401","pSARL_v2","pSARL_v2uqp7bv5h","62952c60095ebfbdca7ec2ac","fixation","img/fixation.png","null","","test","","","","","",""
"92.09999990463257","2125495","pSARL_v2","pSARL_v2uqp7bv5h","62952c60095ebfbdca7ec2ac","freq","img/orange_2bandit_b2.png","70","70","test","1","171","171","8","",""
"null","2126210","pSARL_v2","pSARL_v2uqp7bv5h","62952c60095ebfbdca7ec2ac","freq_resp","img/orange_2bandit_b.png","70","70","test","","","","8","",""
"null","2126367","pSARL_v2","pSARL_v2uqp7bv5h","62952c60095ebfbdca7ec2ac","fixation","img/fixation.png","null","","test","","","","","",""
"510.40000009536743","2126879","pSARL_v2","pSARL_v2uqp7bv5h","62952c60095ebfbdca7ec2ac","infreq","img/green_2bandit_b2.png","68","68","test","1","172","172","8","",""
"null","2127176","pSARL_v2","pSARL_v2uqp7bv5h","62952c60095ebfbdca7ec2ac","infreq_resp","img/green_2bandit_b.png","68","68","test","","","","8","",""
"null","2127332","pSARL_v2","pSARL_v2uqp7bv5h","62952c60095ebfbdca7ec2ac","fixation","img/fixation.png","null","","test","","","","","",""
"440.5","2127775","pSARL_v2","pSARL_v2uqp7bv5h","62952c60095ebfbdca7ec2ac","freq","img/orange_2bandit_b2.png","70","70","test","1","173","173","8","",""
"null","2128143","pSARL_v2","pSARL_v2uqp7bv5h","62952c60095ebfbdca7ec2ac","freq_resp","img/orange_2bandit_b.png","70","70","test","","","","8","",""
"null","2128300","pSARL_v2","pSARL_v2uqp7bv5h","62952c60095ebfbdca7ec2ac","fixation","img/fixation.png","null","","test","","","","","",""
"401.40000009536743","2128704","pSARL_v2","pSARL_v2uqp7bv5h","62952c60095ebfbdca7ec2ac","freq","img/orange_2bandit_b2.png","70","70","test","1","174","174","8","",""
"null","2129119","pSARL_v2","pSARL_v2uqp7bv5h","62952c60095ebfbdca7ec2ac","freq_resp","img/orange_2bandit_b.png","70","70","test","","","","8","",""
"null","2129275","pSARL_v2","pSARL_v2uqp7bv5h","62952c60095ebfbdca7ec2ac","fixation","img/fixation.png","null","","test","","","","","",""
"290.2000000476837","2129568","pSARL_v2","pSARL_v2uqp7bv5h","62952c60095ebfbdca7ec2ac","freq","img/orange_2bandit_b2.png","70","70","test","1","175","175","8","",""
"null","2130087","pSARL_v2","pSARL_v2uqp7bv5h","62952c60095ebfbdca7ec2ac","freq_resp","img/orange_2bandit_b.png","70","70","test","","","","8","",""
"null","2130244","pSARL_v2","pSARL_v2uqp7bv5h","62952c60095ebfbdca7ec2ac","fixation","img/fixation.png","null","","test","","","","","",""
"275.09999990463257","2130522","pSARL_v2","pSARL_v2uqp7bv5h","62952c60095ebfbdca7ec2ac","freq","img/orange_2bandit_b2.png","70","70","test","1","176","176","8","",""
"null","2131050","pSARL_v2","pSARL_v2uqp7bv5h","62952c60095ebfbdca7ec2ac","freq_resp","img/orange_2bandit_b.png","70","70","test","","","","8","",""
"null","2131206","pSARL_v2","pSARL_v2uqp7bv5h","62952c60095ebfbdca7ec2ac","fixation","img/fixation.png","null","","test","","","","","",""
"223.79999995231628","2131433","pSARL_v2","pSARL_v2uqp7bv5h","62952c60095ebfbdca7ec2ac","freq","img/orange_2bandit_b2.png","70","70","test","1","177","177","8","",""
"null","2132012","pSARL_v2","pSARL_v2uqp7bv5h","62952c60095ebfbdca7ec2ac","freq_resp","img/orange_2bandit_b.png","70","70","test","","","","8","",""
"null","2132166","pSARL_v2","pSARL_v2uqp7bv5h","62952c60095ebfbdca7ec2ac","fixation","img/fixation.png","null","","test","","","","","",""
"311.7000000476837","2132480","pSARL_v2","pSARL_v2uqp7bv5h","62952c60095ebfbdca7ec2ac","freq","img/orange_2bandit_b2.png","70","70","test","1","178","178","8","",""
"null","2132973","pSARL_v2","pSARL_v2uqp7bv5h","62952c60095ebfbdca7ec2ac","freq_resp","img/orange_2bandit_b.png","70","70","test","","","","8","",""
"null","2133131","pSARL_v2","pSARL_v2uqp7bv5h","62952c60095ebfbdca7ec2ac","fixation","img/fixation.png","null","","test","","","","","",""
"289.7000000476837","2133424","pSARL_v2","pSARL_v2uqp7bv5h","62952c60095ebfbdca7ec2ac","freq","img/orange_2bandit_b2.png","70","70","test","1","179","179","8","",""
"null","2133951","pSARL_v2","pSARL_v2uqp7bv5h","62952c60095ebfbdca7ec2ac","freq_resp","img/orange_2bandit_b.png","70","70","test","","","","8","",""
"null","2134106","pSARL_v2","pSARL_v2uqp7bv5h","62952c60095ebfbdca7ec2ac","fixation","img/fixation.png","null","","test","","","","","",""
"420","2134529","pSARL_v2","pSARL_v2uqp7bv5h","62952c60095ebfbdca7ec2ac","freq","img/orange_2bandit_b2.png","70","70","test","1","180","180","8","",""
"null","2134919","pSARL_v2","pSARL_v2uqp7bv5h","62952c60095ebfbdca7ec2ac","freq_resp","img/orange_2bandit_b.png","70","70","test","","","","8","",""
"null","2135075","pSARL_v2","pSARL_v2uqp7bv5h","62952c60095ebfbdca7ec2ac","fixation","img/fixation.png","null","","test","","","","","",""
"346.60000014305115","2135424","pSARL_v2","pSARL_v2uqp7bv5h","62952c60095ebfbdca7ec2ac","freq","img/orange_2bandit_b2.png","70","70","test","1","181","181","8","",""
"null","2135886","pSARL_v2","pSARL_v2uqp7bv5h","62952c60095ebfbdca7ec2ac","freq_resp","img/orange_2bandit_b.png","70","70","test","","","","8","",""
"null","2136041","pSARL_v2","pSARL_v2uqp7bv5h","62952c60095ebfbdca7ec2ac","fixation","img/fixation.png","null","","test","","","","","",""
"380","2136424","pSARL_v2","pSARL_v2uqp7bv5h","62952c60095ebfbdca7ec2ac","freq","img/orange_2bandit_b2.png","70","70","test","1","182","182","8","",""
"null","2136851","pSARL_v2","pSARL_v2uqp7bv5h","62952c60095ebfbdca7ec2ac","freq_resp","img/orange_2bandit_b.png","70","70","test","","","","8","",""
"null","2137006","pSARL_v2","pSARL_v2uqp7bv5h","62952c60095ebfbdca7ec2ac","fixation","img/fixation.png","null","","test","","","","","",""
"391.59999990463257","2137400","pSARL_v2","pSARL_v2uqp7bv5h","62952c60095ebfbdca7ec2ac","freq","img/orange_2bandit_b2.png","70","70","test","1","183","183","8","",""
"null","2137826","pSARL_v2","pSARL_v2uqp7bv5h","62952c60095ebfbdca7ec2ac","freq_resp","img/orange_2bandit_b.png","70","70","test","","","","8","",""
"null","2137980","pSARL_v2","pSARL_v2uqp7bv5h","62952c60095ebfbdca7ec2ac","fixation","img/fixation.png","null","","test","","","","","",""
"544.9000000953674","2138527","pSARL_v2","pSARL_v2uqp7bv5h","62952c60095ebfbdca7ec2ac","reward","img/slot.png","74","","test","","","","","",""
"null","2139287","pSARL_v2","pSARL_v2uqp7bv5h","62952c60095ebfbdca7ec2ac","points","<div class=""verylowPoints""> -4 </div>","null","na","test","","","","8","-4","7"
"null","2140094","pSARL_v2","pSARL_v2uqp7bv5h","62952c60095ebfbdca7ec2ac","freq","img/orange_2bandit_b2.png","null","70","test","0","184","184","9","",""
"null","2140250","pSARL_v2","pSARL_v2uqp7bv5h","62952c60095ebfbdca7ec2ac","fixation","img/fixation.png","null","","test","","","","","",""
"316.7999999523163","2140569","pSARL_v2","pSARL_v2uqp7bv5h","62952c60095ebfbdca7ec2ac","freq","img/orange_2bandit_b2.png","70","70","test","1","185","185","9","",""
"null","2141056","pSARL_v2","pSARL_v2uqp7bv5h","62952c60095ebfbdca7ec2ac","freq_resp","img/orange_2bandit_b.png","70","70","test","","","","9","",""
"null","2141213","pSARL_v2","pSARL_v2uqp7bv5h","62952c60095ebfbdca7ec2ac","fixation","img/fixation.png","null","","test","","","","","",""
"112.40000009536743","2141328","pSARL_v2","pSARL_v2uqp7bv5h","62952c60095ebfbdca7ec2ac","freq","img/orange_2bandit_b2.png","70","70","test","1","186","186","9","",""
"null","2142024","pSARL_v2","pSARL_v2uqp7bv5h","62952c60095ebfbdca7ec2ac","freq_resp","img/orange_2bandit_b.png","70","70","test","","","","9","",""
"null","2142179","pSARL_v2","pSARL_v2uqp7bv5h","62952c60095ebfbdca7ec2ac","fixation","img/fixation.png","null","","test","","","","","",""
"139.70000004768372","2142321","pSARL_v2","pSARL_v2uqp7bv5h","62952c60095ebfbdca7ec2ac","freq","img/orange_2bandit_b2.png","70","70","test","1","187","187","9","",""
"null","2142988","pSARL_v2","pSARL_v2uqp7bv5h","62952c60095ebfbdca7ec2ac","freq_resp","img/orange_2bandit_b.png","70","70","test","","","","9","",""
"null","2143144","pSARL_v2","pSARL_v2uqp7bv5h","62952c60095ebfbdca7ec2ac","fixation","img/fixation.png","null","","test","","","","","",""
"238.20000004768372","2143385","pSARL_v2","pSARL_v2uqp7bv5h","62952c60095ebfbdca7ec2ac","freq","img/orange_2bandit_b2.png","70","70","test","1","188","188","9","",""
"null","2143949","pSARL_v2","pSARL_v2uqp7bv5h","62952c60095ebfbdca7ec2ac","freq_resp","img/orange_2bandit_b.png","70","70","test","","","","9","",""
"null","2144105","pSARL_v2","pSARL_v2uqp7bv5h","62952c60095ebfbdca7ec2ac","fixation","img/fixation.png","null","","test","","","","","",""
"179.10000014305115","2144287","pSARL_v2","pSARL_v2uqp7bv5h","62952c60095ebfbdca7ec2ac","freq","img/orange_2bandit_b2.png","70","70","test","1","189","189","9","",""
"null","2144916","pSARL_v2","pSARL_v2uqp7bv5h","62952c60095ebfbdca7ec2ac","freq_resp","img/orange_2bandit_b.png","70","70","test","","","","9","",""
"null","2145071","pSARL_v2","pSARL_v2uqp7bv5h","62952c60095ebfbdca7ec2ac","fixation","img/fixation.png","null","","test","","","","","",""
"62.60000014305115","2145137","pSARL_v2","pSARL_v2uqp7bv5h","62952c60095ebfbdca7ec2ac","freq","img/orange_2bandit_b2.png","70","70","test","1","190","190","9","",""
"null","2145879","pSARL_v2","pSARL_v2uqp7bv5h","62952c60095ebfbdca7ec2ac","freq_resp","img/orange_2bandit_b.png","70","70","test","","","","9","",""
"null","2146036","pSARL_v2","pSARL_v2uqp7bv5h","62952c60095ebfbdca7ec2ac","fixation","img/fixation.png","null","","test","","","","","",""
"null","2146846","pSARL_v2","pSARL_v2uqp7bv5h","62952c60095ebfbdca7ec2ac","infreq","img/green_2bandit_b2.png","null","68","test","0","191","191","9","",""
"null","2146999","pSARL_v2","pSARL_v2uqp7bv5h","62952c60095ebfbdca7ec2ac","fixation","img/fixation.png","null","","test","","","","","",""
"null","2147812","pSARL_v2","pSARL_v2uqp7bv5h","62952c60095ebfbdca7ec2ac","freq","img/orange_2bandit_b2.png","null","70","test","0","192","192","9","",""
"null","2147969","pSARL_v2","pSARL_v2uqp7bv5h","62952c60095ebfbdca7ec2ac","fixation","img/fixation.png","null","","test","","","","","",""
"null","2148774","pSARL_v2","pSARL_v2uqp7bv5h","62952c60095ebfbdca7ec2ac","freq","img/orange_2bandit_b2.png","null","70","test","0","193","193","9","",""
"null","2148929","pSARL_v2","pSARL_v2uqp7bv5h","62952c60095ebfbdca7ec2ac","fixation","img/fixation.png","null","","test","","","","","",""
"476.7000000476837","2149408","pSARL_v2","pSARL_v2uqp7bv5h","62952c60095ebfbdca7ec2ac","infreq","img/green_2bandit_b2.png","68","68","test","1","194","194","9","",""
"null","2149737","pSARL_v2","pSARL_v2uqp7bv5h","62952c60095ebfbdca7ec2ac","infreq_resp","img/green_2bandit_b.png","68","68","test","","","","9","",""
"null","2149890","pSARL_v2","pSARL_v2uqp7bv5h","62952c60095ebfbdca7ec2ac","fixation","img/fixation.png","null","","test","","","","","",""
"547.5","2150440","pSARL_v2","pSARL_v2uqp7bv5h","62952c60095ebfbdca7ec2ac","infreq","img/green_2bandit_b2.png","68","68","test","1","195","195","9","",""
"null","2150710","pSARL_v2","pSARL_v2uqp7bv5h","62952c60095ebfbdca7ec2ac","infreq_resp","img/green_2bandit_b.png","68","68","test","","","","9","",""
"null","2150866","pSARL_v2","pSARL_v2uqp7bv5h","62952c60095ebfbdca7ec2ac","fixation","img/fixation.png","null","","test","","","","","",""
"517.0999999046326","2151386","pSARL_v2","pSARL_v2uqp7bv5h","62952c60095ebfbdca7ec2ac","freq","img/orange_2bandit_b2.png","70","70","test","1","196","196","9","",""
"null","2151684","pSARL_v2","pSARL_v2uqp7bv5h","62952c60095ebfbdca7ec2ac","freq_resp","img/orange_2bandit_b.png","70","70","test","","","","9","",""
"null","2151839","pSARL_v2","pSARL_v2uqp7bv5h","62952c60095ebfbdca7ec2ac","fixation","img/fixation.png","null","","test","","","","","",""
"638.3000001907349","2152480","pSARL_v2","pSARL_v2uqp7bv5h","62952c60095ebfbdca7ec2ac","freq","img/orange_2bandit_b2.png","70","70","test","1","197","197","9","",""
"null","2152647","pSARL_v2","pSARL_v2uqp7bv5h","62952c60095ebfbdca7ec2ac","freq_resp","img/orange_2bandit_b.png","70","70","test","","","","9","",""
"null","2152801","pSARL_v2","pSARL_v2uqp7bv5h","62952c60095ebfbdca7ec2ac","fixation","img/fixation.png","null","","test","","","","","",""
"580.0999999046326","2153383","pSARL_v2","pSARL_v2uqp7bv5h","62952c60095ebfbdca7ec2ac","freq","img/orange_2bandit_b2.png","70","70","test","1","198","198","9","",""
"null","2153607","pSARL_v2","pSARL_v2uqp7bv5h","62952c60095ebfbdca7ec2ac","freq_resp","img/orange_2bandit_b.png","70","70","test","","","","9","",""
"null","2153763","pSARL_v2","pSARL_v2uqp7bv5h","62952c60095ebfbdca7ec2ac","fixation","img/fixation.png","null","","test","","","","","",""
"492.39999985694885","2154258","pSARL_v2","pSARL_v2uqp7bv5h","62952c60095ebfbdca7ec2ac","freq","img/orange_2bandit_b2.png","70","70","test","1","199","199","9","",""
"null","2154580","pSARL_v2","pSARL_v2uqp7bv5h","62952c60095ebfbdca7ec2ac","freq_resp","img/orange_2bandit_b.png","70","70","test","","","","9","",""
"null","2154734","pSARL_v2","pSARL_v2uqp7bv5h","62952c60095ebfbdca7ec2ac","fixation","img/fixation.png","null","","test","","","","","",""
"743.4000000953674","2155480","pSARL_v2","pSARL_v2uqp7bv5h","62952c60095ebfbdca7ec2ac","freq","img/orange_2bandit_b2.png","70","70","test","1","200","200","9","",""
"null","2155541","pSARL_v2","pSARL_v2uqp7bv5h","62952c60095ebfbdca7ec2ac","freq_resp","img/orange_2bandit_b.png","70","70","test","","","","9","",""
"null","2155694","pSARL_v2","pSARL_v2uqp7bv5h","62952c60095ebfbdca7ec2ac","fixation","img/fixation.png","null","","test","","","","","",""
"711.2000000476837","2156408","pSARL_v2","pSARL_v2uqp7bv5h","62952c60095ebfbdca7ec2ac","freq","img/orange_2bandit_b2.png","70","70","test","1","201","201","9","",""
"null","2156504","pSARL_v2","pSARL_v2uqp7bv5h","62952c60095ebfbdca7ec2ac","freq_resp","img/orange_2bandit_b.png","70","70","test","","","","9","",""
"null","2156658","pSARL_v2","pSARL_v2uqp7bv5h","62952c60095ebfbdca7ec2ac","fixation","img/fixation.png","null","","test","","","","","",""
"635.2999999523163","2157296","pSARL_v2","pSARL_v2uqp7bv5h","62952c60095ebfbdca7ec2ac","freq","img/orange_2bandit_b2.png","70","70","test","1","202","202","9","",""
"null","2157472","pSARL_v2","pSARL_v2uqp7bv5h","62952c60095ebfbdca7ec2ac","freq_resp","img/orange_2bandit_b.png","70","70","test","","","","9","",""
"null","2157628","pSARL_v2","pSARL_v2uqp7bv5h","62952c60095ebfbdca7ec2ac","fixation","img/fixation.png","null","","test","","","","","",""
"641.5","2158272","pSARL_v2","pSARL_v2uqp7bv5h","62952c60095ebfbdca7ec2ac","freq","img/orange_2bandit_b2.png","70","70","test","1","203","203","9","",""
"null","2158436","pSARL_v2","pSARL_v2uqp7bv5h","62952c60095ebfbdca7ec2ac","freq_resp","img/orange_2bandit_b.png","70","70","test","","","","9","",""
"null","2158591","pSARL_v2","pSARL_v2uqp7bv5h","62952c60095ebfbdca7ec2ac","fixation","img/fixation.png","null","","test","","","","","",""
"630.4000000953674","2159224","pSARL_v2","pSARL_v2uqp7bv5h","62952c60095ebfbdca7ec2ac","freq","img/orange_2bandit_b2.png","70","70","test","1","204","204","9","",""
"null","2159397","pSARL_v2","pSARL_v2uqp7bv5h","62952c60095ebfbdca7ec2ac","freq_resp","img/orange_2bandit_b.png","70","70","test","","","","9","",""
"null","2159551","pSARL_v2","pSARL_v2uqp7bv5h","62952c60095ebfbdca7ec2ac","fixation","img/fixation.png","null","","test","","","","","",""
"614.5","2160168","pSARL_v2","pSARL_v2uqp7bv5h","62952c60095ebfbdca7ec2ac","freq","img/orange_2bandit_b2.png","70","70","test","1","205","205","9","",""
"null","2160362","pSARL_v2","pSARL_v2uqp7bv5h","62952c60095ebfbdca7ec2ac","freq_resp","img/orange_2bandit_b.png","70","70","test","","","","9","",""
"null","2160516","pSARL_v2","pSARL_v2uqp7bv5h","62952c60095ebfbdca7ec2ac","fixation","img/fixation.png","null","","test","","","","","",""
"760.9000000953674","2161280","pSARL_v2","pSARL_v2uqp7bv5h","62952c60095ebfbdca7ec2ac","freq","img/orange_2bandit_b2.png","70","70","test","1","206","206","9","",""
"null","2161322","pSARL_v2","pSARL_v2uqp7bv5h","62952c60095ebfbdca7ec2ac","freq_resp","img/orange_2bandit_b.png","70","70","test","","","","9","",""
"null","2161478","pSARL_v2","pSARL_v2uqp7bv5h","62952c60095ebfbdca7ec2ac","fixation","img/fixation.png","null","","test","","","","","",""
"88.90000009536743","2161569","pSARL_v2","pSARL_v2uqp7bv5h","62952c60095ebfbdca7ec2ac","freq","img/orange_2bandit_b2.png","68","70","test","0","207","207","9","",""
"null","2162284","pSARL_v2","pSARL_v2uqp7bv5h","62952c60095ebfbdca7ec2ac","freq_resp","img/orange_2bandit_b.png","68","70","test","","","","9","",""
"null","2162442","pSARL_v2","pSARL_v2uqp7bv5h","62952c60095ebfbdca7ec2ac","fixation","img/fixation.png","null","","test","","","","","",""
"563.7999999523163","2163008","pSARL_v2","pSARL_v2uqp7bv5h","62952c60095ebfbdca7ec2ac","freq","img/orange_2bandit_b2.png","70","70","test","1","208","208","9","",""
"null","2163249","pSARL_v2","pSARL_v2uqp7bv5h","62952c60095ebfbdca7ec2ac","freq_resp","img/orange_2bandit_b.png","70","70","test","","","","9","",""
"null","2163406","pSARL_v2","pSARL_v2uqp7bv5h","62952c60095ebfbdca7ec2ac","fixation","img/fixation.png","null","","test","","","","","",""
"503.60000014305115","2163913","pSARL_v2","pSARL_v2uqp7bv5h","62952c60095ebfbdca7ec2ac","freq","img/orange_2bandit_b2.png","70","70","test","1","209","209","9","",""
"null","2164214","pSARL_v2","pSARL_v2uqp7bv5h","62952c60095ebfbdca7ec2ac","freq_resp","img/orange_2bandit_b.png","70","70","test","","","","9","",""
"null","2164371","pSARL_v2","pSARL_v2uqp7bv5h","62952c60095ebfbdca7ec2ac","fixation","img/fixation.png","null","","test","","","","","",""
"515.2000000476837","2164889","pSARL_v2","pSARL_v2uqp7bv5h","62952c60095ebfbdca7ec2ac","freq","img/orange_2bandit_b2.png","70","70","test","1","210","210","9","",""
"null","2165180","pSARL_v2","pSARL_v2uqp7bv5h","62952c60095ebfbdca7ec2ac","freq_resp","img/orange_2bandit_b.png","70","70","test","","","","9","",""
"null","2165334","pSARL_v2","pSARL_v2uqp7bv5h","62952c60095ebfbdca7ec2ac","fixation","img/fixation.png","null","","test","","","","","",""
"926.5","2166264","pSARL_v2","pSARL_v2uqp7bv5h","62952c60095ebfbdca7ec2ac","reward","img/slot.png","74","","test","","","","","",""
"null","2167026","pSARL_v2","pSARL_v2uqp7bv5h","62952c60095ebfbdca7ec2ac","points","<div class=""verylowPoints""> -3 </div>","null","na","test","","","","9","-3","8"
"467.40000009536743","2167496","pSARL_v2","pSARL_v2uqp7bv5h","62952c60095ebfbdca7ec2ac","freq","img/orange_2bandit_b2.png","70","70","test","1","211","211","10","",""
"null","2167832","pSARL_v2","pSARL_v2uqp7bv5h","62952c60095ebfbdca7ec2ac","freq_resp","img/orange_2bandit_b.png","70","70","test","","","","10","",""
"null","2167986","pSARL_v2","pSARL_v2uqp7bv5h","62952c60095ebfbdca7ec2ac","fixation","img/fixation.png","null","","test","","","","","",""
"515.5","2168504","pSARL_v2","pSARL_v2uqp7bv5h","62952c60095ebfbdca7ec2ac","freq","img/orange_2bandit_b2.png","70","70","test","1","212","212","10","",""
"null","2168798","pSARL_v2","pSARL_v2uqp7bv5h","62952c60095ebfbdca7ec2ac","freq_resp","img/orange_2bandit_b.png","70","70","test","","","","10","",""
"null","2168952","pSARL_v2","pSARL_v2uqp7bv5h","62952c60095ebfbdca7ec2ac","fixation","img/fixation.png","null","","test","","","","","",""
"581.7000000476837","2169537","pSARL_v2","pSARL_v2uqp7bv5h","62952c60095ebfbdca7ec2ac","freq","img/orange_2bandit_b2.png","70","70","test","1","213","213","10","",""
"null","2169760","pSARL_v2","pSARL_v2uqp7bv5h","62952c60095ebfbdca7ec2ac","freq_resp","img/orange_2bandit_b.png","70","70","test","","","","10","",""
