"rt","time_elapsed","expId","subject","prolificID","trialType","stimulus","key_press","corrresp","phase","corr","trialNum","attentionRunNum","blockNum","points","rlNum"
"16764","16780","pSARL_v2","pSARL_v2e9c3s92d","5b0c07ed192db20001c8c19f","","","","","","","","","","",""
"","21697","pSARL_v2","pSARL_v2e9c3s92d","5b0c07ed192db20001c8c19f","fullscreen","","","","","","","","","",""
"184655.30000305176","206359","pSARL_v2","pSARL_v2e9c3s92d","5b0c07ed192db20001c8c19f","","","","","","","","","","",""
"null","207180","pSARL_v2","pSARL_v2e9c3s92d","5b0c07ed192db20001c8c19f","freqPrac","img/orange_2bandit_a2.png","null","70","prac","0","","","","",""
"null","208195","pSARL_v2","pSARL_v2e9c3s92d","5b0c07ed192db20001c8c19f","feedback","img/tooSlow.png","null","na","prac","","","","","",""
"null","208351","pSARL_v2","pSARL_v2e9c3s92d","5b0c07ed192db20001c8c19f","fixation","img/fixation.png","null","","prac","","","","","",""
"null","209164","pSARL_v2","pSARL_v2e9c3s92d","5b0c07ed192db20001c8c19f","infreqPrac","img/green_2bandit_a2.png","null","68","prac","0","","","","",""
"null","210170","pSARL_v2","pSARL_v2e9c3s92d","5b0c07ed192db20001c8c19f","feedback","img/tooSlow.png","null","na","prac","","","","","",""
"null","210334","pSARL_v2","pSARL_v2e9c3s92d","5b0c07ed192db20001c8c19f","fixation","img/fixation.png","null","","prac","","","","","",""
"null","211140","pSARL_v2","pSARL_v2e9c3s92d","5b0c07ed192db20001c8c19f","freqPrac","img/orange_2bandit_a2.png","null","70","prac","0","","","","",""
"null","212155","pSARL_v2","pSARL_v2e9c3s92d","5b0c07ed192db20001c8c19f","feedback","img/tooSlow.png","null","na","prac","","","","","",""
"null","212317","pSARL_v2","pSARL_v2e9c3s92d","5b0c07ed192db20001c8c19f","fixation","img/fixation.png","null","","prac","","","","","",""
"482.89999771118164","212804","pSARL_v2","pSARL_v2e9c3s92d","5b0c07ed192db20001c8c19f","infreqPrac","img/green_2bandit_a2.png","68","68","prac","1","","","","",""
"482.89999771118164","213138","pSARL_v2","pSARL_v2e9c3s92d","5b0c07ed192db20001c8c19f","infreqPrac_resp","img/green_2bandit_a.png","68","68","prac","","","","","",""
"null","213299","pSARL_v2","pSARL_v2e9c3s92d","5b0c07ed192db20001c8c19f","fixation","img/fixation.png","null","","prac","","","","","",""
"null","214115","pSARL_v2","pSARL_v2e9c3s92d","5b0c07ed192db20001c8c19f","infreqPrac","img/green_2bandit_a2.png","null","68","prac","0","","","","",""
"null","215135","pSARL_v2","pSARL_v2e9c3s92d","5b0c07ed192db20001c8c19f","feedback","img/tooSlow.png","null","na","prac","","","","","",""
"null","215291","pSARL_v2","pSARL_v2e9c3s92d","5b0c07ed192db20001c8c19f","fixation","img/fixation.png","null","","prac","","","","","",""
"437.70000076293945","215734","pSARL_v2","pSARL_v2e9c3s92d","5b0c07ed192db20001c8c19f","infreqPrac","img/green_2bandit_a2.png","68","68","prac","1","","","","",""
"437.70000076293945","216110","pSARL_v2","pSARL_v2e9c3s92d","5b0c07ed192db20001c8c19f","infreqPrac_resp","img/green_2bandit_a.png","68","68","prac","","","","","",""
"null","216266","pSARL_v2","pSARL_v2e9c3s92d","5b0c07ed192db20001c8c19f","fixation","img/fixation.png","null","","prac","","","","","",""
"520.8999977111816","216791","pSARL_v2","pSARL_v2e9c3s92d","5b0c07ed192db20001c8c19f","freqPrac","img/orange_2bandit_a2.png","70","70","prac","1","","","","",""
"520.8999977111816","217088","pSARL_v2","pSARL_v2e9c3s92d","5b0c07ed192db20001c8c19f","freqPrac_resp","img/orange_2bandit_a.png","70","70","prac","","","","","",""
"null","217245","pSARL_v2","pSARL_v2e9c3s92d","5b0c07ed192db20001c8c19f","fixation","img/fixation.png","null","","prac","","","","","",""
"507.70000076293945","217757","pSARL_v2","pSARL_v2e9c3s92d","5b0c07ed192db20001c8c19f","infreqPrac","img/green_2bandit_a2.png","68","68","prac","1","","","","",""
"507.70000076293945","218058","pSARL_v2","pSARL_v2e9c3s92d","5b0c07ed192db20001c8c19f","infreqPrac_resp","img/green_2bandit_a.png","68","68","prac","","","","","",""
"null","218216","pSARL_v2","pSARL_v2e9c3s92d","5b0c07ed192db20001c8c19f","fixation","img/fixation.png","null","","prac","","","","","",""
"616.1000022888184","218836","pSARL_v2","pSARL_v2e9c3s92d","5b0c07ed192db20001c8c19f","freqPrac","img/orange_2bandit_a2.png","68","70","prac","0","","","","",""
"616.1000022888184","219026","pSARL_v2","pSARL_v2e9c3s92d","5b0c07ed192db20001c8c19f","freqPrac_resp","img/orange_2bandit_a.png","68","70","prac","","","","","",""
"null","220031","pSARL_v2","pSARL_v2e9c3s92d","5b0c07ed192db20001c8c19f","feedback","img/wrongKey.png","null","na","prac","","","","","",""
"null","220200","pSARL_v2","pSARL_v2e9c3s92d","5b0c07ed192db20001c8c19f","fixation","img/fixation.png","null","","prac","","","","","",""
"null","221007","pSARL_v2","pSARL_v2e9c3s92d","5b0c07ed192db20001c8c19f","freqPrac","img/orange_2bandit_a2.png","null","70","prac","0","","","","",""
"null","222026","pSARL_v2","pSARL_v2e9c3s92d","5b0c07ed192db20001c8c19f","feedback","img/tooSlow.png","null","na","prac","","","","","",""
"null","222191","pSARL_v2","pSARL_v2e9c3s92d","5b0c07ed192db20001c8c19f","fixation","img/fixation.png","null","","prac","","","","","",""
"28543.89999771118","250739","pSARL_v2","pSARL_v2e9c3s92d","5b0c07ed192db20001c8c19f","","","","","prac","","","","","",""
"2319.7000007629395","253063","pSARL_v2","pSARL_v2e9c3s92d","5b0c07ed192db20001c8c19f","rewardPractice","img/slot.png","74","","prac","","","","","",""
"null","253832","pSARL_v2","pSARL_v2e9c3s92d","5b0c07ed192db20001c8c19f","feedback","<div class=""veryhighPoints""> +15 </div>","null","na","prac","","","","","",""
"null","253992","pSARL_v2","pSARL_v2e9c3s92d","5b0c07ed192db20001c8c19f","fixation","img/fixation.png","null","","prac","","","","","",""
"14879","268871","pSARL_v2","pSARL_v2e9c3s92d","5b0c07ed192db20001c8c19f","","","","","prac","","","","","",""
"null","269679","pSARL_v2","pSARL_v2e9c3s92d","5b0c07ed192db20001c8c19f","freq","img/orange_2bandit_a2.png","null","70","test","0","1","1","1","",""
"null","269839","pSARL_v2","pSARL_v2e9c3s92d","5b0c07ed192db20001c8c19f","fixation","img/fixation.png","null","","test","","","","","",""
"487","270330","pSARL_v2","pSARL_v2e9c3s92d","5b0c07ed192db20001c8c19f","freq","img/orange_2bandit_a2.png","68","70","test","0","2","2","1","",""
"null","270648","pSARL_v2","pSARL_v2e9c3s92d","5b0c07ed192db20001c8c19f","freq_resp","img/orange_2bandit_a.png","68","70","test","","","","1","",""
"null","270804","pSARL_v2","pSARL_v2e9c3s92d","5b0c07ed192db20001c8c19f","fixation","img/fixation.png","null","","test","","","","","",""
"721.5999984741211","271530","pSARL_v2","pSARL_v2e9c3s92d","5b0c07ed192db20001c8c19f","freq","img/orange_2bandit_a2.png","70","70","test","1","3","3","1","",""
"null","271625","pSARL_v2","pSARL_v2e9c3s92d","5b0c07ed192db20001c8c19f","freq_resp","img/orange_2bandit_a.png","70","70","test","","","","1","",""
"null","271788","pSARL_v2","pSARL_v2e9c3s92d","5b0c07ed192db20001c8c19f","fixation","img/fixation.png","null","","test","","","","","",""
"708.3999977111816","272500","pSARL_v2","pSARL_v2e9c3s92d","5b0c07ed192db20001c8c19f","freq","img/orange_2bandit_a2.png","70","70","test","1","4","4","1","",""
"null","272601","pSARL_v2","pSARL_v2e9c3s92d","5b0c07ed192db20001c8c19f","freq_resp","img/orange_2bandit_a.png","70","70","test","","","","1","",""
"null","272770","pSARL_v2","pSARL_v2e9c3s92d","5b0c07ed192db20001c8c19f","fixation","img/fixation.png","null","","test","","","","","",""
"308.70000076293945","273083","pSARL_v2","pSARL_v2e9c3s92d","5b0c07ed192db20001c8c19f","freq","img/orange_2bandit_a2.png","70","70","test","1","5","5","1","",""
"null","273583","pSARL_v2","pSARL_v2e9c3s92d","5b0c07ed192db20001c8c19f","freq_resp","img/orange_2bandit_a.png","70","70","test","","","","1","",""
"null","273754","pSARL_v2","pSARL_v2e9c3s92d","5b0c07ed192db20001c8c19f","fixation","img/fixation.png","null","","test","","","","","",""
"310.0999984741211","274068","pSARL_v2","pSARL_v2e9c3s92d","5b0c07ed192db20001c8c19f","freq","img/orange_2bandit_a2.png","70","70","test","1","6","6","1","",""
"null","274573","pSARL_v2","pSARL_v2e9c3s92d","5b0c07ed192db20001c8c19f","freq_resp","img/orange_2bandit_a.png","70","70","test","","","","1","",""
"null","274729","pSARL_v2","pSARL_v2e9c3s92d","5b0c07ed192db20001c8c19f","fixation","img/fixation.png","null","","test","","","","","",""
"357.20000076293945","275090","pSARL_v2","pSARL_v2e9c3s92d","5b0c07ed192db20001c8c19f","freq","img/orange_2bandit_a2.png","70","70","test","1","7","7","1","",""
"null","275543","pSARL_v2","pSARL_v2e9c3s92d","5b0c07ed192db20001c8c19f","freq_resp","img/orange_2bandit_a.png","70","70","test","","","","1","",""
"null","275705","pSARL_v2","pSARL_v2e9c3s92d","5b0c07ed192db20001c8c19f","fixation","img/fixation.png","null","","test","","","","","",""
"597.1999969482422","276306","pSARL_v2","pSARL_v2e9c3s92d","5b0c07ed192db20001c8c19f","infreq","img/green_2bandit_a2.png","68","68","test","1","8","8","1","",""
"null","276527","pSARL_v2","pSARL_v2e9c3s92d","5b0c07ed192db20001c8c19f","infreq_resp","img/green_2bandit_a.png","68","68","test","","","","1","",""
"null","276688","pSARL_v2","pSARL_v2e9c3s92d","5b0c07ed192db20001c8c19f","fixation","img/fixation.png","null","","test","","","","","",""
"613.5","277306","pSARL_v2","pSARL_v2e9c3s92d","5b0c07ed192db20001c8c19f","freq","img/orange_2bandit_a2.png","70","70","test","1","9","9","1","",""
"null","277509","pSARL_v2","pSARL_v2e9c3s92d","5b0c07ed192db20001c8c19f","freq_resp","img/orange_2bandit_a.png","70","70","test","","","","1","",""
"null","277678","pSARL_v2","pSARL_v2e9c3s92d","5b0c07ed192db20001c8c19f","fixation","img/fixation.png","null","","test","","","","","",""
"556.2000007629395","278238","pSARL_v2","pSARL_v2e9c3s92d","5b0c07ed192db20001c8c19f","freq","img/orange_2bandit_a2.png","70","70","test","1","10","10","1","",""
"null","278489","pSARL_v2","pSARL_v2e9c3s92d","5b0c07ed192db20001c8c19f","freq_resp","img/orange_2bandit_a.png","70","70","test","","","","1","",""
"null","278644","pSARL_v2","pSARL_v2e9c3s92d","5b0c07ed192db20001c8c19f","fixation","img/fixation.png","null","","test","","","","","",""
"464.5999984741211","279113","pSARL_v2","pSARL_v2e9c3s92d","5b0c07ed192db20001c8c19f","freq","img/orange_2bandit_a2.png","70","70","test","1","11","11","1","",""
"null","279466","pSARL_v2","pSARL_v2e9c3s92d","5b0c07ed192db20001c8c19f","freq_resp","img/orange_2bandit_a.png","70","70","test","","","","1","",""
"null","279629","pSARL_v2","pSARL_v2e9c3s92d","5b0c07ed192db20001c8c19f","fixation","img/fixation.png","null","","test","","","","","",""
"375.60000228881836","280008","pSARL_v2","pSARL_v2e9c3s92d","5b0c07ed192db20001c8c19f","freq","img/orange_2bandit_a2.png","70","70","test","1","12","12","1","",""
"null","280453","pSARL_v2","pSARL_v2e9c3s92d","5b0c07ed192db20001c8c19f","freq_resp","img/orange_2bandit_a.png","70","70","test","","","","1","",""
"null","280613","pSARL_v2","pSARL_v2e9c3s92d","5b0c07ed192db20001c8c19f","fixation","img/fixation.png","null","","test","","","","","",""
"390.89999771118164","281009","pSARL_v2","pSARL_v2e9c3s92d","5b0c07ed192db20001c8c19f","freq","img/orange_2bandit_a2.png","70","70","test","1","13","13","1","",""
"null","281429","pSARL_v2","pSARL_v2e9c3s92d","5b0c07ed192db20001c8c19f","freq_resp","img/orange_2bandit_a.png","70","70","test","","","","1","",""
"null","281595","pSARL_v2","pSARL_v2e9c3s92d","5b0c07ed192db20001c8c19f","fixation","img/fixation.png","null","","test","","","","","",""
"367.70000076293945","281967","pSARL_v2","pSARL_v2e9c3s92d","5b0c07ed192db20001c8c19f","freq","img/orange_2bandit_a2.png","70","70","test","1","14","14","1","",""
"null","282408","pSARL_v2","pSARL_v2e9c3s92d","5b0c07ed192db20001c8c19f","freq_resp","img/orange_2bandit_a.png","70","70","test","","","","1","",""
"null","282571","pSARL_v2","pSARL_v2e9c3s92d","5b0c07ed192db20001c8c19f","fixation","img/fixation.png","null","","test","","","","","",""
"272.20000076293945","282848","pSARL_v2","pSARL_v2e9c3s92d","5b0c07ed192db20001c8c19f","freq","img/orange_2bandit_a2.png","70","70","test","1","15","15","1","",""
"null","283387","pSARL_v2","pSARL_v2e9c3s92d","5b0c07ed192db20001c8c19f","freq_resp","img/orange_2bandit_a.png","70","70","test","","","","1","",""
"null","283555","pSARL_v2","pSARL_v2e9c3s92d","5b0c07ed192db20001c8c19f","fixation","img/fixation.png","null","","test","","","","","",""
"452.60000228881836","284012","pSARL_v2","pSARL_v2e9c3s92d","5b0c07ed192db20001c8c19f","freq","img/orange_2bandit_a2.png","70","70","test","1","16","16","1","",""
"null","284366","pSARL_v2","pSARL_v2e9c3s92d","5b0c07ed192db20001c8c19f","freq_resp","img/orange_2bandit_a.png","70","70","test","","","","1","",""
"null","284521","pSARL_v2","pSARL_v2e9c3s92d","5b0c07ed192db20001c8c19f","fixation","img/fixation.png","null","","test","","","","","",""
"341.79999923706055","284868","pSARL_v2","pSARL_v2e9c3s92d","5b0c07ed192db20001c8c19f","freq","img/orange_2bandit_a2.png","70","70","test","1","17","17","1","",""
"null","285334","pSARL_v2","pSARL_v2e9c3s92d","5b0c07ed192db20001c8c19f","freq_resp","img/orange_2bandit_a.png","70","70","test","","","","1","",""
"null","285496","pSARL_v2","pSARL_v2e9c3s92d","5b0c07ed192db20001c8c19f","fixation","img/fixation.png","null","","test","","","","","",""
"324.70000076293945","285825","pSARL_v2","pSARL_v2e9c3s92d","5b0c07ed192db20001c8c19f","freq","img/orange_2bandit_a2.png","70","70","test","1","18","18","1","",""
"null","286317","pSARL_v2","pSARL_v2e9c3s92d","5b0c07ed192db20001c8c19f","freq_resp","img/orange_2bandit_a.png","70","70","test","","","","1","",""
"null","286480","pSARL_v2","pSARL_v2e9c3s92d","5b0c07ed192db20001c8c19f","fixation","img/fixation.png","null","","test","","","","","",""
"301.1999969482422","286784","pSARL_v2","pSARL_v2e9c3s92d","5b0c07ed192db20001c8c19f","freq","img/orange_2bandit_a2.png","70","70","test","1","19","19","1","",""
"null","287290","pSARL_v2","pSARL_v2e9c3s92d","5b0c07ed192db20001c8c19f","freq_resp","img/orange_2bandit_a.png","70","70","test","","","","1","",""
"null","287446","pSARL_v2","pSARL_v2e9c3s92d","5b0c07ed192db20001c8c19f","fixation","img/fixation.png","null","","test","","","","","",""
"383.1999969482422","287834","pSARL_v2","pSARL_v2e9c3s92d","5b0c07ed192db20001c8c19f","freq","img/orange_2bandit_a2.png","70","70","test","1","20","20","1","",""
"null","288262","pSARL_v2","pSARL_v2e9c3s92d","5b0c07ed192db20001c8c19f","freq_resp","img/orange_2bandit_a.png","70","70","test","","","","1","",""
"null","288430","pSARL_v2","pSARL_v2e9c3s92d","5b0c07ed192db20001c8c19f","fixation","img/fixation.png","null","","test","","","","","",""
"308.5999984741211","288743","pSARL_v2","pSARL_v2e9c3s92d","5b0c07ed192db20001c8c19f","freq","img/orange_2bandit_a2.png","70","70","test","1","21","21","1","",""
"null","289241","pSARL_v2","pSARL_v2e9c3s92d","5b0c07ed192db20001c8c19f","freq_resp","img/orange_2bandit_a.png","70","70","test","","","","1","",""
"null","289396","pSARL_v2","pSARL_v2e9c3s92d","5b0c07ed192db20001c8c19f","fixation","img/fixation.png","null","","test","","","","","",""
"295","289696","pSARL_v2","pSARL_v2e9c3s92d","5b0c07ed192db20001c8c19f","freq","img/orange_2bandit_a2.png","70","70","test","1","22","22","1","",""
"null","290214","pSARL_v2","pSARL_v2e9c3s92d","5b0c07ed192db20001c8c19f","freq_resp","img/orange_2bandit_a.png","70","70","test","","","","1","",""
"null","290371","pSARL_v2","pSARL_v2e9c3s92d","5b0c07ed192db20001c8c19f","fixation","img/fixation.png","null","","test","","","","","",""
"457","290832","pSARL_v2","pSARL_v2e9c3s92d","5b0c07ed192db20001c8c19f","infreq","img/green_2bandit_a2.png","68","68","test","1","23","23","1","",""
"null","291195","pSARL_v2","pSARL_v2e9c3s92d","5b0c07ed192db20001c8c19f","infreq_resp","img/green_2bandit_a.png","68","68","test","","","","1","",""
"null","291353","pSARL_v2","pSARL_v2e9c3s92d","5b0c07ed192db20001c8c19f","fixation","img/fixation.png","null","","test","","","","","",""
"343.5999984741211","291701","pSARL_v2","pSARL_v2e9c3s92d","5b0c07ed192db20001c8c19f","freq","img/orange_2bandit_a2.png","70","70","test","1","24","24","1","",""
"null","292168","pSARL_v2","pSARL_v2e9c3s92d","5b0c07ed192db20001c8c19f","freq_resp","img/orange_2bandit_a.png","70","70","test","","","","1","",""
"null","292329","pSARL_v2","pSARL_v2e9c3s92d","5b0c07ed192db20001c8c19f","fixation","img/fixation.png","null","","test","","","","","",""
"523","292856","pSARL_v2","pSARL_v2e9c3s92d","5b0c07ed192db20001c8c19f","freq","img/orange_2bandit_a2.png","70","70","test","1","25","25","1","",""
"null","293146","pSARL_v2","pSARL_v2e9c3s92d","5b0c07ed192db20001c8c19f","freq_resp","img/orange_2bandit_a.png","70","70","test","","","","1","",""
"null","293312","pSARL_v2","pSARL_v2e9c3s92d","5b0c07ed192db20001c8c19f","fixation","img/fixation.png","null","","test","","","","","",""
"414.5999984741211","293731","pSARL_v2","pSARL_v2e9c3s92d","5b0c07ed192db20001c8c19f","freq","img/orange_2bandit_a2.png","70","70","test","1","26","26","1","",""
"null","294122","pSARL_v2","pSARL_v2e9c3s92d","5b0c07ed192db20001c8c19f","freq_resp","img/orange_2bandit_a.png","70","70","test","","","","1","",""
"null","294279","pSARL_v2","pSARL_v2e9c3s92d","5b0c07ed192db20001c8c19f","fixation","img/fixation.png","null","","test","","","","","",""
"506.5999984741211","294790","pSARL_v2","pSARL_v2e9c3s92d","5b0c07ed192db20001c8c19f","reward","img/slot.png","74","","test","","","","","",""
"null","295558","pSARL_v2","pSARL_v2e9c3s92d","5b0c07ed192db20001c8c19f","points","<div class=""verylowPoints""> -6 </div>","null","na","test","","","","1","-6","0"
"null","296377","pSARL_v2","pSARL_v2e9c3s92d","5b0c07ed192db20001c8c19f","freq","img/orange_2bandit_a2.png","null","70","test","0","27","27","2","",""
"null","296538","pSARL_v2","pSARL_v2e9c3s92d","5b0c07ed192db20001c8c19f","fixation","img/fixation.png","null","","test","","","","","",""
"64.9000015258789","296607","pSARL_v2","pSARL_v2e9c3s92d","5b0c07ed192db20001c8c19f","freq","img/orange_2bandit_a2.png","68","70","test","0","28","28","2","",""
"null","297360","pSARL_v2","pSARL_v2e9c3s92d","5b0c07ed192db20001c8c19f","freq_resp","img/orange_2bandit_a.png","68","70","test","","","","2","",""
"null","297528","pSARL_v2","pSARL_v2e9c3s92d","5b0c07ed192db20001c8c19f","fixation","img/fixation.png","null","","test","","","","","",""
"479.60000228881836","298012","pSARL_v2","pSARL_v2e9c3s92d","5b0c07ed192db20001c8c19f","freq","img/orange_2bandit_a2.png","70","70","test","1","29","29","2","",""
"null","298336","pSARL_v2","pSARL_v2e9c3s92d","5b0c07ed192db20001c8c19f","freq_resp","img/orange_2bandit_a.png","70","70","test","","","","2","",""
"null","298497","pSARL_v2","pSARL_v2e9c3s92d","5b0c07ed192db20001c8c19f","fixation","img/fixation.png","null","","test","","","","","",""
"562.1999969482422","299063","pSARL_v2","pSARL_v2e9c3s92d","5b0c07ed192db20001c8c19f","infreq","img/green_2bandit_a2.png","68","68","test","1","30","30","2","",""
"null","299315","pSARL_v2","pSARL_v2e9c3s92d","5b0c07ed192db20001c8c19f","infreq_resp","img/green_2bandit_a.png","68","68","test","","","","2","",""
"null","299471","pSARL_v2","pSARL_v2e9c3s92d","5b0c07ed192db20001c8c19f","fixation","img/fixation.png","null","","test","","","","","",""
"548.4000015258789","300023","pSARL_v2","pSARL_v2e9c3s92d","5b0c07ed192db20001c8c19f","freq","img/orange_2bandit_a2.png","70","70","test","1","31","31","2","",""
"null","300291","pSARL_v2","pSARL_v2e9c3s92d","5b0c07ed192db20001c8c19f","freq_resp","img/orange_2bandit_a.png","70","70","test","","","","2","",""
"null","300454","pSARL_v2","pSARL_v2e9c3s92d","5b0c07ed192db20001c8c19f","fixation","img/fixation.png","null","","test","","","","","",""
"326.9000015258789","300784","pSARL_v2","pSARL_v2e9c3s92d","5b0c07ed192db20001c8c19f","freq","img/orange_2bandit_a2.png","70","70","test","1","32","32","2","",""
"null","301273","pSARL_v2","pSARL_v2e9c3s92d","5b0c07ed192db20001c8c19f","freq_resp","img/orange_2bandit_a.png","70","70","test","","","","2","",""
"null","301428","pSARL_v2","pSARL_v2e9c3s92d","5b0c07ed192db20001c8c19f","fixation","img/fixation.png","null","","test","","","","","",""
"395","301827","pSARL_v2","pSARL_v2e9c3s92d","5b0c07ed192db20001c8c19f","freq","img/orange_2bandit_a2.png","70","70","test","1","33","33","2","",""
"null","302247","pSARL_v2","pSARL_v2e9c3s92d","5b0c07ed192db20001c8c19f","freq_resp","img/orange_2bandit_a.png","70","70","test","","","","2","",""
"null","302403","pSARL_v2","pSARL_v2e9c3s92d","5b0c07ed192db20001c8c19f","fixation","img/fixation.png","null","","test","","","","","",""
"590.4000015258789","303003","pSARL_v2","pSARL_v2e9c3s92d","5b0c07ed192db20001c8c19f","infreq","img/green_2bandit_a2.png","68","68","test","1","34","34","2","",""
"null","303222","pSARL_v2","pSARL_v2e9c3s92d","5b0c07ed192db20001c8c19f","infreq_resp","img/green_2bandit_a.png","68","68","test","","","","2","",""
"null","303382","pSARL_v2","pSARL_v2e9c3s92d","5b0c07ed192db20001c8c19f","fixation","img/fixation.png","null","","test","","","","","",""
"535.5","303922","pSARL_v2","pSARL_v2e9c3s92d","5b0c07ed192db20001c8c19f","freq","img/orange_2bandit_a2.png","70","70","test","1","35","35","2","",""
"null","304197","pSARL_v2","pSARL_v2e9c3s92d","5b0c07ed192db20001c8c19f","freq_resp","img/orange_2bandit_a.png","70","70","test","","","","2","",""
"null","304354","pSARL_v2","pSARL_v2e9c3s92d","5b0c07ed192db20001c8c19f","fixation","img/fixation.png","null","","test","","","","","",""
"409.60000228881836","304767","pSARL_v2","pSARL_v2e9c3s92d","5b0c07ed192db20001c8c19f","freq","img/orange_2bandit_a2.png","70","70","test","1","36","36","2","",""
"null","305163","pSARL_v2","pSARL_v2e9c3s92d","5b0c07ed192db20001c8c19f","freq_resp","img/orange_2bandit_a.png","70","70","test","","","","2","",""
"null","305321","pSARL_v2","pSARL_v2e9c3s92d","5b0c07ed192db20001c8c19f","fixation","img/fixation.png","null","","test","","","","","",""
"468.5","305793","pSARL_v2","pSARL_v2e9c3s92d","5b0c07ed192db20001c8c19f","freq","img/orange_2bandit_a2.png","70","70","test","1","37","37","2","",""
"null","306133","pSARL_v2","pSARL_v2e9c3s92d","5b0c07ed192db20001c8c19f","freq_resp","img/orange_2bandit_a.png","70","70","test","","","","2","",""
"null","306295","pSARL_v2","pSARL_v2e9c3s92d","5b0c07ed192db20001c8c19f","fixation","img/fixation.png","null","","test","","","","","",""
"552.7999992370605","306852","pSARL_v2","pSARL_v2e9c3s92d","5b0c07ed192db20001c8c19f","freq","img/orange_2bandit_a2.png","70","70","test","1","38","38","2","",""
"null","307113","pSARL_v2","pSARL_v2e9c3s92d","5b0c07ed192db20001c8c19f","freq_resp","img/orange_2bandit_a.png","70","70","test","","","","2","",""
"null","307270","pSARL_v2","pSARL_v2e9c3s92d","5b0c07ed192db20001c8c19f","fixation","img/fixation.png","null","","test","","","","","",""
"489","307762","pSARL_v2","pSARL_v2e9c3s92d","5b0c07ed192db20001c8c19f","freq","img/orange_2bandit_a2.png","70","70","test","1","39","39","2","",""
"null","308084","pSARL_v2","pSARL_v2e9c3s92d","5b0c07ed192db20001c8c19f","freq_resp","img/orange_2bandit_a.png","70","70","test","","","","2","",""
"null","308246","pSARL_v2","pSARL_v2e9c3s92d","5b0c07ed192db20001c8c19f","fixation","img/fixation.png","null","","test","","","","","",""
"449.39999771118164","308699","pSARL_v2","pSARL_v2e9c3s92d","5b0c07ed192db20001c8c19f","freq","img/orange_2bandit_a2.png","70","70","test","1","40","40","2","",""
"null","309065","pSARL_v2","pSARL_v2e9c3s92d","5b0c07ed192db20001c8c19f","freq_resp","img/orange_2bandit_a.png","70","70","test","","","","2","",""
"null","309230","pSARL_v2","pSARL_v2e9c3s92d","5b0c07ed192db20001c8c19f","fixation","img/fixation.png","null","","test","","","","","",""
"422.70000076293945","309656","pSARL_v2","pSARL_v2e9c3s92d","5b0c07ed192db20001c8c19f","freq","img/orange_2bandit_a2.png","70","70","test","1","41","41","2","",""
"null","310038","pSARL_v2","pSARL_v2e9c3s92d","5b0c07ed192db20001c8c19f","freq_resp","img/orange_2bandit_a.png","70","70","test","","","","2","",""
"null","310203","pSARL_v2","pSARL_v2e9c3s92d","5b0c07ed192db20001c8c19f","fixation","img/fixation.png","null","","test","","","","","",""
"487.0999984741211","310694","pSARL_v2","pSARL_v2e9c3s92d","5b0c07ed192db20001c8c19f","freq","img/orange_2bandit_a2.png","70","70","test","1","42","42","2","",""
"null","311022","pSARL_v2","pSARL_v2e9c3s92d","5b0c07ed192db20001c8c19f","freq_resp","img/orange_2bandit_a.png","70","70","test","","","","2","",""
"null","311178","pSARL_v2","pSARL_v2e9c3s92d","5b0c07ed192db20001c8c19f","fixation","img/fixation.png","null","","test","","","","","",""
"542.2000007629395","311724","pSARL_v2","pSARL_v2e9c3s92d","5b0c07ed192db20001c8c19f","freq","img/orange_2bandit_a2.png","70","70","test","1","43","43","2","",""
"null","311988","pSARL_v2","pSARL_v2e9c3s92d","5b0c07ed192db20001c8c19f","freq_resp","img/orange_2bandit_a.png","70","70","test","","","","2","",""
"null","312144","pSARL_v2","pSARL_v2e9c3s92d","5b0c07ed192db20001c8c19f","fixation","img/fixation.png","null","","test","","","","","",""
"552.6000022888184","312701","pSARL_v2","pSARL_v2e9c3s92d","5b0c07ed192db20001c8c19f","freq","img/orange_2bandit_a2.png","70","70","test","1","44","44","2","",""
"null","312964","pSARL_v2","pSARL_v2e9c3s92d","5b0c07ed192db20001c8c19f","freq_resp","img/orange_2bandit_a.png","70","70","test","","","","2","",""
"null","313128","pSARL_v2","pSARL_v2e9c3s92d","5b0c07ed192db20001c8c19f","fixation","img/fixation.png","null","","test","","","","","",""
"609.7999992370605","313744","pSARL_v2","pSARL_v2e9c3s92d","5b0c07ed192db20001c8c19f","freq","img/orange_2bandit_a2.png","70","70","test","1","45","45","2","",""
"null","313950","pSARL_v2","pSARL_v2e9c3s92d","5b0c07ed192db20001c8c19f","freq_resp","img/orange_2bandit_a.png","70","70","test","","","","2","",""
"null","314112","pSARL_v2","pSARL_v2e9c3s92d","5b0c07ed192db20001c8c19f","fixation","img/fixation.png","null","","test","","","","","",""
"555.0999984741211","314670","pSARL_v2","pSARL_v2e9c3s92d","5b0c07ed192db20001c8c19f","freq","img/orange_2bandit_a2.png","70","70","test","1","46","46","2","",""
"null","314920","pSARL_v2","pSARL_v2e9c3s92d","5b0c07ed192db20001c8c19f","freq_resp","img/orange_2bandit_a.png","70","70","test","","","","2","",""
"null","315078","pSARL_v2","pSARL_v2e9c3s92d","5b0c07ed192db20001c8c19f","fixation","img/fixation.png","null","","test","","","","","",""
"486.5","315569","pSARL_v2","pSARL_v2e9c3s92d","5b0c07ed192db20001c8c19f","freq","img/orange_2bandit_a2.png","70","70","test","1","47","47","2","",""
"null","315894","pSARL_v2","pSARL_v2e9c3s92d","5b0c07ed192db20001c8c19f","freq_resp","img/orange_2bandit_a.png","70","70","test","","","","2","",""
"null","316062","pSARL_v2","pSARL_v2e9c3s92d","5b0c07ed192db20001c8c19f","fixation","img/fixation.png","null","","test","","","","","",""
"366","316432","pSARL_v2","pSARL_v2e9c3s92d","5b0c07ed192db20001c8c19f","freq","img/orange_2bandit_a2.png","70","70","test","1","48","48","2","",""
"null","316877","pSARL_v2","pSARL_v2e9c3s92d","5b0c07ed192db20001c8c19f","freq_resp","img/orange_2bandit_a.png","70","70","test","","","","2","",""
"null","317037","pSARL_v2","pSARL_v2e9c3s92d","5b0c07ed192db20001c8c19f","fixation","img/fixation.png","null","","test","","","","","",""
"568.7999992370605","317610","pSARL_v2","pSARL_v2e9c3s92d","5b0c07ed192db20001c8c19f","reward","img/slot.png","74","","test","","","","","",""
"null","318372","pSARL_v2","pSARL_v2e9c3s92d","5b0c07ed192db20001c8c19f","points","<div class=""verylowPoints""> -11 </div>","null","na","test","","","","2","-11","1"
"null","319186","pSARL_v2","pSARL_v2e9c3s92d","5b0c07ed192db20001c8c19f","freq","img/orange_2bandit_a2.png","null","70","test","0","49","49","3","",""
"null","319353","pSARL_v2","pSARL_v2e9c3s92d","5b0c07ed192db20001c8c19f","fixation","img/fixation.png","null","","test","","","","","",""
"558.7000007629395","319916","pSARL_v2","pSARL_v2e9c3s92d","5b0c07ed192db20001c8c19f","freq","img/orange_2bandit_a2.png","70","70","test","1","50","50","3","",""
"null","320165","pSARL_v2","pSARL_v2e9c3s92d","5b0c07ed192db20001c8c19f","freq_resp","img/orange_2bandit_a.png","70","70","test","","","","3","",""
"null","320328","pSARL_v2","pSARL_v2e9c3s92d","5b0c07ed192db20001c8c19f","fixation","img/fixation.png","null","","test","","","","","",""
"436.79999923706055","320769","pSARL_v2","pSARL_v2e9c3s92d","5b0c07ed192db20001c8c19f","freq","img/orange_2bandit_a2.png","70","70","test","1","51","51","3","",""
"null","321149","pSARL_v2","pSARL_v2e9c3s92d","5b0c07ed192db20001c8c19f","freq_resp","img/orange_2bandit_a.png","70","70","test","","","","3","",""
"null","321312","pSARL_v2","pSARL_v2e9c3s92d","5b0c07ed192db20001c8c19f","fixation","img/fixation.png","null","","test","","","","","",""
"309.5","321625","pSARL_v2","pSARL_v2e9c3s92d","5b0c07ed192db20001c8c19f","freq","img/orange_2bandit_a2.png","70","70","test","1","52","52","3","",""
"null","322130","pSARL_v2","pSARL_v2e9c3s92d","5b0c07ed192db20001c8c19f","freq_resp","img/orange_2bandit_a.png","70","70","test","","","","3","",""
"null","322287","pSARL_v2","pSARL_v2e9c3s92d","5b0c07ed192db20001c8c19f","fixation","img/fixation.png","null","","test","","","","","",""
"478.79999923706055","322769","pSARL_v2","pSARL_v2e9c3s92d","5b0c07ed192db20001c8c19f","freq","img/orange_2bandit_a2.png","70","70","test","1","53","53","3","",""
"null","323109","pSARL_v2","pSARL_v2e9c3s92d","5b0c07ed192db20001c8c19f","freq_resp","img/orange_2bandit_a.png","70","70","test","","","","3","",""
"null","323271","pSARL_v2","pSARL_v2e9c3s92d","5b0c07ed192db20001c8c19f","fixation","img/fixation.png","null","","test","","","","","",""
"424.79999923706055","323700","pSARL_v2","pSARL_v2e9c3s92d","5b0c07ed192db20001c8c19f","freq","img/orange_2bandit_a2.png","70","70","test","1","54","54","3","",""
"null","324083","pSARL_v2","pSARL_v2e9c3s92d","5b0c07ed192db20001c8c19f","freq_resp","img/orange_2bandit_a.png","70","70","test","","","","3","",""
"null","324246","pSARL_v2","pSARL_v2e9c3s92d","5b0c07ed192db20001c8c19f","fixation","img/fixation.png","null","","test","","","","","",""
"620.8999977111816","324871","pSARL_v2","pSARL_v2e9c3s92d","5b0c07ed192db20001c8c19f","infreq","img/green_2bandit_a2.png","68","68","test","1","55","55","3","",""
"null","325059","pSARL_v2","pSARL_v2e9c3s92d","5b0c07ed192db20001c8c19f","infreq_resp","img/green_2bandit_a.png","68","68","test","","","","3","",""
"null","325220","pSARL_v2","pSARL_v2e9c3s92d","5b0c07ed192db20001c8c19f","fixation","img/fixation.png","null","","test","","","","","",""
"441.39999771118164","325665","pSARL_v2","pSARL_v2e9c3s92d","5b0c07ed192db20001c8c19f","freq","img/orange_2bandit_a2.png","70","70","test","1","56","56","3","",""
"null","326039","pSARL_v2","pSARL_v2e9c3s92d","5b0c07ed192db20001c8c19f","freq_resp","img/orange_2bandit_a.png","70","70","test","","","","3","",""
"null","326194","pSARL_v2","pSARL_v2e9c3s92d","5b0c07ed192db20001c8c19f","fixation","img/fixation.png","null","","test","","","","","",""
"435.5","326634","pSARL_v2","pSARL_v2e9c3s92d","5b0c07ed192db20001c8c19f","freq","img/orange_2bandit_a2.png","70","70","test","1","57","57","3","",""
"null","327014","pSARL_v2","pSARL_v2e9c3s92d","5b0c07ed192db20001c8c19f","freq_resp","img/orange_2bandit_a.png","70","70","test","","","","3","",""
"null","327169","pSARL_v2","pSARL_v2e9c3s92d","5b0c07ed192db20001c8c19f","fixation","img/fixation.png","null","","test","","","","","",""
"400.4000015258789","327574","pSARL_v2","pSARL_v2e9c3s92d","5b0c07ed192db20001c8c19f","freq","img/orange_2bandit_a2.png","70","70","test","1","58","58","3","",""
"null","327985","pSARL_v2","pSARL_v2e9c3s92d","5b0c07ed192db20001c8c19f","freq_resp","img/orange_2bandit_a.png","70","70","test","","","","3","",""
"null","328147","pSARL_v2","pSARL_v2e9c3s92d","5b0c07ed192db20001c8c19f","fixation","img/fixation.png","null","","test","","","","","",""
"545.9000015258789","328696","pSARL_v2","pSARL_v2e9c3s92d","5b0c07ed192db20001c8c19f","infreq","img/green_2bandit_a2.png","68","68","test","1","59","59","3","",""
"null","328956","pSARL_v2","pSARL_v2e9c3s92d","5b0c07ed192db20001c8c19f","infreq_resp","img/green_2bandit_a.png","68","68","test","","","","3","",""
"null","329112","pSARL_v2","pSARL_v2e9c3s92d","5b0c07ed192db20001c8c19f","fixation","img/fixation.png","null","","test","","","","","",""
"442.60000228881836","329558","pSARL_v2","pSARL_v2e9c3s92d","5b0c07ed192db20001c8c19f","freq","img/orange_2bandit_a2.png","70","70","test","1","60","60","3","",""
"null","329923","pSARL_v2","pSARL_v2e9c3s92d","5b0c07ed192db20001c8c19f","freq_resp","img/orange_2bandit_a.png","70","70","test","","","","3","",""
"null","330081","pSARL_v2","pSARL_v2e9c3s92d","5b0c07ed192db20001c8c19f","fixation","img/fixation.png","null","","test","","","","","",""
"470","330555","pSARL_v2","pSARL_v2e9c3s92d","5b0c07ed192db20001c8c19f","freq","img/orange_2bandit_a2.png","70","70","test","1","61","61","3","",""
"null","330892","pSARL_v2","pSARL_v2e9c3s92d","5b0c07ed192db20001c8c19f","freq_resp","img/orange_2bandit_a.png","70","70","test","","","","3","",""
"null","331053","pSARL_v2","pSARL_v2e9c3s92d","5b0c07ed192db20001c8c19f","fixation","img/fixation.png","null","","test","","","","","",""
"425","331481","pSARL_v2","pSARL_v2e9c3s92d","5b0c07ed192db20001c8c19f","freq","img/orange_2bandit_a2.png","70","70","test","1","62","62","3","",""
"null","331875","pSARL_v2","pSARL_v2e9c3s92d","5b0c07ed192db20001c8c19f","freq_resp","img/orange_2bandit_a.png","70","70","test","","","","3","",""
"null","332038","pSARL_v2","pSARL_v2e9c3s92d","5b0c07ed192db20001c8c19f","fixation","img/fixation.png","null","","test","","","","","",""
"408.79999923706055","332451","pSARL_v2","pSARL_v2e9c3s92d","5b0c07ed192db20001c8c19f","freq","img/orange_2bandit_a2.png","70","70","test","1","63","63","3","",""
"null","332862","pSARL_v2","pSARL_v2e9c3s92d","5b0c07ed192db20001c8c19f","freq_resp","img/orange_2bandit_a.png","70","70","test","","","","3","",""
"null","333019","pSARL_v2","pSARL_v2e9c3s92d","5b0c07ed192db20001c8c19f","fixation","img/fixation.png","null","","test","","","","","",""
"441","333464","pSARL_v2","pSARL_v2e9c3s92d","5b0c07ed192db20001c8c19f","freq","img/orange_2bandit_a2.png","70","70","test","1","64","64","3","",""
"null","333831","pSARL_v2","pSARL_v2e9c3s92d","5b0c07ed192db20001c8c19f","freq_resp","img/orange_2bandit_a.png","70","70","test","","","","3","",""
"null","333986","pSARL_v2","pSARL_v2e9c3s92d","5b0c07ed192db20001c8c19f","fixation","img/fixation.png","null","","test","","","","","",""
"387.29999923706055","334377","pSARL_v2","pSARL_v2e9c3s92d","5b0c07ed192db20001c8c19f","freq","img/orange_2bandit_a2.png","70","70","test","1","65","65","3","",""
"null","334803","pSARL_v2","pSARL_v2e9c3s92d","5b0c07ed192db20001c8c19f","freq_resp","img/orange_2bandit_a.png","70","70","test","","","","3","",""
"null","334961","pSARL_v2","pSARL_v2e9c3s92d","5b0c07ed192db20001c8c19f","fixation","img/fixation.png","null","","test","","","","","",""
"380.20000076293945","335345","pSARL_v2","pSARL_v2e9c3s92d","5b0c07ed192db20001c8c19f","freq","img/orange_2bandit_a2.png","70","70","test","1","66","66","3","",""
"null","335784","pSARL_v2","pSARL_v2e9c3s92d","5b0c07ed192db20001c8c19f","freq_resp","img/orange_2bandit_a.png","70","70","test","","","","3","",""
"null","335945","pSARL_v2","pSARL_v2e9c3s92d","5b0c07ed192db20001c8c19f","fixation","img/fixation.png","null","","test","","","","","",""
"405","336355","pSARL_v2","pSARL_v2e9c3s92d","5b0c07ed192db20001c8c19f","freq","img/orange_2bandit_a2.png","70","70","test","1","67","67","3","",""
"null","336762","pSARL_v2","pSARL_v2e9c3s92d","5b0c07ed192db20001c8c19f","freq_resp","img/orange_2bandit_a.png","70","70","test","","","","3","",""
"null","336930","pSARL_v2","pSARL_v2e9c3s92d","5b0c07ed192db20001c8c19f","fixation","img/fixation.png","null","","test","","","","","",""
"332.5","337267","pSARL_v2","pSARL_v2e9c3s92d","5b0c07ed192db20001c8c19f","freq","img/orange_2bandit_a2.png","70","70","test","1","68","68","3","",""
"null","337749","pSARL_v2","pSARL_v2e9c3s92d","5b0c07ed192db20001c8c19f","freq_resp","img/orange_2bandit_a.png","70","70","test","","","","3","",""
"null","337912","pSARL_v2","pSARL_v2e9c3s92d","5b0c07ed192db20001c8c19f","fixation","img/fixation.png","null","","test","","","","","",""
"321.29999923706055","338237","pSARL_v2","pSARL_v2e9c3s92d","5b0c07ed192db20001c8c19f","freq","img/orange_2bandit_a2.png","70","70","test","1","69","69","3","",""
"null","338722","pSARL_v2","pSARL_v2e9c3s92d","5b0c07ed192db20001c8c19f","freq_resp","img/orange_2bandit_a.png","70","70","test","","","","3","",""
"null","338878","pSARL_v2","pSARL_v2e9c3s92d","5b0c07ed192db20001c8c19f","fixation","img/fixation.png","null","","test","","","","","",""
"321.4000015258789","339204","pSARL_v2","pSARL_v2e9c3s92d","5b0c07ed192db20001c8c19f","freq","img/orange_2bandit_a2.png","70","70","test","1","70","70","3","",""
"null","339689","pSARL_v2","pSARL_v2e9c3s92d","5b0c07ed192db20001c8c19f","freq_resp","img/orange_2bandit_a.png","70","70","test","","","","3","",""
"null","339848","pSARL_v2","pSARL_v2e9c3s92d","5b0c07ed192db20001c8c19f","fixation","img/fixation.png","null","","test","","","","","",""
"338.4000015258789","340190","pSARL_v2","pSARL_v2e9c3s92d","5b0c07ed192db20001c8c19f","freq","img/orange_2bandit_a2.png","70","70","test","1","71","71","3","",""
"null","340667","pSARL_v2","pSARL_v2e9c3s92d","5b0c07ed192db20001c8c19f","freq_resp","img/orange_2bandit_a.png","70","70","test","","","","3","",""
"null","340829","pSARL_v2","pSARL_v2e9c3s92d","5b0c07ed192db20001c8c19f","fixation","img/fixation.png","null","","test","","","","","",""
"416.9000015258789","341249","pSARL_v2","pSARL_v2e9c3s92d","5b0c07ed192db20001c8c19f","reward","img/slot.png","74","","test","","","","","",""
"null","342005","pSARL_v2","pSARL_v2e9c3s92d","5b0c07ed192db20001c8c19f","points","<div class=""verylowPoints""> -7 </div>","null","na","test","","","","3","-7","2"
"null","342821","pSARL_v2","pSARL_v2e9c3s92d","5b0c07ed192db20001c8c19f","freq","img/orange_2bandit_a2.png","null","70","test","0","72","72","4","",""
"null","342976","pSARL_v2","pSARL_v2e9c3s92d","5b0c07ed192db20001c8c19f","fixation","img/fixation.png","null","","test","","","","","",""
"64.20000076293945","343044","pSARL_v2","pSARL_v2e9c3s92d","5b0c07ed192db20001c8c19f","freq","img/orange_2bandit_a2.png","68","70","test","0","73","73","4","",""
"null","343796","pSARL_v2","pSARL_v2e9c3s92d","5b0c07ed192db20001c8c19f","freq_resp","img/orange_2bandit_a.png","68","70","test","","","","4","",""
"null","343961","pSARL_v2","pSARL_v2e9c3s92d","5b0c07ed192db20001c8c19f","fixation","img/fixation.png","null","","test","","","","","",""
"560.7000007629395","344526","pSARL_v2","pSARL_v2e9c3s92d","5b0c07ed192db20001c8c19f","freq","img/orange_2bandit_a2.png","70","70","test","1","74","74","4","",""
"null","344773","pSARL_v2","pSARL_v2e9c3s92d","5b0c07ed192db20001c8c19f","freq_resp","img/orange_2bandit_a.png","70","70","test","","","","4","",""
"null","344931","pSARL_v2","pSARL_v2e9c3s92d","5b0c07ed192db20001c8c19f","fixation","img/fixation.png","null","","test","","","","","",""
"457","345393","pSARL_v2","pSARL_v2e9c3s92d","5b0c07ed192db20001c8c19f","freq","img/orange_2bandit_a2.png","70","70","test","1","75","75","4","",""
"null","345741","pSARL_v2","pSARL_v2e9c3s92d","5b0c07ed192db20001c8c19f","freq_resp","img/orange_2bandit_a.png","70","70","test","","","","4","",""
"null","345895","pSARL_v2","pSARL_v2e9c3s92d","5b0c07ed192db20001c8c19f","fixation","img/fixation.png","null","","test","","","","","",""
"489","346389","pSARL_v2","pSARL_v2e9c3s92d","5b0c07ed192db20001c8c19f","freq","img/orange_2bandit_a2.png","70","70","test","1","76","76","4","",""
"null","346719","pSARL_v2","pSARL_v2e9c3s92d","5b0c07ed192db20001c8c19f","freq_resp","img/orange_2bandit_a.png","70","70","test","","","","4","",""
"null","346878","pSARL_v2","pSARL_v2e9c3s92d","5b0c07ed192db20001c8c19f","fixation","img/fixation.png","null","","test","","","","","",""
"372.5","347255","pSARL_v2","pSARL_v2e9c3s92d","5b0c07ed192db20001c8c19f","freq","img/orange_2bandit_a2.png","70","70","test","1","77","77","4","",""
"null","347694","pSARL_v2","pSARL_v2e9c3s92d","5b0c07ed192db20001c8c19f","freq_resp","img/orange_2bandit_a.png","70","70","test","","","","4","",""
"null","347850","pSARL_v2","pSARL_v2e9c3s92d","5b0c07ed192db20001c8c19f","fixation","img/fixation.png","null","","test","","","","","",""
"452","348306","pSARL_v2","pSARL_v2e9c3s92d","5b0c07ed192db20001c8c19f","freq","img/orange_2bandit_a2.png","70","70","test","1","78","78","4","",""
"null","348668","pSARL_v2","pSARL_v2e9c3s92d","5b0c07ed192db20001c8c19f","freq_resp","img/orange_2bandit_a.png","70","70","test","","","","4","",""
"null","348828","pSARL_v2","pSARL_v2e9c3s92d","5b0c07ed192db20001c8c19f","fixation","img/fixation.png","null","","test","","","","","",""
"290.39999771118164","349122","pSARL_v2","pSARL_v2e9c3s92d","5b0c07ed192db20001c8c19f","freq","img/orange_2bandit_a2.png","70","70","test","1","79","79","4","",""
"null","349645","pSARL_v2","pSARL_v2e9c3s92d","5b0c07ed192db20001c8c19f","freq_resp","img/orange_2bandit_a.png","70","70","test","","","","4","",""
"null","349802","pSARL_v2","pSARL_v2e9c3s92d","5b0c07ed192db20001c8c19f","fixation","img/fixation.png","null","","test","","","","","",""
"290.39999771118164","350096","pSARL_v2","pSARL_v2e9c3s92d","5b0c07ed192db20001c8c19f","infreq","img/green_2bandit_a2.png","70","68","test","0","80","80","4","",""
"null","350621","pSARL_v2","pSARL_v2e9c3s92d","5b0c07ed192db20001c8c19f","infreq_resp","img/green_2bandit_a.png","70","68","test","","","","4","",""
"null","350777","pSARL_v2","pSARL_v2e9c3s92d","5b0c07ed192db20001c8c19f","fixation","img/fixation.png","null","","test","","","","","",""
"501.0999984741211","351284","pSARL_v2","pSARL_v2e9c3s92d","5b0c07ed192db20001c8c19f","freq","img/orange_2bandit_a2.png","70","70","test","1","81","81","4","",""
"null","351601","pSARL_v2","pSARL_v2e9c3s92d","5b0c07ed192db20001c8c19f","freq_resp","img/orange_2bandit_a.png","70","70","test","","","","4","",""
"null","351762","pSARL_v2","pSARL_v2e9c3s92d","5b0c07ed192db20001c8c19f","fixation","img/fixation.png","null","","test","","","","","",""
"470","352235","pSARL_v2","pSARL_v2e9c3s92d","5b0c07ed192db20001c8c19f","freq","img/orange_2bandit_a2.png","70","70","test","1","82","82","4","",""
"null","352575","pSARL_v2","pSARL_v2e9c3s92d","5b0c07ed192db20001c8c19f","freq_resp","img/orange_2bandit_a.png","70","70","test","","","","4","",""
"null","352736","pSARL_v2","pSARL_v2e9c3s92d","5b0c07ed192db20001c8c19f","fixation","img/fixation.png","null","","test","","","","","",""
"434.29999923706055","353175","pSARL_v2","pSARL_v2e9c3s92d","5b0c07ed192db20001c8c19f","freq","img/orange_2bandit_a2.png","70","70","test","1","83","83","4","",""
"null","353544","pSARL_v2","pSARL_v2e9c3s92d","5b0c07ed192db20001c8c19f","freq_resp","img/orange_2bandit_a.png","70","70","test","","","","4","",""
"null","353705","pSARL_v2","pSARL_v2e9c3s92d","5b0c07ed192db20001c8c19f","fixation","img/fixation.png","null","","test","","","","","",""
"381.4000015258789","354090","pSARL_v2","pSARL_v2e9c3s92d","5b0c07ed192db20001c8c19f","freq","img/orange_2bandit_a2.png","70","70","test","1","84","84","4","",""
"null","354520","pSARL_v2","pSARL_v2e9c3s92d","5b0c07ed192db20001c8c19f","freq_resp","img/orange_2bandit_a.png","70","70","test","","","","4","",""
"null","354686","pSARL_v2","pSARL_v2e9c3s92d","5b0c07ed192db20001c8c19f","fixation","img/fixation.png","null","","test","","","","","",""
"353.4000015258789","355042","pSARL_v2","pSARL_v2e9c3s92d","5b0c07ed192db20001c8c19f","freq","img/orange_2bandit_a2.png","70","70","test","1","85","85","4","",""
"null","355508","pSARL_v2","pSARL_v2e9c3s92d","5b0c07ed192db20001c8c19f","freq_resp","img/orange_2bandit_a.png","70","70","test","","","","4","",""
"null","355670","pSARL_v2","pSARL_v2e9c3s92d","5b0c07ed192db20001c8c19f","fixation","img/fixation.png","null","","test","","","","","",""
"310.5","355986","pSARL_v2","pSARL_v2e9c3s92d","5b0c07ed192db20001c8c19f","freq","img/orange_2bandit_a2.png","70","70","test","1","86","86","4","",""
"null","356488","pSARL_v2","pSARL_v2e9c3s92d","5b0c07ed192db20001c8c19f","freq_resp","img/orange_2bandit_a.png","70","70","test","","","","4","",""
"null","356645","pSARL_v2","pSARL_v2e9c3s92d","5b0c07ed192db20001c8c19f","fixation","img/fixation.png","null","","test","","","","","",""
"538.5","357187","pSARL_v2","pSARL_v2e9c3s92d","5b0c07ed192db20001c8c19f","infreq","img/green_2bandit_a2.png","68","68","test","1","87","87","4","",""
"null","357454","pSARL_v2","pSARL_v2e9c3s92d","5b0c07ed192db20001c8c19f","infreq_resp","img/green_2bandit_a.png","68","68","test","","","","4","",""
"null","357610","pSARL_v2","pSARL_v2e9c3s92d","5b0c07ed192db20001c8c19f","fixation","img/fixation.png","null","","test","","","","","",""
"381.5999984741211","357996","pSARL_v2","pSARL_v2e9c3s92d","5b0c07ed192db20001c8c19f","freq","img/orange_2bandit_a2.png","70","70","test","1","88","88","4","",""
"null","358427","pSARL_v2","pSARL_v2e9c3s92d","5b0c07ed192db20001c8c19f","freq_resp","img/orange_2bandit_a.png","70","70","test","","","","4","",""
"null","358588","pSARL_v2","pSARL_v2e9c3s92d","5b0c07ed192db20001c8c19f","fixation","img/fixation.png","null","","test","","","","","",""
"373.70000076293945","358966","pSARL_v2","pSARL_v2e9c3s92d","5b0c07ed192db20001c8c19f","freq","img/orange_2bandit_a2.png","70","70","test","1","89","89","4","",""
"null","359409","pSARL_v2","pSARL_v2e9c3s92d","5b0c07ed192db20001c8c19f","freq_resp","img/orange_2bandit_a.png","70","70","test","","","","4","",""
"null","359569","pSARL_v2","pSARL_v2e9c3s92d","5b0c07ed192db20001c8c19f","fixation","img/fixation.png","null","","test","","","","","",""
"310.70000076293945","359884","pSARL_v2","pSARL_v2e9c3s92d","5b0c07ed192db20001c8c19f","freq","img/orange_2bandit_a2.png","70","70","test","1","90","90","4","",""
"null","360380","pSARL_v2","pSARL_v2e9c3s92d","5b0c07ed192db20001c8c19f","freq_resp","img/orange_2bandit_a.png","70","70","test","","","","4","",""
"null","360535","pSARL_v2","pSARL_v2e9c3s92d","5b0c07ed192db20001c8c19f","fixation","img/fixation.png","null","","test","","","","","",""
"418.0999984741211","360958","pSARL_v2","pSARL_v2e9c3s92d","5b0c07ed192db20001c8c19f","reward","img/slot.png","74","","test","","","","","",""
"null","361713","pSARL_v2","pSARL_v2e9c3s92d","5b0c07ed192db20001c8c19f","points","<div class=""verylowPoints""> -3 </div>","null","na","test","","","","4","-3","3"
"null","362525","pSARL_v2","pSARL_v2e9c3s92d","5b0c07ed192db20001c8c19f","freq","img/orange_2bandit_a2.png","null","70","test","0","91","91","5","",""
"null","362693","pSARL_v2","pSARL_v2e9c3s92d","5b0c07ed192db20001c8c19f","fixation","img/fixation.png","null","","test","","","","","",""
"10.700000762939453","362708","pSARL_v2","pSARL_v2e9c3s92d","5b0c07ed192db20001c8c19f","freq","img/orange_2bandit_a2.png","70","70","test","1","92","92","5","",""
"null","363512","pSARL_v2","pSARL_v2e9c3s92d","5b0c07ed192db20001c8c19f","freq_resp","img/orange_2bandit_a.png","70","70","test","","","","5","",""
"null","363669","pSARL_v2","pSARL_v2e9c3s92d","5b0c07ed192db20001c8c19f","fixation","img/fixation.png","null","","test","","","","","",""
"333.70000076293945","364007","pSARL_v2","pSARL_v2e9c3s92d","5b0c07ed192db20001c8c19f","freq","img/orange_2bandit_a2.png","70","70","test","1","93","93","5","",""
"null","364484","pSARL_v2","pSARL_v2e9c3s92d","5b0c07ed192db20001c8c19f","freq_resp","img/orange_2bandit_a.png","70","70","test","","","","5","",""
"null","364643","pSARL_v2","pSARL_v2e9c3s92d","5b0c07ed192db20001c8c19f","fixation","img/fixation.png","null","","test","","","","","",""
"336","364984","pSARL_v2","pSARL_v2e9c3s92d","5b0c07ed192db20001c8c19f","freq","img/orange_2bandit_a2.png","70","70","test","1","94","94","5","",""
"null","365459","pSARL_v2","pSARL_v2e9c3s92d","5b0c07ed192db20001c8c19f","freq_resp","img/orange_2bandit_a.png","70","70","test","","","","5","",""
"null","365625","pSARL_v2","pSARL_v2e9c3s92d","5b0c07ed192db20001c8c19f","fixation","img/fixation.png","null","","test","","","","","",""
"338.89999771118164","365968","pSARL_v2","pSARL_v2e9c3s92d","5b0c07ed192db20001c8c19f","freq","img/orange_2bandit_a2.png","70","70","test","1","95","95","5","",""
"null","366435","pSARL_v2","pSARL_v2e9c3s92d","5b0c07ed192db20001c8c19f","freq_resp","img/orange_2bandit_a.png","70","70","test","","","","5","",""
"null","366604","pSARL_v2","pSARL_v2e9c3s92d","5b0c07ed192db20001c8c19f","fixation","img/fixation.png","null","","test","","","","","",""
"285.4000015258789","366896","pSARL_v2","pSARL_v2e9c3s92d","5b0c07ed192db20001c8c19f","freq","img/orange_2bandit_a2.png","70","70","test","1","96","96","5","",""
"null","367420","pSARL_v2","pSARL_v2e9c3s92d","5b0c07ed192db20001c8c19f","freq_resp","img/orange_2bandit_a.png","70","70","test","","","","5","",""
"null","367577","pSARL_v2","pSARL_v2e9c3s92d","5b0c07ed192db20001c8c19f","fixation","img/fixation.png","null","","test","","","","","",""
"312.79999923706055","367894","pSARL_v2","pSARL_v2e9c3s92d","5b0c07ed192db20001c8c19f","freq","img/orange_2bandit_a2.png","70","70","test","1","97","97","5","",""
"null","368397","pSARL_v2","pSARL_v2e9c3s92d","5b0c07ed192db20001c8c19f","freq_resp","img/orange_2bandit_a.png","70","70","test","","","","5","",""
"null","368557","pSARL_v2","pSARL_v2e9c3s92d","5b0c07ed192db20001c8c19f","fixation","img/fixation.png","null","","test","","","","","",""
"363.29999923706055","368924","pSARL_v2","pSARL_v2e9c3s92d","5b0c07ed192db20001c8c19f","freq","img/orange_2bandit_a2.png","70","70","test","1","98","98","5","",""
"null","369368","pSARL_v2","pSARL_v2e9c3s92d","5b0c07ed192db20001c8c19f","freq_resp","img/orange_2bandit_a.png","70","70","test","","","","5","",""
"null","369531","pSARL_v2","pSARL_v2e9c3s92d","5b0c07ed192db20001c8c19f","fixation","img/fixation.png","null","","test","","","","","",""
"342.79999923706055","369878","pSARL_v2","pSARL_v2e9c3s92d","5b0c07ed192db20001c8c19f","freq","img/orange_2bandit_a2.png","70","70","test","1","99","99","5","",""
"null","370348","pSARL_v2","pSARL_v2e9c3s92d","5b0c07ed192db20001c8c19f","freq_resp","img/orange_2bandit_a.png","70","70","test","","","","5","",""
"null","370504","pSARL_v2","pSARL_v2e9c3s92d","5b0c07ed192db20001c8c19f","fixation","img/fixation.png","null","","test","","","","","",""
"514.0999984741211","371023","pSARL_v2","pSARL_v2e9c3s92d","5b0c07ed192db20001c8c19f","freq","img/orange_2bandit_a2.png","70","70","test","1","100","100","5","",""
"null","371318","pSARL_v2","pSARL_v2e9c3s92d","5b0c07ed192db20001c8c19f","freq_resp","img/orange_2bandit_a.png","70","70","test","","","","5","",""
"null","371486","pSARL_v2","pSARL_v2e9c3s92d","5b0c07ed192db20001c8c19f","fixation","img/fixation.png","null","","test","","","","","",""
"560.7999992370605","372051","pSARL_v2","pSARL_v2e9c3s92d","5b0c07ed192db20001c8c19f","freq","img/orange_2bandit_a2.png","70","70","test","1","101","101","5","",""
"null","372299","pSARL_v2","pSARL_v2e9c3s92d","5b0c07ed192db20001c8c19f","freq_resp","img/orange_2bandit_a.png","70","70","test","","","","5","",""
"null","372461","pSARL_v2","pSARL_v2e9c3s92d","5b0c07ed192db20001c8c19f","fixation","img/fixation.png","null","","test","","","","","",""
"628.1000022888184","373093","pSARL_v2","pSARL_v2e9c3s92d","5b0c07ed192db20001c8c19f","freq","img/orange_2bandit_a2.png","70","70","test","1","102","102","5","",""
"null","373284","pSARL_v2","pSARL_v2e9c3s92d","5b0c07ed192db20001c8c19f","freq_resp","img/orange_2bandit_a.png","70","70","test","","","","5","",""
"null","373453","pSARL_v2","pSARL_v2e9c3s92d","5b0c07ed192db20001c8c19f","fixation","img/fixation.png","null","","test","","","","","",""
"509.79999923706055","373969","pSARL_v2","pSARL_v2e9c3s92d","5b0c07ed192db20001c8c19f","infreq","img/green_2bandit_a2.png","68","68","test","1","103","103","5","",""
"null","374267","pSARL_v2","pSARL_v2e9c3s92d","5b0c07ed192db20001c8c19f","infreq_resp","img/green_2bandit_a.png","68","68","test","","","","5","",""
"null","374437","pSARL_v2","pSARL_v2e9c3s92d","5b0c07ed192db20001c8c19f","fixation","img/fixation.png","null","","test","","","","","",""
"343.5","374784","pSARL_v2","pSARL_v2e9c3s92d","5b0c07ed192db20001c8c19f","freq","img/orange_2bandit_a2.png","70","70","test","1","104","104","5","",""
"null","375258","pSARL_v2","pSARL_v2e9c3s92d","5b0c07ed192db20001c8c19f","freq_resp","img/orange_2bandit_a.png","70","70","test","","","","5","",""
"null","375427","pSARL_v2","pSARL_v2e9c3s92d","5b0c07ed192db20001c8c19f","fixation","img/fixation.png","null","","test","","","","","",""
"392.5","375823","pSARL_v2","pSARL_v2e9c3s92d","5b0c07ed192db20001c8c19f","freq","img/orange_2bandit_a2.png","70","70","test","1","105","105","5","",""
"null","376236","pSARL_v2","pSARL_v2e9c3s92d","5b0c07ed192db20001c8c19f","freq_resp","img/orange_2bandit_a.png","70","70","test","","","","5","",""
"null","376393","pSARL_v2","pSARL_v2e9c3s92d","5b0c07ed192db20001c8c19f","fixation","img/fixation.png","null","","test","","","","","",""
"401","376799","pSARL_v2","pSARL_v2e9c3s92d","5b0c07ed192db20001c8c19f","freq","img/orange_2bandit_a2.png","70","70","test","1","106","106","5","",""
"null","377211","pSARL_v2","pSARL_v2e9c3s92d","5b0c07ed192db20001c8c19f","freq_resp","img/orange_2bandit_a.png","70","70","test","","","","5","",""
"null","377377","pSARL_v2","pSARL_v2e9c3s92d","5b0c07ed192db20001c8c19f","fixation","img/fixation.png","null","","test","","","","","",""
"394.5","377776","pSARL_v2","pSARL_v2e9c3s92d","5b0c07ed192db20001c8c19f","freq","img/orange_2bandit_a2.png","70","70","test","1","107","107","5","",""
"null","378187","pSARL_v2","pSARL_v2e9c3s92d","5b0c07ed192db20001c8c19f","freq_resp","img/orange_2bandit_a.png","70","70","test","","","","5","",""
"null","378343","pSARL_v2","pSARL_v2e9c3s92d","5b0c07ed192db20001c8c19f","fixation","img/fixation.png","null","","test","","","","","",""
"543.1000022888184","378890","pSARL_v2","pSARL_v2e9c3s92d","5b0c07ed192db20001c8c19f","freq","img/orange_2bandit_a2.png","70","70","test","1","108","108","5","",""
"null","379162","pSARL_v2","pSARL_v2e9c3s92d","5b0c07ed192db20001c8c19f","freq_resp","img/orange_2bandit_a.png","70","70","test","","","","5","",""
"null","379318","pSARL_v2","pSARL_v2e9c3s92d","5b0c07ed192db20001c8c19f","fixation","img/fixation.png","null","","test","","","","","",""
"504","379826","pSARL_v2","pSARL_v2e9c3s92d","5b0c07ed192db20001c8c19f","freq","img/orange_2bandit_a2.png","70","70","test","1","109","109","5","",""
"null","380142","pSARL_v2","pSARL_v2e9c3s92d","5b0c07ed192db20001c8c19f","freq_resp","img/orange_2bandit_a.png","70","70","test","","","","5","",""
"null","380310","pSARL_v2","pSARL_v2e9c3s92d","5b0c07ed192db20001c8c19f","fixation","img/fixation.png","null","","test","","","","","",""
"432.60000228881836","380747","pSARL_v2","pSARL_v2e9c3s92d","5b0c07ed192db20001c8c19f","freq","img/orange_2bandit_a2.png","70","70","test","1","110","110","5","",""
"null","381123","pSARL_v2","pSARL_v2e9c3s92d","5b0c07ed192db20001c8c19f","freq_resp","img/orange_2bandit_a.png","70","70","test","","","","5","",""
"null","381286","pSARL_v2","pSARL_v2e9c3s92d","5b0c07ed192db20001c8c19f","fixation","img/fixation.png","null","","test","","","","","",""
"626.7000007629395","381916","pSARL_v2","pSARL_v2e9c3s92d","5b0c07ed192db20001c8c19f","infreq","img/green_2bandit_a2.png","68","68","test","1","111","111","5","",""
"null","382108","pSARL_v2","pSARL_v2e9c3s92d","5b0c07ed192db20001c8c19f","infreq_resp","img/green_2bandit_a.png","68","68","test","","","","5","",""
"null","382269","pSARL_v2","pSARL_v2e9c3s92d","5b0c07ed192db20001c8c19f","fixation","img/fixation.png","null","","test","","","","","",""
"333.20000076293945","382606","pSARL_v2","pSARL_v2e9c3s92d","5b0c07ed192db20001c8c19f","freq","img/orange_2bandit_a2.png","70","70","test","1","112","112","5","",""
"null","383081","pSARL_v2","pSARL_v2e9c3s92d","5b0c07ed192db20001c8c19f","freq_resp","img/orange_2bandit_a.png","70","70","test","","","","5","",""
"null","383244","pSARL_v2","pSARL_v2e9c3s92d","5b0c07ed192db20001c8c19f","fixation","img/fixation.png","null","","test","","","","","",""
"326.6999969482422","383576","pSARL_v2","pSARL_v2e9c3s92d","5b0c07ed192db20001c8c19f","freq","img/orange_2bandit_a2.png","70","70","test","1","113","113","5","",""
"null","384064","pSARL_v2","pSARL_v2e9c3s92d","5b0c07ed192db20001c8c19f","freq_resp","img/orange_2bandit_a.png","70","70","test","","","","5","",""
"null","384228","pSARL_v2","pSARL_v2e9c3s92d","5b0c07ed192db20001c8c19f","fixation","img/fixation.png","null","","test","","","","","",""
"324.6999969482422","384557","pSARL_v2","pSARL_v2e9c3s92d","5b0c07ed192db20001c8c19f","freq","img/orange_2bandit_a2.png","70","70","test","1","114","114","5","",""
"null","385047","pSARL_v2","pSARL_v2e9c3s92d","5b0c07ed192db20001c8c19f","freq_resp","img/orange_2bandit_a.png","70","70","test","","","","5","",""
"null","385209","pSARL_v2","pSARL_v2e9c3s92d","5b0c07ed192db20001c8c19f","fixation","img/fixation.png","null","","test","","","","","",""
"321.70000076293945","385535","pSARL_v2","pSARL_v2e9c3s92d","5b0c07ed192db20001c8c19f","freq","img/orange_2bandit_a2.png","70","70","test","1","115","115","5","",""
"null","386023","pSARL_v2","pSARL_v2e9c3s92d","5b0c07ed192db20001c8c19f","freq_resp","img/orange_2bandit_a.png","70","70","test","","","","5","",""
"null","386177","pSARL_v2","pSARL_v2e9c3s92d","5b0c07ed192db20001c8c19f","fixation","img/fixation.png","null","","test","","","","","",""
"424.20000076293945","386606","pSARL_v2","pSARL_v2e9c3s92d","5b0c07ed192db20001c8c19f","reward","img/slot.png","74","","test","","","","","",""
"null","387374","pSARL_v2","pSARL_v2e9c3s92d","5b0c07ed192db20001c8c19f","points","<div class=""veryhighPoints""> +1 </div>","null","na","test","","","","5","1","4"
"null","388194","pSARL_v2","pSARL_v2e9c3s92d","5b0c07ed192db20001c8c19f","freq","img/orange_2bandit_a2.png","null","70","test","0","116","116","6","",""
"null","388352","pSARL_v2","pSARL_v2e9c3s92d","5b0c07ed192db20001c8c19f","fixation","img/fixation.png","null","","test","","","","","",""
"755.7999992370605","389112","pSARL_v2","pSARL_v2e9c3s92d","5b0c07ed192db20001c8c19f","freq","img/orange_2bandit_a2.png","70","70","test","1","117","117","6","",""
"null","389175","pSARL_v2","pSARL_v2e9c3s92d","5b0c07ed192db20001c8c19f","freq_resp","img/orange_2bandit_a.png","70","70","test","","","","6","",""
"null","389335","pSARL_v2","pSARL_v2e9c3s92d","5b0c07ed192db20001c8c19f","fixation","img/fixation.png","null","","test","","","","","",""
"733.7000007629395","390073","pSARL_v2","pSARL_v2e9c3s92d","5b0c07ed192db20001c8c19f","freq","img/orange_2bandit_a2.png","70","70","test","1","118","118","6","",""
"null","390157","pSARL_v2","pSARL_v2e9c3s92d","5b0c07ed192db20001c8c19f","freq_resp","img/orange_2bandit_a.png","70","70","test","","","","6","",""
"null","390326","pSARL_v2","pSARL_v2e9c3s92d","5b0c07ed192db20001c8c19f","fixation","img/fixation.png","null","","test","","","","","",""
"724.7000007629395","391056","pSARL_v2","pSARL_v2e9c3s92d","5b0c07ed192db20001c8c19f","freq","img/orange_2bandit_a2.png","70","70","test","1","119","119","6","",""
"null","391135","pSARL_v2","pSARL_v2e9c3s92d","5b0c07ed192db20001c8c19f","freq_resp","img/orange_2bandit_a.png","70","70","test","","","","6","",""
"null","391302","pSARL_v2","pSARL_v2e9c3s92d","5b0c07ed192db20001c8c19f","fixation","img/fixation.png","null","","test","","","","","",""
"609.7000007629395","391916","pSARL_v2","pSARL_v2e9c3s92d","5b0c07ed192db20001c8c19f","freq","img/orange_2bandit_a2.png","70","70","test","1","120","120","6","",""
"null","392116","pSARL_v2","pSARL_v2e9c3s92d","5b0c07ed192db20001c8c19f","freq_resp","img/orange_2bandit_a.png","70","70","test","","","","6","",""
"null","392285","pSARL_v2","pSARL_v2e9c3s92d","5b0c07ed192db20001c8c19f","fixation","img/fixation.png","null","","test","","","","","",""
"517.5999984741211","392807","pSARL_v2","pSARL_v2e9c3s92d","5b0c07ed192db20001c8c19f","freq","img/orange_2bandit_a2.png","70","70","test","1","121","121","6","",""
"null","393109","pSARL_v2","pSARL_v2e9c3s92d","5b0c07ed192db20001c8c19f","freq_resp","img/orange_2bandit_a.png","70","70","test","","","","6","",""
"null","393270","pSARL_v2","pSARL_v2e9c3s92d","5b0c07ed192db20001c8c19f","fixation","img/fixation.png","null","","test","","","","","",""
"436.0999984741211","393711","pSARL_v2","pSARL_v2e9c3s92d","5b0c07ed192db20001c8c19f","freq","img/orange_2bandit_a2.png","70","70","test","1","122","122","6","",""
"null","394089","pSARL_v2","pSARL_v2e9c3s92d","5b0c07ed192db20001c8c19f","freq_resp","img/orange_2bandit_a.png","70","70","test","","","","6","",""
"null","394251","pSARL_v2","pSARL_v2e9c3s92d","5b0c07ed192db20001c8c19f","fixation","img/fixation.png","null","","test","","","","","",""
"386","394641","pSARL_v2","pSARL_v2e9c3s92d","5b0c07ed192db20001c8c19f","freq","img/orange_2bandit_a2.png","70","70","test","1","123","123","6","",""
"null","395069","pSARL_v2","pSARL_v2e9c3s92d","5b0c07ed192db20001c8c19f","freq_resp","img/orange_2bandit_a.png","70","70","test","","","","6","",""
"null","395228","pSARL_v2","pSARL_v2e9c3s92d","5b0c07ed192db20001c8c19f","fixation","img/fixation.png","null","","test","","","","","",""
"424.1999969482422","395656","pSARL_v2","pSARL_v2e9c3s92d","5b0c07ed192db20001c8c19f","freq","img/orange_2bandit_a2.png","70","70","test","1","124","124","6","",""
"null","396038","pSARL_v2","pSARL_v2e9c3s92d","5b0c07ed192db20001c8c19f","freq_resp","img/orange_2bandit_a.png","70","70","test","","","","6","",""
"null","396193","pSARL_v2","pSARL_v2e9c3s92d","5b0c07ed192db20001c8c19f","fixation","img/fixation.png","null","","test","","","","","",""
"461","396658","pSARL_v2","pSARL_v2e9c3s92d","5b0c07ed192db20001c8c19f","freq","img/orange_2bandit_a2.png","70","70","test","1","125","125","6","",""
"null","397007","pSARL_v2","pSARL_v2e9c3s92d","5b0c07ed192db20001c8c19f","freq_resp","img/orange_2bandit_a.png","70","70","test","","","","6","",""
"null","397176","pSARL_v2","pSARL_v2e9c3s92d","5b0c07ed192db20001c8c19f","fixation","img/fixation.png","null","","test","","","","","",""
"500.4000015258789","397682","pSARL_v2","pSARL_v2e9c3s92d","5b0c07ed192db20001c8c19f","freq","img/orange_2bandit_a2.png","70","70","test","1","126","126","6","",""
"null","397992","pSARL_v2","pSARL_v2e9c3s92d","5b0c07ed192db20001c8c19f","freq_resp","img/orange_2bandit_a.png","70","70","test","","","","6","",""
"null","398153","pSARL_v2","pSARL_v2e9c3s92d","5b0c07ed192db20001c8c19f","fixation","img/fixation.png","null","","test","","","","","",""
"476.4000015258789","398633","pSARL_v2","pSARL_v2e9c3s92d","5b0c07ed192db20001c8c19f","freq","img/orange_2bandit_a2.png","70","70","test","1","127","127","6","",""
"null","398974","pSARL_v2","pSARL_v2e9c3s92d","5b0c07ed192db20001c8c19f","freq_resp","img/orange_2bandit_a.png","70","70","test","","","","6","",""
"null","399143","pSARL_v2","pSARL_v2e9c3s92d","5b0c07ed192db20001c8c19f","fixation","img/fixation.png","null","","test","","","","","",""
"474.5","399621","pSARL_v2","pSARL_v2e9c3s92d","5b0c07ed192db20001c8c19f","freq","img/orange_2bandit_a2.png","70","70","test","1","128","128","6","",""
"null","399958","pSARL_v2","pSARL_v2e9c3s92d","5b0c07ed192db20001c8c19f","freq_resp","img/orange_2bandit_a.png","70","70","test","","","","6","",""
"null","400126","pSARL_v2","pSARL_v2e9c3s92d","5b0c07ed192db20001c8c19f","fixation","img/fixation.png","null","","test","","","","","",""
"386.0999984741211","400516","pSARL_v2","pSARL_v2e9c3s92d","5b0c07ed192db20001c8c19f","freq","img/orange_2bandit_a2.png","70","70","test","1","129","129","6","",""
"null","400943","pSARL_v2","pSARL_v2e9c3s92d","5b0c07ed192db20001c8c19f","freq_resp","img/orange_2bandit_a.png","70","70","test","","","","6","",""
"null","401103","pSARL_v2","pSARL_v2e9c3s92d","5b0c07ed192db20001c8c19f","fixation","img/fixation.png","null","","test","","","","","",""
"627.7000007629395","401734","pSARL_v2","pSARL_v2e9c3s92d","5b0c07ed192db20001c8c19f","infreq","img/green_2bandit_a2.png","68","68","test","1","130","130","6","",""
"null","401925","pSARL_v2","pSARL_v2e9c3s92d","5b0c07ed192db20001c8c19f","infreq_resp","img/green_2bandit_a.png","68","68","test","","","","6","",""
"null","402085","pSARL_v2","pSARL_v2e9c3s92d","5b0c07ed192db20001c8c19f","fixation","img/fixation.png","null","","test","","","","","",""
"316.3000030517578","402406","pSARL_v2","pSARL_v2e9c3s92d","5b0c07ed192db20001c8c19f","freq","img/orange_2bandit_a2.png","70","70","test","1","131","131","6","",""
"null","402898","pSARL_v2","pSARL_v2e9c3s92d","5b0c07ed192db20001c8c19f","freq_resp","img/orange_2bandit_a.png","70","70","test","","","","6","",""
"null","403053","pSARL_v2","pSARL_v2e9c3s92d","5b0c07ed192db20001c8c19f","fixation","img/fixation.png","null","","test","","","","","",""
"382.6999969482422","403439","pSARL_v2","pSARL_v2e9c3s92d","5b0c07ed192db20001c8c19f","freq","img/orange_2bandit_a2.png","70","70","test","1","132","132","6","",""
"null","403868","pSARL_v2","pSARL_v2e9c3s92d","5b0c07ed192db20001c8c19f","freq_resp","img/orange_2bandit_a.png","70","70","test","","","","6","",""
"null","404036","pSARL_v2","pSARL_v2e9c3s92d","5b0c07ed192db20001c8c19f","fixation","img/fixation.png","null","","test","","","","","",""
"354.3000030517578","404395","pSARL_v2","pSARL_v2e9c3s92d","5b0c07ed192db20001c8c19f","infreq","img/green_2bandit_a2.png","70","68","test","0","133","133","6","",""
"null","404849","pSARL_v2","pSARL_v2e9c3s92d","5b0c07ed192db20001c8c19f","infreq_resp","img/green_2bandit_a.png","70","68","test","","","","6","",""
"null","405018","pSARL_v2","pSARL_v2e9c3s92d","5b0c07ed192db20001c8c19f","fixation","img/fixation.png","null","","test","","","","","",""
"718.5","405741","pSARL_v2","pSARL_v2e9c3s92d","5b0c07ed192db20001c8c19f","freq","img/orange_2bandit_a2.png","70","70","test","1","134","134","6","",""
"null","405832","pSARL_v2","pSARL_v2e9c3s92d","5b0c07ed192db20001c8c19f","freq_resp","img/orange_2bandit_a.png","70","70","test","","","","6","",""
"null","405993","pSARL_v2","pSARL_v2e9c3s92d","5b0c07ed192db20001c8c19f","fixation","img/fixation.png","null","","test","","","","","",""
"661.5999984741211","406659","pSARL_v2","pSARL_v2e9c3s92d","5b0c07ed192db20001c8c19f","freq","img/orange_2bandit_a2.png","70","70","test","1","135","135","6","",""
"null","406804","pSARL_v2","pSARL_v2e9c3s92d","5b0c07ed192db20001c8c19f","freq_resp","img/orange_2bandit_a.png","70","70","test","","","","6","",""
"null","406960","pSARL_v2","pSARL_v2e9c3s92d","5b0c07ed192db20001c8c19f","fixation","img/fixation.png","null","","test","","","","","",""
"553.7999992370605","407519","pSARL_v2","pSARL_v2e9c3s92d","5b0c07ed192db20001c8c19f","reward","img/slot.png","74","","test","","","","","",""
"null","408287","pSARL_v2","pSARL_v2e9c3s92d","5b0c07ed192db20001c8c19f","points","<div class=""verylowPoints""> -7 </div>","null","na","test","","","","6","-7","5"
"747.5","409040","pSARL_v2","pSARL_v2e9c3s92d","5b0c07ed192db20001c8c19f","freq","img/orange_2bandit_a2.png","70","70","test","1","136","136","7","",""
"null","409100","pSARL_v2","pSARL_v2e9c3s92d","5b0c07ed192db20001c8c19f","freq_resp","img/orange_2bandit_a.png","70","70","test","","","","7","",""
"null","409260","pSARL_v2","pSARL_v2e9c3s92d","5b0c07ed192db20001c8c19f","fixation","img/fixation.png","null","","test","","","","","",""
"469.9000015258789","409735","pSARL_v2","pSARL_v2e9c3s92d","5b0c07ed192db20001c8c19f","infreq","img/green_2bandit_a2.png","68","68","test","1","137","137","7","",""
"null","410074","pSARL_v2","pSARL_v2e9c3s92d","5b0c07ed192db20001c8c19f","infreq_resp","img/green_2bandit_a.png","68","68","test","","","","7","",""
"null","410236","pSARL_v2","pSARL_v2e9c3s92d","5b0c07ed192db20001c8c19f","fixation","img/fixation.png","null","","test","","","","","",""
"395.0999984741211","410635","pSARL_v2","pSARL_v2e9c3s92d","5b0c07ed192db20001c8c19f","freq","img/orange_2bandit_a2.png","70","70","test","1","138","138","7","",""
"null","411051","pSARL_v2","pSARL_v2e9c3s92d","5b0c07ed192db20001c8c19f","freq_resp","img/orange_2bandit_a.png","70","70","test","","","","7","",""
"null","411211","pSARL_v2","pSARL_v2e9c3s92d","5b0c07ed192db20001c8c19f","fixation","img/fixation.png","null","","test","","","","","",""
"362.10000228881836","411577","pSARL_v2","pSARL_v2e9c3s92d","5b0c07ed192db20001c8c19f","infreq","img/green_2bandit_a2.png","68","68","test","1","139","139","7","",""
"null","412031","pSARL_v2","pSARL_v2e9c3s92d","5b0c07ed192db20001c8c19f","infreq_resp","img/green_2bandit_a.png","68","68","test","","","","7","",""
"null","412193","pSARL_v2","pSARL_v2e9c3s92d","5b0c07ed192db20001c8c19f","fixation","img/fixation.png","null","","test","","","","","",""
"380.39999771118164","412578","pSARL_v2","pSARL_v2e9c3s92d","5b0c07ed192db20001c8c19f","freq","img/orange_2bandit_a2.png","70","70","test","1","140","140","7","",""
"null","413001","pSARL_v2","pSARL_v2e9c3s92d","5b0c07ed192db20001c8c19f","freq_resp","img/orange_2bandit_a.png","70","70","test","","","","7","",""
"null","413160","pSARL_v2","pSARL_v2e9c3s92d","5b0c07ed192db20001c8c19f","fixation","img/fixation.png","null","","test","","","","","",""
"426","413590","pSARL_v2","pSARL_v2e9c3s92d","5b0c07ed192db20001c8c19f","freq","img/orange_2bandit_a2.png","70","70","test","1","141","141","7","",""
"null","413976","pSARL_v2","pSARL_v2e9c3s92d","5b0c07ed192db20001c8c19f","freq_resp","img/orange_2bandit_a.png","70","70","test","","","","7","",""
"null","414136","pSARL_v2","pSARL_v2e9c3s92d","5b0c07ed192db20001c8c19f","fixation","img/fixation.png","null","","test","","","","","",""
"448.10000228881836","414589","pSARL_v2","pSARL_v2e9c3s92d","5b0c07ed192db20001c8c19f","freq","img/orange_2bandit_a2.png","70","70","test","1","142","142","7","",""
"null","414956","pSARL_v2","pSARL_v2e9c3s92d","5b0c07ed192db20001c8c19f","freq_resp","img/orange_2bandit_a.png","70","70","test","","","","7","",""
"null","415118","pSARL_v2","pSARL_v2e9c3s92d","5b0c07ed192db20001c8c19f","fixation","img/fixation.png","null","","test","","","","","",""
"402.5","415525","pSARL_v2","pSARL_v2e9c3s92d","5b0c07ed192db20001c8c19f","freq","img/orange_2bandit_a2.png","70","70","test","1","143","143","7","",""
"null","415936","pSARL_v2","pSARL_v2e9c3s92d","5b0c07ed192db20001c8c19f","freq_resp","img/orange_2bandit_a.png","70","70","test","","","","7","",""
"null","416093","pSARL_v2","pSARL_v2e9c3s92d","5b0c07ed192db20001c8c19f","fixation","img/fixation.png","null","","test","","","","","",""
"471.10000228881836","416568","pSARL_v2","pSARL_v2e9c3s92d","5b0c07ed192db20001c8c19f","freq","img/orange_2bandit_a2.png","70","70","test","1","144","144","7","",""
"null","416907","pSARL_v2","pSARL_v2e9c3s92d","5b0c07ed192db20001c8c19f","freq_resp","img/orange_2bandit_a.png","70","70","test","","","","7","",""
"null","417069","pSARL_v2","pSARL_v2e9c3s92d","5b0c07ed192db20001c8c19f","fixation","img/fixation.png","null","","test","","","","","",""
"491.20000076293945","417565","pSARL_v2","pSARL_v2e9c3s92d","5b0c07ed192db20001c8c19f","freq","img/orange_2bandit_a2.png","70","70","test","1","145","145","7","",""
"null","417883","pSARL_v2","pSARL_v2e9c3s92d","5b0c07ed192db20001c8c19f","freq_resp","img/orange_2bandit_a.png","70","70","test","","","","7","",""
"null","418044","pSARL_v2","pSARL_v2e9c3s92d","5b0c07ed192db20001c8c19f","fixation","img/fixation.png","null","","test","","","","","",""
"562.8999977111816","418611","pSARL_v2","pSARL_v2e9c3s92d","5b0c07ed192db20001c8c19f","freq","img/orange_2bandit_a2.png","70","70","test","1","146","146","7","",""
"null","418855","pSARL_v2","pSARL_v2e9c3s92d","5b0c07ed192db20001c8c19f","freq_resp","img/orange_2bandit_a.png","70","70","test","","","","7","",""
"null","419014","pSARL_v2","pSARL_v2e9c3s92d","5b0c07ed192db20001c8c19f","fixation","img/fixation.png","null","","test","","","","","",""
"584.7999992370605","419603","pSARL_v2","pSARL_v2e9c3s92d","5b0c07ed192db20001c8c19f","freq","img/orange_2bandit_a2.png","70","70","test","1","147","147","7","",""
"null","419831","pSARL_v2","pSARL_v2e9c3s92d","5b0c07ed192db20001c8c19f","freq_resp","img/orange_2bandit_a.png","70","70","test","","","","7","",""
"null","419994","pSARL_v2","pSARL_v2e9c3s92d","5b0c07ed192db20001c8c19f","fixation","img/fixation.png","null","","test","","","","","",""
"575.8999977111816","420574","pSARL_v2","pSARL_v2e9c3s92d","5b0c07ed192db20001c8c19f","freq","img/orange_2bandit_a2.png","70","70","test","1","148","148","7","",""
"null","420813","pSARL_v2","pSARL_v2e9c3s92d","5b0c07ed192db20001c8c19f","freq_resp","img/orange_2bandit_a.png","70","70","test","","","","7","",""
"null","420972","pSARL_v2","pSARL_v2e9c3s92d","5b0c07ed192db20001c8c19f","fixation","img/fixation.png","null","","test","","","","","",""
"588.0999984741211","421563","pSARL_v2","pSARL_v2e9c3s92d","5b0c07ed192db20001c8c19f","freq","img/orange_2bandit_a2.png","70","70","test","1","149","149","7","",""
"null","421784","pSARL_v2","pSARL_v2e9c3s92d","5b0c07ed192db20001c8c19f","freq_resp","img/orange_2bandit_a.png","70","70","test","","","","7","",""
"null","421950","pSARL_v2","pSARL_v2e9c3s92d","5b0c07ed192db20001c8c19f","fixation","img/fixation.png","null","","test","","","","","",""
"551","422505","pSARL_v2","pSARL_v2e9c3s92d","5b0c07ed192db20001c8c19f","freq","img/orange_2bandit_a2.png","70","70","test","1","150","150","7","",""
"null","422772","pSARL_v2","pSARL_v2e9c3s92d","5b0c07ed192db20001c8c19f","freq_resp","img/orange_2bandit_a.png","70","70","test","","","","7","",""
"null","422927","pSARL_v2","pSARL_v2e9c3s92d","5b0c07ed192db20001c8c19f","fixation","img/fixation.png","null","","test","","","","","",""
"550.7999992370605","423482","pSARL_v2","pSARL_v2e9c3s92d","5b0c07ed192db20001c8c19f","freq","img/orange_2bandit_a2.png","70","70","test","1","151","151","7","",""
"null","423736","pSARL_v2","pSARL_v2e9c3s92d","5b0c07ed192db20001c8c19f","freq_resp","img/orange_2bandit_a.png","70","70","test","","","","7","",""
"null","423892","pSARL_v2","pSARL_v2e9c3s92d","5b0c07ed192db20001c8c19f","fixation","img/fixation.png","null","","test","","","","","",""
"585.2000007629395","424481","pSARL_v2","pSARL_v2e9c3s92d","5b0c07ed192db20001c8c19f","freq","img/orange_2bandit_a2.png","70","70","test","1","152","152","7","",""
"null","424705","pSARL_v2","pSARL_v2e9c3s92d","5b0c07ed192db20001c8c19f","freq_resp","img/orange_2bandit_a.png","70","70","test","","","","7","",""
"null","424868","pSARL_v2","pSARL_v2e9c3s92d","5b0c07ed192db20001c8c19f","fixation","img/fixation.png","null","","test","","","","","",""
"672.6000022888184","425545","pSARL_v2","pSARL_v2e9c3s92d","5b0c07ed192db20001c8c19f","freq","img/orange_2bandit_a2.png","70","70","test","1","153","153","7","",""
"null","425686","pSARL_v2","pSARL_v2e9c3s92d","5b0c07ed192db20001c8c19f","freq_resp","img/orange_2bandit_a.png","70","70","test","","","","7","",""
"null","425842","pSARL_v2","pSARL_v2e9c3s92d","5b0c07ed192db20001c8c19f","fixation","img/fixation.png","null","","test","","","","","",""
"637.7999992370605","426484","pSARL_v2","pSARL_v2e9c3s92d","5b0c07ed192db20001c8c19f","freq","img/orange_2bandit_a2.png","70","70","test","1","154","154","7","",""
"null","426656","pSARL_v2","pSARL_v2e9c3s92d","5b0c07ed192db20001c8c19f","freq_resp","img/orange_2bandit_a.png","70","70","test","","","","7","",""
"null","426826","pSARL_v2","pSARL_v2e9c3s92d","5b0c07ed192db20001c8c19f","fixation","img/fixation.png","null","","test","","","","","",""
"557.7000007629395","427388","pSARL_v2","pSARL_v2e9c3s92d","5b0c07ed192db20001c8c19f","freq","img/orange_2bandit_a2.png","70","70","test","1","155","155","7","",""
"null","427640","pSARL_v2","pSARL_v2e9c3s92d","5b0c07ed192db20001c8c19f","freq_resp","img/orange_2bandit_a.png","70","70","test","","","","7","",""
"null","427801","pSARL_v2","pSARL_v2e9c3s92d","5b0c07ed192db20001c8c19f","fixation","img/fixation.png","null","","test","","","","","",""
"657","428462","pSARL_v2","pSARL_v2e9c3s92d","5b0c07ed192db20001c8c19f","reward","img/slot.png","74","","test","","","","","",""
"null","429227","pSARL_v2","pSARL_v2e9c3s92d","5b0c07ed192db20001c8c19f","points","<div class=""verylowPoints""> -6 </div>","null","na","test","","","","7","-6","6"
"807.8000030517578","430039","pSARL_v2","pSARL_v2e9c3s92d","5b0c07ed192db20001c8c19f","freq","img/orange_2bandit_a2.png","70","70","test","1","156","156","8","",""
"null","430209","pSARL_v2","pSARL_v2e9c3s92d","5b0c07ed192db20001c8c19f","fixation","img/fixation.png","null","","test","","","","","",""
"665.2999992370605","430878","pSARL_v2","pSARL_v2e9c3s92d","5b0c07ed192db20001c8c19f","freq","img/orange_2bandit_a2.png","70","70","test","1","157","157","8","",""
"null","431018","pSARL_v2","pSARL_v2e9c3s92d","5b0c07ed192db20001c8c19f","freq_resp","img/orange_2bandit_a.png","70","70","test","","","","8","",""
"null","431184","pSARL_v2","pSARL_v2e9c3s92d","5b0c07ed192db20001c8c19f","fixation","img/fixation.png","null","","test","","","","","",""
"459.79999923706055","431650","pSARL_v2","pSARL_v2e9c3s92d","5b0c07ed192db20001c8c19f","freq","img/orange_2bandit_a2.png","70","70","test","1","158","158","8","",""
"null","431998","pSARL_v2","pSARL_v2e9c3s92d","5b0c07ed192db20001c8c19f","freq_resp","img/orange_2bandit_a.png","70","70","test","","","","8","",""
"null","432156","pSARL_v2","pSARL_v2e9c3s92d","5b0c07ed192db20001c8c19f","fixation","img/fixation.png","null","","test","","","","","",""
"394","432554","pSARL_v2","pSARL_v2e9c3s92d","5b0c07ed192db20001c8c19f","freq","img/orange_2bandit_a2.png","70","70","test","1","159","159","8","",""
"null","432979","pSARL_v2","pSARL_v2e9c3s92d","5b0c07ed192db20001c8c19f","freq_resp","img/orange_2bandit_a.png","70","70","test","","","","8","",""
"null","433135","pSARL_v2","pSARL_v2e9c3s92d","5b0c07ed192db20001c8c19f","fixation","img/fixation.png","null","","test","","","","","",""
"352.20000076293945","433491","pSARL_v2","pSARL_v2e9c3s92d","5b0c07ed192db20001c8c19f","freq","img/orange_2bandit_a2.png","70","70","test","1","160","160","8","",""
"null","433956","pSARL_v2","pSARL_v2e9c3s92d","5b0c07ed192db20001c8c19f","freq_resp","img/orange_2bandit_a.png","70","70","test","","","","8","",""
"null","434119","pSARL_v2","pSARL_v2e9c3s92d","5b0c07ed192db20001c8c19f","fixation","img/fixation.png","null","","test","","","","","",""
"332.5999984741211","434455","pSARL_v2","pSARL_v2e9c3s92d","5b0c07ed192db20001c8c19f","freq","img/orange_2bandit_a2.png","70","70","test","1","161","161","8","",""
"null","434939","pSARL_v2","pSARL_v2e9c3s92d","5b0c07ed192db20001c8c19f","freq_resp","img/orange_2bandit_a.png","70","70","test","","","","8","",""
"null","435101","pSARL_v2","pSARL_v2e9c3s92d","5b0c07ed192db20001c8c19f","fixation","img/fixation.png","null","","test","","","","","",""
"536.7999992370605","435642","pSARL_v2","pSARL_v2e9c3s92d","5b0c07ed192db20001c8c19f","infreq","img/green_2bandit_a2.png","68","68","test","1","162","162","8","",""
"null","435919","pSARL_v2","pSARL_v2e9c3s92d","5b0c07ed192db20001c8c19f","infreq_resp","img/green_2bandit_a.png","68","68","test","","","","8","",""
"null","436076","pSARL_v2","pSARL_v2e9c3s92d","5b0c07ed192db20001c8c19f","fixation","img/fixation.png","null","","test","","","","","",""
"431.79999923706055","436512","pSARL_v2","pSARL_v2e9c3s92d","5b0c07ed192db20001c8c19f","freq","img/orange_2bandit_a2.png","70","70","test","1","163","163","8","",""
"null","436887","pSARL_v2","pSARL_v2e9c3s92d","5b0c07ed192db20001c8c19f","freq_resp","img/orange_2bandit_a.png","70","70","test","","","","8","",""
"null","437043","pSARL_v2","pSARL_v2e9c3s92d","5b0c07ed192db20001c8c19f","fixation","img/fixation.png","null","","test","","","","","",""
"430.4000015258789","437477","pSARL_v2","pSARL_v2e9c3s92d","5b0c07ed192db20001c8c19f","freq","img/orange_2bandit_a2.png","70","70","test","1","164","164","8","",""
"null","437854","pSARL_v2","pSARL_v2e9c3s92d","5b0c07ed192db20001c8c19f","freq_resp","img/orange_2bandit_a.png","70","70","test","","","","8","",""
"null","438009","pSARL_v2","pSARL_v2e9c3s92d","5b0c07ed192db20001c8c19f","fixation","img/fixation.png","null","","test","","","","","",""
"366.8000030517578","438381","pSARL_v2","pSARL_v2e9c3s92d","5b0c07ed192db20001c8c19f","freq","img/orange_2bandit_a2.png","70","70","test","1","165","165","8","",""
"null","438833","pSARL_v2","pSARL_v2e9c3s92d","5b0c07ed192db20001c8c19f","freq_resp","img/orange_2bandit_a.png","70","70","test","","","","8","",""
"null","438993","pSARL_v2","pSARL_v2e9c3s92d","5b0c07ed192db20001c8c19f","fixation","img/fixation.png","null","","test","","","","","",""
"599.4000015258789","439596","pSARL_v2","pSARL_v2e9c3s92d","5b0c07ed192db20001c8c19f","infreq","img/green_2bandit_a2.png","68","68","test","1","166","166","8","",""
"null","439806","pSARL_v2","pSARL_v2e9c3s92d","5b0c07ed192db20001c8c19f","infreq_resp","img/green_2bandit_a.png","68","68","test","","","","8","",""
"null","439975","pSARL_v2","pSARL_v2e9c3s92d","5b0c07ed192db20001c8c19f","fixation","img/fixation.png","null","","test","","","","","",""
"377.9000015258789","440357","pSARL_v2","pSARL_v2e9c3s92d","5b0c07ed192db20001c8c19f","freq","img/orange_2bandit_a2.png","70","70","test","1","167","167","8","",""
"null","440801","pSARL_v2","pSARL_v2e9c3s92d","5b0c07ed192db20001c8c19f","freq_resp","img/orange_2bandit_a.png","70","70","test","","","","8","",""
"null","440959","pSARL_v2","pSARL_v2e9c3s92d","5b0c07ed192db20001c8c19f","fixation","img/fixation.png","null","","test","","","","","",""
"455.8000030517578","441420","pSARL_v2","pSARL_v2e9c3s92d","5b0c07ed192db20001c8c19f","freq","img/orange_2bandit_a2.png","70","70","test","1","168","168","8","",""
"null","441772","pSARL_v2","pSARL_v2e9c3s92d","5b0c07ed192db20001c8c19f","freq_resp","img/orange_2bandit_a.png","70","70","test","","","","8","",""
"null","441934","pSARL_v2","pSARL_v2e9c3s92d","5b0c07ed192db20001c8c19f","fixation","img/fixation.png","null","","test","","","","","",""
"476.0999984741211","442414","pSARL_v2","pSARL_v2e9c3s92d","5b0c07ed192db20001c8c19f","freq","img/orange_2bandit_a2.png","70","70","test","1","169","169","8","",""
"null","442756","pSARL_v2","pSARL_v2e9c3s92d","5b0c07ed192db20001c8c19f","freq_resp","img/orange_2bandit_a.png","70","70","test","","","","8","",""
"null","442925","pSARL_v2","pSARL_v2e9c3s92d","5b0c07ed192db20001c8c19f","fixation","img/fixation.png","null","","test","","","","","",""
"433.9000015258789","443363","pSARL_v2","pSARL_v2e9c3s92d","5b0c07ed192db20001c8c19f","freq","img/orange_2bandit_a2.png","70","70","test","1","170","170","8","",""
"null","443737","pSARL_v2","pSARL_v2e9c3s92d","5b0c07ed192db20001c8c19f","freq_resp","img/orange_2bandit_a.png","70","70","test","","","","8","",""
"null","443896","pSARL_v2","pSARL_v2e9c3s92d","5b0c07ed192db20001c8c19f","fixation","img/fixation.png","null","","test","","","","","",""
"467.8000030517578","444367","pSARL_v2","pSARL_v2e9c3s92d","5b0c07ed192db20001c8c19f","freq","img/orange_2bandit_a2.png","70","70","test","1","171","171","8","",""
"null","444706","pSARL_v2","pSARL_v2e9c3s92d","5b0c07ed192db20001c8c19f","freq_resp","img/orange_2bandit_a.png","70","70","test","","","","8","",""
"null","444869","pSARL_v2","pSARL_v2e9c3s92d","5b0c07ed192db20001c8c19f","fixation","img/fixation.png","null","","test","","","","","",""
"576.3000030517578","445449","pSARL_v2","pSARL_v2e9c3s92d","5b0c07ed192db20001c8c19f","freq","img/orange_2bandit_a2.png","70","70","test","1","172","172","8","",""
"null","445687","pSARL_v2","pSARL_v2e9c3s92d","5b0c07ed192db20001c8c19f","freq_resp","img/orange_2bandit_a.png","70","70","test","","","","8","",""
"null","445843","pSARL_v2","pSARL_v2e9c3s92d","5b0c07ed192db20001c8c19f","fixation","img/fixation.png","null","","test","","","","","",""
"405.29999923706055","446252","pSARL_v2","pSARL_v2e9c3s92d","5b0c07ed192db20001c8c19f","freq","img/orange_2bandit_a2.png","70","70","test","1","173","173","8","",""
"null","446659","pSARL_v2","pSARL_v2e9c3s92d","5b0c07ed192db20001c8c19f","freq_resp","img/orange_2bandit_a.png","70","70","test","","","","8","",""
"null","446818","pSARL_v2","pSARL_v2e9c3s92d","5b0c07ed192db20001c8c19f","fixation","img/fixation.png","null","","test","","","","","",""
"498.9000015258789","447321","pSARL_v2","pSARL_v2e9c3s92d","5b0c07ed192db20001c8c19f","freq","img/orange_2bandit_a2.png","70","70","test","1","174","174","8","",""
"null","447636","pSARL_v2","pSARL_v2e9c3s92d","5b0c07ed192db20001c8c19f","freq_resp","img/orange_2bandit_a.png","70","70","test","","","","8","",""
"null","447792","pSARL_v2","pSARL_v2e9c3s92d","5b0c07ed192db20001c8c19f","fixation","img/fixation.png","null","","test","","","","","",""
"569.2999992370605","448365","pSARL_v2","pSARL_v2e9c3s92d","5b0c07ed192db20001c8c19f","reward","img/slot.png","74","","test","","","","","",""
"null","449127","pSARL_v2","pSARL_v2e9c3s92d","5b0c07ed192db20001c8c19f","points","<div class=""verylowPoints""> -4 </div>","null","na","test","","","","8","-4","7"
"722.7999992370605","449854","pSARL_v2","pSARL_v2e9c3s92d","5b0c07ed192db20001c8c19f","freq","img/orange_2bandit_a2.png","70","70","test","1","175","175","9","",""
"null","449951","pSARL_v2","pSARL_v2e9c3s92d","5b0c07ed192db20001c8c19f","freq_resp","img/orange_2bandit_a.png","70","70","test","","","","9","",""
"null","450109","pSARL_v2","pSARL_v2e9c3s92d","5b0c07ed192db20001c8c19f","fixation","img/fixation.png","null","","test","","","","","",""
"590","450703","pSARL_v2","pSARL_v2e9c3s92d","5b0c07ed192db20001c8c19f","infreq","img/green_2bandit_a2.png","68","68","test","1","176","176","9","",""
"null","450923","pSARL_v2","pSARL_v2e9c3s92d","5b0c07ed192db20001c8c19f","infreq_resp","img/green_2bandit_a.png","68","68","test","","","","9","",""
"null","451084","pSARL_v2","pSARL_v2e9c3s92d","5b0c07ed192db20001c8c19f","fixation","img/fixation.png","null","","test","","","","","",""
"332.5999984741211","451420","pSARL_v2","pSARL_v2e9c3s92d","5b0c07ed192db20001c8c19f","freq","img/orange_2bandit_a2.png","70","70","test","1","177","177","9","",""
"null","451896","pSARL_v2","pSARL_v2e9c3s92d","5b0c07ed192db20001c8c19f","freq_resp","img/orange_2bandit_a.png","70","70","test","","","","9","",""
"null","452051","pSARL_v2","pSARL_v2e9c3s92d","5b0c07ed192db20001c8c19f","fixation","img/fixation.png","null","","test","","","","","",""
"408.9000015258789","452465","pSARL_v2","pSARL_v2e9c3s92d","5b0c07ed192db20001c8c19f","freq","img/orange_2bandit_a2.png","70","70","test","1","178","178","9","",""
"null","452876","pSARL_v2","pSARL_v2e9c3s92d","5b0c07ed192db20001c8c19f","freq_resp","img/orange_2bandit_a.png","70","70","test","","","","9","",""
"null","453042","pSARL_v2","pSARL_v2e9c3s92d","5b0c07ed192db20001c8c19f","fixation","img/fixation.png","null","","test","","","","","",""
"361.8000030517578","453408","pSARL_v2","pSARL_v2e9c3s92d","5b0c07ed192db20001c8c19f","freq","img/orange_2bandit_a2.png","70","70","test","1","179","179","9","",""
"null","453858","pSARL_v2","pSARL_v2e9c3s92d","5b0c07ed192db20001c8c19f","freq_resp","img/orange_2bandit_a.png","70","70","test","","","","9","",""
"null","454027","pSARL_v2","pSARL_v2e9c3s92d","5b0c07ed192db20001c8c19f","fixation","img/fixation.png","null","","test","","","","","",""
"384.70000076293945","454416","pSARL_v2","pSARL_v2e9c3s92d","5b0c07ed192db20001c8c19f","freq","img/orange_2bandit_a2.png","70","70","test","1","180","180","9","",""
"null","454850","pSARL_v2","pSARL_v2e9c3s92d","5b0c07ed192db20001c8c19f","freq_resp","img/orange_2bandit_a.png","70","70","test","","","","9","",""
"null","455010","pSARL_v2","pSARL_v2e9c3s92d","5b0c07ed192db20001c8c19f","fixation","img/fixation.png","null","","test","","","","","",""
"346.89999771118164","455361","pSARL_v2","pSARL_v2e9c3s92d","5b0c07ed192db20001c8c19f","freq","img/orange_2bandit_a2.png","70","70","test","1","181","181","9","",""
"null","455822","pSARL_v2","pSARL_v2e9c3s92d","5b0c07ed192db20001c8c19f","freq_resp","img/orange_2bandit_a.png","70","70","test","","","","9","",""
"null","455992","pSARL_v2","pSARL_v2e9c3s92d","5b0c07ed192db20001c8c19f","fixation","img/fixation.png","null","","test","","","","","",""
"315.70000076293945","456311","pSARL_v2","pSARL_v2e9c3s92d","5b0c07ed192db20001c8c19f","freq","img/orange_2bandit_a2.png","70","70","test","1","182","182","9","",""
"null","456811","pSARL_v2","pSARL_v2e9c3s92d","5b0c07ed192db20001c8c19f","freq_resp","img/orange_2bandit_a.png","70","70","test","","","","9","",""
"null","456968","pSARL_v2","pSARL_v2e9c3s92d","5b0c07ed192db20001c8c19f","fixation","img/fixation.png","null","","test","","","","","",""
"398.29999923706055","457370","pSARL_v2","pSARL_v2e9c3s92d","5b0c07ed192db20001c8c19f","freq","img/orange_2bandit_a2.png","70","70","test","1","183","183","9","",""
"null","457783","pSARL_v2","pSARL_v2e9c3s92d","5b0c07ed192db20001c8c19f","freq_resp","img/orange_2bandit_a.png","70","70","test","","","","9","",""
"null","457944","pSARL_v2","pSARL_v2e9c3s92d","5b0c07ed192db20001c8c19f","fixation","img/fixation.png","null","","test","","","","","",""
"348.5999984741211","458296","pSARL_v2","pSARL_v2e9c3s92d","5b0c07ed192db20001c8c19f","freq","img/orange_2bandit_a2.png","70","70","test","1","184","184","9","",""
"null","458756","pSARL_v2","pSARL_v2e9c3s92d","5b0c07ed192db20001c8c19f","freq_resp","img/orange_2bandit_a.png","70","70","test","","","","9","",""
"null","458926","pSARL_v2","pSARL_v2e9c3s92d","5b0c07ed192db20001c8c19f","fixation","img/fixation.png","null","","test","","","","","",""
"400.0999984741211","459329","pSARL_v2","pSARL_v2e9c3s92d","5b0c07ed192db20001c8c19f","freq","img/orange_2bandit_a2.png","70","70","test","1","185","185","9","",""
"null","459744","pSARL_v2","pSARL_v2e9c3s92d","5b0c07ed192db20001c8c19f","freq_resp","img/orange_2bandit_a.png","70","70","test","","","","9","",""
"null","459908","pSARL_v2","pSARL_v2e9c3s92d","5b0c07ed192db20001c8c19f","fixation","img/fixation.png","null","","test","","","","","",""
"365.20000076293945","460277","pSARL_v2","pSARL_v2e9c3s92d","5b0c07ed192db20001c8c19f","freq","img/orange_2bandit_a2.png","70","70","test","1","186","186","9","",""
"null","460724","pSARL_v2","pSARL_v2e9c3s92d","5b0c07ed192db20001c8c19f","freq_resp","img/orange_2bandit_a.png","70","70","test","","","","9","",""
"null","460884","pSARL_v2","pSARL_v2e9c3s92d","5b0c07ed192db20001c8c19f","fixation","img/fixation.png","null","","test","","","","","",""
"372.70000076293945","461261","pSARL_v2","pSARL_v2e9c3s92d","5b0c07ed192db20001c8c19f","freq","img/orange_2bandit_a2.png","70","70","test","1","187","187","9","",""
"null","461694","pSARL_v2","pSARL_v2e9c3s92d","5b0c07ed192db20001c8c19f","freq_resp","img/orange_2bandit_a.png","70","70","test","","","","9","",""
"null","461851","pSARL_v2","pSARL_v2e9c3s92d","5b0c07ed192db20001c8c19f","fixation","img/fixation.png","null","","test","","","","","",""
"369.89999771118164","462225","pSARL_v2","pSARL_v2e9c3s92d","5b0c07ed192db20001c8c19f","freq","img/orange_2bandit_a2.png","70","70","test","1","188","188","9","",""
"null","462671","pSARL_v2","pSARL_v2e9c3s92d","5b0c07ed192db20001c8c19f","freq_resp","img/orange_2bandit_a.png","70","70","test","","","","9","",""
"null","462834","pSARL_v2","pSARL_v2e9c3s92d","5b0c07ed192db20001c8c19f","fixation","img/fixation.png","null","","test","","","","","",""
"343.1999969482422","463181","pSARL_v2","pSARL_v2e9c3s92d","5b0c07ed192db20001c8c19f","infreq","img/green_2bandit_a2.png","70","68","test","0","189","189","9","",""
"null","463648","pSARL_v2","pSARL_v2e9c3s92d","5b0c07ed192db20001c8c19f","infreq_resp","img/green_2bandit_a.png","70","68","test","","","","9","",""
"null","463817","pSARL_v2","pSARL_v2e9c3s92d","5b0c07ed192db20001c8c19f","fixation","img/fixation.png","null","","test","","","","","",""
"411.0999984741211","464232","pSARL_v2","pSARL_v2e9c3s92d","5b0c07ed192db20001c8c19f","freq","img/orange_2bandit_a2.png","70","70","test","1","190","190","9","",""
"null","464635","pSARL_v2","pSARL_v2e9c3s92d","5b0c07ed192db20001c8c19f","freq_resp","img/orange_2bandit_a.png","70","70","test","","","","9","",""
"null","464791","pSARL_v2","pSARL_v2e9c3s92d","5b0c07ed192db20001c8c19f","fixation","img/fixation.png","null","","test","","","","","",""
"347.39999771118164","465143","pSARL_v2","pSARL_v2e9c3s92d","5b0c07ed192db20001c8c19f","freq","img/orange_2bandit_a2.png","70","70","test","1","191","191","9","",""
"null","465612","pSARL_v2","pSARL_v2e9c3s92d","5b0c07ed192db20001c8c19f","freq_resp","img/orange_2bandit_a.png","70","70","test","","","","9","",""
"null","465770","pSARL_v2","pSARL_v2e9c3s92d","5b0c07ed192db20001c8c19f","fixation","img/fixation.png","null","","test","","","","","",""
"286.5","466061","pSARL_v2","pSARL_v2e9c3s92d","5b0c07ed192db20001c8c19f","freq","img/orange_2bandit_a2.png","70","70","test","1","192","192","9","",""
"null","466587","pSARL_v2","pSARL_v2e9c3s92d","5b0c07ed192db20001c8c19f","freq_resp","img/orange_2bandit_a.png","70","70","test","","","","9","",""
"null","466743","pSARL_v2","pSARL_v2e9c3s92d","5b0c07ed192db20001c8c19f","fixation","img/fixation.png","null","","test","","","","","",""
"277.20000076293945","467025","pSARL_v2","pSARL_v2e9c3s92d","5b0c07ed192db20001c8c19f","freq","img/orange_2bandit_a2.png","70","70","test","1","193","193","9","",""
"null","467560","pSARL_v2","pSARL_v2e9c3s92d","5b0c07ed192db20001c8c19f","freq_resp","img/orange_2bandit_a.png","70","70","test","","","","9","",""
"null","467717","pSARL_v2","pSARL_v2e9c3s92d","5b0c07ed192db20001c8c19f","fixation","img/fixation.png","null","","test","","","","","",""
"363.9000015258789","468085","pSARL_v2","pSARL_v2e9c3s92d","5b0c07ed192db20001c8c19f","freq","img/orange_2bandit_a2.png","70","70","test","1","194","194","9","",""
"null","468538","pSARL_v2","pSARL_v2e9c3s92d","5b0c07ed192db20001c8c19f","freq_resp","img/orange_2bandit_a.png","70","70","test","","","","9","",""
"null","468709","pSARL_v2","pSARL_v2e9c3s92d","5b0c07ed192db20001c8c19f","fixation","img/fixation.png","null","","test","","","","","",""
"370.20000076293945","469083","pSARL_v2","pSARL_v2e9c3s92d","5b0c07ed192db20001c8c19f","freq","img/orange_2bandit_a2.png","70","70","test","1","195","195","9","",""
"null","469532","pSARL_v2","pSARL_v2e9c3s92d","5b0c07ed192db20001c8c19f","freq_resp","img/orange_2bandit_a.png","70","70","test","","","","9","",""
"null","469700","pSARL_v2","pSARL_v2e9c3s92d","5b0c07ed192db20001c8c19f","fixation","img/fixation.png","null","","test","","","","","",""
"352.79999923706055","470057","pSARL_v2","pSARL_v2e9c3s92d","5b0c07ed192db20001c8c19f","freq","img/orange_2bandit_a2.png","70","70","test","1","196","196","9","",""
"null","470521","pSARL_v2","pSARL_v2e9c3s92d","5b0c07ed192db20001c8c19f","freq_resp","img/orange_2bandit_a.png","70","70","test","","","","9","",""
"null","470692","pSARL_v2","pSARL_v2e9c3s92d","5b0c07ed192db20001c8c19f","fixation","img/fixation.png","null","","test","","","","","",""
"631.7999992370605","471327","pSARL_v2","pSARL_v2e9c3s92d","5b0c07ed192db20001c8c19f","freq","img/orange_2bandit_a2.png","70","70","test","1","197","197","9","",""
"null","471515","pSARL_v2","pSARL_v2e9c3s92d","5b0c07ed192db20001c8c19f","freq_resp","img/orange_2bandit_a.png","70","70","test","","","","9","",""
"null","471675","pSARL_v2","pSARL_v2e9c3s92d","5b0c07ed192db20001c8c19f","fixation","img/fixation.png","null","","test","","","","","",""
"593.4000015258789","472273","pSARL_v2","pSARL_v2e9c3s92d","5b0c07ed192db20001c8c19f","freq","img/orange_2bandit_a2.png","70","70","test","1","198","198","9","",""
"null","472488","pSARL_v2","pSARL_v2e9c3s92d","5b0c07ed192db20001c8c19f","freq_resp","img/orange_2bandit_a.png","70","70","test","","","","9","",""
"null","472658","pSARL_v2","pSARL_v2e9c3s92d","5b0c07ed192db20001c8c19f","fixation","img/fixation.png","null","","test","","","","","",""
"521.6000022888184","473183","pSARL_v2","pSARL_v2e9c3s92d","5b0c07ed192db20001c8c19f","freq","img/orange_2bandit_a2.png","70","70","test","1","199","199","9","",""
"null","473467","pSARL_v2","pSARL_v2e9c3s92d","5b0c07ed192db20001c8c19f","freq_resp","img/orange_2bandit_a.png","70","70","test","","","","9","",""
"null","473634","pSARL_v2","pSARL_v2e9c3s92d","5b0c07ed192db20001c8c19f","fixation","img/fixation.png","null","","test","","","","","",""
"536.0999984741211","474174","pSARL_v2","pSARL_v2e9c3s92d","5b0c07ed192db20001c8c19f","reward","img/slot.png","74","","test","","","","","",""
"null","474929","pSARL_v2","pSARL_v2e9c3s92d","5b0c07ed192db20001c8c19f","points","<div class=""verylowPoints""> -3 </div>","null","na","test","","","","9","-3","8"
"693.2999992370605","475626","pSARL_v2","pSARL_v2e9c3s92d","5b0c07ed192db20001c8c19f","freq","img/orange_2bandit_a2.png","70","70","test","1","200","200","10","",""
"null","475737","pSARL_v2","pSARL_v2e9c3s92d","5b0c07ed192db20001c8c19f","freq_resp","img/orange_2bandit_a.png","70","70","test","","","","10","",""
"null","475900","pSARL_v2","pSARL_v2e9c3s92d","5b0c07ed192db20001c8c19f","fixation","img/fixation.png","null","","test","","","","","",""
"554.7000007629395","476459","pSARL_v2","pSARL_v2e9c3s92d","5b0c07ed192db20001c8c19f","infreq","img/green_2bandit_a2.png","68","68","test","1","201","201","10","",""
"null","476711","pSARL_v2","pSARL_v2e9c3s92d","5b0c07ed192db20001c8c19f","infreq_resp","img/green_2bandit_a.png","68","68","test","","","","10","",""
"null","476875","pSARL_v2","pSARL_v2e9c3s92d","5b0c07ed192db20001c8c19f","fixation","img/fixation.png","null","","test","","","","","",""
"517.8999977111816","477398","pSARL_v2","pSARL_v2e9c3s92d","5b0c07ed192db20001c8c19f","infreq","img/green_2bandit_a2.png","68","68","test","1","202","202","10","",""
"null","477700","pSARL_v2","pSARL_v2e9c3s92d","5b0c07ed192db20001c8c19f","infreq_resp","img/green_2bandit_a.png","68","68","test","","","","10","",""
"null","477860","pSARL_v2","pSARL_v2e9c3s92d","5b0c07ed192db20001c8c19f","fixation","img/fixation.png","null","","test","","","","","",""
"547.7000007629395","478411","pSARL_v2","pSARL_v2e9c3s92d","5b0c07ed192db20001c8c19f","freq","img/orange_2bandit_a2.png","70","70","test","1","203","203","10","",""
"null","478676","pSARL_v2","pSARL_v2e9c3s92d","5b0c07ed192db20001c8c19f","freq_resp","img/orange_2bandit_a.png","70","70","test","","","","10","",""
"null","478833","pSARL_v2","pSARL_v2e9c3s92d","5b0c07ed192db20001c8c19f","fixation","img/fixation.png","null","","test","","","","","",""
"452.0999984741211","479290","pSARL_v2","pSARL_v2e9c3s92d","5b0c07ed192db20001c8c19f","freq","img/orange_2bandit_a2.png","70","70","test","1","204","204","10","",""
"null","479646","pSARL_v2","pSARL_v2e9c3s92d","5b0c07ed192db20001c8c19f","freq_resp","img/orange_2bandit_a.png","70","70","test","","","","10","",""
"null","479816","pSARL_v2","pSARL_v2e9c3s92d","5b0c07ed192db20001c8c19f","fixation","img/fixation.png","null","","test","","","","","",""
"344.20000076293945","480165","pSARL_v2","pSARL_v2e9c3s92d","5b0c07ed192db20001c8c19f","freq","img/orange_2bandit_a2.png","70","70","test","1","205","205","10","",""
"null","480638","pSARL_v2","pSARL_v2e9c3s92d","5b0c07ed192db20001c8c19f","freq_resp","img/orange_2bandit_a.png","70","70","test","","","","10","",""
"null","480800","pSARL_v2","pSARL_v2e9c3s92d","5b0c07ed192db20001c8c19f","fixation","img/fixation.png","null","","test","","","","","",""
"379","481183","pSARL_v2","pSARL_v2e9c3s92d","5b0c07ed192db20001c8c19f","freq","img/orange_2bandit_a2.png","70","70","test","1","206","206","10","",""
"null","481616","pSARL_v2","pSARL_v2e9c3s92d","5b0c07ed192db20001c8c19f","freq_resp","img/orange_2bandit_a.png","70","70","test","","","","10","",""
"null","481784","pSARL_v2","pSARL_v2e9c3s92d","5b0c07ed192db20001c8c19f","fixation","img/fixation.png","null","","test","","","","","",""
"451.4000015258789","482240","pSARL_v2","pSARL_v2e9c3s92d","5b0c07ed192db20001c8c19f","freq","img/orange_2bandit_a2.png","70","70","test","1","207","207","10","",""
"null","482596","pSARL_v2","pSARL_v2e9c3s92d","5b0c07ed192db20001c8c19f","freq_resp","img/orange_2bandit_a.png","70","70","test","","","","10","",""
"null","482759","pSARL_v2","pSARL_v2e9c3s92d","5b0c07ed192db20001c8c19f","fixation","img/fixation.png","null","","test","","","","","",""
