"rt","time_elapsed","expId","subject","prolificID","trialType","stimulus","key_press","corrresp","phase","corr","trialNum","attentionRunNum","blockNum","points","rlNum"
"2315.5","2320","pSARL_v2","pSARL_v2xnxmvrd8","59c3289b8e6ea10001f7b926","","","","","","","","","","",""
"","4864","pSARL_v2","pSARL_v2xnxmvrd8","59c3289b8e6ea10001f7b926","fullscreen","","","","","","","","","",""
"24272","29143","pSARL_v2","pSARL_v2xnxmvrd8","59c3289b8e6ea10001f7b926","","","","","","","","","","",""
"null","29957","pSARL_v2","pSARL_v2xnxmvrd8","59c3289b8e6ea10001f7b926","freqPrac","img/green_2bandit_a2.png","null","70","prac","0","","","","",""
"null","30971","pSARL_v2","pSARL_v2xnxmvrd8","59c3289b8e6ea10001f7b926","feedback","img/tooSlow.png","null","na","prac","","","","","",""
"null","31140","pSARL_v2","pSARL_v2xnxmvrd8","59c3289b8e6ea10001f7b926","fixation","img/fixation.png","null","","prac","","","","","",""
"557.8999999761581","31703","pSARL_v2","pSARL_v2xnxmvrd8","59c3289b8e6ea10001f7b926","infreqPrac","img/orange_2bandit_a2.png","70","68","prac","0","","","","",""
"557.8999999761581","31950","pSARL_v2","pSARL_v2xnxmvrd8","59c3289b8e6ea10001f7b926","infreqPrac_resp","img/orange_2bandit_a.png","70","68","prac","","","","","",""
"null","32962","pSARL_v2","pSARL_v2xnxmvrd8","59c3289b8e6ea10001f7b926","feedback","img/wrongKey.png","null","na","prac","","","","","",""
"null","33131","pSARL_v2","pSARL_v2xnxmvrd8","59c3289b8e6ea10001f7b926","fixation","img/fixation.png","null","","prac","","","","","",""
"469","33604","pSARL_v2","pSARL_v2xnxmvrd8","59c3289b8e6ea10001f7b926","freqPrac","img/green_2bandit_a2.png","68","70","prac","0","","","","",""
"469","33953","pSARL_v2","pSARL_v2xnxmvrd8","59c3289b8e6ea10001f7b926","freqPrac_resp","img/green_2bandit_a.png","68","70","prac","","","","","",""
"null","34966","pSARL_v2","pSARL_v2xnxmvrd8","59c3289b8e6ea10001f7b926","feedback","img/wrongKey.png","null","na","prac","","","","","",""
"null","35123","pSARL_v2","pSARL_v2xnxmvrd8","59c3289b8e6ea10001f7b926","fixation","img/fixation.png","null","","prac","","","","","",""
"744","35870","pSARL_v2","pSARL_v2xnxmvrd8","59c3289b8e6ea10001f7b926","infreqPrac","img/orange_2bandit_a2.png","68","68","prac","1","","","","",""
"744","35945","pSARL_v2","pSARL_v2xnxmvrd8","59c3289b8e6ea10001f7b926","infreqPrac_resp","img/orange_2bandit_a.png","68","68","prac","","","","","",""
"null","36100","pSARL_v2","pSARL_v2xnxmvrd8","59c3289b8e6ea10001f7b926","fixation","img/fixation.png","null","","prac","","","","","",""
"617.5","36722","pSARL_v2","pSARL_v2xnxmvrd8","59c3289b8e6ea10001f7b926","infreqPrac","img/orange_2bandit_a2.png","68","68","prac","1","","","","",""
"617.5","36916","pSARL_v2","pSARL_v2xnxmvrd8","59c3289b8e6ea10001f7b926","infreqPrac_resp","img/orange_2bandit_a.png","68","68","prac","","","","","",""
"null","37073","pSARL_v2","pSARL_v2xnxmvrd8","59c3289b8e6ea10001f7b926","fixation","img/fixation.png","null","","prac","","","","","",""
"364.9000000357628","37441","pSARL_v2","pSARL_v2xnxmvrd8","59c3289b8e6ea10001f7b926","infreqPrac","img/orange_2bandit_a2.png","68","68","prac","1","","","","",""
"364.9000000357628","37891","pSARL_v2","pSARL_v2xnxmvrd8","59c3289b8e6ea10001f7b926","infreqPrac_resp","img/orange_2bandit_a.png","68","68","prac","","","","","",""
"null","38059","pSARL_v2","pSARL_v2xnxmvrd8","59c3289b8e6ea10001f7b926","fixation","img/fixation.png","null","","prac","","","","","",""
"660.4000000357628","38724","pSARL_v2","pSARL_v2xnxmvrd8","59c3289b8e6ea10001f7b926","freqPrac","img/green_2bandit_a2.png","70","70","prac","1","","","","",""
"660.4000000357628","38872","pSARL_v2","pSARL_v2xnxmvrd8","59c3289b8e6ea10001f7b926","freqPrac_resp","img/green_2bandit_a.png","70","70","prac","","","","","",""
"null","39041","pSARL_v2","pSARL_v2xnxmvrd8","59c3289b8e6ea10001f7b926","fixation","img/fixation.png","null","","prac","","","","","",""
"516.8000000119209","39563","pSARL_v2","pSARL_v2xnxmvrd8","59c3289b8e6ea10001f7b926","infreqPrac","img/orange_2bandit_a2.png","68","68","prac","1","","","","",""
"516.8000000119209","39865","pSARL_v2","pSARL_v2xnxmvrd8","59c3289b8e6ea10001f7b926","infreqPrac_resp","img/orange_2bandit_a.png","68","68","prac","","","","","",""
"null","40033","pSARL_v2","pSARL_v2xnxmvrd8","59c3289b8e6ea10001f7b926","fixation","img/fixation.png","null","","prac","","","","","",""
"655.1999999880791","40693","pSARL_v2","pSARL_v2xnxmvrd8","59c3289b8e6ea10001f7b926","freqPrac","img/green_2bandit_a2.png","70","70","prac","1","","","","",""
"655.1999999880791","40848","pSARL_v2","pSARL_v2xnxmvrd8","59c3289b8e6ea10001f7b926","freqPrac_resp","img/green_2bandit_a.png","70","70","prac","","","","","",""
"null","41018","pSARL_v2","pSARL_v2xnxmvrd8","59c3289b8e6ea10001f7b926","fixation","img/fixation.png","null","","prac","","","","","",""
"538.8000000119209","41562","pSARL_v2","pSARL_v2xnxmvrd8","59c3289b8e6ea10001f7b926","freqPrac","img/green_2bandit_a2.png","70","70","prac","1","","","","",""
"538.8000000119209","41830","pSARL_v2","pSARL_v2xnxmvrd8","59c3289b8e6ea10001f7b926","freqPrac_resp","img/green_2bandit_a.png","70","70","prac","","","","","",""
"null","41999","pSARL_v2","pSARL_v2xnxmvrd8","59c3289b8e6ea10001f7b926","fixation","img/fixation.png","null","","prac","","","","","",""
"32446.5","74451","pSARL_v2","pSARL_v2xnxmvrd8","59c3289b8e6ea10001f7b926","","","","","prac","","","","","",""
"449.0999999642372","74905","pSARL_v2","pSARL_v2xnxmvrd8","59c3289b8e6ea10001f7b926","rewardPractice","img/slot.png","74","","prac","","","","","",""
"null","75662","pSARL_v2","pSARL_v2xnxmvrd8","59c3289b8e6ea10001f7b926","feedback","<div class=""veryhighPoints""> +15 </div>","null","na","prac","","","","","",""
"null","75821","pSARL_v2","pSARL_v2xnxmvrd8","59c3289b8e6ea10001f7b926","fixation","img/fixation.png","null","","prac","","","","","",""
"11283.099999964237","87108","pSARL_v2","pSARL_v2xnxmvrd8","59c3289b8e6ea10001f7b926","","","","","prac","","","","","",""
"696","87807","pSARL_v2","pSARL_v2xnxmvrd8","59c3289b8e6ea10001f7b926","freq","img/green_2bandit_a2.png","70","70","test","1","1","1","1","",""
"null","87932","pSARL_v2","pSARL_v2xnxmvrd8","59c3289b8e6ea10001f7b926","freq_resp","img/green_2bandit_a.png","70","70","test","","","","1","",""
"null","88099","pSARL_v2","pSARL_v2xnxmvrd8","59c3289b8e6ea10001f7b926","fixation","img/fixation.png","null","","test","","","","","",""
"298.19999998807907","88403","pSARL_v2","pSARL_v2xnxmvrd8","59c3289b8e6ea10001f7b926","freq","img/green_2bandit_a2.png","70","70","test","1","2","2","1","",""
"null","88924","pSARL_v2","pSARL_v2xnxmvrd8","59c3289b8e6ea10001f7b926","freq_resp","img/green_2bandit_a.png","70","70","test","","","","1","",""
"null","89091","pSARL_v2","pSARL_v2xnxmvrd8","59c3289b8e6ea10001f7b926","fixation","img/fixation.png","null","","test","","","","","",""
"332.2000000476837","89426","pSARL_v2","pSARL_v2xnxmvrd8","59c3289b8e6ea10001f7b926","freq","img/green_2bandit_a2.png","70","70","test","1","3","3","1","",""
"null","89898","pSARL_v2","pSARL_v2xnxmvrd8","59c3289b8e6ea10001f7b926","freq_resp","img/green_2bandit_a.png","70","70","test","","","","1","",""
"null","90067","pSARL_v2","pSARL_v2xnxmvrd8","59c3289b8e6ea10001f7b926","fixation","img/fixation.png","null","","test","","","","","",""
"430.69999998807907","90501","pSARL_v2","pSARL_v2xnxmvrd8","59c3289b8e6ea10001f7b926","infreq","img/orange_2bandit_a2.png","68","68","test","1","4","4","1","",""
"null","90887","pSARL_v2","pSARL_v2xnxmvrd8","59c3289b8e6ea10001f7b926","infreq_resp","img/orange_2bandit_a.png","68","68","test","","","","1","",""
"null","91044","pSARL_v2","pSARL_v2xnxmvrd8","59c3289b8e6ea10001f7b926","fixation","img/fixation.png","null","","test","","","","","",""
"512.7999999523163","91562","pSARL_v2","pSARL_v2xnxmvrd8","59c3289b8e6ea10001f7b926","freq","img/green_2bandit_a2.png","70","70","test","1","5","5","1","",""
"null","91863","pSARL_v2","pSARL_v2xnxmvrd8","59c3289b8e6ea10001f7b926","freq_resp","img/green_2bandit_a.png","70","70","test","","","","1","",""
"null","92030","pSARL_v2","pSARL_v2xnxmvrd8","59c3289b8e6ea10001f7b926","fixation","img/fixation.png","null","","test","","","","","",""
"631.1999999880791","92666","pSARL_v2","pSARL_v2xnxmvrd8","59c3289b8e6ea10001f7b926","infreq","img/orange_2bandit_a2.png","68","68","test","1","6","6","1","",""
"null","92840","pSARL_v2","pSARL_v2xnxmvrd8","59c3289b8e6ea10001f7b926","infreq_resp","img/orange_2bandit_a.png","68","68","test","","","","1","",""
"null","93001","pSARL_v2","pSARL_v2xnxmvrd8","59c3289b8e6ea10001f7b926","fixation","img/fixation.png","null","","test","","","","","",""
"455.0999999642372","93460","pSARL_v2","pSARL_v2xnxmvrd8","59c3289b8e6ea10001f7b926","freq","img/green_2bandit_a2.png","70","70","test","1","7","7","1","",""
"null","93820","pSARL_v2","pSARL_v2xnxmvrd8","59c3289b8e6ea10001f7b926","freq_resp","img/green_2bandit_a.png","70","70","test","","","","1","",""
"null","93975","pSARL_v2","pSARL_v2xnxmvrd8","59c3289b8e6ea10001f7b926","fixation","img/fixation.png","null","","test","","","","","",""
"396.2999999523163","94376","pSARL_v2","pSARL_v2xnxmvrd8","59c3289b8e6ea10001f7b926","freq","img/green_2bandit_a2.png","70","70","test","1","8","8","1","",""
"null","94785","pSARL_v2","pSARL_v2xnxmvrd8","59c3289b8e6ea10001f7b926","freq_resp","img/green_2bandit_a.png","70","70","test","","","","1","",""
"null","94943","pSARL_v2","pSARL_v2xnxmvrd8","59c3289b8e6ea10001f7b926","fixation","img/fixation.png","null","","test","","","","","",""
"439.5","95388","pSARL_v2","pSARL_v2xnxmvrd8","59c3289b8e6ea10001f7b926","freq","img/green_2bandit_a2.png","70","70","test","1","9","9","1","",""
"null","95762","pSARL_v2","pSARL_v2xnxmvrd8","59c3289b8e6ea10001f7b926","freq_resp","img/green_2bandit_a.png","70","70","test","","","","1","",""
"null","95919","pSARL_v2","pSARL_v2xnxmvrd8","59c3289b8e6ea10001f7b926","fixation","img/fixation.png","null","","test","","","","","",""
"374.39999997615814","96299","pSARL_v2","pSARL_v2xnxmvrd8","59c3289b8e6ea10001f7b926","freq","img/green_2bandit_a2.png","70","70","test","1","10","10","1","",""
"null","96741","pSARL_v2","pSARL_v2xnxmvrd8","59c3289b8e6ea10001f7b926","freq_resp","img/green_2bandit_a.png","70","70","test","","","","1","",""
"null","96911","pSARL_v2","pSARL_v2xnxmvrd8","59c3289b8e6ea10001f7b926","fixation","img/fixation.png","null","","test","","","","","",""
"470.19999998807907","97385","pSARL_v2","pSARL_v2xnxmvrd8","59c3289b8e6ea10001f7b926","freq","img/green_2bandit_a2.png","70","70","test","1","11","11","1","",""
"null","97733","pSARL_v2","pSARL_v2xnxmvrd8","59c3289b8e6ea10001f7b926","freq_resp","img/green_2bandit_a.png","70","70","test","","","","1","",""
"null","97902","pSARL_v2","pSARL_v2xnxmvrd8","59c3289b8e6ea10001f7b926","fixation","img/fixation.png","null","","test","","","","","",""
"444.80000001192093","98352","pSARL_v2","pSARL_v2xnxmvrd8","59c3289b8e6ea10001f7b926","freq","img/green_2bandit_a2.png","70","70","test","1","12","12","1","",""
"null","98725","pSARL_v2","pSARL_v2xnxmvrd8","59c3289b8e6ea10001f7b926","freq_resp","img/green_2bandit_a.png","70","70","test","","","","1","",""
"null","98882","pSARL_v2","pSARL_v2xnxmvrd8","59c3289b8e6ea10001f7b926","fixation","img/fixation.png","null","","test","","","","","",""
"340.10000002384186","99225","pSARL_v2","pSARL_v2xnxmvrd8","59c3289b8e6ea10001f7b926","freq","img/green_2bandit_a2.png","70","70","test","1","13","13","1","",""
"null","99702","pSARL_v2","pSARL_v2xnxmvrd8","59c3289b8e6ea10001f7b926","freq_resp","img/green_2bandit_a.png","70","70","test","","","","1","",""
"null","99858","pSARL_v2","pSARL_v2xnxmvrd8","59c3289b8e6ea10001f7b926","fixation","img/fixation.png","null","","test","","","","","",""
"451","100314","pSARL_v2","pSARL_v2xnxmvrd8","59c3289b8e6ea10001f7b926","freq","img/green_2bandit_a2.png","70","70","test","1","14","14","1","",""
"null","100678","pSARL_v2","pSARL_v2xnxmvrd8","59c3289b8e6ea10001f7b926","freq_resp","img/green_2bandit_a.png","70","70","test","","","","1","",""
"null","100834","pSARL_v2","pSARL_v2xnxmvrd8","59c3289b8e6ea10001f7b926","fixation","img/fixation.png","null","","test","","","","","",""
"460.69999998807907","101299","pSARL_v2","pSARL_v2xnxmvrd8","59c3289b8e6ea10001f7b926","freq","img/green_2bandit_a2.png","70","70","test","1","15","15","1","",""
"null","101642","pSARL_v2","pSARL_v2xnxmvrd8","59c3289b8e6ea10001f7b926","freq_resp","img/green_2bandit_a.png","70","70","test","","","","1","",""
"null","101798","pSARL_v2","pSARL_v2xnxmvrd8","59c3289b8e6ea10001f7b926","fixation","img/fixation.png","null","","test","","","","","",""
"322.89999997615814","102126","pSARL_v2","pSARL_v2xnxmvrd8","59c3289b8e6ea10001f7b926","freq","img/green_2bandit_a2.png","70","70","test","1","16","16","1","",""
"null","102610","pSARL_v2","pSARL_v2xnxmvrd8","59c3289b8e6ea10001f7b926","freq_resp","img/green_2bandit_a.png","70","70","test","","","","1","",""
"null","102781","pSARL_v2","pSARL_v2xnxmvrd8","59c3289b8e6ea10001f7b926","fixation","img/fixation.png","null","","test","","","","","",""
"306.0999999642372","103091","pSARL_v2","pSARL_v2xnxmvrd8","59c3289b8e6ea10001f7b926","freq","img/green_2bandit_a2.png","70","70","test","1","17","17","1","",""
"null","103603","pSARL_v2","pSARL_v2xnxmvrd8","59c3289b8e6ea10001f7b926","freq_resp","img/green_2bandit_a.png","70","70","test","","","","1","",""
"null","103772","pSARL_v2","pSARL_v2xnxmvrd8","59c3289b8e6ea10001f7b926","fixation","img/fixation.png","null","","test","","","","","",""
"284.7999999523163","104062","pSARL_v2","pSARL_v2xnxmvrd8","59c3289b8e6ea10001f7b926","freq","img/green_2bandit_a2.png","70","70","test","1","18","18","1","",""
"null","104594","pSARL_v2","pSARL_v2xnxmvrd8","59c3289b8e6ea10001f7b926","freq_resp","img/green_2bandit_a.png","70","70","test","","","","1","",""
"null","104750","pSARL_v2","pSARL_v2xnxmvrd8","59c3289b8e6ea10001f7b926","fixation","img/fixation.png","null","","test","","","","","",""
"319.0999999642372","105074","pSARL_v2","pSARL_v2xnxmvrd8","59c3289b8e6ea10001f7b926","freq","img/green_2bandit_a2.png","70","70","test","1","19","19","1","",""
"null","105568","pSARL_v2","pSARL_v2xnxmvrd8","59c3289b8e6ea10001f7b926","freq_resp","img/green_2bandit_a.png","70","70","test","","","","1","",""
"null","105724","pSARL_v2","pSARL_v2xnxmvrd8","59c3289b8e6ea10001f7b926","fixation","img/fixation.png","null","","test","","","","","",""
"381.5","106110","pSARL_v2","pSARL_v2xnxmvrd8","59c3289b8e6ea10001f7b926","freq","img/green_2bandit_a2.png","70","70","test","1","20","20","1","",""
"null","106549","pSARL_v2","pSARL_v2xnxmvrd8","59c3289b8e6ea10001f7b926","freq_resp","img/green_2bandit_a.png","70","70","test","","","","1","",""
"null","106704","pSARL_v2","pSARL_v2xnxmvrd8","59c3289b8e6ea10001f7b926","fixation","img/fixation.png","null","","test","","","","","",""
"656.5999999642372","107366","pSARL_v2","pSARL_v2xnxmvrd8","59c3289b8e6ea10001f7b926","reward","img/slot.png","74","","test","","","","","",""
"null","108134","pSARL_v2","pSARL_v2xnxmvrd8","59c3289b8e6ea10001f7b926","points","<div class=""verylowPoints""> -6 </div>","null","na","test","","","","1","-6","0"
"475.10000002384186","108613","pSARL_v2","pSARL_v2xnxmvrd8","59c3289b8e6ea10001f7b926","freq","img/green_2bandit_a2.png","70","70","test","1","21","21","2","",""
"null","108958","pSARL_v2","pSARL_v2xnxmvrd8","59c3289b8e6ea10001f7b926","freq_resp","img/green_2bandit_a.png","70","70","test","","","","2","",""
"null","109112","pSARL_v2","pSARL_v2xnxmvrd8","59c3289b8e6ea10001f7b926","fixation","img/fixation.png","null","","test","","","","","",""
"317.5","109434","pSARL_v2","pSARL_v2xnxmvrd8","59c3289b8e6ea10001f7b926","freq","img/green_2bandit_a2.png","70","70","test","1","22","22","2","",""
"null","109935","pSARL_v2","pSARL_v2xnxmvrd8","59c3289b8e6ea10001f7b926","freq_resp","img/green_2bandit_a.png","70","70","test","","","","2","",""
"null","110106","pSARL_v2","pSARL_v2xnxmvrd8","59c3289b8e6ea10001f7b926","fixation","img/fixation.png","null","","test","","","","","",""
"303.80000001192093","110414","pSARL_v2","pSARL_v2xnxmvrd8","59c3289b8e6ea10001f7b926","freq","img/green_2bandit_a2.png","70","70","test","1","23","23","2","",""
"null","110915","pSARL_v2","pSARL_v2xnxmvrd8","59c3289b8e6ea10001f7b926","freq_resp","img/green_2bandit_a.png","70","70","test","","","","2","",""
"null","111070","pSARL_v2","pSARL_v2xnxmvrd8","59c3289b8e6ea10001f7b926","fixation","img/fixation.png","null","","test","","","","","",""
"282.0999999642372","111356","pSARL_v2","pSARL_v2xnxmvrd8","59c3289b8e6ea10001f7b926","freq","img/green_2bandit_a2.png","70","70","test","1","24","24","2","",""
"null","111881","pSARL_v2","pSARL_v2xnxmvrd8","59c3289b8e6ea10001f7b926","freq_resp","img/green_2bandit_a.png","70","70","test","","","","2","",""
"null","112038","pSARL_v2","pSARL_v2xnxmvrd8","59c3289b8e6ea10001f7b926","fixation","img/fixation.png","null","","test","","","","","",""
"242.5","112286","pSARL_v2","pSARL_v2xnxmvrd8","59c3289b8e6ea10001f7b926","freq","img/green_2bandit_a2.png","70","70","test","1","25","25","2","",""
"null","112862","pSARL_v2","pSARL_v2xnxmvrd8","59c3289b8e6ea10001f7b926","freq_resp","img/green_2bandit_a.png","70","70","test","","","","2","",""
"null","113020","pSARL_v2","pSARL_v2xnxmvrd8","59c3289b8e6ea10001f7b926","fixation","img/fixation.png","null","","test","","","","","",""
"319.0999999642372","113344","pSARL_v2","pSARL_v2xnxmvrd8","59c3289b8e6ea10001f7b926","freq","img/green_2bandit_a2.png","70","70","test","1","26","26","2","",""
"null","113840","pSARL_v2","pSARL_v2xnxmvrd8","59c3289b8e6ea10001f7b926","freq_resp","img/green_2bandit_a.png","70","70","test","","","","2","",""
"null","114010","pSARL_v2","pSARL_v2xnxmvrd8","59c3289b8e6ea10001f7b926","fixation","img/fixation.png","null","","test","","","","","",""
"329","114343","pSARL_v2","pSARL_v2xnxmvrd8","59c3289b8e6ea10001f7b926","freq","img/green_2bandit_a2.png","70","70","test","1","27","27","2","",""
"null","114833","pSARL_v2","pSARL_v2xnxmvrd8","59c3289b8e6ea10001f7b926","freq_resp","img/green_2bandit_a.png","70","70","test","","","","2","",""
"null","115002","pSARL_v2","pSARL_v2xnxmvrd8","59c3289b8e6ea10001f7b926","fixation","img/fixation.png","null","","test","","","","","",""
"288.19999998807907","115295","pSARL_v2","pSARL_v2xnxmvrd8","59c3289b8e6ea10001f7b926","freq","img/green_2bandit_a2.png","70","70","test","1","28","28","2","",""
"null","115823","pSARL_v2","pSARL_v2xnxmvrd8","59c3289b8e6ea10001f7b926","freq_resp","img/green_2bandit_a.png","70","70","test","","","","2","",""
"null","115990","pSARL_v2","pSARL_v2xnxmvrd8","59c3289b8e6ea10001f7b926","fixation","img/fixation.png","null","","test","","","","","",""
"269.5","116263","pSARL_v2","pSARL_v2xnxmvrd8","59c3289b8e6ea10001f7b926","freq","img/green_2bandit_a2.png","70","70","test","1","29","29","2","",""
"null","116801","pSARL_v2","pSARL_v2xnxmvrd8","59c3289b8e6ea10001f7b926","freq_resp","img/green_2bandit_a.png","70","70","test","","","","2","",""
"null","116957","pSARL_v2","pSARL_v2xnxmvrd8","59c3289b8e6ea10001f7b926","fixation","img/fixation.png","null","","test","","","","","",""
"318.2000000476837","117282","pSARL_v2","pSARL_v2xnxmvrd8","59c3289b8e6ea10001f7b926","freq","img/green_2bandit_a2.png","70","70","test","1","30","30","2","",""
"null","117780","pSARL_v2","pSARL_v2xnxmvrd8","59c3289b8e6ea10001f7b926","freq_resp","img/green_2bandit_a.png","70","70","test","","","","2","",""
"null","117936","pSARL_v2","pSARL_v2xnxmvrd8","59c3289b8e6ea10001f7b926","fixation","img/fixation.png","null","","test","","","","","",""
"469.39999997615814","118411","pSARL_v2","pSARL_v2xnxmvrd8","59c3289b8e6ea10001f7b926","infreq","img/orange_2bandit_a2.png","68","68","test","1","31","31","2","",""
"null","118756","pSARL_v2","pSARL_v2xnxmvrd8","59c3289b8e6ea10001f7b926","infreq_resp","img/orange_2bandit_a.png","68","68","test","","","","2","",""
"null","118912","pSARL_v2","pSARL_v2xnxmvrd8","59c3289b8e6ea10001f7b926","fixation","img/fixation.png","null","","test","","","","","",""
"552.8999999761581","119470","pSARL_v2","pSARL_v2xnxmvrd8","59c3289b8e6ea10001f7b926","freq","img/green_2bandit_a2.png","70","70","test","1","32","32","2","",""
"null","119735","pSARL_v2","pSARL_v2xnxmvrd8","59c3289b8e6ea10001f7b926","freq_resp","img/green_2bandit_a.png","70","70","test","","","","2","",""
"null","119892","pSARL_v2","pSARL_v2xnxmvrd8","59c3289b8e6ea10001f7b926","fixation","img/fixation.png","null","","test","","","","","",""
"353.19999998807907","120250","pSARL_v2","pSARL_v2xnxmvrd8","59c3289b8e6ea10001f7b926","freq","img/green_2bandit_a2.png","70","70","test","1","33","33","2","",""
"null","120712","pSARL_v2","pSARL_v2xnxmvrd8","59c3289b8e6ea10001f7b926","freq_resp","img/green_2bandit_a.png","70","70","test","","","","2","",""
"null","120880","pSARL_v2","pSARL_v2xnxmvrd8","59c3289b8e6ea10001f7b926","fixation","img/fixation.png","null","","test","","","","","",""
"475.30000001192093","121361","pSARL_v2","pSARL_v2xnxmvrd8","59c3289b8e6ea10001f7b926","freq","img/green_2bandit_a2.png","70","70","test","1","34","34","2","",""
"null","121701","pSARL_v2","pSARL_v2xnxmvrd8","59c3289b8e6ea10001f7b926","freq_resp","img/green_2bandit_a.png","70","70","test","","","","2","",""
"null","121860","pSARL_v2","pSARL_v2xnxmvrd8","59c3289b8e6ea10001f7b926","fixation","img/fixation.png","null","","test","","","","","",""
"521.0999999642372","122386","pSARL_v2","pSARL_v2xnxmvrd8","59c3289b8e6ea10001f7b926","freq","img/green_2bandit_a2.png","70","70","test","1","35","35","2","",""
"null","122680","pSARL_v2","pSARL_v2xnxmvrd8","59c3289b8e6ea10001f7b926","freq_resp","img/green_2bandit_a.png","70","70","test","","","","2","",""
"null","122836","pSARL_v2","pSARL_v2xnxmvrd8","59c3289b8e6ea10001f7b926","fixation","img/fixation.png","null","","test","","","","","",""
"547","123387","pSARL_v2","pSARL_v2xnxmvrd8","59c3289b8e6ea10001f7b926","freq","img/green_2bandit_a2.png","70","70","test","1","36","36","2","",""
"null","123656","pSARL_v2","pSARL_v2xnxmvrd8","59c3289b8e6ea10001f7b926","freq_resp","img/green_2bandit_a.png","70","70","test","","","","2","",""
"null","123812","pSARL_v2","pSARL_v2xnxmvrd8","59c3289b8e6ea10001f7b926","fixation","img/fixation.png","null","","test","","","","","",""
"509.80000001192093","124326","pSARL_v2","pSARL_v2xnxmvrd8","59c3289b8e6ea10001f7b926","freq","img/green_2bandit_a2.png","70","70","test","1","37","37","2","",""
"null","124624","pSARL_v2","pSARL_v2xnxmvrd8","59c3289b8e6ea10001f7b926","freq_resp","img/green_2bandit_a.png","70","70","test","","","","2","",""
"null","124792","pSARL_v2","pSARL_v2xnxmvrd8","59c3289b8e6ea10001f7b926","fixation","img/fixation.png","null","","test","","","","","",""
"432.19999998807907","125229","pSARL_v2","pSARL_v2xnxmvrd8","59c3289b8e6ea10001f7b926","freq","img/green_2bandit_a2.png","70","70","test","1","38","38","2","",""
"null","125601","pSARL_v2","pSARL_v2xnxmvrd8","59c3289b8e6ea10001f7b926","freq_resp","img/green_2bandit_a.png","70","70","test","","","","2","",""
"null","125759","pSARL_v2","pSARL_v2xnxmvrd8","59c3289b8e6ea10001f7b926","fixation","img/fixation.png","null","","test","","","","","",""
"334.69999998807907","126099","pSARL_v2","pSARL_v2xnxmvrd8","59c3289b8e6ea10001f7b926","freq","img/green_2bandit_a2.png","70","70","test","1","39","39","2","",""
"null","126581","pSARL_v2","pSARL_v2xnxmvrd8","59c3289b8e6ea10001f7b926","freq_resp","img/green_2bandit_a.png","70","70","test","","","","2","",""
"null","126739","pSARL_v2","pSARL_v2xnxmvrd8","59c3289b8e6ea10001f7b926","fixation","img/fixation.png","null","","test","","","","","",""
"328.69999998807907","127071","pSARL_v2","pSARL_v2xnxmvrd8","59c3289b8e6ea10001f7b926","freq","img/green_2bandit_a2.png","70","70","test","1","40","40","2","",""
"null","127546","pSARL_v2","pSARL_v2xnxmvrd8","59c3289b8e6ea10001f7b926","freq_resp","img/green_2bandit_a.png","70","70","test","","","","2","",""
"null","127702","pSARL_v2","pSARL_v2xnxmvrd8","59c3289b8e6ea10001f7b926","fixation","img/fixation.png","null","","test","","","","","",""
"431.5","128139","pSARL_v2","pSARL_v2xnxmvrd8","59c3289b8e6ea10001f7b926","infreq","img/orange_2bandit_a2.png","68","68","test","1","41","41","2","",""
"null","128525","pSARL_v2","pSARL_v2xnxmvrd8","59c3289b8e6ea10001f7b926","infreq_resp","img/orange_2bandit_a.png","68","68","test","","","","2","",""
"null","128679","pSARL_v2","pSARL_v2xnxmvrd8","59c3289b8e6ea10001f7b926","fixation","img/fixation.png","null","","test","","","","","",""
"511.19999998807907","129194","pSARL_v2","pSARL_v2xnxmvrd8","59c3289b8e6ea10001f7b926","freq","img/green_2bandit_a2.png","70","70","test","1","42","42","2","",""
"null","129496","pSARL_v2","pSARL_v2xnxmvrd8","59c3289b8e6ea10001f7b926","freq_resp","img/green_2bandit_a.png","70","70","test","","","","2","",""
"null","129650","pSARL_v2","pSARL_v2xnxmvrd8","59c3289b8e6ea10001f7b926","fixation","img/fixation.png","null","","test","","","","","",""
"440.39999997615814","130095","pSARL_v2","pSARL_v2xnxmvrd8","59c3289b8e6ea10001f7b926","reward","img/slot.png","74","","test","","","","","",""
"null","130858","pSARL_v2","pSARL_v2xnxmvrd8","59c3289b8e6ea10001f7b926","points","<div class=""verylowPoints""> -11 </div>","null","na","test","","","","2","-11","1"
"345.39999997615814","131209","pSARL_v2","pSARL_v2xnxmvrd8","59c3289b8e6ea10001f7b926","freq","img/green_2bandit_a2.png","70","70","test","1","43","43","3","",""
"null","131681","pSARL_v2","pSARL_v2xnxmvrd8","59c3289b8e6ea10001f7b926","freq_resp","img/green_2bandit_a.png","70","70","test","","","","3","",""
"null","131850","pSARL_v2","pSARL_v2xnxmvrd8","59c3289b8e6ea10001f7b926","fixation","img/fixation.png","null","","test","","","","","",""
"381.89999997615814","132237","pSARL_v2","pSARL_v2xnxmvrd8","59c3289b8e6ea10001f7b926","freq","img/green_2bandit_a2.png","70","70","test","1","44","44","3","",""
"null","132673","pSARL_v2","pSARL_v2xnxmvrd8","59c3289b8e6ea10001f7b926","freq_resp","img/green_2bandit_a.png","70","70","test","","","","3","",""
"null","132827","pSARL_v2","pSARL_v2xnxmvrd8","59c3289b8e6ea10001f7b926","fixation","img/fixation.png","null","","test","","","","","",""
"502.2000000476837","133333","pSARL_v2","pSARL_v2xnxmvrd8","59c3289b8e6ea10001f7b926","freq","img/green_2bandit_a2.png","70","70","test","1","45","45","3","",""
"null","133638","pSARL_v2","pSARL_v2xnxmvrd8","59c3289b8e6ea10001f7b926","freq_resp","img/green_2bandit_a.png","70","70","test","","","","3","",""
"null","133804","pSARL_v2","pSARL_v2xnxmvrd8","59c3289b8e6ea10001f7b926","fixation","img/fixation.png","null","","test","","","","","",""
"406.2999999523163","134214","pSARL_v2","pSARL_v2xnxmvrd8","59c3289b8e6ea10001f7b926","freq","img/green_2bandit_a2.png","70","70","test","1","46","46","3","",""
"null","134615","pSARL_v2","pSARL_v2xnxmvrd8","59c3289b8e6ea10001f7b926","freq_resp","img/green_2bandit_a.png","70","70","test","","","","3","",""
"null","134770","pSARL_v2","pSARL_v2xnxmvrd8","59c3289b8e6ea10001f7b926","fixation","img/fixation.png","null","","test","","","","","",""
"348.30000001192093","135124","pSARL_v2","pSARL_v2xnxmvrd8","59c3289b8e6ea10001f7b926","freq","img/green_2bandit_a2.png","70","70","test","1","47","47","3","",""
"null","135593","pSARL_v2","pSARL_v2xnxmvrd8","59c3289b8e6ea10001f7b926","freq_resp","img/green_2bandit_a.png","70","70","test","","","","3","",""
"null","135748","pSARL_v2","pSARL_v2xnxmvrd8","59c3289b8e6ea10001f7b926","fixation","img/fixation.png","null","","test","","","","","",""
"279.60000002384186","136033","pSARL_v2","pSARL_v2xnxmvrd8","59c3289b8e6ea10001f7b926","freq","img/green_2bandit_a2.png","70","70","test","1","48","48","3","",""
"null","136570","pSARL_v2","pSARL_v2xnxmvrd8","59c3289b8e6ea10001f7b926","freq_resp","img/green_2bandit_a.png","70","70","test","","","","3","",""
"null","136740","pSARL_v2","pSARL_v2xnxmvrd8","59c3289b8e6ea10001f7b926","fixation","img/fixation.png","null","","test","","","","","",""
"436.0999999642372","137181","pSARL_v2","pSARL_v2xnxmvrd8","59c3289b8e6ea10001f7b926","infreq","img/orange_2bandit_a2.png","68","68","test","1","49","49","3","",""
"null","137564","pSARL_v2","pSARL_v2xnxmvrd8","59c3289b8e6ea10001f7b926","infreq_resp","img/orange_2bandit_a.png","68","68","test","","","","3","",""
"null","137721","pSARL_v2","pSARL_v2xnxmvrd8","59c3289b8e6ea10001f7b926","fixation","img/fixation.png","null","","test","","","","","",""
"413.19999998807907","138137","pSARL_v2","pSARL_v2xnxmvrd8","59c3289b8e6ea10001f7b926","freq","img/green_2bandit_a2.png","70","70","test","1","50","50","3","",""
"null","138531","pSARL_v2","pSARL_v2xnxmvrd8","59c3289b8e6ea10001f7b926","freq_resp","img/green_2bandit_a.png","70","70","test","","","","3","",""
"null","138686","pSARL_v2","pSARL_v2xnxmvrd8","59c3289b8e6ea10001f7b926","fixation","img/fixation.png","null","","test","","","","","",""
"274.10000002384186","138965","pSARL_v2","pSARL_v2xnxmvrd8","59c3289b8e6ea10001f7b926","freq","img/green_2bandit_a2.png","70","70","test","1","51","51","3","",""
"null","139494","pSARL_v2","pSARL_v2xnxmvrd8","59c3289b8e6ea10001f7b926","freq_resp","img/green_2bandit_a.png","70","70","test","","","","3","",""
"null","139652","pSARL_v2","pSARL_v2xnxmvrd8","59c3289b8e6ea10001f7b926","fixation","img/fixation.png","null","","test","","","","","",""
"269.30000001192093","139926","pSARL_v2","pSARL_v2xnxmvrd8","59c3289b8e6ea10001f7b926","freq","img/green_2bandit_a2.png","70","70","test","1","52","52","3","",""
"null","140473","pSARL_v2","pSARL_v2xnxmvrd8","59c3289b8e6ea10001f7b926","freq_resp","img/green_2bandit_a.png","70","70","test","","","","3","",""
"null","140629","pSARL_v2","pSARL_v2xnxmvrd8","59c3289b8e6ea10001f7b926","fixation","img/fixation.png","null","","test","","","","","",""
"289.39999997615814","140922","pSARL_v2","pSARL_v2xnxmvrd8","59c3289b8e6ea10001f7b926","freq","img/green_2bandit_a2.png","70","70","test","1","53","53","3","",""
"null","141451","pSARL_v2","pSARL_v2xnxmvrd8","59c3289b8e6ea10001f7b926","freq_resp","img/green_2bandit_a.png","70","70","test","","","","3","",""
"null","141607","pSARL_v2","pSARL_v2xnxmvrd8","59c3289b8e6ea10001f7b926","fixation","img/fixation.png","null","","test","","","","","",""
"304.7999999523163","141917","pSARL_v2","pSARL_v2xnxmvrd8","59c3289b8e6ea10001f7b926","freq","img/green_2bandit_a2.png","70","70","test","1","54","54","3","",""
"null","142431","pSARL_v2","pSARL_v2xnxmvrd8","59c3289b8e6ea10001f7b926","freq_resp","img/green_2bandit_a.png","70","70","test","","","","3","",""
"null","142587","pSARL_v2","pSARL_v2xnxmvrd8","59c3289b8e6ea10001f7b926","fixation","img/fixation.png","null","","test","","","","","",""
"422.0999999642372","143013","pSARL_v2","pSARL_v2xnxmvrd8","59c3289b8e6ea10001f7b926","infreq","img/orange_2bandit_a2.png","68","68","test","1","55","55","3","",""
"null","143409","pSARL_v2","pSARL_v2xnxmvrd8","59c3289b8e6ea10001f7b926","infreq_resp","img/orange_2bandit_a.png","68","68","test","","","","3","",""
"null","143564","pSARL_v2","pSARL_v2xnxmvrd8","59c3289b8e6ea10001f7b926","fixation","img/fixation.png","null","","test","","","","","",""
"404.10000002384186","143972","pSARL_v2","pSARL_v2xnxmvrd8","59c3289b8e6ea10001f7b926","freq","img/green_2bandit_a2.png","70","70","test","1","56","56","3","",""
"null","144388","pSARL_v2","pSARL_v2xnxmvrd8","59c3289b8e6ea10001f7b926","freq_resp","img/green_2bandit_a.png","70","70","test","","","","3","",""
"null","144543","pSARL_v2","pSARL_v2xnxmvrd8","59c3289b8e6ea10001f7b926","fixation","img/fixation.png","null","","test","","","","","",""
"272.80000001192093","144821","pSARL_v2","pSARL_v2xnxmvrd8","59c3289b8e6ea10001f7b926","freq","img/green_2bandit_a2.png","70","70","test","1","57","57","3","",""
"null","145368","pSARL_v2","pSARL_v2xnxmvrd8","59c3289b8e6ea10001f7b926","freq_resp","img/green_2bandit_a.png","70","70","test","","","","3","",""
"null","145522","pSARL_v2","pSARL_v2xnxmvrd8","59c3289b8e6ea10001f7b926","fixation","img/fixation.png","null","","test","","","","","",""
"313.69999998807907","145840","pSARL_v2","pSARL_v2xnxmvrd8","59c3289b8e6ea10001f7b926","freq","img/green_2bandit_a2.png","70","70","test","1","58","58","3","",""
"null","146332","pSARL_v2","pSARL_v2xnxmvrd8","59c3289b8e6ea10001f7b926","freq_resp","img/green_2bandit_a.png","70","70","test","","","","3","",""
"null","146488","pSARL_v2","pSARL_v2xnxmvrd8","59c3289b8e6ea10001f7b926","fixation","img/fixation.png","null","","test","","","","","",""
"341.19999998807907","146833","pSARL_v2","pSARL_v2xnxmvrd8","59c3289b8e6ea10001f7b926","freq","img/green_2bandit_a2.png","70","70","test","1","59","59","3","",""
"null","147300","pSARL_v2","pSARL_v2xnxmvrd8","59c3289b8e6ea10001f7b926","freq_resp","img/green_2bandit_a.png","70","70","test","","","","3","",""
"null","147469","pSARL_v2","pSARL_v2xnxmvrd8","59c3289b8e6ea10001f7b926","fixation","img/fixation.png","null","","test","","","","","",""
"295","147767","pSARL_v2","pSARL_v2xnxmvrd8","59c3289b8e6ea10001f7b926","freq","img/green_2bandit_a2.png","70","70","test","1","60","60","3","",""
"null","148277","pSARL_v2","pSARL_v2xnxmvrd8","59c3289b8e6ea10001f7b926","freq_resp","img/green_2bandit_a.png","70","70","test","","","","3","",""
"null","148448","pSARL_v2","pSARL_v2xnxmvrd8","59c3289b8e6ea10001f7b926","fixation","img/fixation.png","null","","test","","","","","",""
"309.4000000357628","148762","pSARL_v2","pSARL_v2xnxmvrd8","59c3289b8e6ea10001f7b926","freq","img/green_2bandit_a2.png","70","70","test","1","61","61","3","",""
"null","149268","pSARL_v2","pSARL_v2xnxmvrd8","59c3289b8e6ea10001f7b926","freq_resp","img/green_2bandit_a.png","70","70","test","","","","3","",""
"null","149424","pSARL_v2","pSARL_v2xnxmvrd8","59c3289b8e6ea10001f7b926","fixation","img/fixation.png","null","","test","","","","","",""
"267.10000002384186","149697","pSARL_v2","pSARL_v2xnxmvrd8","59c3289b8e6ea10001f7b926","freq","img/green_2bandit_a2.png","70","70","test","1","62","62","3","",""
"null","150247","pSARL_v2","pSARL_v2xnxmvrd8","59c3289b8e6ea10001f7b926","freq_resp","img/green_2bandit_a.png","70","70","test","","","","3","",""
"null","150416","pSARL_v2","pSARL_v2xnxmvrd8","59c3289b8e6ea10001f7b926","fixation","img/fixation.png","null","","test","","","","","",""
"261.69999998807907","150682","pSARL_v2","pSARL_v2xnxmvrd8","59c3289b8e6ea10001f7b926","freq","img/green_2bandit_a2.png","70","70","test","1","63","63","3","",""
"null","151234","pSARL_v2","pSARL_v2xnxmvrd8","59c3289b8e6ea10001f7b926","freq_resp","img/green_2bandit_a.png","70","70","test","","","","3","",""
"null","151390","pSARL_v2","pSARL_v2xnxmvrd8","59c3289b8e6ea10001f7b926","fixation","img/fixation.png","null","","test","","","","","",""
"271.4000000357628","151666","pSARL_v2","pSARL_v2xnxmvrd8","59c3289b8e6ea10001f7b926","freq","img/green_2bandit_a2.png","70","70","test","1","64","64","3","",""
"null","152213","pSARL_v2","pSARL_v2xnxmvrd8","59c3289b8e6ea10001f7b926","freq_resp","img/green_2bandit_a.png","70","70","test","","","","3","",""
"null","152371","pSARL_v2","pSARL_v2xnxmvrd8","59c3289b8e6ea10001f7b926","fixation","img/fixation.png","null","","test","","","","","",""
"487.80000001192093","152863","pSARL_v2","pSARL_v2xnxmvrd8","59c3289b8e6ea10001f7b926","reward","img/slot.png","74","","test","","","","","",""
"null","153628","pSARL_v2","pSARL_v2xnxmvrd8","59c3289b8e6ea10001f7b926","points","<div class=""verylowPoints""> -7 </div>","null","na","test","","","","3","-7","2"
"438","154071","pSARL_v2","pSARL_v2xnxmvrd8","59c3289b8e6ea10001f7b926","freq","img/green_2bandit_a2.png","70","70","test","1","65","65","4","",""
"null","154448","pSARL_v2","pSARL_v2xnxmvrd8","59c3289b8e6ea10001f7b926","freq_resp","img/green_2bandit_a.png","70","70","test","","","","4","",""
"null","154605","pSARL_v2","pSARL_v2xnxmvrd8","59c3289b8e6ea10001f7b926","fixation","img/fixation.png","null","","test","","","","","",""
"418.39999997615814","155028","pSARL_v2","pSARL_v2xnxmvrd8","59c3289b8e6ea10001f7b926","freq","img/green_2bandit_a2.png","70","70","test","1","66","66","4","",""
"null","155428","pSARL_v2","pSARL_v2xnxmvrd8","59c3289b8e6ea10001f7b926","freq_resp","img/green_2bandit_a.png","70","70","test","","","","4","",""
"null","155585","pSARL_v2","pSARL_v2xnxmvrd8","59c3289b8e6ea10001f7b926","fixation","img/fixation.png","null","","test","","","","","",""
"313.39999997615814","155901","pSARL_v2","pSARL_v2xnxmvrd8","59c3289b8e6ea10001f7b926","freq","img/green_2bandit_a2.png","70","70","test","1","67","67","4","",""
"null","156406","pSARL_v2","pSARL_v2xnxmvrd8","59c3289b8e6ea10001f7b926","freq_resp","img/green_2bandit_a.png","70","70","test","","","","4","",""
"null","156561","pSARL_v2","pSARL_v2xnxmvrd8","59c3289b8e6ea10001f7b926","fixation","img/fixation.png","null","","test","","","","","",""
"320.9000000357628","156887","pSARL_v2","pSARL_v2xnxmvrd8","59c3289b8e6ea10001f7b926","freq","img/green_2bandit_a2.png","70","70","test","1","68","68","4","",""
"null","157384","pSARL_v2","pSARL_v2xnxmvrd8","59c3289b8e6ea10001f7b926","freq_resp","img/green_2bandit_a.png","70","70","test","","","","4","",""
"null","157541","pSARL_v2","pSARL_v2xnxmvrd8","59c3289b8e6ea10001f7b926","fixation","img/fixation.png","null","","test","","","","","",""
"252.5","157797","pSARL_v2","pSARL_v2xnxmvrd8","59c3289b8e6ea10001f7b926","freq","img/green_2bandit_a2.png","70","70","test","1","69","69","4","",""
"null","158357","pSARL_v2","pSARL_v2xnxmvrd8","59c3289b8e6ea10001f7b926","freq_resp","img/green_2bandit_a.png","70","70","test","","","","4","",""
"null","158526","pSARL_v2","pSARL_v2xnxmvrd8","59c3289b8e6ea10001f7b926","fixation","img/fixation.png","null","","test","","","","","",""
"262","158792","pSARL_v2","pSARL_v2xnxmvrd8","59c3289b8e6ea10001f7b926","freq","img/green_2bandit_a2.png","70","70","test","1","70","70","4","",""
"null","159336","pSARL_v2","pSARL_v2xnxmvrd8","59c3289b8e6ea10001f7b926","freq_resp","img/green_2bandit_a.png","70","70","test","","","","4","",""
"null","159491","pSARL_v2","pSARL_v2xnxmvrd8","59c3289b8e6ea10001f7b926","fixation","img/fixation.png","null","","test","","","","","",""
"283.5999999642372","159778","pSARL_v2","pSARL_v2xnxmvrd8","59c3289b8e6ea10001f7b926","freq","img/green_2bandit_a2.png","70","70","test","1","71","71","4","",""
"null","160312","pSARL_v2","pSARL_v2xnxmvrd8","59c3289b8e6ea10001f7b926","freq_resp","img/green_2bandit_a.png","70","70","test","","","","4","",""
"null","160482","pSARL_v2","pSARL_v2xnxmvrd8","59c3289b8e6ea10001f7b926","fixation","img/fixation.png","null","","test","","","","","",""
"247.80000001192093","160735","pSARL_v2","pSARL_v2xnxmvrd8","59c3289b8e6ea10001f7b926","freq","img/green_2bandit_a2.png","70","70","test","1","72","72","4","",""
"null","161307","pSARL_v2","pSARL_v2xnxmvrd8","59c3289b8e6ea10001f7b926","freq_resp","img/green_2bandit_a.png","70","70","test","","","","4","",""
"null","161477","pSARL_v2","pSARL_v2xnxmvrd8","59c3289b8e6ea10001f7b926","fixation","img/fixation.png","null","","test","","","","","",""
"242.69999998807907","161725","pSARL_v2","pSARL_v2xnxmvrd8","59c3289b8e6ea10001f7b926","freq","img/green_2bandit_a2.png","70","70","test","1","73","73","4","",""
"null","162299","pSARL_v2","pSARL_v2xnxmvrd8","59c3289b8e6ea10001f7b926","freq_resp","img/green_2bandit_a.png","70","70","test","","","","4","",""
"null","162457","pSARL_v2","pSARL_v2xnxmvrd8","59c3289b8e6ea10001f7b926","fixation","img/fixation.png","null","","test","","","","","",""
"233.20000004768372","162695","pSARL_v2","pSARL_v2xnxmvrd8","59c3289b8e6ea10001f7b926","freq","img/green_2bandit_a2.png","70","70","test","1","74","74","4","",""
"null","163268","pSARL_v2","pSARL_v2xnxmvrd8","59c3289b8e6ea10001f7b926","freq_resp","img/green_2bandit_a.png","70","70","test","","","","4","",""
"null","163438","pSARL_v2","pSARL_v2xnxmvrd8","59c3289b8e6ea10001f7b926","fixation","img/fixation.png","null","","test","","","","","",""
"230.89999997615814","163673","pSARL_v2","pSARL_v2xnxmvrd8","59c3289b8e6ea10001f7b926","infreq","img/orange_2bandit_a2.png","70","68","test","0","75","75","4","",""
"null","164247","pSARL_v2","pSARL_v2xnxmvrd8","59c3289b8e6ea10001f7b926","infreq_resp","img/orange_2bandit_a.png","70","68","test","","","","4","",""
"null","164403","pSARL_v2","pSARL_v2xnxmvrd8","59c3289b8e6ea10001f7b926","fixation","img/fixation.png","null","","test","","","","","",""
"582.3999999761581","164990","pSARL_v2","pSARL_v2xnxmvrd8","59c3289b8e6ea10001f7b926","freq","img/green_2bandit_a2.png","70","70","test","1","76","76","4","",""
"null","165226","pSARL_v2","pSARL_v2xnxmvrd8","59c3289b8e6ea10001f7b926","freq_resp","img/green_2bandit_a.png","70","70","test","","","","4","",""
"null","165382","pSARL_v2","pSARL_v2xnxmvrd8","59c3289b8e6ea10001f7b926","fixation","img/fixation.png","null","","test","","","","","",""
"368.2999999523163","165753","pSARL_v2","pSARL_v2xnxmvrd8","59c3289b8e6ea10001f7b926","freq","img/green_2bandit_a2.png","70","70","test","1","77","77","4","",""
"null","166190","pSARL_v2","pSARL_v2xnxmvrd8","59c3289b8e6ea10001f7b926","freq_resp","img/green_2bandit_a.png","70","70","test","","","","4","",""
"null","166346","pSARL_v2","pSARL_v2xnxmvrd8","59c3289b8e6ea10001f7b926","fixation","img/fixation.png","null","","test","","","","","",""
"300.7999999523163","166652","pSARL_v2","pSARL_v2xnxmvrd8","59c3289b8e6ea10001f7b926","freq","img/green_2bandit_a2.png","70","70","test","1","78","78","4","",""
"null","167165","pSARL_v2","pSARL_v2xnxmvrd8","59c3289b8e6ea10001f7b926","freq_resp","img/green_2bandit_a.png","70","70","test","","","","4","",""
"null","167320","pSARL_v2","pSARL_v2xnxmvrd8","59c3289b8e6ea10001f7b926","fixation","img/fixation.png","null","","test","","","","","",""
"325","167649","pSARL_v2","pSARL_v2xnxmvrd8","59c3289b8e6ea10001f7b926","infreq","img/orange_2bandit_a2.png","68","68","test","1","79","79","4","",""
"null","168140","pSARL_v2","pSARL_v2xnxmvrd8","59c3289b8e6ea10001f7b926","infreq_resp","img/orange_2bandit_a.png","68","68","test","","","","4","",""
"null","168308","pSARL_v2","pSARL_v2xnxmvrd8","59c3289b8e6ea10001f7b926","fixation","img/fixation.png","null","","test","","","","","",""
"345.39999997615814","168659","pSARL_v2","pSARL_v2xnxmvrd8","59c3289b8e6ea10001f7b926","freq","img/green_2bandit_a2.png","70","70","test","1","80","80","4","",""
"null","169134","pSARL_v2","pSARL_v2xnxmvrd8","59c3289b8e6ea10001f7b926","freq_resp","img/green_2bandit_a.png","70","70","test","","","","4","",""
"null","169289","pSARL_v2","pSARL_v2xnxmvrd8","59c3289b8e6ea10001f7b926","fixation","img/fixation.png","null","","test","","","","","",""
"317.89999997615814","169612","pSARL_v2","pSARL_v2xnxmvrd8","59c3289b8e6ea10001f7b926","freq","img/green_2bandit_a2.png","70","70","test","1","81","81","4","",""
"null","170110","pSARL_v2","pSARL_v2xnxmvrd8","59c3289b8e6ea10001f7b926","freq_resp","img/green_2bandit_a.png","70","70","test","","","","4","",""
"null","170265","pSARL_v2","pSARL_v2xnxmvrd8","59c3289b8e6ea10001f7b926","fixation","img/fixation.png","null","","test","","","","","",""
"350.80000001192093","170621","pSARL_v2","pSARL_v2xnxmvrd8","59c3289b8e6ea10001f7b926","freq","img/green_2bandit_a2.png","70","70","test","1","82","82","4","",""
"null","171077","pSARL_v2","pSARL_v2xnxmvrd8","59c3289b8e6ea10001f7b926","freq_resp","img/green_2bandit_a.png","70","70","test","","","","4","",""
"null","171247","pSARL_v2","pSARL_v2xnxmvrd8","59c3289b8e6ea10001f7b926","fixation","img/fixation.png","null","","test","","","","","",""
"303.7999999523163","171556","pSARL_v2","pSARL_v2xnxmvrd8","59c3289b8e6ea10001f7b926","freq","img/green_2bandit_a2.png","70","70","test","1","83","83","4","",""
"null","172057","pSARL_v2","pSARL_v2xnxmvrd8","59c3289b8e6ea10001f7b926","freq_resp","img/green_2bandit_a.png","70","70","test","","","","4","",""
"null","172227","pSARL_v2","pSARL_v2xnxmvrd8","59c3289b8e6ea10001f7b926","fixation","img/fixation.png","null","","test","","","","","",""
"353","172584","pSARL_v2","pSARL_v2xnxmvrd8","59c3289b8e6ea10001f7b926","freq","img/green_2bandit_a2.png","70","70","test","1","84","84","4","",""
"null","173037","pSARL_v2","pSARL_v2xnxmvrd8","59c3289b8e6ea10001f7b926","freq_resp","img/green_2bandit_a.png","70","70","test","","","","4","",""
"null","173193","pSARL_v2","pSARL_v2xnxmvrd8","59c3289b8e6ea10001f7b926","fixation","img/fixation.png","null","","test","","","","","",""
"271.30000001192093","173469","pSARL_v2","pSARL_v2xnxmvrd8","59c3289b8e6ea10001f7b926","freq","img/green_2bandit_a2.png","70","70","test","1","85","85","4","",""
"null","174017","pSARL_v2","pSARL_v2xnxmvrd8","59c3289b8e6ea10001f7b926","freq_resp","img/green_2bandit_a.png","70","70","test","","","","4","",""
"null","174175","pSARL_v2","pSARL_v2xnxmvrd8","59c3289b8e6ea10001f7b926","fixation","img/fixation.png","null","","test","","","","","",""
"341.30000001192093","174522","pSARL_v2","pSARL_v2xnxmvrd8","59c3289b8e6ea10001f7b926","freq","img/green_2bandit_a2.png","70","70","test","1","86","86","4","",""
"null","174996","pSARL_v2","pSARL_v2xnxmvrd8","59c3289b8e6ea10001f7b926","freq_resp","img/green_2bandit_a.png","70","70","test","","","","4","",""
"null","175152","pSARL_v2","pSARL_v2xnxmvrd8","59c3289b8e6ea10001f7b926","fixation","img/fixation.png","null","","test","","","","","",""
"345.5","175502","pSARL_v2","pSARL_v2xnxmvrd8","59c3289b8e6ea10001f7b926","freq","img/green_2bandit_a2.png","70","70","test","1","87","87","4","",""
"null","175962","pSARL_v2","pSARL_v2xnxmvrd8","59c3289b8e6ea10001f7b926","freq_resp","img/green_2bandit_a.png","70","70","test","","","","4","",""
"null","176120","pSARL_v2","pSARL_v2xnxmvrd8","59c3289b8e6ea10001f7b926","fixation","img/fixation.png","null","","test","","","","","",""
"281.5","176407","pSARL_v2","pSARL_v2xnxmvrd8","59c3289b8e6ea10001f7b926","freq","img/green_2bandit_a2.png","70","70","test","1","88","88","4","",""
"null","176941","pSARL_v2","pSARL_v2xnxmvrd8","59c3289b8e6ea10001f7b926","freq_resp","img/green_2bandit_a.png","70","70","test","","","","4","",""
"null","177099","pSARL_v2","pSARL_v2xnxmvrd8","59c3289b8e6ea10001f7b926","fixation","img/fixation.png","null","","test","","","","","",""
"485.2999999523163","177587","pSARL_v2","pSARL_v2xnxmvrd8","59c3289b8e6ea10001f7b926","reward","img/slot.png","74","","test","","","","","",""
"null","178357","pSARL_v2","pSARL_v2xnxmvrd8","59c3289b8e6ea10001f7b926","points","<div class=""verylowPoints""> -3 </div>","null","na","test","","","","4","-3","3"
"515.2999999523163","178876","pSARL_v2","pSARL_v2xnxmvrd8","59c3289b8e6ea10001f7b926","freq","img/green_2bandit_a2.png","70","70","test","1","89","89","5","",""
"null","179168","pSARL_v2","pSARL_v2xnxmvrd8","59c3289b8e6ea10001f7b926","freq_resp","img/green_2bandit_a.png","70","70","test","","","","5","",""
"null","179337","pSARL_v2","pSARL_v2xnxmvrd8","59c3289b8e6ea10001f7b926","fixation","img/fixation.png","null","","test","","","","","",""
"420.5","179762","pSARL_v2","pSARL_v2xnxmvrd8","59c3289b8e6ea10001f7b926","freq","img/green_2bandit_a2.png","70","70","test","1","90","90","5","",""
"null","180147","pSARL_v2","pSARL_v2xnxmvrd8","59c3289b8e6ea10001f7b926","freq_resp","img/green_2bandit_a.png","70","70","test","","","","5","",""
"null","180303","pSARL_v2","pSARL_v2xnxmvrd8","59c3289b8e6ea10001f7b926","fixation","img/fixation.png","null","","test","","","","","",""
"581.8999999761581","180890","pSARL_v2","pSARL_v2xnxmvrd8","59c3289b8e6ea10001f7b926","freq","img/green_2bandit_a2.png","70","70","test","1","91","91","5","",""
"null","181127","pSARL_v2","pSARL_v2xnxmvrd8","59c3289b8e6ea10001f7b926","freq_resp","img/green_2bandit_a.png","70","70","test","","","","5","",""
"null","181296","pSARL_v2","pSARL_v2xnxmvrd8","59c3289b8e6ea10001f7b926","fixation","img/fixation.png","null","","test","","","","","",""
"553.1000000238419","181854","pSARL_v2","pSARL_v2xnxmvrd8","59c3289b8e6ea10001f7b926","freq","img/green_2bandit_a2.png","70","70","test","1","92","92","5","",""
"null","182114","pSARL_v2","pSARL_v2xnxmvrd8","59c3289b8e6ea10001f7b926","freq_resp","img/green_2bandit_a.png","70","70","test","","","","5","",""
"null","182269","pSARL_v2","pSARL_v2xnxmvrd8","59c3289b8e6ea10001f7b926","fixation","img/fixation.png","null","","test","","","","","",""
"530.1999999880791","182803","pSARL_v2","pSARL_v2xnxmvrd8","59c3289b8e6ea10001f7b926","freq","img/green_2bandit_a2.png","70","70","test","1","93","93","5","",""
"null","183091","pSARL_v2","pSARL_v2xnxmvrd8","59c3289b8e6ea10001f7b926","freq_resp","img/green_2bandit_a.png","70","70","test","","","","5","",""
"null","183247","pSARL_v2","pSARL_v2xnxmvrd8","59c3289b8e6ea10001f7b926","fixation","img/fixation.png","null","","test","","","","","",""
"631.1999999880791","183884","pSARL_v2","pSARL_v2xnxmvrd8","59c3289b8e6ea10001f7b926","freq","img/green_2bandit_a2.png","70","70","test","1","94","94","5","",""
"null","184067","pSARL_v2","pSARL_v2xnxmvrd8","59c3289b8e6ea10001f7b926","freq_resp","img/green_2bandit_a.png","70","70","test","","","","5","",""
"null","184226","pSARL_v2","pSARL_v2xnxmvrd8","59c3289b8e6ea10001f7b926","fixation","img/fixation.png","null","","test","","","","","",""
"358","184589","pSARL_v2","pSARL_v2xnxmvrd8","59c3289b8e6ea10001f7b926","freq","img/green_2bandit_a2.png","70","70","test","1","95","95","5","",""
"null","185043","pSARL_v2","pSARL_v2xnxmvrd8","59c3289b8e6ea10001f7b926","freq_resp","img/green_2bandit_a.png","70","70","test","","","","5","",""
"null","185211","pSARL_v2","pSARL_v2xnxmvrd8","59c3289b8e6ea10001f7b926","fixation","img/fixation.png","null","","test","","","","","",""
"290.30000001192093","185506","pSARL_v2","pSARL_v2xnxmvrd8","59c3289b8e6ea10001f7b926","freq","img/green_2bandit_a2.png","70","70","test","1","96","96","5","",""
"null","186022","pSARL_v2","pSARL_v2xnxmvrd8","59c3289b8e6ea10001f7b926","freq_resp","img/green_2bandit_a.png","70","70","test","","","","5","",""
"null","186179","pSARL_v2","pSARL_v2xnxmvrd8","59c3289b8e6ea10001f7b926","fixation","img/fixation.png","null","","test","","","","","",""
"374.0999999642372","186557","pSARL_v2","pSARL_v2xnxmvrd8","59c3289b8e6ea10001f7b926","freq","img/green_2bandit_a2.png","70","70","test","1","97","97","5","",""
"null","187003","pSARL_v2","pSARL_v2xnxmvrd8","59c3289b8e6ea10001f7b926","freq_resp","img/green_2bandit_a.png","70","70","test","","","","5","",""
"null","187172","pSARL_v2","pSARL_v2xnxmvrd8","59c3289b8e6ea10001f7b926","fixation","img/fixation.png","null","","test","","","","","",""
"355.60000002384186","187533","pSARL_v2","pSARL_v2xnxmvrd8","59c3289b8e6ea10001f7b926","freq","img/green_2bandit_a2.png","70","70","test","1","98","98","5","",""
"null","187996","pSARL_v2","pSARL_v2xnxmvrd8","59c3289b8e6ea10001f7b926","freq_resp","img/green_2bandit_a.png","70","70","test","","","","5","",""
"null","188166","pSARL_v2","pSARL_v2xnxmvrd8","59c3289b8e6ea10001f7b926","fixation","img/fixation.png","null","","test","","","","","",""
"434.19999998807907","188606","pSARL_v2","pSARL_v2xnxmvrd8","59c3289b8e6ea10001f7b926","infreq","img/orange_2bandit_a2.png","68","68","test","1","99","99","5","",""
"null","188986","pSARL_v2","pSARL_v2xnxmvrd8","59c3289b8e6ea10001f7b926","infreq_resp","img/orange_2bandit_a.png","68","68","test","","","","5","",""
"null","189142","pSARL_v2","pSARL_v2xnxmvrd8","59c3289b8e6ea10001f7b926","fixation","img/fixation.png","null","","test","","","","","",""
"385.7999999523163","189531","pSARL_v2","pSARL_v2xnxmvrd8","59c3289b8e6ea10001f7b926","infreq","img/orange_2bandit_a2.png","68","68","test","1","100","100","5","",""
"null","189965","pSARL_v2","pSARL_v2xnxmvrd8","59c3289b8e6ea10001f7b926","infreq_resp","img/orange_2bandit_a.png","68","68","test","","","","5","",""
"null","190121","pSARL_v2","pSARL_v2xnxmvrd8","59c3289b8e6ea10001f7b926","fixation","img/fixation.png","null","","test","","","","","",""
"405.10000002384186","190532","pSARL_v2","pSARL_v2xnxmvrd8","59c3289b8e6ea10001f7b926","freq","img/green_2bandit_a2.png","70","70","test","1","101","101","5","",""
"null","190945","pSARL_v2","pSARL_v2xnxmvrd8","59c3289b8e6ea10001f7b926","freq_resp","img/green_2bandit_a.png","70","70","test","","","","5","",""
"null","191115","pSARL_v2","pSARL_v2xnxmvrd8","59c3289b8e6ea10001f7b926","fixation","img/fixation.png","null","","test","","","","","",""
"391.19999998807907","191510","pSARL_v2","pSARL_v2xnxmvrd8","59c3289b8e6ea10001f7b926","freq","img/green_2bandit_a2.png","70","70","test","1","102","102","5","",""
"null","191926","pSARL_v2","pSARL_v2xnxmvrd8","59c3289b8e6ea10001f7b926","freq_resp","img/green_2bandit_a.png","70","70","test","","","","5","",""
"null","192083","pSARL_v2","pSARL_v2xnxmvrd8","59c3289b8e6ea10001f7b926","fixation","img/fixation.png","null","","test","","","","","",""
"374.19999998807907","192462","pSARL_v2","pSARL_v2xnxmvrd8","59c3289b8e6ea10001f7b926","freq","img/green_2bandit_a2.png","70","70","test","1","103","103","5","",""
"null","192902","pSARL_v2","pSARL_v2xnxmvrd8","59c3289b8e6ea10001f7b926","freq_resp","img/green_2bandit_a.png","70","70","test","","","","5","",""
"null","193058","pSARL_v2","pSARL_v2xnxmvrd8","59c3289b8e6ea10001f7b926","fixation","img/fixation.png","null","","test","","","","","",""
"366.0999999642372","193428","pSARL_v2","pSARL_v2xnxmvrd8","59c3289b8e6ea10001f7b926","freq","img/green_2bandit_a2.png","70","70","test","1","104","104","5","",""
"null","193881","pSARL_v2","pSARL_v2xnxmvrd8","59c3289b8e6ea10001f7b926","freq_resp","img/green_2bandit_a.png","70","70","test","","","","5","",""
"null","194034","pSARL_v2","pSARL_v2xnxmvrd8","59c3289b8e6ea10001f7b926","fixation","img/fixation.png","null","","test","","","","","",""
"479.69999998807907","194519","pSARL_v2","pSARL_v2xnxmvrd8","59c3289b8e6ea10001f7b926","freq","img/green_2bandit_a2.png","70","70","test","1","105","105","5","",""
"null","194849","pSARL_v2","pSARL_v2xnxmvrd8","59c3289b8e6ea10001f7b926","freq_resp","img/green_2bandit_a.png","70","70","test","","","","5","",""
"null","195020","pSARL_v2","pSARL_v2xnxmvrd8","59c3289b8e6ea10001f7b926","fixation","img/fixation.png","null","","test","","","","","",""
"531.1999999880791","195554","pSARL_v2","pSARL_v2xnxmvrd8","59c3289b8e6ea10001f7b926","freq","img/green_2bandit_a2.png","70","70","test","1","106","106","5","",""
"null","195828","pSARL_v2","pSARL_v2xnxmvrd8","59c3289b8e6ea10001f7b926","freq_resp","img/green_2bandit_a.png","70","70","test","","","","5","",""
"null","195987","pSARL_v2","pSARL_v2xnxmvrd8","59c3289b8e6ea10001f7b926","fixation","img/fixation.png","null","","test","","","","","",""
"416.7999999523163","196408","pSARL_v2","pSARL_v2xnxmvrd8","59c3289b8e6ea10001f7b926","freq","img/green_2bandit_a2.png","70","70","test","1","107","107","5","",""
"null","196811","pSARL_v2","pSARL_v2xnxmvrd8","59c3289b8e6ea10001f7b926","freq_resp","img/green_2bandit_a.png","70","70","test","","","","5","",""
"null","196980","pSARL_v2","pSARL_v2xnxmvrd8","59c3289b8e6ea10001f7b926","fixation","img/fixation.png","null","","test","","","","","",""
"455.80000001192093","197441","pSARL_v2","pSARL_v2xnxmvrd8","59c3289b8e6ea10001f7b926","freq","img/green_2bandit_a2.png","70","70","test","1","108","108","5","",""
"null","197792","pSARL_v2","pSARL_v2xnxmvrd8","59c3289b8e6ea10001f7b926","freq_resp","img/green_2bandit_a.png","70","70","test","","","","5","",""
"null","197960","pSARL_v2","pSARL_v2xnxmvrd8","59c3289b8e6ea10001f7b926","fixation","img/fixation.png","null","","test","","","","","",""
"454.5","198420","pSARL_v2","pSARL_v2xnxmvrd8","59c3289b8e6ea10001f7b926","freq","img/green_2bandit_a2.png","70","70","test","1","109","109","5","",""
"null","198772","pSARL_v2","pSARL_v2xnxmvrd8","59c3289b8e6ea10001f7b926","freq_resp","img/green_2bandit_a.png","70","70","test","","","","5","",""
"null","198937","pSARL_v2","pSARL_v2xnxmvrd8","59c3289b8e6ea10001f7b926","fixation","img/fixation.png","null","","test","","","","","",""
"439.89999997615814","199380","pSARL_v2","pSARL_v2xnxmvrd8","59c3289b8e6ea10001f7b926","freq","img/green_2bandit_a2.png","70","70","test","1","110","110","5","",""
"null","199760","pSARL_v2","pSARL_v2xnxmvrd8","59c3289b8e6ea10001f7b926","freq_resp","img/green_2bandit_a.png","70","70","test","","","","5","",""
"null","199931","pSARL_v2","pSARL_v2xnxmvrd8","59c3289b8e6ea10001f7b926","fixation","img/fixation.png","null","","test","","","","","",""
"491.10000002384186","200425","pSARL_v2","pSARL_v2xnxmvrd8","59c3289b8e6ea10001f7b926","freq","img/green_2bandit_a2.png","70","70","test","1","111","111","5","",""
"null","200747","pSARL_v2","pSARL_v2xnxmvrd8","59c3289b8e6ea10001f7b926","freq_resp","img/green_2bandit_a.png","70","70","test","","","","5","",""
"null","200918","pSARL_v2","pSARL_v2xnxmvrd8","59c3289b8e6ea10001f7b926","fixation","img/fixation.png","null","","test","","","","","",""
"481.80000001192093","201402","pSARL_v2","pSARL_v2xnxmvrd8","59c3289b8e6ea10001f7b926","reward","img/slot.png","74","","test","","","","","",""
"null","202162","pSARL_v2","pSARL_v2xnxmvrd8","59c3289b8e6ea10001f7b926","points","<div class=""veryhighPoints""> +1 </div>","null","na","test","","","","5","1","4"
"612.3999999761581","202779","pSARL_v2","pSARL_v2xnxmvrd8","59c3289b8e6ea10001f7b926","freq","img/green_2bandit_a2.png","70","70","test","1","112","112","6","",""
"null","202980","pSARL_v2","pSARL_v2xnxmvrd8","59c3289b8e6ea10001f7b926","freq_resp","img/green_2bandit_a.png","70","70","test","","","","6","",""
"null","203135","pSARL_v2","pSARL_v2xnxmvrd8","59c3289b8e6ea10001f7b926","fixation","img/fixation.png","null","","test","","","","","",""
"648.6000000238419","203789","pSARL_v2","pSARL_v2xnxmvrd8","59c3289b8e6ea10001f7b926","freq","img/green_2bandit_a2.png","70","70","test","1","113","113","6","",""
"null","203956","pSARL_v2","pSARL_v2xnxmvrd8","59c3289b8e6ea10001f7b926","freq_resp","img/green_2bandit_a.png","70","70","test","","","","6","",""
"null","204127","pSARL_v2","pSARL_v2xnxmvrd8","59c3289b8e6ea10001f7b926","fixation","img/fixation.png","null","","test","","","","","",""
"null","204944","pSARL_v2","pSARL_v2xnxmvrd8","59c3289b8e6ea10001f7b926","freq","img/green_2bandit_a2.png","null","70","test","0","114","114","6","",""
"null","205114","pSARL_v2","pSARL_v2xnxmvrd8","59c3289b8e6ea10001f7b926","fixation","img/fixation.png","null","","test","","","","","",""
"null","205923","pSARL_v2","pSARL_v2xnxmvrd8","59c3289b8e6ea10001f7b926","freq","img/green_2bandit_a2.png","null","70","test","0","115","115","6","",""
"null","206080","pSARL_v2","pSARL_v2xnxmvrd8","59c3289b8e6ea10001f7b926","fixation","img/fixation.png","null","","test","","","","","",""
"50.69999998807907","206135","pSARL_v2","pSARL_v2xnxmvrd8","59c3289b8e6ea10001f7b926","infreq","img/orange_2bandit_a2.png","70","68","test","0","116","116","6","",""
"null","206904","pSARL_v2","pSARL_v2xnxmvrd8","59c3289b8e6ea10001f7b926","infreq_resp","img/orange_2bandit_a.png","70","68","test","","","","6","",""
"null","207060","pSARL_v2","pSARL_v2xnxmvrd8","59c3289b8e6ea10001f7b926","fixation","img/fixation.png","null","","test","","","","","",""
"425","207491","pSARL_v2","pSARL_v2xnxmvrd8","59c3289b8e6ea10001f7b926","freq","img/green_2bandit_a2.png","70","70","test","1","117","117","6","",""
"null","207876","pSARL_v2","pSARL_v2xnxmvrd8","59c3289b8e6ea10001f7b926","freq_resp","img/green_2bandit_a.png","70","70","test","","","","6","",""
"null","208033","pSARL_v2","pSARL_v2xnxmvrd8","59c3289b8e6ea10001f7b926","fixation","img/fixation.png","null","","test","","","","","",""
"449.10000002384186","208486","pSARL_v2","pSARL_v2xnxmvrd8","59c3289b8e6ea10001f7b926","freq","img/green_2bandit_a2.png","70","70","test","1","118","118","6","",""
"null","208854","pSARL_v2","pSARL_v2xnxmvrd8","59c3289b8e6ea10001f7b926","freq_resp","img/green_2bandit_a.png","70","70","test","","","","6","",""
"null","209023","pSARL_v2","pSARL_v2xnxmvrd8","59c3289b8e6ea10001f7b926","fixation","img/fixation.png","null","","test","","","","","",""
"340.30000001192093","209367","pSARL_v2","pSARL_v2xnxmvrd8","59c3289b8e6ea10001f7b926","freq","img/green_2bandit_a2.png","70","70","test","1","119","119","6","",""
"null","209834","pSARL_v2","pSARL_v2xnxmvrd8","59c3289b8e6ea10001f7b926","freq_resp","img/green_2bandit_a.png","70","70","test","","","","6","",""
"null","210001","pSARL_v2","pSARL_v2xnxmvrd8","59c3289b8e6ea10001f7b926","fixation","img/fixation.png","null","","test","","","","","",""
"349.10000002384186","210355","pSARL_v2","pSARL_v2xnxmvrd8","59c3289b8e6ea10001f7b926","freq","img/green_2bandit_a2.png","70","70","test","1","120","120","6","",""
"null","210812","pSARL_v2","pSARL_v2xnxmvrd8","59c3289b8e6ea10001f7b926","freq_resp","img/green_2bandit_a.png","70","70","test","","","","6","",""
"null","210967","pSARL_v2","pSARL_v2xnxmvrd8","59c3289b8e6ea10001f7b926","fixation","img/fixation.png","null","","test","","","","","",""
"384.7999999523163","211356","pSARL_v2","pSARL_v2xnxmvrd8","59c3289b8e6ea10001f7b926","freq","img/green_2bandit_a2.png","70","70","test","1","121","121","6","",""
"null","211789","pSARL_v2","pSARL_v2xnxmvrd8","59c3289b8e6ea10001f7b926","freq_resp","img/green_2bandit_a.png","70","70","test","","","","6","",""
"null","211945","pSARL_v2","pSARL_v2xnxmvrd8","59c3289b8e6ea10001f7b926","fixation","img/fixation.png","null","","test","","","","","",""
"389.19999998807907","212339","pSARL_v2","pSARL_v2xnxmvrd8","59c3289b8e6ea10001f7b926","infreq","img/orange_2bandit_a2.png","68","68","test","1","122","122","6","",""
"null","212761","pSARL_v2","pSARL_v2xnxmvrd8","59c3289b8e6ea10001f7b926","infreq_resp","img/orange_2bandit_a.png","68","68","test","","","","6","",""
"null","212915","pSARL_v2","pSARL_v2xnxmvrd8","59c3289b8e6ea10001f7b926","fixation","img/fixation.png","null","","test","","","","","",""
"360.0999999642372","213279","pSARL_v2","pSARL_v2xnxmvrd8","59c3289b8e6ea10001f7b926","freq","img/green_2bandit_a2.png","70","70","test","1","123","123","6","",""
"null","213738","pSARL_v2","pSARL_v2xnxmvrd8","59c3289b8e6ea10001f7b926","freq_resp","img/green_2bandit_a.png","70","70","test","","","","6","",""
"null","213893","pSARL_v2","pSARL_v2xnxmvrd8","59c3289b8e6ea10001f7b926","fixation","img/fixation.png","null","","test","","","","","",""
"497.39999997615814","214395","pSARL_v2","pSARL_v2xnxmvrd8","59c3289b8e6ea10001f7b926","infreq","img/orange_2bandit_a2.png","68","68","test","1","124","124","6","",""
"null","214716","pSARL_v2","pSARL_v2xnxmvrd8","59c3289b8e6ea10001f7b926","infreq_resp","img/orange_2bandit_a.png","68","68","test","","","","6","",""
"null","214885","pSARL_v2","pSARL_v2xnxmvrd8","59c3289b8e6ea10001f7b926","fixation","img/fixation.png","null","","test","","","","","",""
"356.5","215245","pSARL_v2","pSARL_v2xnxmvrd8","59c3289b8e6ea10001f7b926","freq","img/green_2bandit_a2.png","70","70","test","1","125","125","6","",""
"null","215693","pSARL_v2","pSARL_v2xnxmvrd8","59c3289b8e6ea10001f7b926","freq_resp","img/green_2bandit_a.png","70","70","test","","","","6","",""
"null","215862","pSARL_v2","pSARL_v2xnxmvrd8","59c3289b8e6ea10001f7b926","fixation","img/fixation.png","null","","test","","","","","",""
"327","216194","pSARL_v2","pSARL_v2xnxmvrd8","59c3289b8e6ea10001f7b926","freq","img/green_2bandit_a2.png","70","70","test","1","126","126","6","",""
"null","216684","pSARL_v2","pSARL_v2xnxmvrd8","59c3289b8e6ea10001f7b926","freq_resp","img/green_2bandit_a.png","70","70","test","","","","6","",""
"null","216839","pSARL_v2","pSARL_v2xnxmvrd8","59c3289b8e6ea10001f7b926","fixation","img/fixation.png","null","","test","","","","","",""
"286","217131","pSARL_v2","pSARL_v2xnxmvrd8","59c3289b8e6ea10001f7b926","freq","img/green_2bandit_a2.png","70","70","test","1","127","127","6","",""
"null","217656","pSARL_v2","pSARL_v2xnxmvrd8","59c3289b8e6ea10001f7b926","freq_resp","img/green_2bandit_a.png","70","70","test","","","","6","",""
"null","217811","pSARL_v2","pSARL_v2xnxmvrd8","59c3289b8e6ea10001f7b926","fixation","img/fixation.png","null","","test","","","","","",""
"323.4000000357628","218139","pSARL_v2","pSARL_v2xnxmvrd8","59c3289b8e6ea10001f7b926","freq","img/green_2bandit_a2.png","70","70","test","1","128","128","6","",""
"null","218634","pSARL_v2","pSARL_v2xnxmvrd8","59c3289b8e6ea10001f7b926","freq_resp","img/green_2bandit_a.png","70","70","test","","","","6","",""
"null","218791","pSARL_v2","pSARL_v2xnxmvrd8","59c3289b8e6ea10001f7b926","fixation","img/fixation.png","null","","test","","","","","",""
"331.5","219128","pSARL_v2","pSARL_v2xnxmvrd8","59c3289b8e6ea10001f7b926","freq","img/green_2bandit_a2.png","70","70","test","1","129","129","6","",""
"null","219608","pSARL_v2","pSARL_v2xnxmvrd8","59c3289b8e6ea10001f7b926","freq_resp","img/green_2bandit_a.png","70","70","test","","","","6","",""
"null","219766","pSARL_v2","pSARL_v2xnxmvrd8","59c3289b8e6ea10001f7b926","fixation","img/fixation.png","null","","test","","","","","",""
"321","220092","pSARL_v2","pSARL_v2xnxmvrd8","59c3289b8e6ea10001f7b926","freq","img/green_2bandit_a2.png","70","70","test","1","130","130","6","",""
"null","220590","pSARL_v2","pSARL_v2xnxmvrd8","59c3289b8e6ea10001f7b926","freq_resp","img/green_2bandit_a.png","70","70","test","","","","6","",""
"null","220747","pSARL_v2","pSARL_v2xnxmvrd8","59c3289b8e6ea10001f7b926","fixation","img/fixation.png","null","","test","","","","","",""
"324.39999997615814","221077","pSARL_v2","pSARL_v2xnxmvrd8","59c3289b8e6ea10001f7b926","freq","img/green_2bandit_a2.png","70","70","test","1","131","131","6","",""
"null","221571","pSARL_v2","pSARL_v2xnxmvrd8","59c3289b8e6ea10001f7b926","freq_resp","img/green_2bandit_a.png","70","70","test","","","","6","",""
"null","221741","pSARL_v2","pSARL_v2xnxmvrd8","59c3289b8e6ea10001f7b926","fixation","img/fixation.png","null","","test","","","","","",""
"350.5","222097","pSARL_v2","pSARL_v2xnxmvrd8","59c3289b8e6ea10001f7b926","freq","img/green_2bandit_a2.png","70","70","test","1","132","132","6","",""
"null","222565","pSARL_v2","pSARL_v2xnxmvrd8","59c3289b8e6ea10001f7b926","freq_resp","img/green_2bandit_a.png","70","70","test","","","","6","",""
"null","222720","pSARL_v2","pSARL_v2xnxmvrd8","59c3289b8e6ea10001f7b926","fixation","img/fixation.png","null","","test","","","","","",""
"404.19999998807907","223129","pSARL_v2","pSARL_v2xnxmvrd8","59c3289b8e6ea10001f7b926","freq","img/green_2bandit_a2.png","70","70","test","1","133","133","6","",""
"null","223545","pSARL_v2","pSARL_v2xnxmvrd8","59c3289b8e6ea10001f7b926","freq_resp","img/green_2bandit_a.png","70","70","test","","","","6","",""
"null","223701","pSARL_v2","pSARL_v2xnxmvrd8","59c3289b8e6ea10001f7b926","fixation","img/fixation.png","null","","test","","","","","",""
"442.39999997615814","224148","pSARL_v2","pSARL_v2xnxmvrd8","59c3289b8e6ea10001f7b926","reward","img/slot.png","74","","test","","","","","",""
"null","224907","pSARL_v2","pSARL_v2xnxmvrd8","59c3289b8e6ea10001f7b926","points","<div class=""verylowPoints""> -7 </div>","null","na","test","","","","6","-7","5"
"443","225353","pSARL_v2","pSARL_v2xnxmvrd8","59c3289b8e6ea10001f7b926","freq","img/green_2bandit_a2.png","70","70","test","1","134","134","7","",""
"null","225727","pSARL_v2","pSARL_v2xnxmvrd8","59c3289b8e6ea10001f7b926","freq_resp","img/green_2bandit_a.png","70","70","test","","","","7","",""
"null","225881","pSARL_v2","pSARL_v2xnxmvrd8","59c3289b8e6ea10001f7b926","fixation","img/fixation.png","null","","test","","","","","",""
"645.4000000357628","226530","pSARL_v2","pSARL_v2xnxmvrd8","59c3289b8e6ea10001f7b926","freq","img/green_2bandit_a2.png","70","70","test","1","135","135","7","",""
"null","226694","pSARL_v2","pSARL_v2xnxmvrd8","59c3289b8e6ea10001f7b926","freq_resp","img/green_2bandit_a.png","70","70","test","","","","7","",""
"null","226864","pSARL_v2","pSARL_v2xnxmvrd8","59c3289b8e6ea10001f7b926","fixation","img/fixation.png","null","","test","","","","","",""
"445.30000001192093","227314","pSARL_v2","pSARL_v2xnxmvrd8","59c3289b8e6ea10001f7b926","freq","img/green_2bandit_a2.png","70","70","test","1","136","136","7","",""
"null","227687","pSARL_v2","pSARL_v2xnxmvrd8","59c3289b8e6ea10001f7b926","freq_resp","img/green_2bandit_a.png","70","70","test","","","","7","",""
"null","227843","pSARL_v2","pSARL_v2xnxmvrd8","59c3289b8e6ea10001f7b926","fixation","img/fixation.png","null","","test","","","","","",""
"370.5","228218","pSARL_v2","pSARL_v2xnxmvrd8","59c3289b8e6ea10001f7b926","freq","img/green_2bandit_a2.png","70","70","test","1","137","137","7","",""
"null","228654","pSARL_v2","pSARL_v2xnxmvrd8","59c3289b8e6ea10001f7b926","freq_resp","img/green_2bandit_a.png","70","70","test","","","","7","",""
"null","228824","pSARL_v2","pSARL_v2xnxmvrd8","59c3289b8e6ea10001f7b926","fixation","img/fixation.png","null","","test","","","","","",""
"387","229214","pSARL_v2","pSARL_v2xnxmvrd8","59c3289b8e6ea10001f7b926","freq","img/green_2bandit_a2.png","70","70","test","1","138","138","7","",""
"null","229634","pSARL_v2","pSARL_v2xnxmvrd8","59c3289b8e6ea10001f7b926","freq_resp","img/green_2bandit_a.png","70","70","test","","","","7","",""
"null","229801","pSARL_v2","pSARL_v2xnxmvrd8","59c3289b8e6ea10001f7b926","fixation","img/fixation.png","null","","test","","","","","",""
"357.80000001192093","230162","pSARL_v2","pSARL_v2xnxmvrd8","59c3289b8e6ea10001f7b926","freq","img/green_2bandit_a2.png","70","70","test","1","139","139","7","",""
"null","230611","pSARL_v2","pSARL_v2xnxmvrd8","59c3289b8e6ea10001f7b926","freq_resp","img/green_2bandit_a.png","70","70","test","","","","7","",""
"null","230782","pSARL_v2","pSARL_v2xnxmvrd8","59c3289b8e6ea10001f7b926","fixation","img/fixation.png","null","","test","","","","","",""
"330.60000002384186","231118","pSARL_v2","pSARL_v2xnxmvrd8","59c3289b8e6ea10001f7b926","freq","img/green_2bandit_a2.png","70","70","test","1","140","140","7","",""
"null","231605","pSARL_v2","pSARL_v2xnxmvrd8","59c3289b8e6ea10001f7b926","freq_resp","img/green_2bandit_a.png","70","70","test","","","","7","",""
"null","231775","pSARL_v2","pSARL_v2xnxmvrd8","59c3289b8e6ea10001f7b926","fixation","img/fixation.png","null","","test","","","","","",""
"449.0999999642372","232229","pSARL_v2","pSARL_v2xnxmvrd8","59c3289b8e6ea10001f7b926","freq","img/green_2bandit_a2.png","70","70","test","1","141","141","7","",""
"null","232599","pSARL_v2","pSARL_v2xnxmvrd8","59c3289b8e6ea10001f7b926","freq_resp","img/green_2bandit_a.png","70","70","test","","","","7","",""
"null","232769","pSARL_v2","pSARL_v2xnxmvrd8","59c3289b8e6ea10001f7b926","fixation","img/fixation.png","null","","test","","","","","",""
"430.30000001192093","233204","pSARL_v2","pSARL_v2xnxmvrd8","59c3289b8e6ea10001f7b926","freq","img/green_2bandit_a2.png","70","70","test","1","142","142","7","",""
"null","233579","pSARL_v2","pSARL_v2xnxmvrd8","59c3289b8e6ea10001f7b926","freq_resp","img/green_2bandit_a.png","70","70","test","","","","7","",""
"null","233735","pSARL_v2","pSARL_v2xnxmvrd8","59c3289b8e6ea10001f7b926","fixation","img/fixation.png","null","","test","","","","","",""
"397.5","234138","pSARL_v2","pSARL_v2xnxmvrd8","59c3289b8e6ea10001f7b926","freq","img/green_2bandit_a2.png","70","70","test","1","143","143","7","",""
"null","234553","pSARL_v2","pSARL_v2xnxmvrd8","59c3289b8e6ea10001f7b926","freq_resp","img/green_2bandit_a.png","70","70","test","","","","7","",""
"null","234708","pSARL_v2","pSARL_v2xnxmvrd8","59c3289b8e6ea10001f7b926","fixation","img/fixation.png","null","","test","","","","","",""
"446.60000002384186","235160","pSARL_v2","pSARL_v2xnxmvrd8","59c3289b8e6ea10001f7b926","freq","img/green_2bandit_a2.png","70","70","test","1","144","144","7","",""
"null","235521","pSARL_v2","pSARL_v2xnxmvrd8","59c3289b8e6ea10001f7b926","freq_resp","img/green_2bandit_a.png","70","70","test","","","","7","",""
"null","235680","pSARL_v2","pSARL_v2xnxmvrd8","59c3289b8e6ea10001f7b926","fixation","img/fixation.png","null","","test","","","","","",""
"504.19999998807907","236189","pSARL_v2","pSARL_v2xnxmvrd8","59c3289b8e6ea10001f7b926","freq","img/green_2bandit_a2.png","70","70","test","1","145","145","7","",""
"null","236502","pSARL_v2","pSARL_v2xnxmvrd8","59c3289b8e6ea10001f7b926","freq_resp","img/green_2bandit_a.png","70","70","test","","","","7","",""
"null","236671","pSARL_v2","pSARL_v2xnxmvrd8","59c3289b8e6ea10001f7b926","fixation","img/fixation.png","null","","test","","","","","",""
"497.0999999642372","237173","pSARL_v2","pSARL_v2xnxmvrd8","59c3289b8e6ea10001f7b926","freq","img/green_2bandit_a2.png","70","70","test","1","146","146","7","",""
"null","237491","pSARL_v2","pSARL_v2xnxmvrd8","59c3289b8e6ea10001f7b926","freq_resp","img/green_2bandit_a.png","70","70","test","","","","7","",""
"null","237646","pSARL_v2","pSARL_v2xnxmvrd8","59c3289b8e6ea10001f7b926","fixation","img/fixation.png","null","","test","","","","","",""
"346.69999998807907","237997","pSARL_v2","pSARL_v2xnxmvrd8","59c3289b8e6ea10001f7b926","freq","img/green_2bandit_a2.png","70","70","test","1","147","147","7","",""
"null","238467","pSARL_v2","pSARL_v2xnxmvrd8","59c3289b8e6ea10001f7b926","freq_resp","img/green_2bandit_a.png","70","70","test","","","","7","",""
"null","238636","pSARL_v2","pSARL_v2xnxmvrd8","59c3289b8e6ea10001f7b926","fixation","img/fixation.png","null","","test","","","","","",""
"404.69999998807907","239045","pSARL_v2","pSARL_v2xnxmvrd8","59c3289b8e6ea10001f7b926","freq","img/green_2bandit_a2.png","70","70","test","1","148","148","7","",""
"null","239456","pSARL_v2","pSARL_v2xnxmvrd8","59c3289b8e6ea10001f7b926","freq_resp","img/green_2bandit_a.png","70","70","test","","","","7","",""
"null","239614","pSARL_v2","pSARL_v2xnxmvrd8","59c3289b8e6ea10001f7b926","fixation","img/fixation.png","null","","test","","","","","",""
"465.60000002384186","240083","pSARL_v2","pSARL_v2xnxmvrd8","59c3289b8e6ea10001f7b926","infreq","img/orange_2bandit_a2.png","68","68","test","1","149","149","7","",""
"null","240421","pSARL_v2","pSARL_v2xnxmvrd8","59c3289b8e6ea10001f7b926","infreq_resp","img/orange_2bandit_a.png","68","68","test","","","","7","",""
"null","240577","pSARL_v2","pSARL_v2xnxmvrd8","59c3289b8e6ea10001f7b926","fixation","img/fixation.png","null","","test","","","","","",""
"343.89999997615814","240926","pSARL_v2","pSARL_v2xnxmvrd8","59c3289b8e6ea10001f7b926","infreq","img/orange_2bandit_a2.png","68","68","test","1","150","150","7","",""
"null","241395","pSARL_v2","pSARL_v2xnxmvrd8","59c3289b8e6ea10001f7b926","infreq_resp","img/orange_2bandit_a.png","68","68","test","","","","7","",""
"null","241553","pSARL_v2","pSARL_v2xnxmvrd8","59c3289b8e6ea10001f7b926","fixation","img/fixation.png","null","","test","","","","","",""
"435.7999999523163","241994","pSARL_v2","pSARL_v2xnxmvrd8","59c3289b8e6ea10001f7b926","freq","img/green_2bandit_a2.png","70","70","test","1","151","151","7","",""
"null","242375","pSARL_v2","pSARL_v2xnxmvrd8","59c3289b8e6ea10001f7b926","freq_resp","img/green_2bandit_a.png","70","70","test","","","","7","",""
"null","242532","pSARL_v2","pSARL_v2xnxmvrd8","59c3289b8e6ea10001f7b926","fixation","img/fixation.png","null","","test","","","","","",""
"342.0999999642372","242878","pSARL_v2","pSARL_v2xnxmvrd8","59c3289b8e6ea10001f7b926","freq","img/green_2bandit_a2.png","70","70","test","1","152","152","7","",""
"null","243343","pSARL_v2","pSARL_v2xnxmvrd8","59c3289b8e6ea10001f7b926","freq_resp","img/green_2bandit_a.png","70","70","test","","","","7","",""
"null","243513","pSARL_v2","pSARL_v2xnxmvrd8","59c3289b8e6ea10001f7b926","fixation","img/fixation.png","null","","test","","","","","",""
"391.5","243910","pSARL_v2","pSARL_v2xnxmvrd8","59c3289b8e6ea10001f7b926","freq","img/green_2bandit_a2.png","70","70","test","1","153","153","7","",""
"null","244329","pSARL_v2","pSARL_v2xnxmvrd8","59c3289b8e6ea10001f7b926","freq_resp","img/green_2bandit_a.png","70","70","test","","","","7","",""
"null","244483","pSARL_v2","pSARL_v2xnxmvrd8","59c3289b8e6ea10001f7b926","fixation","img/fixation.png","null","","test","","","","","",""
"532.5","245021","pSARL_v2","pSARL_v2xnxmvrd8","59c3289b8e6ea10001f7b926","freq","img/green_2bandit_a2.png","70","70","test","1","154","154","7","",""
"null","245308","pSARL_v2","pSARL_v2xnxmvrd8","59c3289b8e6ea10001f7b926","freq_resp","img/green_2bandit_a.png","70","70","test","","","","7","",""
"null","245465","pSARL_v2","pSARL_v2xnxmvrd8","59c3289b8e6ea10001f7b926","fixation","img/fixation.png","null","","test","","","","","",""
"551.6000000238419","246021","pSARL_v2","pSARL_v2xnxmvrd8","59c3289b8e6ea10001f7b926","freq","img/green_2bandit_a2.png","70","70","test","1","155","155","7","",""
"null","246275","pSARL_v2","pSARL_v2xnxmvrd8","59c3289b8e6ea10001f7b926","freq_resp","img/green_2bandit_a.png","70","70","test","","","","7","",""
"null","246431","pSARL_v2","pSARL_v2xnxmvrd8","59c3289b8e6ea10001f7b926","fixation","img/fixation.png","null","","test","","","","","",""
"599.8999999761581","247037","pSARL_v2","pSARL_v2xnxmvrd8","59c3289b8e6ea10001f7b926","freq","img/green_2bandit_a2.png","70","70","test","1","156","156","7","",""
"null","247251","pSARL_v2","pSARL_v2xnxmvrd8","59c3289b8e6ea10001f7b926","freq_resp","img/green_2bandit_a.png","70","70","test","","","","7","",""
"null","247420","pSARL_v2","pSARL_v2xnxmvrd8","59c3289b8e6ea10001f7b926","fixation","img/fixation.png","null","","test","","","","","",""
"453.39999997615814","247878","pSARL_v2","pSARL_v2xnxmvrd8","59c3289b8e6ea10001f7b926","freq","img/green_2bandit_a2.png","70","70","test","1","157","157","7","",""
"null","248231","pSARL_v2","pSARL_v2xnxmvrd8","59c3289b8e6ea10001f7b926","freq_resp","img/green_2bandit_a.png","70","70","test","","","","7","",""
"null","248386","pSARL_v2","pSARL_v2xnxmvrd8","59c3289b8e6ea10001f7b926","fixation","img/fixation.png","null","","test","","","","","",""
"463.89999997615814","248856","pSARL_v2","pSARL_v2xnxmvrd8","59c3289b8e6ea10001f7b926","reward","img/slot.png","74","","test","","","","","",""
"null","249613","pSARL_v2","pSARL_v2xnxmvrd8","59c3289b8e6ea10001f7b926","points","<div class=""verylowPoints""> -6 </div>","null","na","test","","","","7","-6","6"
"519.5","250137","pSARL_v2","pSARL_v2xnxmvrd8","59c3289b8e6ea10001f7b926","freq","img/green_2bandit_a2.png","70","70","test","1","158","158","8","",""
"null","250435","pSARL_v2","pSARL_v2xnxmvrd8","59c3289b8e6ea10001f7b926","freq_resp","img/green_2bandit_a.png","70","70","test","","","","8","",""
"null","250603","pSARL_v2","pSARL_v2xnxmvrd8","59c3289b8e6ea10001f7b926","fixation","img/fixation.png","null","","test","","","","","",""
"393.19999998807907","251001","pSARL_v2","pSARL_v2xnxmvrd8","59c3289b8e6ea10001f7b926","freq","img/green_2bandit_a2.png","70","70","test","1","159","159","8","",""
"null","251426","pSARL_v2","pSARL_v2xnxmvrd8","59c3289b8e6ea10001f7b926","freq_resp","img/green_2bandit_a.png","70","70","test","","","","8","",""
"null","251597","pSARL_v2","pSARL_v2xnxmvrd8","59c3289b8e6ea10001f7b926","fixation","img/fixation.png","null","","test","","","","","",""
"518","252120","pSARL_v2","pSARL_v2xnxmvrd8","59c3289b8e6ea10001f7b926","freq","img/green_2bandit_a2.png","70","70","test","1","160","160","8","",""
"null","252416","pSARL_v2","pSARL_v2xnxmvrd8","59c3289b8e6ea10001f7b926","freq_resp","img/green_2bandit_a.png","70","70","test","","","","8","",""
"null","252584","pSARL_v2","pSARL_v2xnxmvrd8","59c3289b8e6ea10001f7b926","fixation","img/fixation.png","null","","test","","","","","",""
"479.69999998807907","253068","pSARL_v2","pSARL_v2xnxmvrd8","59c3289b8e6ea10001f7b926","freq","img/green_2bandit_a2.png","70","70","test","1","161","161","8","",""
"null","253408","pSARL_v2","pSARL_v2xnxmvrd8","59c3289b8e6ea10001f7b926","freq_resp","img/green_2bandit_a.png","70","70","test","","","","8","",""
"null","253574","pSARL_v2","pSARL_v2xnxmvrd8","59c3289b8e6ea10001f7b926","fixation","img/fixation.png","null","","test","","","","","",""
"749.0999999642372","254329","pSARL_v2","pSARL_v2xnxmvrd8","59c3289b8e6ea10001f7b926","infreq","img/orange_2bandit_a2.png","68","68","test","1","162","162","8","",""
"null","254399","pSARL_v2","pSARL_v2xnxmvrd8","59c3289b8e6ea10001f7b926","infreq_resp","img/orange_2bandit_a.png","68","68","test","","","","8","",""
"null","254567","pSARL_v2","pSARL_v2xnxmvrd8","59c3289b8e6ea10001f7b926","fixation","img/fixation.png","null","","test","","","","","",""
"519","255091","pSARL_v2","pSARL_v2xnxmvrd8","59c3289b8e6ea10001f7b926","freq","img/green_2bandit_a2.png","70","70","test","1","163","163","8","",""
"null","255379","pSARL_v2","pSARL_v2xnxmvrd8","59c3289b8e6ea10001f7b926","freq_resp","img/green_2bandit_a.png","70","70","test","","","","8","",""
"null","255548","pSARL_v2","pSARL_v2xnxmvrd8","59c3289b8e6ea10001f7b926","fixation","img/fixation.png","null","","test","","","","","",""
"533.6999999880791","256086","pSARL_v2","pSARL_v2xnxmvrd8","59c3289b8e6ea10001f7b926","freq","img/green_2bandit_a2.png","70","70","test","1","164","164","8","",""
"null","256370","pSARL_v2","pSARL_v2xnxmvrd8","59c3289b8e6ea10001f7b926","freq_resp","img/green_2bandit_a.png","70","70","test","","","","8","",""
"null","256525","pSARL_v2","pSARL_v2xnxmvrd8","59c3289b8e6ea10001f7b926","fixation","img/fixation.png","null","","test","","","","","",""
"481.69999998807907","257012","pSARL_v2","pSARL_v2xnxmvrd8","59c3289b8e6ea10001f7b926","freq","img/green_2bandit_a2.png","70","70","test","1","165","165","8","",""
"null","257347","pSARL_v2","pSARL_v2xnxmvrd8","59c3289b8e6ea10001f7b926","freq_resp","img/green_2bandit_a.png","70","70","test","","","","8","",""
"null","257503","pSARL_v2","pSARL_v2xnxmvrd8","59c3289b8e6ea10001f7b926","fixation","img/fixation.png","null","","test","","","","","",""
"null","258312","pSARL_v2","pSARL_v2xnxmvrd8","59c3289b8e6ea10001f7b926","freq","img/green_2bandit_a2.png","null","70","test","0","166","166","8","",""
"null","258469","pSARL_v2","pSARL_v2xnxmvrd8","59c3289b8e6ea10001f7b926","fixation","img/fixation.png","null","","test","","","","","",""
"82.90000003576279","258558","pSARL_v2","pSARL_v2xnxmvrd8","59c3289b8e6ea10001f7b926","freq","img/green_2bandit_a2.png","70","70","test","1","167","167","8","",""
"null","259293","pSARL_v2","pSARL_v2xnxmvrd8","59c3289b8e6ea10001f7b926","freq_resp","img/green_2bandit_a.png","70","70","test","","","","8","",""
"null","259448","pSARL_v2","pSARL_v2xnxmvrd8","59c3289b8e6ea10001f7b926","fixation","img/fixation.png","null","","test","","","","","",""
"251","259704","pSARL_v2","pSARL_v2xnxmvrd8","59c3289b8e6ea10001f7b926","freq","img/green_2bandit_a2.png","70","70","test","1","168","168","8","",""
"null","260275","pSARL_v2","pSARL_v2xnxmvrd8","59c3289b8e6ea10001f7b926","freq_resp","img/green_2bandit_a.png","70","70","test","","","","8","",""
"null","260430","pSARL_v2","pSARL_v2xnxmvrd8","59c3289b8e6ea10001f7b926","fixation","img/fixation.png","null","","test","","","","","",""
"300.2999999523163","260736","pSARL_v2","pSARL_v2xnxmvrd8","59c3289b8e6ea10001f7b926","freq","img/green_2bandit_a2.png","70","70","test","1","169","169","8","",""
"null","261247","pSARL_v2","pSARL_v2xnxmvrd8","59c3289b8e6ea10001f7b926","freq_resp","img/green_2bandit_a.png","70","70","test","","","","8","",""
"null","261417","pSARL_v2","pSARL_v2xnxmvrd8","59c3289b8e6ea10001f7b926","fixation","img/fixation.png","null","","test","","","","","",""
"483.89999997615814","261907","pSARL_v2","pSARL_v2xnxmvrd8","59c3289b8e6ea10001f7b926","freq","img/green_2bandit_a2.png","70","70","test","1","170","170","8","",""
"null","262240","pSARL_v2","pSARL_v2xnxmvrd8","59c3289b8e6ea10001f7b926","freq_resp","img/green_2bandit_a.png","70","70","test","","","","8","",""
"null","262407","pSARL_v2","pSARL_v2xnxmvrd8","59c3289b8e6ea10001f7b926","fixation","img/fixation.png","null","","test","","","","","",""
"399.89999997615814","262810","pSARL_v2","pSARL_v2xnxmvrd8","59c3289b8e6ea10001f7b926","infreq","img/orange_2bandit_a2.png","68","68","test","1","171","171","8","",""
"null","263220","pSARL_v2","pSARL_v2xnxmvrd8","59c3289b8e6ea10001f7b926","infreq_resp","img/orange_2bandit_a.png","68","68","test","","","","8","",""
"null","263388","pSARL_v2","pSARL_v2xnxmvrd8","59c3289b8e6ea10001f7b926","fixation","img/fixation.png","null","","test","","","","","",""
"329","263722","pSARL_v2","pSARL_v2xnxmvrd8","59c3289b8e6ea10001f7b926","freq","img/green_2bandit_a2.png","70","70","test","1","172","172","8","",""
"null","264204","pSARL_v2","pSARL_v2xnxmvrd8","59c3289b8e6ea10001f7b926","freq_resp","img/green_2bandit_a.png","70","70","test","","","","8","",""
"null","264359","pSARL_v2","pSARL_v2xnxmvrd8","59c3289b8e6ea10001f7b926","fixation","img/fixation.png","null","","test","","","","","",""
"338.5","264703","pSARL_v2","pSARL_v2xnxmvrd8","59c3289b8e6ea10001f7b926","freq","img/green_2bandit_a2.png","70","70","test","1","173","173","8","",""
"null","265185","pSARL_v2","pSARL_v2xnxmvrd8","59c3289b8e6ea10001f7b926","freq_resp","img/green_2bandit_a.png","70","70","test","","","","8","",""
"null","265355","pSARL_v2","pSARL_v2xnxmvrd8","59c3289b8e6ea10001f7b926","fixation","img/fixation.png","null","","test","","","","","",""
"314.39999997615814","265675","pSARL_v2","pSARL_v2xnxmvrd8","59c3289b8e6ea10001f7b926","freq","img/green_2bandit_a2.png","70","70","test","1","174","174","8","",""
"null","266166","pSARL_v2","pSARL_v2xnxmvrd8","59c3289b8e6ea10001f7b926","freq_resp","img/green_2bandit_a.png","70","70","test","","","","8","",""
"null","266336","pSARL_v2","pSARL_v2xnxmvrd8","59c3289b8e6ea10001f7b926","fixation","img/fixation.png","null","","test","","","","","",""
"333.89999997615814","266675","pSARL_v2","pSARL_v2xnxmvrd8","59c3289b8e6ea10001f7b926","freq","img/green_2bandit_a2.png","70","70","test","1","175","175","8","",""
"null","267157","pSARL_v2","pSARL_v2xnxmvrd8","59c3289b8e6ea10001f7b926","freq_resp","img/green_2bandit_a.png","70","70","test","","","","8","",""
"null","267314","pSARL_v2","pSARL_v2xnxmvrd8","59c3289b8e6ea10001f7b926","fixation","img/fixation.png","null","","test","","","","","",""
"300.5","267620","pSARL_v2","pSARL_v2xnxmvrd8","59c3289b8e6ea10001f7b926","freq","img/green_2bandit_a2.png","70","70","test","1","176","176","8","",""
"null","268126","pSARL_v2","pSARL_v2xnxmvrd8","59c3289b8e6ea10001f7b926","freq_resp","img/green_2bandit_a.png","70","70","test","","","","8","",""
"null","268295","pSARL_v2","pSARL_v2xnxmvrd8","59c3289b8e6ea10001f7b926","fixation","img/fixation.png","null","","test","","","","","",""
"280.7999999523163","268581","pSARL_v2","pSARL_v2xnxmvrd8","59c3289b8e6ea10001f7b926","freq","img/green_2bandit_a2.png","70","70","test","1","177","177","8","",""
"null","269119","pSARL_v2","pSARL_v2xnxmvrd8","59c3289b8e6ea10001f7b926","freq_resp","img/green_2bandit_a.png","70","70","test","","","","8","",""
"null","269289","pSARL_v2","pSARL_v2xnxmvrd8","59c3289b8e6ea10001f7b926","fixation","img/fixation.png","null","","test","","","","","",""
"227.60000002384186","269522","pSARL_v2","pSARL_v2xnxmvrd8","59c3289b8e6ea10001f7b926","freq","img/green_2bandit_a2.png","70","70","test","1","178","178","8","",""
"null","270114","pSARL_v2","pSARL_v2xnxmvrd8","59c3289b8e6ea10001f7b926","freq_resp","img/green_2bandit_a.png","70","70","test","","","","8","",""
"null","270268","pSARL_v2","pSARL_v2xnxmvrd8","59c3289b8e6ea10001f7b926","fixation","img/fixation.png","null","","test","","","","","",""
"282","270555","pSARL_v2","pSARL_v2xnxmvrd8","59c3289b8e6ea10001f7b926","freq","img/green_2bandit_a2.png","70","70","test","1","179","179","8","",""
"null","271093","pSARL_v2","pSARL_v2xnxmvrd8","59c3289b8e6ea10001f7b926","freq_resp","img/green_2bandit_a.png","70","70","test","","","","8","",""
"null","271262","pSARL_v2","pSARL_v2xnxmvrd8","59c3289b8e6ea10001f7b926","fixation","img/fixation.png","null","","test","","","","","",""
"349.5","271616","pSARL_v2","pSARL_v2xnxmvrd8","59c3289b8e6ea10001f7b926","freq","img/green_2bandit_a2.png","70","70","test","1","180","180","8","",""
"null","272084","pSARL_v2","pSARL_v2xnxmvrd8","59c3289b8e6ea10001f7b926","freq_resp","img/green_2bandit_a.png","70","70","test","","","","8","",""
"null","272253","pSARL_v2","pSARL_v2xnxmvrd8","59c3289b8e6ea10001f7b926","fixation","img/fixation.png","null","","test","","","","","",""
"328.5","272586","pSARL_v2","pSARL_v2xnxmvrd8","59c3289b8e6ea10001f7b926","freq","img/green_2bandit_a2.png","70","70","test","1","181","181","8","",""
"null","273063","pSARL_v2","pSARL_v2xnxmvrd8","59c3289b8e6ea10001f7b926","freq_resp","img/green_2bandit_a.png","70","70","test","","","","8","",""
"null","273218","pSARL_v2","pSARL_v2xnxmvrd8","59c3289b8e6ea10001f7b926","fixation","img/fixation.png","null","","test","","","","","",""
"342.19999998807907","273564","pSARL_v2","pSARL_v2xnxmvrd8","59c3289b8e6ea10001f7b926","freq","img/green_2bandit_a2.png","70","70","test","1","182","182","8","",""
"null","274039","pSARL_v2","pSARL_v2xnxmvrd8","59c3289b8e6ea10001f7b926","freq_resp","img/green_2bandit_a.png","70","70","test","","","","8","",""
"null","274195","pSARL_v2","pSARL_v2xnxmvrd8","59c3289b8e6ea10001f7b926","fixation","img/fixation.png","null","","test","","","","","",""
"325.30000001192093","274526","pSARL_v2","pSARL_v2xnxmvrd8","59c3289b8e6ea10001f7b926","freq","img/green_2bandit_a2.png","70","70","test","1","183","183","8","",""
"null","275010","pSARL_v2","pSARL_v2xnxmvrd8","59c3289b8e6ea10001f7b926","freq_resp","img/green_2bandit_a.png","70","70","test","","","","8","",""
"null","275177","pSARL_v2","pSARL_v2xnxmvrd8","59c3289b8e6ea10001f7b926","fixation","img/fixation.png","null","","test","","","","","",""
"451.80000001192093","275634","pSARL_v2","pSARL_v2xnxmvrd8","59c3289b8e6ea10001f7b926","reward","img/slot.png","74","","test","","","","","",""
"null","276390","pSARL_v2","pSARL_v2xnxmvrd8","59c3289b8e6ea10001f7b926","points","<div class=""verylowPoints""> -4 </div>","null","na","test","","","","8","-4","7"
"458.10000002384186","276854","pSARL_v2","pSARL_v2xnxmvrd8","59c3289b8e6ea10001f7b926","freq","img/green_2bandit_a2.png","70","70","test","1","184","184","9","",""
"null","277211","pSARL_v2","pSARL_v2xnxmvrd8","59c3289b8e6ea10001f7b926","freq_resp","img/green_2bandit_a.png","70","70","test","","","","9","",""
"null","277365","pSARL_v2","pSARL_v2xnxmvrd8","59c3289b8e6ea10001f7b926","fixation","img/fixation.png","null","","test","","","","","",""
"368","277736","pSARL_v2","pSARL_v2xnxmvrd8","59c3289b8e6ea10001f7b926","freq","img/green_2bandit_a2.png","70","70","test","1","185","185","9","",""
"null","278176","pSARL_v2","pSARL_v2xnxmvrd8","59c3289b8e6ea10001f7b926","freq_resp","img/green_2bandit_a.png","70","70","test","","","","9","",""
"null","278344","pSARL_v2","pSARL_v2xnxmvrd8","59c3289b8e6ea10001f7b926","fixation","img/fixation.png","null","","test","","","","","",""
"327.5999999642372","278677","pSARL_v2","pSARL_v2xnxmvrd8","59c3289b8e6ea10001f7b926","freq","img/green_2bandit_a2.png","70","70","test","1","186","186","9","",""
"null","279155","pSARL_v2","pSARL_v2xnxmvrd8","59c3289b8e6ea10001f7b926","freq_resp","img/green_2bandit_a.png","70","70","test","","","","9","",""
"null","279327","pSARL_v2","pSARL_v2xnxmvrd8","59c3289b8e6ea10001f7b926","fixation","img/fixation.png","null","","test","","","","","",""
"363.2999999523163","279695","pSARL_v2","pSARL_v2xnxmvrd8","59c3289b8e6ea10001f7b926","freq","img/green_2bandit_a2.png","70","70","test","1","187","187","9","",""
"null","280146","pSARL_v2","pSARL_v2xnxmvrd8","59c3289b8e6ea10001f7b926","freq_resp","img/green_2bandit_a.png","70","70","test","","","","9","",""
"null","280304","pSARL_v2","pSARL_v2xnxmvrd8","59c3289b8e6ea10001f7b926","fixation","img/fixation.png","null","","test","","","","","",""
"411.5","280721","pSARL_v2","pSARL_v2xnxmvrd8","59c3289b8e6ea10001f7b926","infreq","img/orange_2bandit_a2.png","68","68","test","1","188","188","9","",""
"null","281127","pSARL_v2","pSARL_v2xnxmvrd8","59c3289b8e6ea10001f7b926","infreq_resp","img/orange_2bandit_a.png","68","68","test","","","","9","",""
"null","281297","pSARL_v2","pSARL_v2xnxmvrd8","59c3289b8e6ea10001f7b926","fixation","img/fixation.png","null","","test","","","","","",""
"402.4000000357628","281705","pSARL_v2","pSARL_v2xnxmvrd8","59c3289b8e6ea10001f7b926","freq","img/green_2bandit_a2.png","70","70","test","1","189","189","9","",""
"null","282117","pSARL_v2","pSARL_v2xnxmvrd8","59c3289b8e6ea10001f7b926","freq_resp","img/green_2bandit_a.png","70","70","test","","","","9","",""
"null","282274","pSARL_v2","pSARL_v2xnxmvrd8","59c3289b8e6ea10001f7b926","fixation","img/fixation.png","null","","test","","","","","",""
"435.0999999642372","282714","pSARL_v2","pSARL_v2xnxmvrd8","59c3289b8e6ea10001f7b926","infreq","img/orange_2bandit_a2.png","68","68","test","1","190","190","9","",""
"null","283100","pSARL_v2","pSARL_v2xnxmvrd8","59c3289b8e6ea10001f7b926","infreq_resp","img/orange_2bandit_a.png","68","68","test","","","","9","",""
"null","283269","pSARL_v2","pSARL_v2xnxmvrd8","59c3289b8e6ea10001f7b926","fixation","img/fixation.png","null","","test","","","","","",""
"325.80000001192093","283599","pSARL_v2","pSARL_v2xnxmvrd8","59c3289b8e6ea10001f7b926","freq","img/green_2bandit_a2.png","70","70","test","1","191","191","9","",""
"null","284092","pSARL_v2","pSARL_v2xnxmvrd8","59c3289b8e6ea10001f7b926","freq_resp","img/green_2bandit_a.png","70","70","test","","","","9","",""
"null","284247","pSARL_v2","pSARL_v2xnxmvrd8","59c3289b8e6ea10001f7b926","fixation","img/fixation.png","null","","test","","","","","",""
"369.0999999642372","284620","pSARL_v2","pSARL_v2xnxmvrd8","59c3289b8e6ea10001f7b926","freq","img/green_2bandit_a2.png","70","70","test","1","192","192","9","",""
"null","285065","pSARL_v2","pSARL_v2xnxmvrd8","59c3289b8e6ea10001f7b926","freq_resp","img/green_2bandit_a.png","70","70","test","","","","9","",""
"null","285234","pSARL_v2","pSARL_v2xnxmvrd8","59c3289b8e6ea10001f7b926","fixation","img/fixation.png","null","","test","","","","","",""
"384.80000001192093","285623","pSARL_v2","pSARL_v2xnxmvrd8","59c3289b8e6ea10001f7b926","freq","img/green_2bandit_a2.png","70","70","test","1","193","193","9","",""
"null","286054","pSARL_v2","pSARL_v2xnxmvrd8","59c3289b8e6ea10001f7b926","freq_resp","img/green_2bandit_a.png","70","70","test","","","","9","",""
"null","286213","pSARL_v2","pSARL_v2xnxmvrd8","59c3289b8e6ea10001f7b926","fixation","img/fixation.png","null","","test","","","","","",""
"381.60000002384186","286600","pSARL_v2","pSARL_v2xnxmvrd8","59c3289b8e6ea10001f7b926","freq","img/green_2bandit_a2.png","70","70","test","1","194","194","9","",""
"null","287035","pSARL_v2","pSARL_v2xnxmvrd8","59c3289b8e6ea10001f7b926","freq_resp","img/green_2bandit_a.png","70","70","test","","","","9","",""
"null","287191","pSARL_v2","pSARL_v2xnxmvrd8","59c3289b8e6ea10001f7b926","fixation","img/fixation.png","null","","test","","","","","",""
"430.30000001192093","287627","pSARL_v2","pSARL_v2xnxmvrd8","59c3289b8e6ea10001f7b926","freq","img/green_2bandit_a2.png","70","70","test","1","195","195","9","",""
"null","288015","pSARL_v2","pSARL_v2xnxmvrd8","59c3289b8e6ea10001f7b926","freq_resp","img/green_2bandit_a.png","70","70","test","","","","9","",""
"null","288170","pSARL_v2","pSARL_v2xnxmvrd8","59c3289b8e6ea10001f7b926","fixation","img/fixation.png","null","","test","","","","","",""
"432.60000002384186","288608","pSARL_v2","pSARL_v2xnxmvrd8","59c3289b8e6ea10001f7b926","freq","img/green_2bandit_a2.png","70","70","test","1","196","196","9","",""
"null","288992","pSARL_v2","pSARL_v2xnxmvrd8","59c3289b8e6ea10001f7b926","freq_resp","img/green_2bandit_a.png","70","70","test","","","","9","",""
"null","289163","pSARL_v2","pSARL_v2xnxmvrd8","59c3289b8e6ea10001f7b926","fixation","img/fixation.png","null","","test","","","","","",""
"529.4000000357628","289697","pSARL_v2","pSARL_v2xnxmvrd8","59c3289b8e6ea10001f7b926","freq","img/green_2bandit_a2.png","70","70","test","1","197","197","9","",""
"null","289985","pSARL_v2","pSARL_v2xnxmvrd8","59c3289b8e6ea10001f7b926","freq_resp","img/green_2bandit_a.png","70","70","test","","","","9","",""
"null","290153","pSARL_v2","pSARL_v2xnxmvrd8","59c3289b8e6ea10001f7b926","fixation","img/fixation.png","null","","test","","","","","",""
"529.8999999761581","290688","pSARL_v2","pSARL_v2xnxmvrd8","59c3289b8e6ea10001f7b926","freq","img/green_2bandit_a2.png","70","70","test","1","198","198","9","",""
"null","290977","pSARL_v2","pSARL_v2xnxmvrd8","59c3289b8e6ea10001f7b926","freq_resp","img/green_2bandit_a.png","70","70","test","","","","9","",""
"null","291132","pSARL_v2","pSARL_v2xnxmvrd8","59c3289b8e6ea10001f7b926","fixation","img/fixation.png","null","","test","","","","","",""
"597.3000000119209","291734","pSARL_v2","pSARL_v2xnxmvrd8","59c3289b8e6ea10001f7b926","freq","img/green_2bandit_a2.png","70","70","test","1","199","199","9","",""
"null","291954","pSARL_v2","pSARL_v2xnxmvrd8","59c3289b8e6ea10001f7b926","freq_resp","img/green_2bandit_a.png","70","70","test","","","","9","",""
"null","292122","pSARL_v2","pSARL_v2xnxmvrd8","59c3289b8e6ea10001f7b926","fixation","img/fixation.png","null","","test","","","","","",""
"634.5999999642372","292762","pSARL_v2","pSARL_v2xnxmvrd8","59c3289b8e6ea10001f7b926","freq","img/green_2bandit_a2.png","70","70","test","1","200","200","9","",""
"null","292936","pSARL_v2","pSARL_v2xnxmvrd8","59c3289b8e6ea10001f7b926","freq_resp","img/green_2bandit_a.png","70","70","test","","","","9","",""
"null","293106","pSARL_v2","pSARL_v2xnxmvrd8","59c3289b8e6ea10001f7b926","fixation","img/fixation.png","null","","test","","","","","",""
"579.7999999523163","293692","pSARL_v2","pSARL_v2xnxmvrd8","59c3289b8e6ea10001f7b926","freq","img/green_2bandit_a2.png","70","70","test","1","201","201","9","",""
"null","293927","pSARL_v2","pSARL_v2xnxmvrd8","59c3289b8e6ea10001f7b926","freq_resp","img/green_2bandit_a.png","70","70","test","","","","9","",""
"null","294098","pSARL_v2","pSARL_v2xnxmvrd8","59c3289b8e6ea10001f7b926","fixation","img/fixation.png","null","","test","","","","","",""
"706.8000000119209","294810","pSARL_v2","pSARL_v2xnxmvrd8","59c3289b8e6ea10001f7b926","freq","img/green_2bandit_a2.png","70","70","test","1","202","202","9","",""
"null","294922","pSARL_v2","pSARL_v2xnxmvrd8","59c3289b8e6ea10001f7b926","freq_resp","img/green_2bandit_a.png","70","70","test","","","","9","",""
"null","295078","pSARL_v2","pSARL_v2xnxmvrd8","59c3289b8e6ea10001f7b926","fixation","img/fixation.png","null","","test","","","","","",""
"599.0999999642372","295681","pSARL_v2","pSARL_v2xnxmvrd8","59c3289b8e6ea10001f7b926","freq","img/green_2bandit_a2.png","70","70","test","1","203","203","9","",""
"null","295888","pSARL_v2","pSARL_v2xnxmvrd8","59c3289b8e6ea10001f7b926","freq_resp","img/green_2bandit_a.png","70","70","test","","","","9","",""
"null","296045","pSARL_v2","pSARL_v2xnxmvrd8","59c3289b8e6ea10001f7b926","fixation","img/fixation.png","null","","test","","","","","",""
"418.4000000357628","296467","pSARL_v2","pSARL_v2xnxmvrd8","59c3289b8e6ea10001f7b926","infreq","img/orange_2bandit_a2.png","68","68","test","1","204","204","9","",""
"null","296857","pSARL_v2","pSARL_v2xnxmvrd8","59c3289b8e6ea10001f7b926","infreq_resp","img/orange_2bandit_a.png","68","68","test","","","","9","",""
"null","297012","pSARL_v2","pSARL_v2xnxmvrd8","59c3289b8e6ea10001f7b926","fixation","img/fixation.png","null","","test","","","","","",""
"380.9000000357628","297398","pSARL_v2","pSARL_v2xnxmvrd8","59c3289b8e6ea10001f7b926","freq","img/green_2bandit_a2.png","70","70","test","1","205","205","9","",""
"null","297835","pSARL_v2","pSARL_v2xnxmvrd8","59c3289b8e6ea10001f7b926","freq_resp","img/green_2bandit_a.png","70","70","test","","","","9","",""
"null","298004","pSARL_v2","pSARL_v2xnxmvrd8","59c3289b8e6ea10001f7b926","fixation","img/fixation.png","null","","test","","","","","",""
"353","298361","pSARL_v2","pSARL_v2xnxmvrd8","59c3289b8e6ea10001f7b926","freq","img/green_2bandit_a2.png","70","70","test","1","206","206","9","",""
"null","298817","pSARL_v2","pSARL_v2xnxmvrd8","59c3289b8e6ea10001f7b926","freq_resp","img/green_2bandit_a.png","70","70","test","","","","9","",""
"null","298988","pSARL_v2","pSARL_v2xnxmvrd8","59c3289b8e6ea10001f7b926","fixation","img/fixation.png","null","","test","","","","","",""
"509.30000001192093","299500","pSARL_v2","pSARL_v2xnxmvrd8","59c3289b8e6ea10001f7b926","reward","img/slot.png","74","","test","","","","","",""
"null","300255","pSARL_v2","pSARL_v2xnxmvrd8","59c3289b8e6ea10001f7b926","points","<div class=""verylowPoints""> -3 </div>","null","na","test","","","","9","-3","8"
