"rt","time_elapsed","expId","subject","prolificID","trialType","stimulus","key_press","corrresp","phase","corr","trialNum","attentionRunNum","blockNum","points","rlNum"
"11773","11786","pSARL_v2","pSARL_v2vt40b2ru","61006be07e74dd9f144d12f1","","","","","","","","","","",""
"","14696","pSARL_v2","pSARL_v2vt40b2ru","61006be07e74dd9f144d12f1","fullscreen","","","","","","","","","",""
"65060","79765","pSARL_v2","pSARL_v2vt40b2ru","61006be07e74dd9f144d12f1","","","","","","","","","","",""
"null","80575","pSARL_v2","pSARL_v2vt40b2ru","61006be07e74dd9f144d12f1","freqPrac","img/green_2bandit_a2.png","null","70","prac","0","","","","",""
"null","81583","pSARL_v2","pSARL_v2vt40b2ru","61006be07e74dd9f144d12f1","feedback","img/tooSlow.png","null","na","prac","","","","","",""
"null","81752","pSARL_v2","pSARL_v2vt40b2ru","61006be07e74dd9f144d12f1","fixation","img/fixation.png","null","","prac","","","","","",""
"563","82320","pSARL_v2","pSARL_v2vt40b2ru","61006be07e74dd9f144d12f1","infreqPrac","img/orange_2bandit_a2.png","68","68","prac","1","","","","",""
"563","82579","pSARL_v2","pSARL_v2vt40b2ru","61006be07e74dd9f144d12f1","infreqPrac_resp","img/orange_2bandit_a.png","68","68","prac","","","","","",""
"null","82749","pSARL_v2","pSARL_v2vt40b2ru","61006be07e74dd9f144d12f1","fixation","img/fixation.png","null","","prac","","","","","",""
"25","82781","pSARL_v2","pSARL_v2vt40b2ru","61006be07e74dd9f144d12f1","freqPrac","img/green_2bandit_a2.png","68","70","prac","0","","","","",""
"25","83578","pSARL_v2","pSARL_v2vt40b2ru","61006be07e74dd9f144d12f1","freqPrac_resp","img/green_2bandit_a.png","68","70","prac","","","","","",""
"null","84590","pSARL_v2","pSARL_v2vt40b2ru","61006be07e74dd9f144d12f1","feedback","img/wrongKey.png","null","na","prac","","","","","",""
"null","84762","pSARL_v2","pSARL_v2vt40b2ru","61006be07e74dd9f144d12f1","fixation","img/fixation.png","null","","prac","","","","","",""
"577","85344","pSARL_v2","pSARL_v2vt40b2ru","61006be07e74dd9f144d12f1","infreqPrac","img/orange_2bandit_a2.png","68","68","prac","1","","","","",""
"577","85587","pSARL_v2","pSARL_v2vt40b2ru","61006be07e74dd9f144d12f1","infreqPrac_resp","img/orange_2bandit_a.png","68","68","prac","","","","","",""
"null","85758","pSARL_v2","pSARL_v2vt40b2ru","61006be07e74dd9f144d12f1","fixation","img/fixation.png","null","","prac","","","","","",""
"339","86103","pSARL_v2","pSARL_v2vt40b2ru","61006be07e74dd9f144d12f1","infreqPrac","img/orange_2bandit_a2.png","68","68","prac","1","","","","",""
"339","86599","pSARL_v2","pSARL_v2vt40b2ru","61006be07e74dd9f144d12f1","infreqPrac_resp","img/orange_2bandit_a.png","68","68","prac","","","","","",""
"null","86770","pSARL_v2","pSARL_v2vt40b2ru","61006be07e74dd9f144d12f1","fixation","img/fixation.png","null","","prac","","","","","",""
"414","87190","pSARL_v2","pSARL_v2vt40b2ru","61006be07e74dd9f144d12f1","infreqPrac","img/orange_2bandit_a2.png","68","68","prac","1","","","","",""
"414","87594","pSARL_v2","pSARL_v2vt40b2ru","61006be07e74dd9f144d12f1","infreqPrac_resp","img/orange_2bandit_a.png","68","68","prac","","","","","",""
"null","87765","pSARL_v2","pSARL_v2vt40b2ru","61006be07e74dd9f144d12f1","fixation","img/fixation.png","null","","prac","","","","","",""
"563","88332","pSARL_v2","pSARL_v2vt40b2ru","61006be07e74dd9f144d12f1","freqPrac","img/green_2bandit_a2.png","70","70","prac","1","","","","",""
"563","88578","pSARL_v2","pSARL_v2vt40b2ru","61006be07e74dd9f144d12f1","freqPrac_resp","img/green_2bandit_a.png","70","70","prac","","","","","",""
"null","88749","pSARL_v2","pSARL_v2vt40b2ru","61006be07e74dd9f144d12f1","fixation","img/fixation.png","null","","prac","","","","","",""
"477","89233","pSARL_v2","pSARL_v2vt40b2ru","61006be07e74dd9f144d12f1","infreqPrac","img/orange_2bandit_a2.png","68","68","prac","1","","","","",""
"477","89574","pSARL_v2","pSARL_v2vt40b2ru","61006be07e74dd9f144d12f1","infreqPrac_resp","img/orange_2bandit_a.png","68","68","prac","","","","","",""
"null","89745","pSARL_v2","pSARL_v2vt40b2ru","61006be07e74dd9f144d12f1","fixation","img/fixation.png","null","","prac","","","","","",""
"514","90266","pSARL_v2","pSARL_v2vt40b2ru","61006be07e74dd9f144d12f1","freqPrac","img/green_2bandit_a2.png","70","70","prac","1","","","","",""
"514","90585","pSARL_v2","pSARL_v2vt40b2ru","61006be07e74dd9f144d12f1","freqPrac_resp","img/green_2bandit_a.png","70","70","prac","","","","","",""
"null","90756","pSARL_v2","pSARL_v2vt40b2ru","61006be07e74dd9f144d12f1","fixation","img/fixation.png","null","","prac","","","","","",""
"410","91172","pSARL_v2","pSARL_v2vt40b2ru","61006be07e74dd9f144d12f1","freqPrac","img/green_2bandit_a2.png","70","70","prac","1","","","","",""
"410","91580","pSARL_v2","pSARL_v2vt40b2ru","61006be07e74dd9f144d12f1","freqPrac_resp","img/green_2bandit_a.png","70","70","prac","","","","","",""
"null","91738","pSARL_v2","pSARL_v2vt40b2ru","61006be07e74dd9f144d12f1","fixation","img/fixation.png","null","","prac","","","","","",""
"16342","108085","pSARL_v2","pSARL_v2vt40b2ru","61006be07e74dd9f144d12f1","","","","","prac","","","","","",""
"906","108997","pSARL_v2","pSARL_v2vt40b2ru","61006be07e74dd9f144d12f1","rewardPractice","img/slot.png","74","","prac","","","","","",""
"null","109769","pSARL_v2","pSARL_v2vt40b2ru","61006be07e74dd9f144d12f1","feedback","<div class=""veryhighPoints""> +15 </div>","null","na","prac","","","","","",""
"null","109940","pSARL_v2","pSARL_v2vt40b2ru","61006be07e74dd9f144d12f1","fixation","img/fixation.png","null","","prac","","","","","",""
"15681","125627","pSARL_v2","pSARL_v2vt40b2ru","61006be07e74dd9f144d12f1","","","","","prac","","","","","",""
"609","126243","pSARL_v2","pSARL_v2vt40b2ru","61006be07e74dd9f144d12f1","freq","img/green_2bandit_a2.png","70","70","test","1","1","1","1","",""
"null","126453","pSARL_v2","pSARL_v2vt40b2ru","61006be07e74dd9f144d12f1","freq_resp","img/green_2bandit_a.png","70","70","test","","","","1","",""
"null","126625","pSARL_v2","pSARL_v2vt40b2ru","61006be07e74dd9f144d12f1","fixation","img/fixation.png","null","","test","","","","","",""
"421","127051","pSARL_v2","pSARL_v2vt40b2ru","61006be07e74dd9f144d12f1","freq","img/green_2bandit_a2.png","70","70","test","1","2","2","1","",""
"null","127450","pSARL_v2","pSARL_v2vt40b2ru","61006be07e74dd9f144d12f1","freq_resp","img/green_2bandit_a.png","70","70","test","","","","1","",""
"null","127620","pSARL_v2","pSARL_v2vt40b2ru","61006be07e74dd9f144d12f1","fixation","img/fixation.png","null","","test","","","","","",""
"375","128002","pSARL_v2","pSARL_v2vt40b2ru","61006be07e74dd9f144d12f1","freq","img/green_2bandit_a2.png","70","70","test","1","3","3","1","",""
"null","128444","pSARL_v2","pSARL_v2vt40b2ru","61006be07e74dd9f144d12f1","freq_resp","img/green_2bandit_a.png","70","70","test","","","","1","",""
"null","128615","pSARL_v2","pSARL_v2vt40b2ru","61006be07e74dd9f144d12f1","fixation","img/fixation.png","null","","test","","","","","",""
"397","129018","pSARL_v2","pSARL_v2vt40b2ru","61006be07e74dd9f144d12f1","infreq","img/orange_2bandit_a2.png","68","68","test","1","4","4","1","",""
"null","129442","pSARL_v2","pSARL_v2vt40b2ru","61006be07e74dd9f144d12f1","infreq_resp","img/orange_2bandit_a.png","68","68","test","","","","1","",""
"null","129614","pSARL_v2","pSARL_v2vt40b2ru","61006be07e74dd9f144d12f1","fixation","img/fixation.png","null","","test","","","","","",""
"449","130068","pSARL_v2","pSARL_v2vt40b2ru","61006be07e74dd9f144d12f1","freq","img/green_2bandit_a2.png","70","70","test","1","5","5","1","",""
"null","130437","pSARL_v2","pSARL_v2vt40b2ru","61006be07e74dd9f144d12f1","freq_resp","img/green_2bandit_a.png","70","70","test","","","","1","",""
"null","130607","pSARL_v2","pSARL_v2vt40b2ru","61006be07e74dd9f144d12f1","fixation","img/fixation.png","null","","test","","","","","",""
"402","131017","pSARL_v2","pSARL_v2vt40b2ru","61006be07e74dd9f144d12f1","infreq","img/orange_2bandit_a2.png","68","68","test","1","6","6","1","",""
"null","131436","pSARL_v2","pSARL_v2vt40b2ru","61006be07e74dd9f144d12f1","infreq_resp","img/orange_2bandit_a.png","68","68","test","","","","1","",""
"null","131606","pSARL_v2","pSARL_v2vt40b2ru","61006be07e74dd9f144d12f1","fixation","img/fixation.png","null","","test","","","","","",""
"377","131989","pSARL_v2","pSARL_v2vt40b2ru","61006be07e74dd9f144d12f1","freq","img/green_2bandit_a2.png","70","70","test","1","7","7","1","",""
"null","132433","pSARL_v2","pSARL_v2vt40b2ru","61006be07e74dd9f144d12f1","freq_resp","img/green_2bandit_a.png","70","70","test","","","","1","",""
"null","132603","pSARL_v2","pSARL_v2vt40b2ru","61006be07e74dd9f144d12f1","fixation","img/fixation.png","null","","test","","","","","",""
"406","133015","pSARL_v2","pSARL_v2vt40b2ru","61006be07e74dd9f144d12f1","freq","img/green_2bandit_a2.png","70","70","test","1","8","8","1","",""
"null","133431","pSARL_v2","pSARL_v2vt40b2ru","61006be07e74dd9f144d12f1","freq_resp","img/green_2bandit_a.png","70","70","test","","","","1","",""
"null","133589","pSARL_v2","pSARL_v2vt40b2ru","61006be07e74dd9f144d12f1","fixation","img/fixation.png","null","","test","","","","","",""
"446","134041","pSARL_v2","pSARL_v2vt40b2ru","61006be07e74dd9f144d12f1","freq","img/green_2bandit_a2.png","70","70","test","1","9","9","1","",""
"null","134415","pSARL_v2","pSARL_v2vt40b2ru","61006be07e74dd9f144d12f1","freq_resp","img/green_2bandit_a.png","70","70","test","","","","1","",""
"null","134584","pSARL_v2","pSARL_v2vt40b2ru","61006be07e74dd9f144d12f1","fixation","img/fixation.png","null","","test","","","","","",""
"338","134928","pSARL_v2","pSARL_v2vt40b2ru","61006be07e74dd9f144d12f1","freq","img/green_2bandit_a2.png","70","70","test","1","10","10","1","",""
"null","135408","pSARL_v2","pSARL_v2vt40b2ru","61006be07e74dd9f144d12f1","freq_resp","img/green_2bandit_a.png","70","70","test","","","","1","",""
"null","135578","pSARL_v2","pSARL_v2vt40b2ru","61006be07e74dd9f144d12f1","fixation","img/fixation.png","null","","test","","","","","",""
"357","135940","pSARL_v2","pSARL_v2vt40b2ru","61006be07e74dd9f144d12f1","freq","img/green_2bandit_a2.png","70","70","test","1","11","11","1","",""
"null","136401","pSARL_v2","pSARL_v2vt40b2ru","61006be07e74dd9f144d12f1","freq_resp","img/green_2bandit_a.png","70","70","test","","","","1","",""
"null","136574","pSARL_v2","pSARL_v2vt40b2ru","61006be07e74dd9f144d12f1","fixation","img/fixation.png","null","","test","","","","","",""
"354","136933","pSARL_v2","pSARL_v2vt40b2ru","61006be07e74dd9f144d12f1","freq","img/green_2bandit_a2.png","70","70","test","1","12","12","1","",""
"null","137399","pSARL_v2","pSARL_v2vt40b2ru","61006be07e74dd9f144d12f1","freq_resp","img/green_2bandit_a.png","70","70","test","","","","1","",""
"null","137571","pSARL_v2","pSARL_v2vt40b2ru","61006be07e74dd9f144d12f1","fixation","img/fixation.png","null","","test","","","","","",""
"347","137924","pSARL_v2","pSARL_v2vt40b2ru","61006be07e74dd9f144d12f1","freq","img/green_2bandit_a2.png","70","70","test","1","13","13","1","",""
"null","138412","pSARL_v2","pSARL_v2vt40b2ru","61006be07e74dd9f144d12f1","freq_resp","img/green_2bandit_a.png","70","70","test","","","","1","",""
"null","138581","pSARL_v2","pSARL_v2vt40b2ru","61006be07e74dd9f144d12f1","fixation","img/fixation.png","null","","test","","","","","",""
"299","138885","pSARL_v2","pSARL_v2vt40b2ru","61006be07e74dd9f144d12f1","freq","img/green_2bandit_a2.png","70","70","test","1","14","14","1","",""
"null","139405","pSARL_v2","pSARL_v2vt40b2ru","61006be07e74dd9f144d12f1","freq_resp","img/green_2bandit_a.png","70","70","test","","","","1","",""
"null","139576","pSARL_v2","pSARL_v2vt40b2ru","61006be07e74dd9f144d12f1","fixation","img/fixation.png","null","","test","","","","","",""
"358","139940","pSARL_v2","pSARL_v2vt40b2ru","61006be07e74dd9f144d12f1","freq","img/green_2bandit_a2.png","70","70","test","1","15","15","1","",""
"null","140434","pSARL_v2","pSARL_v2vt40b2ru","61006be07e74dd9f144d12f1","freq_resp","img/green_2bandit_a.png","70","70","test","","","","1","",""
"null","140604","pSARL_v2","pSARL_v2vt40b2ru","61006be07e74dd9f144d12f1","fixation","img/fixation.png","null","","test","","","","","",""
"304","140915","pSARL_v2","pSARL_v2vt40b2ru","61006be07e74dd9f144d12f1","freq","img/green_2bandit_a2.png","70","70","test","1","16","16","1","",""
"null","141430","pSARL_v2","pSARL_v2vt40b2ru","61006be07e74dd9f144d12f1","freq_resp","img/green_2bandit_a.png","70","70","test","","","","1","",""
"null","141599","pSARL_v2","pSARL_v2vt40b2ru","61006be07e74dd9f144d12f1","fixation","img/fixation.png","null","","test","","","","","",""
"297","141901","pSARL_v2","pSARL_v2vt40b2ru","61006be07e74dd9f144d12f1","freq","img/green_2bandit_a2.png","70","70","test","1","17","17","1","",""
"null","142454","pSARL_v2","pSARL_v2vt40b2ru","61006be07e74dd9f144d12f1","freq_resp","img/green_2bandit_a.png","70","70","test","","","","1","",""
"null","142627","pSARL_v2","pSARL_v2vt40b2ru","61006be07e74dd9f144d12f1","fixation","img/fixation.png","null","","test","","","","","",""
"287","142921","pSARL_v2","pSARL_v2vt40b2ru","61006be07e74dd9f144d12f1","freq","img/green_2bandit_a2.png","70","70","test","1","18","18","1","",""
"null","143453","pSARL_v2","pSARL_v2vt40b2ru","61006be07e74dd9f144d12f1","freq_resp","img/green_2bandit_a.png","70","70","test","","","","1","",""
"null","143624","pSARL_v2","pSARL_v2vt40b2ru","61006be07e74dd9f144d12f1","fixation","img/fixation.png","null","","test","","","","","",""
"311","143940","pSARL_v2","pSARL_v2vt40b2ru","61006be07e74dd9f144d12f1","freq","img/green_2bandit_a2.png","70","70","test","1","19","19","1","",""
"null","144479","pSARL_v2","pSARL_v2vt40b2ru","61006be07e74dd9f144d12f1","freq_resp","img/green_2bandit_a.png","70","70","test","","","","1","",""
"null","144650","pSARL_v2","pSARL_v2vt40b2ru","61006be07e74dd9f144d12f1","fixation","img/fixation.png","null","","test","","","","","",""
"297","144954","pSARL_v2","pSARL_v2vt40b2ru","61006be07e74dd9f144d12f1","freq","img/green_2bandit_a2.png","70","70","test","1","20","20","1","",""
"null","145477","pSARL_v2","pSARL_v2vt40b2ru","61006be07e74dd9f144d12f1","freq_resp","img/green_2bandit_a.png","70","70","test","","","","1","",""
"null","145649","pSARL_v2","pSARL_v2vt40b2ru","61006be07e74dd9f144d12f1","fixation","img/fixation.png","null","","test","","","","","",""
"384","146037","pSARL_v2","pSARL_v2vt40b2ru","61006be07e74dd9f144d12f1","reward","img/slot.png","74","","test","","","","","",""
"null","146802","pSARL_v2","pSARL_v2vt40b2ru","61006be07e74dd9f144d12f1","points","<div class=""verylowPoints""> -6 </div>","null","na","test","","","","1","-6","0"
"418","147224","pSARL_v2","pSARL_v2vt40b2ru","61006be07e74dd9f144d12f1","freq","img/green_2bandit_a2.png","70","70","test","1","21","21","2","",""
"null","147627","pSARL_v2","pSARL_v2vt40b2ru","61006be07e74dd9f144d12f1","freq_resp","img/green_2bandit_a.png","70","70","test","","","","2","",""
"null","147798","pSARL_v2","pSARL_v2vt40b2ru","61006be07e74dd9f144d12f1","fixation","img/fixation.png","null","","test","","","","","",""
"353","148155","pSARL_v2","pSARL_v2vt40b2ru","61006be07e74dd9f144d12f1","freq","img/green_2bandit_a2.png","70","70","test","1","22","22","2","",""
"null","148620","pSARL_v2","pSARL_v2vt40b2ru","61006be07e74dd9f144d12f1","freq_resp","img/green_2bandit_a.png","70","70","test","","","","2","",""
"null","148794","pSARL_v2","pSARL_v2vt40b2ru","61006be07e74dd9f144d12f1","fixation","img/fixation.png","null","","test","","","","","",""
"377","149177","pSARL_v2","pSARL_v2vt40b2ru","61006be07e74dd9f144d12f1","freq","img/green_2bandit_a2.png","70","70","test","1","23","23","2","",""
"null","149621","pSARL_v2","pSARL_v2vt40b2ru","61006be07e74dd9f144d12f1","freq_resp","img/green_2bandit_a.png","70","70","test","","","","2","",""
"null","149792","pSARL_v2","pSARL_v2vt40b2ru","61006be07e74dd9f144d12f1","fixation","img/fixation.png","null","","test","","","","","",""
"307","150105","pSARL_v2","pSARL_v2vt40b2ru","61006be07e74dd9f144d12f1","freq","img/green_2bandit_a2.png","70","70","test","1","24","24","2","",""
"null","150618","pSARL_v2","pSARL_v2vt40b2ru","61006be07e74dd9f144d12f1","freq_resp","img/green_2bandit_a.png","70","70","test","","","","2","",""
"null","150786","pSARL_v2","pSARL_v2vt40b2ru","61006be07e74dd9f144d12f1","fixation","img/fixation.png","null","","test","","","","","",""
"266","151058","pSARL_v2","pSARL_v2vt40b2ru","61006be07e74dd9f144d12f1","freq","img/green_2bandit_a2.png","70","70","test","1","25","25","2","",""
"null","151613","pSARL_v2","pSARL_v2vt40b2ru","61006be07e74dd9f144d12f1","freq_resp","img/green_2bandit_a.png","70","70","test","","","","2","",""
"null","151783","pSARL_v2","pSARL_v2vt40b2ru","61006be07e74dd9f144d12f1","fixation","img/fixation.png","null","","test","","","","","",""
"305","152096","pSARL_v2","pSARL_v2vt40b2ru","61006be07e74dd9f144d12f1","freq","img/green_2bandit_a2.png","70","70","test","1","26","26","2","",""
"null","152610","pSARL_v2","pSARL_v2vt40b2ru","61006be07e74dd9f144d12f1","freq_resp","img/green_2bandit_a.png","70","70","test","","","","2","",""
"null","152780","pSARL_v2","pSARL_v2vt40b2ru","61006be07e74dd9f144d12f1","fixation","img/fixation.png","null","","test","","","","","",""
"266","153054","pSARL_v2","pSARL_v2vt40b2ru","61006be07e74dd9f144d12f1","freq","img/green_2bandit_a2.png","70","70","test","1","27","27","2","",""
"null","153609","pSARL_v2","pSARL_v2vt40b2ru","61006be07e74dd9f144d12f1","freq_resp","img/green_2bandit_a.png","70","70","test","","","","2","",""
"null","153780","pSARL_v2","pSARL_v2vt40b2ru","61006be07e74dd9f144d12f1","fixation","img/fixation.png","null","","test","","","","","",""
"280","154066","pSARL_v2","pSARL_v2vt40b2ru","61006be07e74dd9f144d12f1","freq","img/green_2bandit_a2.png","70","70","test","1","28","28","2","",""
"null","154606","pSARL_v2","pSARL_v2vt40b2ru","61006be07e74dd9f144d12f1","freq_resp","img/green_2bandit_a.png","70","70","test","","","","2","",""
"null","154775","pSARL_v2","pSARL_v2vt40b2ru","61006be07e74dd9f144d12f1","fixation","img/fixation.png","null","","test","","","","","",""
"426","155207","pSARL_v2","pSARL_v2vt40b2ru","61006be07e74dd9f144d12f1","freq","img/green_2bandit_a2.png","70","70","test","1","29","29","2","",""
"null","155601","pSARL_v2","pSARL_v2vt40b2ru","61006be07e74dd9f144d12f1","freq_resp","img/green_2bandit_a.png","70","70","test","","","","2","",""
"null","155773","pSARL_v2","pSARL_v2vt40b2ru","61006be07e74dd9f144d12f1","fixation","img/fixation.png","null","","test","","","","","",""
"317","156097","pSARL_v2","pSARL_v2vt40b2ru","61006be07e74dd9f144d12f1","freq","img/green_2bandit_a2.png","70","70","test","1","30","30","2","",""
"null","156599","pSARL_v2","pSARL_v2vt40b2ru","61006be07e74dd9f144d12f1","freq_resp","img/green_2bandit_a.png","70","70","test","","","","2","",""
"null","156770","pSARL_v2","pSARL_v2vt40b2ru","61006be07e74dd9f144d12f1","fixation","img/fixation.png","null","","test","","","","","",""
"294","157069","pSARL_v2","pSARL_v2vt40b2ru","61006be07e74dd9f144d12f1","infreq","img/orange_2bandit_a2.png","70","68","test","0","31","31","2","",""
"null","157612","pSARL_v2","pSARL_v2vt40b2ru","61006be07e74dd9f144d12f1","infreq_resp","img/orange_2bandit_a.png","70","68","test","","","","2","",""
"null","157782","pSARL_v2","pSARL_v2vt40b2ru","61006be07e74dd9f144d12f1","fixation","img/fixation.png","null","","test","","","","","",""
"8","157797","pSARL_v2","pSARL_v2vt40b2ru","61006be07e74dd9f144d12f1","freq","img/green_2bandit_a2.png","68","70","test","0","32","32","2","",""
"null","158605","pSARL_v2","pSARL_v2vt40b2ru","61006be07e74dd9f144d12f1","freq_resp","img/green_2bandit_a.png","68","70","test","","","","2","",""
"null","158775","pSARL_v2","pSARL_v2vt40b2ru","61006be07e74dd9f144d12f1","fixation","img/fixation.png","null","","test","","","","","",""
"453","159234","pSARL_v2","pSARL_v2vt40b2ru","61006be07e74dd9f144d12f1","freq","img/green_2bandit_a2.png","70","70","test","1","33","33","2","",""
"null","159598","pSARL_v2","pSARL_v2vt40b2ru","61006be07e74dd9f144d12f1","freq_resp","img/green_2bandit_a.png","70","70","test","","","","2","",""
"null","159756","pSARL_v2","pSARL_v2vt40b2ru","61006be07e74dd9f144d12f1","fixation","img/fixation.png","null","","test","","","","","",""
"406","160168","pSARL_v2","pSARL_v2vt40b2ru","61006be07e74dd9f144d12f1","freq","img/green_2bandit_a2.png","70","70","test","1","34","34","2","",""
"null","160583","pSARL_v2","pSARL_v2vt40b2ru","61006be07e74dd9f144d12f1","freq_resp","img/green_2bandit_a.png","70","70","test","","","","2","",""
"null","160754","pSARL_v2","pSARL_v2vt40b2ru","61006be07e74dd9f144d12f1","fixation","img/fixation.png","null","","test","","","","","",""
"308","161068","pSARL_v2","pSARL_v2vt40b2ru","61006be07e74dd9f144d12f1","freq","img/green_2bandit_a2.png","70","70","test","1","35","35","2","",""
"null","161579","pSARL_v2","pSARL_v2vt40b2ru","61006be07e74dd9f144d12f1","freq_resp","img/green_2bandit_a.png","70","70","test","","","","2","",""
"null","161749","pSARL_v2","pSARL_v2vt40b2ru","61006be07e74dd9f144d12f1","fixation","img/fixation.png","null","","test","","","","","",""
"278","162033","pSARL_v2","pSARL_v2vt40b2ru","61006be07e74dd9f144d12f1","freq","img/green_2bandit_a2.png","70","70","test","1","36","36","2","",""
"null","162577","pSARL_v2","pSARL_v2vt40b2ru","61006be07e74dd9f144d12f1","freq_resp","img/green_2bandit_a.png","70","70","test","","","","2","",""
"null","162750","pSARL_v2","pSARL_v2vt40b2ru","61006be07e74dd9f144d12f1","fixation","img/fixation.png","null","","test","","","","","",""
"271","163028","pSARL_v2","pSARL_v2vt40b2ru","61006be07e74dd9f144d12f1","freq","img/green_2bandit_a2.png","70","70","test","1","37","37","2","",""
"null","163591","pSARL_v2","pSARL_v2vt40b2ru","61006be07e74dd9f144d12f1","freq_resp","img/green_2bandit_a.png","70","70","test","","","","2","",""
"null","163761","pSARL_v2","pSARL_v2vt40b2ru","61006be07e74dd9f144d12f1","fixation","img/fixation.png","null","","test","","","","","",""
"339","164106","pSARL_v2","pSARL_v2vt40b2ru","61006be07e74dd9f144d12f1","freq","img/green_2bandit_a2.png","70","70","test","1","38","38","2","",""
"null","164587","pSARL_v2","pSARL_v2vt40b2ru","61006be07e74dd9f144d12f1","freq_resp","img/green_2bandit_a.png","70","70","test","","","","2","",""
"null","164757","pSARL_v2","pSARL_v2vt40b2ru","61006be07e74dd9f144d12f1","fixation","img/fixation.png","null","","test","","","","","",""
"314","165079","pSARL_v2","pSARL_v2vt40b2ru","61006be07e74dd9f144d12f1","freq","img/green_2bandit_a2.png","70","70","test","1","39","39","2","",""
"null","165616","pSARL_v2","pSARL_v2vt40b2ru","61006be07e74dd9f144d12f1","freq_resp","img/green_2bandit_a.png","70","70","test","","","","2","",""
"null","165788","pSARL_v2","pSARL_v2vt40b2ru","61006be07e74dd9f144d12f1","fixation","img/fixation.png","null","","test","","","","","",""
"298","166091","pSARL_v2","pSARL_v2vt40b2ru","61006be07e74dd9f144d12f1","freq","img/green_2bandit_a2.png","70","70","test","1","40","40","2","",""
"null","166614","pSARL_v2","pSARL_v2vt40b2ru","61006be07e74dd9f144d12f1","freq_resp","img/green_2bandit_a.png","70","70","test","","","","2","",""
"null","166784","pSARL_v2","pSARL_v2vt40b2ru","61006be07e74dd9f144d12f1","fixation","img/fixation.png","null","","test","","","","","",""
"359","167149","pSARL_v2","pSARL_v2vt40b2ru","61006be07e74dd9f144d12f1","infreq","img/orange_2bandit_a2.png","68","68","test","1","41","41","2","",""
"null","167642","pSARL_v2","pSARL_v2vt40b2ru","61006be07e74dd9f144d12f1","infreq_resp","img/orange_2bandit_a.png","68","68","test","","","","2","",""
"null","167816","pSARL_v2","pSARL_v2vt40b2ru","61006be07e74dd9f144d12f1","fixation","img/fixation.png","null","","test","","","","","",""
"351","168172","pSARL_v2","pSARL_v2vt40b2ru","61006be07e74dd9f144d12f1","freq","img/green_2bandit_a2.png","70","70","test","1","42","42","2","",""
"null","168637","pSARL_v2","pSARL_v2vt40b2ru","61006be07e74dd9f144d12f1","freq_resp","img/green_2bandit_a.png","70","70","test","","","","2","",""
"null","168806","pSARL_v2","pSARL_v2vt40b2ru","61006be07e74dd9f144d12f1","fixation","img/fixation.png","null","","test","","","","","",""
"479","169292","pSARL_v2","pSARL_v2vt40b2ru","61006be07e74dd9f144d12f1","reward","img/slot.png","74","","test","","","","","",""
"null","170055","pSARL_v2","pSARL_v2vt40b2ru","61006be07e74dd9f144d12f1","points","<div class=""verylowPoints""> -11 </div>","null","na","test","","","","2","-11","1"
"444","170505","pSARL_v2","pSARL_v2vt40b2ru","61006be07e74dd9f144d12f1","freq","img/green_2bandit_a2.png","70","70","test","1","43","43","3","",""
"null","170881","pSARL_v2","pSARL_v2vt40b2ru","61006be07e74dd9f144d12f1","freq_resp","img/green_2bandit_a.png","70","70","test","","","","3","",""
"null","171037","pSARL_v2","pSARL_v2vt40b2ru","61006be07e74dd9f144d12f1","fixation","img/fixation.png","null","","test","","","","","",""
"383","171426","pSARL_v2","pSARL_v2vt40b2ru","61006be07e74dd9f144d12f1","freq","img/green_2bandit_a2.png","70","70","test","1","44","44","3","",""
"null","171862","pSARL_v2","pSARL_v2vt40b2ru","61006be07e74dd9f144d12f1","freq_resp","img/green_2bandit_a.png","70","70","test","","","","3","",""
"null","172033","pSARL_v2","pSARL_v2vt40b2ru","61006be07e74dd9f144d12f1","fixation","img/fixation.png","null","","test","","","","","",""
"387","172426","pSARL_v2","pSARL_v2vt40b2ru","61006be07e74dd9f144d12f1","freq","img/green_2bandit_a2.png","70","70","test","1","45","45","3","",""
"null","172859","pSARL_v2","pSARL_v2vt40b2ru","61006be07e74dd9f144d12f1","freq_resp","img/green_2bandit_a.png","70","70","test","","","","3","",""
"null","173029","pSARL_v2","pSARL_v2vt40b2ru","61006be07e74dd9f144d12f1","fixation","img/fixation.png","null","","test","","","","","",""
"355","173389","pSARL_v2","pSARL_v2vt40b2ru","61006be07e74dd9f144d12f1","freq","img/green_2bandit_a2.png","70","70","test","1","46","46","3","",""
"null","173843","pSARL_v2","pSARL_v2vt40b2ru","61006be07e74dd9f144d12f1","freq_resp","img/green_2bandit_a.png","70","70","test","","","","3","",""
"null","174014","pSARL_v2","pSARL_v2vt40b2ru","61006be07e74dd9f144d12f1","fixation","img/fixation.png","null","","test","","","","","",""
"350","174371","pSARL_v2","pSARL_v2vt40b2ru","61006be07e74dd9f144d12f1","freq","img/green_2bandit_a2.png","70","70","test","1","47","47","3","",""
"null","174835","pSARL_v2","pSARL_v2vt40b2ru","61006be07e74dd9f144d12f1","freq_resp","img/green_2bandit_a.png","70","70","test","","","","3","",""
"null","175007","pSARL_v2","pSARL_v2vt40b2ru","61006be07e74dd9f144d12f1","fixation","img/fixation.png","null","","test","","","","","",""
"324","175337","pSARL_v2","pSARL_v2vt40b2ru","61006be07e74dd9f144d12f1","freq","img/green_2bandit_a2.png","70","70","test","1","48","48","3","",""
"null","175830","pSARL_v2","pSARL_v2vt40b2ru","61006be07e74dd9f144d12f1","freq_resp","img/green_2bandit_a.png","70","70","test","","","","3","",""
"null","176000","pSARL_v2","pSARL_v2vt40b2ru","61006be07e74dd9f144d12f1","fixation","img/fixation.png","null","","test","","","","","",""
"324","176330","pSARL_v2","pSARL_v2vt40b2ru","61006be07e74dd9f144d12f1","infreq","img/orange_2bandit_a2.png","68","68","test","1","49","49","3","",""
"null","176847","pSARL_v2","pSARL_v2vt40b2ru","61006be07e74dd9f144d12f1","infreq_resp","img/orange_2bandit_a.png","68","68","test","","","","3","",""
"null","177019","pSARL_v2","pSARL_v2vt40b2ru","61006be07e74dd9f144d12f1","fixation","img/fixation.png","null","","test","","","","","",""
"357","177381","pSARL_v2","pSARL_v2vt40b2ru","61006be07e74dd9f144d12f1","freq","img/green_2bandit_a2.png","70","70","test","1","50","50","3","",""
"null","177844","pSARL_v2","pSARL_v2vt40b2ru","61006be07e74dd9f144d12f1","freq_resp","img/green_2bandit_a.png","70","70","test","","","","3","",""
"null","178016","pSARL_v2","pSARL_v2vt40b2ru","61006be07e74dd9f144d12f1","fixation","img/fixation.png","null","","test","","","","","",""
"445","178469","pSARL_v2","pSARL_v2vt40b2ru","61006be07e74dd9f144d12f1","freq","img/green_2bandit_a2.png","70","70","test","1","51","51","3","",""
"null","178841","pSARL_v2","pSARL_v2vt40b2ru","61006be07e74dd9f144d12f1","freq_resp","img/green_2bandit_a.png","70","70","test","","","","3","",""
"null","179012","pSARL_v2","pSARL_v2vt40b2ru","61006be07e74dd9f144d12f1","fixation","img/fixation.png","null","","test","","","","","",""
"340","179357","pSARL_v2","pSARL_v2vt40b2ru","61006be07e74dd9f144d12f1","freq","img/green_2bandit_a2.png","70","70","test","1","52","52","3","",""
"null","179838","pSARL_v2","pSARL_v2vt40b2ru","61006be07e74dd9f144d12f1","freq_resp","img/green_2bandit_a.png","70","70","test","","","","3","",""
"null","180008","pSARL_v2","pSARL_v2vt40b2ru","61006be07e74dd9f144d12f1","fixation","img/fixation.png","null","","test","","","","","",""
"343","180356","pSARL_v2","pSARL_v2vt40b2ru","61006be07e74dd9f144d12f1","freq","img/green_2bandit_a2.png","70","70","test","1","53","53","3","",""
"null","180834","pSARL_v2","pSARL_v2vt40b2ru","61006be07e74dd9f144d12f1","freq_resp","img/green_2bandit_a.png","70","70","test","","","","3","",""
"null","181005","pSARL_v2","pSARL_v2vt40b2ru","61006be07e74dd9f144d12f1","fixation","img/fixation.png","null","","test","","","","","",""
"323","181333","pSARL_v2","pSARL_v2vt40b2ru","61006be07e74dd9f144d12f1","freq","img/green_2bandit_a2.png","70","70","test","1","54","54","3","",""
"null","181862","pSARL_v2","pSARL_v2vt40b2ru","61006be07e74dd9f144d12f1","freq_resp","img/green_2bandit_a.png","70","70","test","","","","3","",""
"null","182031","pSARL_v2","pSARL_v2vt40b2ru","61006be07e74dd9f144d12f1","fixation","img/fixation.png","null","","test","","","","","",""
"385","182423","pSARL_v2","pSARL_v2vt40b2ru","61006be07e74dd9f144d12f1","infreq","img/orange_2bandit_a2.png","68","68","test","1","55","55","3","",""
"null","182860","pSARL_v2","pSARL_v2vt40b2ru","61006be07e74dd9f144d12f1","infreq_resp","img/orange_2bandit_a.png","68","68","test","","","","3","",""
"null","183030","pSARL_v2","pSARL_v2vt40b2ru","61006be07e74dd9f144d12f1","fixation","img/fixation.png","null","","test","","","","","",""
"469","183505","pSARL_v2","pSARL_v2vt40b2ru","61006be07e74dd9f144d12f1","freq","img/green_2bandit_a2.png","70","70","test","1","56","56","3","",""
"null","183853","pSARL_v2","pSARL_v2vt40b2ru","61006be07e74dd9f144d12f1","freq_resp","img/green_2bandit_a.png","70","70","test","","","","3","",""
"null","184025","pSARL_v2","pSARL_v2vt40b2ru","61006be07e74dd9f144d12f1","fixation","img/fixation.png","null","","test","","","","","",""
"338","184370","pSARL_v2","pSARL_v2vt40b2ru","61006be07e74dd9f144d12f1","freq","img/green_2bandit_a2.png","70","70","test","1","57","57","3","",""
"null","184869","pSARL_v2","pSARL_v2vt40b2ru","61006be07e74dd9f144d12f1","freq_resp","img/green_2bandit_a.png","70","70","test","","","","3","",""
"null","185037","pSARL_v2","pSARL_v2vt40b2ru","61006be07e74dd9f144d12f1","fixation","img/fixation.png","null","","test","","","","","",""
"335","185377","pSARL_v2","pSARL_v2vt40b2ru","61006be07e74dd9f144d12f1","freq","img/green_2bandit_a2.png","70","70","test","1","58","58","3","",""
"null","185863","pSARL_v2","pSARL_v2vt40b2ru","61006be07e74dd9f144d12f1","freq_resp","img/green_2bandit_a.png","70","70","test","","","","3","",""
"null","186033","pSARL_v2","pSARL_v2vt40b2ru","61006be07e74dd9f144d12f1","fixation","img/fixation.png","null","","test","","","","","",""
"344","186381","pSARL_v2","pSARL_v2vt40b2ru","61006be07e74dd9f144d12f1","freq","img/green_2bandit_a2.png","70","70","test","1","59","59","3","",""
"null","186891","pSARL_v2","pSARL_v2vt40b2ru","61006be07e74dd9f144d12f1","freq_resp","img/green_2bandit_a.png","70","70","test","","","","3","",""
"null","187060","pSARL_v2","pSARL_v2vt40b2ru","61006be07e74dd9f144d12f1","fixation","img/fixation.png","null","","test","","","","","",""
"390","187457","pSARL_v2","pSARL_v2vt40b2ru","61006be07e74dd9f144d12f1","freq","img/green_2bandit_a2.png","70","70","test","1","60","60","3","",""
"null","187886","pSARL_v2","pSARL_v2vt40b2ru","61006be07e74dd9f144d12f1","freq_resp","img/green_2bandit_a.png","70","70","test","","","","3","",""
"null","188055","pSARL_v2","pSARL_v2vt40b2ru","61006be07e74dd9f144d12f1","fixation","img/fixation.png","null","","test","","","","","",""
"346","188407","pSARL_v2","pSARL_v2vt40b2ru","61006be07e74dd9f144d12f1","freq","img/green_2bandit_a2.png","70","70","test","1","61","61","3","",""
"null","188929","pSARL_v2","pSARL_v2vt40b2ru","61006be07e74dd9f144d12f1","freq_resp","img/green_2bandit_a.png","70","70","test","","","","3","",""
"null","189099","pSARL_v2","pSARL_v2vt40b2ru","61006be07e74dd9f144d12f1","fixation","img/fixation.png","null","","test","","","","","",""
"269","189375","pSARL_v2","pSARL_v2vt40b2ru","61006be07e74dd9f144d12f1","freq","img/green_2bandit_a2.png","70","70","test","1","62","62","3","",""
"null","189926","pSARL_v2","pSARL_v2vt40b2ru","61006be07e74dd9f144d12f1","freq_resp","img/green_2bandit_a.png","70","70","test","","","","3","",""
"null","190099","pSARL_v2","pSARL_v2vt40b2ru","61006be07e74dd9f144d12f1","fixation","img/fixation.png","null","","test","","","","","",""
"301","190407","pSARL_v2","pSARL_v2vt40b2ru","61006be07e74dd9f144d12f1","freq","img/green_2bandit_a2.png","70","70","test","1","63","63","3","",""
"null","190956","pSARL_v2","pSARL_v2vt40b2ru","61006be07e74dd9f144d12f1","freq_resp","img/green_2bandit_a.png","70","70","test","","","","3","",""
"null","191125","pSARL_v2","pSARL_v2vt40b2ru","61006be07e74dd9f144d12f1","fixation","img/fixation.png","null","","test","","","","","",""
"331","191462","pSARL_v2","pSARL_v2vt40b2ru","61006be07e74dd9f144d12f1","freq","img/green_2bandit_a2.png","70","70","test","1","64","64","3","",""
"null","191947","pSARL_v2","pSARL_v2vt40b2ru","61006be07e74dd9f144d12f1","freq_resp","img/green_2bandit_a.png","70","70","test","","","","3","",""
"null","192117","pSARL_v2","pSARL_v2vt40b2ru","61006be07e74dd9f144d12f1","fixation","img/fixation.png","null","","test","","","","","",""
"594","192718","pSARL_v2","pSARL_v2vt40b2ru","61006be07e74dd9f144d12f1","reward","img/slot.png","74","","test","","","","","",""
"null","193477","pSARL_v2","pSARL_v2vt40b2ru","61006be07e74dd9f144d12f1","points","<div class=""verylowPoints""> -7 </div>","null","na","test","","","","3","-7","2"
"497","193980","pSARL_v2","pSARL_v2vt40b2ru","61006be07e74dd9f144d12f1","freq","img/green_2bandit_a2.png","70","70","test","1","65","65","4","",""
"null","194300","pSARL_v2","pSARL_v2vt40b2ru","61006be07e74dd9f144d12f1","freq_resp","img/green_2bandit_a.png","70","70","test","","","","4","",""
"null","194469","pSARL_v2","pSARL_v2vt40b2ru","61006be07e74dd9f144d12f1","fixation","img/fixation.png","null","","test","","","","","",""
"439","194915","pSARL_v2","pSARL_v2vt40b2ru","61006be07e74dd9f144d12f1","freq","img/green_2bandit_a2.png","70","70","test","1","66","66","4","",""
"null","195296","pSARL_v2","pSARL_v2vt40b2ru","61006be07e74dd9f144d12f1","freq_resp","img/green_2bandit_a.png","70","70","test","","","","4","",""
"null","195465","pSARL_v2","pSARL_v2vt40b2ru","61006be07e74dd9f144d12f1","fixation","img/fixation.png","null","","test","","","","","",""
"443","195915","pSARL_v2","pSARL_v2vt40b2ru","61006be07e74dd9f144d12f1","freq","img/green_2bandit_a2.png","70","70","test","1","67","67","4","",""
"null","196291","pSARL_v2","pSARL_v2vt40b2ru","61006be07e74dd9f144d12f1","freq_resp","img/green_2bandit_a.png","70","70","test","","","","4","",""
"null","196460","pSARL_v2","pSARL_v2vt40b2ru","61006be07e74dd9f144d12f1","fixation","img/fixation.png","null","","test","","","","","",""
"405","196870","pSARL_v2","pSARL_v2vt40b2ru","61006be07e74dd9f144d12f1","freq","img/green_2bandit_a2.png","70","70","test","1","68","68","4","",""
"null","197274","pSARL_v2","pSARL_v2vt40b2ru","61006be07e74dd9f144d12f1","freq_resp","img/green_2bandit_a.png","70","70","test","","","","4","",""
"null","197432","pSARL_v2","pSARL_v2vt40b2ru","61006be07e74dd9f144d12f1","fixation","img/fixation.png","null","","test","","","","","",""
"373","197812","pSARL_v2","pSARL_v2vt40b2ru","61006be07e74dd9f144d12f1","freq","img/green_2bandit_a2.png","70","70","test","1","69","69","4","",""
"null","198258","pSARL_v2","pSARL_v2vt40b2ru","61006be07e74dd9f144d12f1","freq_resp","img/green_2bandit_a.png","70","70","test","","","","4","",""
"null","198428","pSARL_v2","pSARL_v2vt40b2ru","61006be07e74dd9f144d12f1","fixation","img/fixation.png","null","","test","","","","","",""
"325","198758","pSARL_v2","pSARL_v2vt40b2ru","61006be07e74dd9f144d12f1","freq","img/green_2bandit_a2.png","70","70","test","1","70","70","4","",""
"null","199252","pSARL_v2","pSARL_v2vt40b2ru","61006be07e74dd9f144d12f1","freq_resp","img/green_2bandit_a.png","70","70","test","","","","4","",""
"null","199422","pSARL_v2","pSARL_v2vt40b2ru","61006be07e74dd9f144d12f1","fixation","img/fixation.png","null","","test","","","","","",""
"325","199753","pSARL_v2","pSARL_v2vt40b2ru","61006be07e74dd9f144d12f1","freq","img/green_2bandit_a2.png","70","70","test","1","71","71","4","",""
"null","200247","pSARL_v2","pSARL_v2vt40b2ru","61006be07e74dd9f144d12f1","freq_resp","img/green_2bandit_a.png","70","70","test","","","","4","",""
"null","200417","pSARL_v2","pSARL_v2vt40b2ru","61006be07e74dd9f144d12f1","fixation","img/fixation.png","null","","test","","","","","",""
"353","200776","pSARL_v2","pSARL_v2vt40b2ru","61006be07e74dd9f144d12f1","freq","img/green_2bandit_a2.png","70","70","test","1","72","72","4","",""
"null","201244","pSARL_v2","pSARL_v2vt40b2ru","61006be07e74dd9f144d12f1","freq_resp","img/green_2bandit_a.png","70","70","test","","","","4","",""
"null","201415","pSARL_v2","pSARL_v2vt40b2ru","61006be07e74dd9f144d12f1","fixation","img/fixation.png","null","","test","","","","","",""
"332","201753","pSARL_v2","pSARL_v2vt40b2ru","61006be07e74dd9f144d12f1","freq","img/green_2bandit_a2.png","70","70","test","1","73","73","4","",""
"null","202239","pSARL_v2","pSARL_v2vt40b2ru","61006be07e74dd9f144d12f1","freq_resp","img/green_2bandit_a.png","70","70","test","","","","4","",""
"null","202411","pSARL_v2","pSARL_v2vt40b2ru","61006be07e74dd9f144d12f1","fixation","img/fixation.png","null","","test","","","","","",""
"307","202724","pSARL_v2","pSARL_v2vt40b2ru","61006be07e74dd9f144d12f1","freq","img/green_2bandit_a2.png","70","70","test","1","74","74","4","",""
"null","203235","pSARL_v2","pSARL_v2vt40b2ru","61006be07e74dd9f144d12f1","freq_resp","img/green_2bandit_a.png","70","70","test","","","","4","",""
"null","203405","pSARL_v2","pSARL_v2vt40b2ru","61006be07e74dd9f144d12f1","fixation","img/fixation.png","null","","test","","","","","",""
"357","203767","pSARL_v2","pSARL_v2vt40b2ru","61006be07e74dd9f144d12f1","infreq","img/orange_2bandit_a2.png","68","68","test","1","75","75","4","",""
"null","204232","pSARL_v2","pSARL_v2vt40b2ru","61006be07e74dd9f144d12f1","infreq_resp","img/orange_2bandit_a.png","68","68","test","","","","4","",""
"null","204402","pSARL_v2","pSARL_v2vt40b2ru","61006be07e74dd9f144d12f1","fixation","img/fixation.png","null","","test","","","","","",""
"330","204739","pSARL_v2","pSARL_v2vt40b2ru","61006be07e74dd9f144d12f1","freq","img/green_2bandit_a2.png","70","70","test","1","76","76","4","",""
"null","205227","pSARL_v2","pSARL_v2vt40b2ru","61006be07e74dd9f144d12f1","freq_resp","img/green_2bandit_a.png","70","70","test","","","","4","",""
"null","205399","pSARL_v2","pSARL_v2vt40b2ru","61006be07e74dd9f144d12f1","fixation","img/fixation.png","null","","test","","","","","",""
"331","205734","pSARL_v2","pSARL_v2vt40b2ru","61006be07e74dd9f144d12f1","freq","img/green_2bandit_a2.png","70","70","test","1","77","77","4","",""
"null","206241","pSARL_v2","pSARL_v2vt40b2ru","61006be07e74dd9f144d12f1","freq_resp","img/green_2bandit_a.png","70","70","test","","","","4","",""
"null","206413","pSARL_v2","pSARL_v2vt40b2ru","61006be07e74dd9f144d12f1","fixation","img/fixation.png","null","","test","","","","","",""
"350","206769","pSARL_v2","pSARL_v2vt40b2ru","61006be07e74dd9f144d12f1","freq","img/green_2bandit_a2.png","70","70","test","1","78","78","4","",""
"null","207236","pSARL_v2","pSARL_v2vt40b2ru","61006be07e74dd9f144d12f1","freq_resp","img/green_2bandit_a.png","70","70","test","","","","4","",""
"null","207408","pSARL_v2","pSARL_v2vt40b2ru","61006be07e74dd9f144d12f1","fixation","img/fixation.png","null","","test","","","","","",""
"368","207783","pSARL_v2","pSARL_v2vt40b2ru","61006be07e74dd9f144d12f1","infreq","img/orange_2bandit_a2.png","68","68","test","1","79","79","4","",""
"null","208279","pSARL_v2","pSARL_v2vt40b2ru","61006be07e74dd9f144d12f1","infreq_resp","img/orange_2bandit_a.png","68","68","test","","","","4","",""
"null","208450","pSARL_v2","pSARL_v2vt40b2ru","61006be07e74dd9f144d12f1","fixation","img/fixation.png","null","","test","","","","","",""
"339","208796","pSARL_v2","pSARL_v2vt40b2ru","61006be07e74dd9f144d12f1","freq","img/green_2bandit_a2.png","70","70","test","1","80","80","4","",""
"null","209275","pSARL_v2","pSARL_v2vt40b2ru","61006be07e74dd9f144d12f1","freq_resp","img/green_2bandit_a.png","70","70","test","","","","4","",""
"null","209448","pSARL_v2","pSARL_v2vt40b2ru","61006be07e74dd9f144d12f1","fixation","img/fixation.png","null","","test","","","","","",""
"363","209819","pSARL_v2","pSARL_v2vt40b2ru","61006be07e74dd9f144d12f1","freq","img/green_2bandit_a2.png","70","70","test","1","81","81","4","",""
"null","210306","pSARL_v2","pSARL_v2vt40b2ru","61006be07e74dd9f144d12f1","freq_resp","img/green_2bandit_a.png","70","70","test","","","","4","",""
"null","210478","pSARL_v2","pSARL_v2vt40b2ru","61006be07e74dd9f144d12f1","fixation","img/fixation.png","null","","test","","","","","",""
"269","210753","pSARL_v2","pSARL_v2vt40b2ru","61006be07e74dd9f144d12f1","freq","img/green_2bandit_a2.png","70","70","test","1","82","82","4","",""
"null","211301","pSARL_v2","pSARL_v2vt40b2ru","61006be07e74dd9f144d12f1","freq_resp","img/green_2bandit_a.png","70","70","test","","","","4","",""
"null","211459","pSARL_v2","pSARL_v2vt40b2ru","61006be07e74dd9f144d12f1","fixation","img/fixation.png","null","","test","","","","","",""
"299","211762","pSARL_v2","pSARL_v2vt40b2ru","61006be07e74dd9f144d12f1","freq","img/green_2bandit_a2.png","70","70","test","1","83","83","4","",""
"null","212317","pSARL_v2","pSARL_v2vt40b2ru","61006be07e74dd9f144d12f1","freq_resp","img/green_2bandit_a.png","70","70","test","","","","4","",""
"null","212488","pSARL_v2","pSARL_v2vt40b2ru","61006be07e74dd9f144d12f1","fixation","img/fixation.png","null","","test","","","","","",""
"367","212862","pSARL_v2","pSARL_v2vt40b2ru","61006be07e74dd9f144d12f1","freq","img/green_2bandit_a2.png","70","70","test","1","84","84","4","",""
"null","213310","pSARL_v2","pSARL_v2vt40b2ru","61006be07e74dd9f144d12f1","freq_resp","img/green_2bandit_a.png","70","70","test","","","","4","",""
"null","213480","pSARL_v2","pSARL_v2vt40b2ru","61006be07e74dd9f144d12f1","fixation","img/fixation.png","null","","test","","","","","",""
"341","213828","pSARL_v2","pSARL_v2vt40b2ru","61006be07e74dd9f144d12f1","freq","img/green_2bandit_a2.png","70","70","test","1","85","85","4","",""
"null","214338","pSARL_v2","pSARL_v2vt40b2ru","61006be07e74dd9f144d12f1","freq_resp","img/green_2bandit_a.png","70","70","test","","","","4","",""
"null","214508","pSARL_v2","pSARL_v2vt40b2ru","61006be07e74dd9f144d12f1","fixation","img/fixation.png","null","","test","","","","","",""
"314","214829","pSARL_v2","pSARL_v2vt40b2ru","61006be07e74dd9f144d12f1","freq","img/green_2bandit_a2.png","70","70","test","1","86","86","4","",""
"null","215333","pSARL_v2","pSARL_v2vt40b2ru","61006be07e74dd9f144d12f1","freq_resp","img/green_2bandit_a.png","70","70","test","","","","4","",""
"null","215503","pSARL_v2","pSARL_v2vt40b2ru","61006be07e74dd9f144d12f1","fixation","img/fixation.png","null","","test","","","","","",""
"295","215805","pSARL_v2","pSARL_v2vt40b2ru","61006be07e74dd9f144d12f1","freq","img/green_2bandit_a2.png","70","70","test","1","87","87","4","",""
"null","216357","pSARL_v2","pSARL_v2vt40b2ru","61006be07e74dd9f144d12f1","freq_resp","img/green_2bandit_a.png","70","70","test","","","","4","",""
"null","216529","pSARL_v2","pSARL_v2vt40b2ru","61006be07e74dd9f144d12f1","fixation","img/fixation.png","null","","test","","","","","",""
"303","216838","pSARL_v2","pSARL_v2vt40b2ru","61006be07e74dd9f144d12f1","freq","img/green_2bandit_a2.png","70","70","test","1","88","88","4","",""
"null","217354","pSARL_v2","pSARL_v2vt40b2ru","61006be07e74dd9f144d12f1","freq_resp","img/green_2bandit_a.png","70","70","test","","","","4","",""
"null","217524","pSARL_v2","pSARL_v2vt40b2ru","61006be07e74dd9f144d12f1","fixation","img/fixation.png","null","","test","","","","","",""
"460","217989","pSARL_v2","pSARL_v2vt40b2ru","61006be07e74dd9f144d12f1","reward","img/slot.png","74","","test","","","","","",""
"null","218756","pSARL_v2","pSARL_v2vt40b2ru","61006be07e74dd9f144d12f1","points","<div class=""verylowPoints""> -3 </div>","null","na","test","","","","4","-3","3"
"284","219048","pSARL_v2","pSARL_v2vt40b2ru","61006be07e74dd9f144d12f1","freq","img/green_2bandit_a2.png","70","70","test","1","89","89","5","",""
"null","219582","pSARL_v2","pSARL_v2vt40b2ru","61006be07e74dd9f144d12f1","freq_resp","img/green_2bandit_a.png","70","70","test","","","","5","",""
"null","219752","pSARL_v2","pSARL_v2vt40b2ru","61006be07e74dd9f144d12f1","fixation","img/fixation.png","null","","test","","","","","",""
"278","220035","pSARL_v2","pSARL_v2vt40b2ru","61006be07e74dd9f144d12f1","freq","img/green_2bandit_a2.png","70","70","test","1","90","90","5","",""
"null","220577","pSARL_v2","pSARL_v2vt40b2ru","61006be07e74dd9f144d12f1","freq_resp","img/green_2bandit_a.png","70","70","test","","","","5","",""
"null","220750","pSARL_v2","pSARL_v2vt40b2ru","61006be07e74dd9f144d12f1","fixation","img/fixation.png","null","","test","","","","","",""
"313","221069","pSARL_v2","pSARL_v2vt40b2ru","61006be07e74dd9f144d12f1","freq","img/green_2bandit_a2.png","70","70","test","1","91","91","5","",""
"null","221577","pSARL_v2","pSARL_v2vt40b2ru","61006be07e74dd9f144d12f1","freq_resp","img/green_2bandit_a.png","70","70","test","","","","5","",""
"null","221748","pSARL_v2","pSARL_v2vt40b2ru","61006be07e74dd9f144d12f1","fixation","img/fixation.png","null","","test","","","","","",""
"314","222067","pSARL_v2","pSARL_v2vt40b2ru","61006be07e74dd9f144d12f1","freq","img/green_2bandit_a2.png","70","70","test","1","92","92","5","",""
"null","222573","pSARL_v2","pSARL_v2vt40b2ru","61006be07e74dd9f144d12f1","freq_resp","img/green_2bandit_a.png","70","70","test","","","","5","",""
"null","222745","pSARL_v2","pSARL_v2vt40b2ru","61006be07e74dd9f144d12f1","fixation","img/fixation.png","null","","test","","","","","",""
"335","223086","pSARL_v2","pSARL_v2vt40b2ru","61006be07e74dd9f144d12f1","freq","img/green_2bandit_a2.png","70","70","test","1","93","93","5","",""
"null","223571","pSARL_v2","pSARL_v2vt40b2ru","61006be07e74dd9f144d12f1","freq_resp","img/green_2bandit_a.png","70","70","test","","","","5","",""
"null","223744","pSARL_v2","pSARL_v2vt40b2ru","61006be07e74dd9f144d12f1","fixation","img/fixation.png","null","","test","","","","","",""
"300","224050","pSARL_v2","pSARL_v2vt40b2ru","61006be07e74dd9f144d12f1","freq","img/green_2bandit_a2.png","70","70","test","1","94","94","5","",""
"null","224567","pSARL_v2","pSARL_v2vt40b2ru","61006be07e74dd9f144d12f1","freq_resp","img/green_2bandit_a.png","70","70","test","","","","5","",""
"null","224740","pSARL_v2","pSARL_v2vt40b2ru","61006be07e74dd9f144d12f1","fixation","img/fixation.png","null","","test","","","","","",""
"344","225090","pSARL_v2","pSARL_v2vt40b2ru","61006be07e74dd9f144d12f1","freq","img/green_2bandit_a2.png","70","70","test","1","95","95","5","",""
"null","225567","pSARL_v2","pSARL_v2vt40b2ru","61006be07e74dd9f144d12f1","freq_resp","img/green_2bandit_a.png","70","70","test","","","","5","",""
"null","225739","pSARL_v2","pSARL_v2vt40b2ru","61006be07e74dd9f144d12f1","fixation","img/fixation.png","null","","test","","","","","",""
"301","226046","pSARL_v2","pSARL_v2vt40b2ru","61006be07e74dd9f144d12f1","freq","img/green_2bandit_a2.png","70","70","test","1","96","96","5","",""
"null","226566","pSARL_v2","pSARL_v2vt40b2ru","61006be07e74dd9f144d12f1","freq_resp","img/green_2bandit_a.png","70","70","test","","","","5","",""
"null","226725","pSARL_v2","pSARL_v2vt40b2ru","61006be07e74dd9f144d12f1","fixation","img/fixation.png","null","","test","","","","","",""
"286","227018","pSARL_v2","pSARL_v2vt40b2ru","61006be07e74dd9f144d12f1","freq","img/green_2bandit_a2.png","70","70","test","1","97","97","5","",""
"null","227566","pSARL_v2","pSARL_v2vt40b2ru","61006be07e74dd9f144d12f1","freq_resp","img/green_2bandit_a.png","70","70","test","","","","5","",""
"null","227737","pSARL_v2","pSARL_v2vt40b2ru","61006be07e74dd9f144d12f1","fixation","img/fixation.png","null","","test","","","","","",""
"279","228022","pSARL_v2","pSARL_v2vt40b2ru","61006be07e74dd9f144d12f1","freq","img/green_2bandit_a2.png","70","70","test","1","98","98","5","",""
"null","228562","pSARL_v2","pSARL_v2vt40b2ru","61006be07e74dd9f144d12f1","freq_resp","img/green_2bandit_a.png","70","70","test","","","","5","",""
"null","228721","pSARL_v2","pSARL_v2vt40b2ru","61006be07e74dd9f144d12f1","fixation","img/fixation.png","null","","test","","","","","",""
"383","229110","pSARL_v2","pSARL_v2vt40b2ru","61006be07e74dd9f144d12f1","infreq","img/orange_2bandit_a2.png","68","68","test","1","99","99","5","",""
"null","229544","pSARL_v2","pSARL_v2vt40b2ru","61006be07e74dd9f144d12f1","infreq_resp","img/orange_2bandit_a.png","68","68","test","","","","5","",""
"null","229701","pSARL_v2","pSARL_v2vt40b2ru","61006be07e74dd9f144d12f1","fixation","img/fixation.png","null","","test","","","","","",""
"380","230089","pSARL_v2","pSARL_v2vt40b2ru","61006be07e74dd9f144d12f1","infreq","img/orange_2bandit_a2.png","68","68","test","1","100","100","5","",""
"null","230529","pSARL_v2","pSARL_v2vt40b2ru","61006be07e74dd9f144d12f1","infreq_resp","img/orange_2bandit_a.png","68","68","test","","","","5","",""
"null","230699","pSARL_v2","pSARL_v2vt40b2ru","61006be07e74dd9f144d12f1","fixation","img/fixation.png","null","","test","","","","","",""
"336","231042","pSARL_v2","pSARL_v2vt40b2ru","61006be07e74dd9f144d12f1","freq","img/green_2bandit_a2.png","70","70","test","1","101","101","5","",""
"null","231524","pSARL_v2","pSARL_v2vt40b2ru","61006be07e74dd9f144d12f1","freq_resp","img/green_2bandit_a.png","70","70","test","","","","5","",""
"null","231694","pSARL_v2","pSARL_v2vt40b2ru","61006be07e74dd9f144d12f1","fixation","img/fixation.png","null","","test","","","","","",""
"285","231986","pSARL_v2","pSARL_v2vt40b2ru","61006be07e74dd9f144d12f1","freq","img/green_2bandit_a2.png","70","70","test","1","102","102","5","",""
"null","232520","pSARL_v2","pSARL_v2vt40b2ru","61006be07e74dd9f144d12f1","freq_resp","img/green_2bandit_a.png","70","70","test","","","","5","",""
"null","232689","pSARL_v2","pSARL_v2vt40b2ru","61006be07e74dd9f144d12f1","fixation","img/fixation.png","null","","test","","","","","",""
"320","233016","pSARL_v2","pSARL_v2vt40b2ru","61006be07e74dd9f144d12f1","freq","img/green_2bandit_a2.png","70","70","test","1","103","103","5","",""
"null","233515","pSARL_v2","pSARL_v2vt40b2ru","61006be07e74dd9f144d12f1","freq_resp","img/green_2bandit_a.png","70","70","test","","","","5","",""
"null","233687","pSARL_v2","pSARL_v2vt40b2ru","61006be07e74dd9f144d12f1","fixation","img/fixation.png","null","","test","","","","","",""
"287","233981","pSARL_v2","pSARL_v2vt40b2ru","61006be07e74dd9f144d12f1","freq","img/green_2bandit_a2.png","70","70","test","1","104","104","5","",""
"null","234514","pSARL_v2","pSARL_v2vt40b2ru","61006be07e74dd9f144d12f1","freq_resp","img/green_2bandit_a.png","70","70","test","","","","5","",""
"null","234683","pSARL_v2","pSARL_v2vt40b2ru","61006be07e74dd9f144d12f1","fixation","img/fixation.png","null","","test","","","","","",""
"287","234976","pSARL_v2","pSARL_v2vt40b2ru","61006be07e74dd9f144d12f1","freq","img/green_2bandit_a2.png","70","70","test","1","105","105","5","",""
"null","235529","pSARL_v2","pSARL_v2vt40b2ru","61006be07e74dd9f144d12f1","freq_resp","img/green_2bandit_a.png","70","70","test","","","","5","",""
"null","235698","pSARL_v2","pSARL_v2vt40b2ru","61006be07e74dd9f144d12f1","fixation","img/fixation.png","null","","test","","","","","",""
"293","235998","pSARL_v2","pSARL_v2vt40b2ru","61006be07e74dd9f144d12f1","freq","img/green_2bandit_a2.png","70","70","test","1","106","106","5","",""
"null","236521","pSARL_v2","pSARL_v2vt40b2ru","61006be07e74dd9f144d12f1","freq_resp","img/green_2bandit_a.png","70","70","test","","","","5","",""
"null","236692","pSARL_v2","pSARL_v2vt40b2ru","61006be07e74dd9f144d12f1","fixation","img/fixation.png","null","","test","","","","","",""
"271","236968","pSARL_v2","pSARL_v2vt40b2ru","61006be07e74dd9f144d12f1","freq","img/green_2bandit_a2.png","70","70","test","1","107","107","5","",""
"null","237561","pSARL_v2","pSARL_v2vt40b2ru","61006be07e74dd9f144d12f1","freq_resp","img/green_2bandit_a.png","70","70","test","","","","5","",""
"null","237731","pSARL_v2","pSARL_v2vt40b2ru","61006be07e74dd9f144d12f1","fixation","img/fixation.png","null","","test","","","","","",""
"261","237996","pSARL_v2","pSARL_v2vt40b2ru","61006be07e74dd9f144d12f1","freq","img/green_2bandit_a2.png","70","70","test","1","108","108","5","",""
"null","238558","pSARL_v2","pSARL_v2vt40b2ru","61006be07e74dd9f144d12f1","freq_resp","img/green_2bandit_a.png","70","70","test","","","","5","",""
"null","238729","pSARL_v2","pSARL_v2vt40b2ru","61006be07e74dd9f144d12f1","fixation","img/fixation.png","null","","test","","","","","",""
"274","239008","pSARL_v2","pSARL_v2vt40b2ru","61006be07e74dd9f144d12f1","freq","img/green_2bandit_a2.png","70","70","test","1","109","109","5","",""
"null","239587","pSARL_v2","pSARL_v2vt40b2ru","61006be07e74dd9f144d12f1","freq_resp","img/green_2bandit_a.png","70","70","test","","","","5","",""
"null","239759","pSARL_v2","pSARL_v2vt40b2ru","61006be07e74dd9f144d12f1","fixation","img/fixation.png","null","","test","","","","","",""
"280","240046","pSARL_v2","pSARL_v2vt40b2ru","61006be07e74dd9f144d12f1","freq","img/green_2bandit_a2.png","70","70","test","1","110","110","5","",""
"null","240584","pSARL_v2","pSARL_v2vt40b2ru","61006be07e74dd9f144d12f1","freq_resp","img/green_2bandit_a.png","70","70","test","","","","5","",""
"null","240755","pSARL_v2","pSARL_v2vt40b2ru","61006be07e74dd9f144d12f1","fixation","img/fixation.png","null","","test","","","","","",""
"314","241076","pSARL_v2","pSARL_v2vt40b2ru","61006be07e74dd9f144d12f1","freq","img/green_2bandit_a2.png","70","70","test","1","111","111","5","",""
"null","241596","pSARL_v2","pSARL_v2vt40b2ru","61006be07e74dd9f144d12f1","freq_resp","img/green_2bandit_a.png","70","70","test","","","","5","",""
"null","241766","pSARL_v2","pSARL_v2vt40b2ru","61006be07e74dd9f144d12f1","fixation","img/fixation.png","null","","test","","","","","",""
"521","242294","pSARL_v2","pSARL_v2vt40b2ru","61006be07e74dd9f144d12f1","reward","img/slot.png","74","","test","","","","","",""
"null","243062","pSARL_v2","pSARL_v2vt40b2ru","61006be07e74dd9f144d12f1","points","<div class=""veryhighPoints""> +1 </div>","null","na","test","","","","5","1","4"
"307","243375","pSARL_v2","pSARL_v2vt40b2ru","61006be07e74dd9f144d12f1","freq","img/green_2bandit_a2.png","70","70","test","1","112","112","6","",""
"null","243889","pSARL_v2","pSARL_v2vt40b2ru","61006be07e74dd9f144d12f1","freq_resp","img/green_2bandit_a.png","70","70","test","","","","6","",""
"null","244061","pSARL_v2","pSARL_v2vt40b2ru","61006be07e74dd9f144d12f1","fixation","img/fixation.png","null","","test","","","","","",""
"397","244464","pSARL_v2","pSARL_v2vt40b2ru","61006be07e74dd9f144d12f1","freq","img/green_2bandit_a2.png","70","70","test","1","113","113","6","",""
"null","244886","pSARL_v2","pSARL_v2vt40b2ru","61006be07e74dd9f144d12f1","freq_resp","img/green_2bandit_a.png","70","70","test","","","","6","",""
"null","245057","pSARL_v2","pSARL_v2vt40b2ru","61006be07e74dd9f144d12f1","fixation","img/fixation.png","null","","test","","","","","",""
"464","245527","pSARL_v2","pSARL_v2vt40b2ru","61006be07e74dd9f144d12f1","freq","img/green_2bandit_a2.png","70","70","test","1","114","114","6","",""
"null","245901","pSARL_v2","pSARL_v2vt40b2ru","61006be07e74dd9f144d12f1","freq_resp","img/green_2bandit_a.png","70","70","test","","","","6","",""
"null","246071","pSARL_v2","pSARL_v2vt40b2ru","61006be07e74dd9f144d12f1","fixation","img/fixation.png","null","","test","","","","","",""
"353","246430","pSARL_v2","pSARL_v2vt40b2ru","61006be07e74dd9f144d12f1","freq","img/green_2bandit_a2.png","70","70","test","1","115","115","6","",""
"null","246897","pSARL_v2","pSARL_v2vt40b2ru","61006be07e74dd9f144d12f1","freq_resp","img/green_2bandit_a.png","70","70","test","","","","6","",""
"null","247065","pSARL_v2","pSARL_v2vt40b2ru","61006be07e74dd9f144d12f1","fixation","img/fixation.png","null","","test","","","","","",""
"390","247459","pSARL_v2","pSARL_v2vt40b2ru","61006be07e74dd9f144d12f1","infreq","img/orange_2bandit_a2.png","68","68","test","1","116","116","6","",""
"null","247924","pSARL_v2","pSARL_v2vt40b2ru","61006be07e74dd9f144d12f1","infreq_resp","img/orange_2bandit_a.png","68","68","test","","","","6","",""
"null","248096","pSARL_v2","pSARL_v2vt40b2ru","61006be07e74dd9f144d12f1","fixation","img/fixation.png","null","","test","","","","","",""
"388","248491","pSARL_v2","pSARL_v2vt40b2ru","61006be07e74dd9f144d12f1","freq","img/green_2bandit_a2.png","70","70","test","1","117","117","6","",""
"null","248917","pSARL_v2","pSARL_v2vt40b2ru","61006be07e74dd9f144d12f1","freq_resp","img/green_2bandit_a.png","70","70","test","","","","6","",""
"null","249088","pSARL_v2","pSARL_v2vt40b2ru","61006be07e74dd9f144d12f1","fixation","img/fixation.png","null","","test","","","","","",""
"392","249485","pSARL_v2","pSARL_v2vt40b2ru","61006be07e74dd9f144d12f1","freq","img/green_2bandit_a2.png","70","70","test","1","118","118","6","",""
"null","249932","pSARL_v2","pSARL_v2vt40b2ru","61006be07e74dd9f144d12f1","freq_resp","img/green_2bandit_a.png","70","70","test","","","","6","",""
"null","250104","pSARL_v2","pSARL_v2vt40b2ru","61006be07e74dd9f144d12f1","fixation","img/fixation.png","null","","test","","","","","",""
"369","250479","pSARL_v2","pSARL_v2vt40b2ru","61006be07e74dd9f144d12f1","freq","img/green_2bandit_a2.png","70","70","test","1","119","119","6","",""
"null","250927","pSARL_v2","pSARL_v2vt40b2ru","61006be07e74dd9f144d12f1","freq_resp","img/green_2bandit_a.png","70","70","test","","","","6","",""
"null","251097","pSARL_v2","pSARL_v2vt40b2ru","61006be07e74dd9f144d12f1","fixation","img/fixation.png","null","","test","","","","","",""
"368","251473","pSARL_v2","pSARL_v2vt40b2ru","61006be07e74dd9f144d12f1","freq","img/green_2bandit_a2.png","70","70","test","1","120","120","6","",""
"null","251955","pSARL_v2","pSARL_v2vt40b2ru","61006be07e74dd9f144d12f1","freq_resp","img/green_2bandit_a.png","70","70","test","","","","6","",""
"null","252113","pSARL_v2","pSARL_v2vt40b2ru","61006be07e74dd9f144d12f1","fixation","img/fixation.png","null","","test","","","","","",""
"324","252441","pSARL_v2","pSARL_v2vt40b2ru","61006be07e74dd9f144d12f1","freq","img/green_2bandit_a2.png","70","70","test","1","121","121","6","",""
"null","252938","pSARL_v2","pSARL_v2vt40b2ru","61006be07e74dd9f144d12f1","freq_resp","img/green_2bandit_a.png","70","70","test","","","","6","",""
"null","253110","pSARL_v2","pSARL_v2vt40b2ru","61006be07e74dd9f144d12f1","fixation","img/fixation.png","null","","test","","","","","",""
"431","253548","pSARL_v2","pSARL_v2vt40b2ru","61006be07e74dd9f144d12f1","infreq","img/orange_2bandit_a2.png","68","68","test","1","122","122","6","",""
"null","253967","pSARL_v2","pSARL_v2vt40b2ru","61006be07e74dd9f144d12f1","infreq_resp","img/orange_2bandit_a.png","68","68","test","","","","6","",""
"null","254136","pSARL_v2","pSARL_v2vt40b2ru","61006be07e74dd9f144d12f1","fixation","img/fixation.png","null","","test","","","","","",""
"374","254515","pSARL_v2","pSARL_v2vt40b2ru","61006be07e74dd9f144d12f1","freq","img/green_2bandit_a2.png","70","70","test","1","123","123","6","",""
"null","254964","pSARL_v2","pSARL_v2vt40b2ru","61006be07e74dd9f144d12f1","freq_resp","img/green_2bandit_a.png","70","70","test","","","","6","",""
"null","255134","pSARL_v2","pSARL_v2vt40b2ru","61006be07e74dd9f144d12f1","fixation","img/fixation.png","null","","test","","","","","",""
"359","255500","pSARL_v2","pSARL_v2vt40b2ru","61006be07e74dd9f144d12f1","infreq","img/orange_2bandit_a2.png","68","68","test","1","124","124","6","",""
"null","255996","pSARL_v2","pSARL_v2vt40b2ru","61006be07e74dd9f144d12f1","infreq_resp","img/orange_2bandit_a.png","68","68","test","","","","6","",""
"null","256165","pSARL_v2","pSARL_v2vt40b2ru","61006be07e74dd9f144d12f1","fixation","img/fixation.png","null","","test","","","","","",""
"337","256507","pSARL_v2","pSARL_v2vt40b2ru","61006be07e74dd9f144d12f1","freq","img/green_2bandit_a2.png","70","70","test","1","125","125","6","",""
"null","256993","pSARL_v2","pSARL_v2vt40b2ru","61006be07e74dd9f144d12f1","freq_resp","img/green_2bandit_a.png","70","70","test","","","","6","",""
"null","257165","pSARL_v2","pSARL_v2vt40b2ru","61006be07e74dd9f144d12f1","fixation","img/fixation.png","null","","test","","","","","",""
"359","257530","pSARL_v2","pSARL_v2vt40b2ru","61006be07e74dd9f144d12f1","freq","img/green_2bandit_a2.png","70","70","test","1","126","126","6","",""
"null","258021","pSARL_v2","pSARL_v2vt40b2ru","61006be07e74dd9f144d12f1","freq_resp","img/green_2bandit_a.png","70","70","test","","","","6","",""
"null","258191","pSARL_v2","pSARL_v2vt40b2ru","61006be07e74dd9f144d12f1","fixation","img/fixation.png","null","","test","","","","","",""
"366","258562","pSARL_v2","pSARL_v2vt40b2ru","61006be07e74dd9f144d12f1","freq","img/green_2bandit_a2.png","70","70","test","1","127","127","6","",""
"null","259018","pSARL_v2","pSARL_v2vt40b2ru","61006be07e74dd9f144d12f1","freq_resp","img/green_2bandit_a.png","70","70","test","","","","6","",""
"null","259190","pSARL_v2","pSARL_v2vt40b2ru","61006be07e74dd9f144d12f1","fixation","img/fixation.png","null","","test","","","","","",""
"379","259576","pSARL_v2","pSARL_v2vt40b2ru","61006be07e74dd9f144d12f1","freq","img/green_2bandit_a2.png","70","70","test","1","128","128","6","",""
"null","260044","pSARL_v2","pSARL_v2vt40b2ru","61006be07e74dd9f144d12f1","freq_resp","img/green_2bandit_a.png","70","70","test","","","","6","",""
"null","260216","pSARL_v2","pSARL_v2vt40b2ru","61006be07e74dd9f144d12f1","fixation","img/fixation.png","null","","test","","","","","",""
"356","260577","pSARL_v2","pSARL_v2vt40b2ru","61006be07e74dd9f144d12f1","freq","img/green_2bandit_a2.png","70","70","test","1","129","129","6","",""
"null","261042","pSARL_v2","pSARL_v2vt40b2ru","61006be07e74dd9f144d12f1","freq_resp","img/green_2bandit_a.png","70","70","test","","","","6","",""
"null","261214","pSARL_v2","pSARL_v2vt40b2ru","61006be07e74dd9f144d12f1","fixation","img/fixation.png","null","","test","","","","","",""
"360","261581","pSARL_v2","pSARL_v2vt40b2ru","61006be07e74dd9f144d12f1","freq","img/green_2bandit_a2.png","70","70","test","1","130","130","6","",""
"null","262068","pSARL_v2","pSARL_v2vt40b2ru","61006be07e74dd9f144d12f1","freq_resp","img/green_2bandit_a.png","70","70","test","","","","6","",""
"null","262239","pSARL_v2","pSARL_v2vt40b2ru","61006be07e74dd9f144d12f1","fixation","img/fixation.png","null","","test","","","","","",""
"340","262585","pSARL_v2","pSARL_v2vt40b2ru","61006be07e74dd9f144d12f1","freq","img/green_2bandit_a2.png","70","70","test","1","131","131","6","",""
"null","263095","pSARL_v2","pSARL_v2vt40b2ru","61006be07e74dd9f144d12f1","freq_resp","img/green_2bandit_a.png","70","70","test","","","","6","",""
"null","263267","pSARL_v2","pSARL_v2vt40b2ru","61006be07e74dd9f144d12f1","fixation","img/fixation.png","null","","test","","","","","",""
"352","263625","pSARL_v2","pSARL_v2vt40b2ru","61006be07e74dd9f144d12f1","freq","img/green_2bandit_a2.png","70","70","test","1","132","132","6","",""
"null","264092","pSARL_v2","pSARL_v2vt40b2ru","61006be07e74dd9f144d12f1","freq_resp","img/green_2bandit_a.png","70","70","test","","","","6","",""
"null","264263","pSARL_v2","pSARL_v2vt40b2ru","61006be07e74dd9f144d12f1","fixation","img/fixation.png","null","","test","","","","","",""
"445","264715","pSARL_v2","pSARL_v2vt40b2ru","61006be07e74dd9f144d12f1","freq","img/green_2bandit_a2.png","70","70","test","1","133","133","6","",""
"null","265089","pSARL_v2","pSARL_v2vt40b2ru","61006be07e74dd9f144d12f1","freq_resp","img/green_2bandit_a.png","70","70","test","","","","6","",""
"null","265260","pSARL_v2","pSARL_v2vt40b2ru","61006be07e74dd9f144d12f1","fixation","img/fixation.png","null","","test","","","","","",""
"442","265708","pSARL_v2","pSARL_v2vt40b2ru","61006be07e74dd9f144d12f1","reward","img/slot.png","74","","test","","","","","",""
"null","266475","pSARL_v2","pSARL_v2vt40b2ru","61006be07e74dd9f144d12f1","points","<div class=""verylowPoints""> -7 </div>","null","na","test","","","","6","-7","5"
"313","266792","pSARL_v2","pSARL_v2vt40b2ru","61006be07e74dd9f144d12f1","freq","img/green_2bandit_a2.png","70","70","test","1","134","134","7","",""
"null","267299","pSARL_v2","pSARL_v2vt40b2ru","61006be07e74dd9f144d12f1","freq_resp","img/green_2bandit_a.png","70","70","test","","","","7","",""
"null","267459","pSARL_v2","pSARL_v2vt40b2ru","61006be07e74dd9f144d12f1","fixation","img/fixation.png","null","","test","","","","","",""
"389","267856","pSARL_v2","pSARL_v2vt40b2ru","61006be07e74dd9f144d12f1","freq","img/green_2bandit_a2.png","70","70","test","1","135","135","7","",""
"null","268282","pSARL_v2","pSARL_v2vt40b2ru","61006be07e74dd9f144d12f1","freq_resp","img/green_2bandit_a.png","70","70","test","","","","7","",""
"null","268452","pSARL_v2","pSARL_v2vt40b2ru","61006be07e74dd9f144d12f1","fixation","img/fixation.png","null","","test","","","","","",""
"392","268849","pSARL_v2","pSARL_v2vt40b2ru","61006be07e74dd9f144d12f1","freq","img/green_2bandit_a2.png","70","70","test","1","136","136","7","",""
"null","269279","pSARL_v2","pSARL_v2vt40b2ru","61006be07e74dd9f144d12f1","freq_resp","img/green_2bandit_a.png","70","70","test","","","","7","",""
"null","269452","pSARL_v2","pSARL_v2vt40b2ru","61006be07e74dd9f144d12f1","fixation","img/fixation.png","null","","test","","","","","",""
"370","269827","pSARL_v2","pSARL_v2vt40b2ru","61006be07e74dd9f144d12f1","freq","img/green_2bandit_a2.png","70","70","test","1","137","137","7","",""
"null","270274","pSARL_v2","pSARL_v2vt40b2ru","61006be07e74dd9f144d12f1","freq_resp","img/green_2bandit_a.png","70","70","test","","","","7","",""
"null","270447","pSARL_v2","pSARL_v2vt40b2ru","61006be07e74dd9f144d12f1","fixation","img/fixation.png","null","","test","","","","","",""
"369","270823","pSARL_v2","pSARL_v2vt40b2ru","61006be07e74dd9f144d12f1","freq","img/green_2bandit_a2.png","70","70","test","1","138","138","7","",""
"null","271270","pSARL_v2","pSARL_v2vt40b2ru","61006be07e74dd9f144d12f1","freq_resp","img/green_2bandit_a.png","70","70","test","","","","7","",""
"null","271438","pSARL_v2","pSARL_v2vt40b2ru","61006be07e74dd9f144d12f1","fixation","img/fixation.png","null","","test","","","","","",""
"381","271825","pSARL_v2","pSARL_v2vt40b2ru","61006be07e74dd9f144d12f1","freq","img/green_2bandit_a2.png","70","70","test","1","139","139","7","",""
"null","272266","pSARL_v2","pSARL_v2vt40b2ru","61006be07e74dd9f144d12f1","freq_resp","img/green_2bandit_a.png","70","70","test","","","","7","",""
"null","272436","pSARL_v2","pSARL_v2vt40b2ru","61006be07e74dd9f144d12f1","fixation","img/fixation.png","null","","test","","","","","",""
"380","272821","pSARL_v2","pSARL_v2vt40b2ru","61006be07e74dd9f144d12f1","freq","img/green_2bandit_a2.png","70","70","test","1","140","140","7","",""
"null","273282","pSARL_v2","pSARL_v2vt40b2ru","61006be07e74dd9f144d12f1","freq_resp","img/green_2bandit_a.png","70","70","test","","","","7","",""
"null","273452","pSARL_v2","pSARL_v2vt40b2ru","61006be07e74dd9f144d12f1","fixation","img/fixation.png","null","","test","","","","","",""
"345","273803","pSARL_v2","pSARL_v2vt40b2ru","61006be07e74dd9f144d12f1","freq","img/green_2bandit_a2.png","70","70","test","1","141","141","7","",""
"null","274279","pSARL_v2","pSARL_v2vt40b2ru","61006be07e74dd9f144d12f1","freq_resp","img/green_2bandit_a.png","70","70","test","","","","7","",""
"null","274451","pSARL_v2","pSARL_v2vt40b2ru","61006be07e74dd9f144d12f1","fixation","img/fixation.png","null","","test","","","","","",""
"336","274791","pSARL_v2","pSARL_v2vt40b2ru","61006be07e74dd9f144d12f1","freq","img/green_2bandit_a2.png","70","70","test","1","142","142","7","",""
"null","275293","pSARL_v2","pSARL_v2vt40b2ru","61006be07e74dd9f144d12f1","freq_resp","img/green_2bandit_a.png","70","70","test","","","","7","",""
"null","275464","pSARL_v2","pSARL_v2vt40b2ru","61006be07e74dd9f144d12f1","fixation","img/fixation.png","null","","test","","","","","",""
"252","275722","pSARL_v2","pSARL_v2vt40b2ru","61006be07e74dd9f144d12f1","freq","img/green_2bandit_a2.png","70","70","test","1","143","143","7","",""
"null","276292","pSARL_v2","pSARL_v2vt40b2ru","61006be07e74dd9f144d12f1","freq_resp","img/green_2bandit_a.png","70","70","test","","","","7","",""
"null","276460","pSARL_v2","pSARL_v2vt40b2ru","61006be07e74dd9f144d12f1","fixation","img/fixation.png","null","","test","","","","","",""
"264","276732","pSARL_v2","pSARL_v2vt40b2ru","61006be07e74dd9f144d12f1","freq","img/green_2bandit_a2.png","70","70","test","1","144","144","7","",""
"null","277319","pSARL_v2","pSARL_v2vt40b2ru","61006be07e74dd9f144d12f1","freq_resp","img/green_2bandit_a.png","70","70","test","","","","7","",""
"null","277489","pSARL_v2","pSARL_v2vt40b2ru","61006be07e74dd9f144d12f1","fixation","img/fixation.png","null","","test","","","","","",""
"288","277783","pSARL_v2","pSARL_v2vt40b2ru","61006be07e74dd9f144d12f1","freq","img/green_2bandit_a2.png","70","70","test","1","145","145","7","",""
"null","278303","pSARL_v2","pSARL_v2vt40b2ru","61006be07e74dd9f144d12f1","freq_resp","img/green_2bandit_a.png","70","70","test","","","","7","",""
"null","278471","pSARL_v2","pSARL_v2vt40b2ru","61006be07e74dd9f144d12f1","fixation","img/fixation.png","null","","test","","","","","",""
"331","278809","pSARL_v2","pSARL_v2vt40b2ru","61006be07e74dd9f144d12f1","freq","img/green_2bandit_a2.png","70","70","test","1","146","146","7","",""
"null","279342","pSARL_v2","pSARL_v2vt40b2ru","61006be07e74dd9f144d12f1","freq_resp","img/green_2bandit_a.png","70","70","test","","","","7","",""
"null","279514","pSARL_v2","pSARL_v2vt40b2ru","61006be07e74dd9f144d12f1","fixation","img/fixation.png","null","","test","","","","","",""
"340","279859","pSARL_v2","pSARL_v2vt40b2ru","61006be07e74dd9f144d12f1","freq","img/green_2bandit_a2.png","70","70","test","1","147","147","7","",""
"null","280339","pSARL_v2","pSARL_v2vt40b2ru","61006be07e74dd9f144d12f1","freq_resp","img/green_2bandit_a.png","70","70","test","","","","7","",""
"null","280510","pSARL_v2","pSARL_v2vt40b2ru","61006be07e74dd9f144d12f1","fixation","img/fixation.png","null","","test","","","","","",""
"348","280864","pSARL_v2","pSARL_v2vt40b2ru","61006be07e74dd9f144d12f1","freq","img/green_2bandit_a2.png","70","70","test","1","148","148","7","",""
"null","281379","pSARL_v2","pSARL_v2vt40b2ru","61006be07e74dd9f144d12f1","freq_resp","img/green_2bandit_a.png","70","70","test","","","","7","",""
"null","281549","pSARL_v2","pSARL_v2vt40b2ru","61006be07e74dd9f144d12f1","fixation","img/fixation.png","null","","test","","","","","",""
"371","281929","pSARL_v2","pSARL_v2vt40b2ru","61006be07e74dd9f144d12f1","infreq","img/orange_2bandit_a2.png","68","68","test","1","149","149","7","",""
"null","282378","pSARL_v2","pSARL_v2vt40b2ru","61006be07e74dd9f144d12f1","infreq_resp","img/orange_2bandit_a.png","68","68","test","","","","7","",""
"null","282549","pSARL_v2","pSARL_v2vt40b2ru","61006be07e74dd9f144d12f1","fixation","img/fixation.png","null","","test","","","","","",""
"326","282882","pSARL_v2","pSARL_v2vt40b2ru","61006be07e74dd9f144d12f1","infreq","img/orange_2bandit_a2.png","68","68","test","1","150","150","7","",""
"null","283404","pSARL_v2","pSARL_v2vt40b2ru","61006be07e74dd9f144d12f1","infreq_resp","img/orange_2bandit_a.png","68","68","test","","","","7","",""
"null","283574","pSARL_v2","pSARL_v2vt40b2ru","61006be07e74dd9f144d12f1","fixation","img/fixation.png","null","","test","","","","","",""
"364","283944","pSARL_v2","pSARL_v2vt40b2ru","61006be07e74dd9f144d12f1","freq","img/green_2bandit_a2.png","70","70","test","1","151","151","7","",""
"null","284400","pSARL_v2","pSARL_v2vt40b2ru","61006be07e74dd9f144d12f1","freq_resp","img/green_2bandit_a.png","70","70","test","","","","7","",""
"null","284570","pSARL_v2","pSARL_v2vt40b2ru","61006be07e74dd9f144d12f1","fixation","img/fixation.png","null","","test","","","","","",""
"304","284881","pSARL_v2","pSARL_v2vt40b2ru","61006be07e74dd9f144d12f1","freq","img/green_2bandit_a2.png","70","70","test","1","152","152","7","",""
"null","285425","pSARL_v2","pSARL_v2vt40b2ru","61006be07e74dd9f144d12f1","freq_resp","img/green_2bandit_a.png","70","70","test","","","","7","",""
"null","285596","pSARL_v2","pSARL_v2vt40b2ru","61006be07e74dd9f144d12f1","fixation","img/fixation.png","null","","test","","","","","",""
"299","285901","pSARL_v2","pSARL_v2vt40b2ru","61006be07e74dd9f144d12f1","freq","img/green_2bandit_a2.png","70","70","test","1","153","153","7","",""
"null","286423","pSARL_v2","pSARL_v2vt40b2ru","61006be07e74dd9f144d12f1","freq_resp","img/green_2bandit_a.png","70","70","test","","","","7","",""
"null","286594","pSARL_v2","pSARL_v2vt40b2ru","61006be07e74dd9f144d12f1","fixation","img/fixation.png","null","","test","","","","","",""
"328","286928","pSARL_v2","pSARL_v2vt40b2ru","61006be07e74dd9f144d12f1","freq","img/green_2bandit_a2.png","70","70","test","1","154","154","7","",""
"null","287464","pSARL_v2","pSARL_v2vt40b2ru","61006be07e74dd9f144d12f1","freq_resp","img/green_2bandit_a.png","70","70","test","","","","7","",""
"null","287634","pSARL_v2","pSARL_v2vt40b2ru","61006be07e74dd9f144d12f1","fixation","img/fixation.png","null","","test","","","","","",""
"329","287970","pSARL_v2","pSARL_v2vt40b2ru","61006be07e74dd9f144d12f1","freq","img/green_2bandit_a2.png","70","70","test","1","155","155","7","",""
"null","288463","pSARL_v2","pSARL_v2vt40b2ru","61006be07e74dd9f144d12f1","freq_resp","img/green_2bandit_a.png","70","70","test","","","","7","",""
"null","288634","pSARL_v2","pSARL_v2vt40b2ru","61006be07e74dd9f144d12f1","fixation","img/fixation.png","null","","test","","","","","",""
"330","288970","pSARL_v2","pSARL_v2vt40b2ru","61006be07e74dd9f144d12f1","freq","img/green_2bandit_a2.png","70","70","test","1","156","156","7","",""
"null","289491","pSARL_v2","pSARL_v2vt40b2ru","61006be07e74dd9f144d12f1","freq_resp","img/green_2bandit_a.png","70","70","test","","","","7","",""
"null","289662","pSARL_v2","pSARL_v2vt40b2ru","61006be07e74dd9f144d12f1","fixation","img/fixation.png","null","","test","","","","","",""
"265","289933","pSARL_v2","pSARL_v2vt40b2ru","61006be07e74dd9f144d12f1","freq","img/green_2bandit_a2.png","70","70","test","1","157","157","7","",""
"null","290487","pSARL_v2","pSARL_v2vt40b2ru","61006be07e74dd9f144d12f1","freq_resp","img/green_2bandit_a.png","70","70","test","","","","7","",""
"null","290658","pSARL_v2","pSARL_v2vt40b2ru","61006be07e74dd9f144d12f1","fixation","img/fixation.png","null","","test","","","","","",""
"634","291296","pSARL_v2","pSARL_v2vt40b2ru","61006be07e74dd9f144d12f1","reward","img/slot.png","74","","test","","","","","",""
"null","292061","pSARL_v2","pSARL_v2vt40b2ru","61006be07e74dd9f144d12f1","points","<div class=""verylowPoints""> -6 </div>","null","na","test","","","","7","-6","6"
"530","292598","pSARL_v2","pSARL_v2vt40b2ru","61006be07e74dd9f144d12f1","freq","img/green_2bandit_a2.png","70","70","test","1","158","158","8","",""
"null","292887","pSARL_v2","pSARL_v2vt40b2ru","61006be07e74dd9f144d12f1","freq_resp","img/green_2bandit_a.png","70","70","test","","","","8","",""
"null","293058","pSARL_v2","pSARL_v2vt40b2ru","61006be07e74dd9f144d12f1","fixation","img/fixation.png","null","","test","","","","","",""
"513","293576","pSARL_v2","pSARL_v2vt40b2ru","61006be07e74dd9f144d12f1","freq","img/green_2bandit_a2.png","70","70","test","1","159","159","8","",""
"null","293883","pSARL_v2","pSARL_v2vt40b2ru","61006be07e74dd9f144d12f1","freq_resp","img/green_2bandit_a.png","70","70","test","","","","8","",""
"null","294052","pSARL_v2","pSARL_v2vt40b2ru","61006be07e74dd9f144d12f1","fixation","img/fixation.png","null","","test","","","","","",""
"376","294434","pSARL_v2","pSARL_v2vt40b2ru","61006be07e74dd9f144d12f1","freq","img/green_2bandit_a2.png","70","70","test","1","160","160","8","",""
"null","294879","pSARL_v2","pSARL_v2vt40b2ru","61006be07e74dd9f144d12f1","freq_resp","img/green_2bandit_a.png","70","70","test","","","","8","",""
"null","295050","pSARL_v2","pSARL_v2vt40b2ru","61006be07e74dd9f144d12f1","fixation","img/fixation.png","null","","test","","","","","",""
"321","295377","pSARL_v2","pSARL_v2vt40b2ru","61006be07e74dd9f144d12f1","freq","img/green_2bandit_a2.png","70","70","test","1","161","161","8","",""
"null","295879","pSARL_v2","pSARL_v2vt40b2ru","61006be07e74dd9f144d12f1","freq_resp","img/green_2bandit_a.png","70","70","test","","","","8","",""
"null","296049","pSARL_v2","pSARL_v2vt40b2ru","61006be07e74dd9f144d12f1","fixation","img/fixation.png","null","","test","","","","","",""
"449","296504","pSARL_v2","pSARL_v2vt40b2ru","61006be07e74dd9f144d12f1","infreq","img/orange_2bandit_a2.png","68","68","test","1","162","162","8","",""
"null","296874","pSARL_v2","pSARL_v2vt40b2ru","61006be07e74dd9f144d12f1","infreq_resp","img/orange_2bandit_a.png","68","68","test","","","","8","",""
"null","297047","pSARL_v2","pSARL_v2vt40b2ru","61006be07e74dd9f144d12f1","fixation","img/fixation.png","null","","test","","","","","",""
"356","297409","pSARL_v2","pSARL_v2vt40b2ru","61006be07e74dd9f144d12f1","freq","img/green_2bandit_a2.png","70","70","test","1","163","163","8","",""
"null","297869","pSARL_v2","pSARL_v2vt40b2ru","61006be07e74dd9f144d12f1","freq_resp","img/green_2bandit_a.png","70","70","test","","","","8","",""
"null","298040","pSARL_v2","pSARL_v2vt40b2ru","61006be07e74dd9f144d12f1","fixation","img/fixation.png","null","","test","","","","","",""
"466","298513","pSARL_v2","pSARL_v2vt40b2ru","61006be07e74dd9f144d12f1","freq","img/green_2bandit_a2.png","70","70","test","1","164","164","8","",""
"null","298882","pSARL_v2","pSARL_v2vt40b2ru","61006be07e74dd9f144d12f1","freq_resp","img/green_2bandit_a.png","70","70","test","","","","8","",""
"null","299053","pSARL_v2","pSARL_v2vt40b2ru","61006be07e74dd9f144d12f1","fixation","img/fixation.png","null","","test","","","","","",""
"331","299392","pSARL_v2","pSARL_v2vt40b2ru","61006be07e74dd9f144d12f1","freq","img/green_2bandit_a2.png","70","70","test","1","165","165","8","",""
"null","299877","pSARL_v2","pSARL_v2vt40b2ru","61006be07e74dd9f144d12f1","freq_resp","img/green_2bandit_a.png","70","70","test","","","","8","",""
"null","300048","pSARL_v2","pSARL_v2vt40b2ru","61006be07e74dd9f144d12f1","fixation","img/fixation.png","null","","test","","","","","",""
"299","300352","pSARL_v2","pSARL_v2vt40b2ru","61006be07e74dd9f144d12f1","freq","img/green_2bandit_a2.png","70","70","test","1","166","166","8","",""
"null","300876","pSARL_v2","pSARL_v2vt40b2ru","61006be07e74dd9f144d12f1","freq_resp","img/green_2bandit_a.png","70","70","test","","","","8","",""
"null","301049","pSARL_v2","pSARL_v2vt40b2ru","61006be07e74dd9f144d12f1","fixation","img/fixation.png","null","","test","","","","","",""
"279","301333","pSARL_v2","pSARL_v2vt40b2ru","61006be07e74dd9f144d12f1","freq","img/green_2bandit_a2.png","70","70","test","1","167","167","8","",""
"null","301873","pSARL_v2","pSARL_v2vt40b2ru","61006be07e74dd9f144d12f1","freq_resp","img/green_2bandit_a.png","70","70","test","","","","8","",""
"null","302046","pSARL_v2","pSARL_v2vt40b2ru","61006be07e74dd9f144d12f1","fixation","img/fixation.png","null","","test","","","","","",""
"275","302327","pSARL_v2","pSARL_v2vt40b2ru","61006be07e74dd9f144d12f1","freq","img/green_2bandit_a2.png","70","70","test","1","168","168","8","",""
"null","302886","pSARL_v2","pSARL_v2vt40b2ru","61006be07e74dd9f144d12f1","freq_resp","img/green_2bandit_a.png","70","70","test","","","","8","",""
"null","303056","pSARL_v2","pSARL_v2vt40b2ru","61006be07e74dd9f144d12f1","fixation","img/fixation.png","null","","test","","","","","",""
"273","303333","pSARL_v2","pSARL_v2vt40b2ru","61006be07e74dd9f144d12f1","freq","img/green_2bandit_a2.png","70","70","test","1","169","169","8","",""
"null","303900","pSARL_v2","pSARL_v2vt40b2ru","61006be07e74dd9f144d12f1","freq_resp","img/green_2bandit_a.png","70","70","test","","","","8","",""
"null","304069","pSARL_v2","pSARL_v2vt40b2ru","61006be07e74dd9f144d12f1","fixation","img/fixation.png","null","","test","","","","","",""
"409","304485","pSARL_v2","pSARL_v2vt40b2ru","61006be07e74dd9f144d12f1","freq","img/green_2bandit_a2.png","70","70","test","1","170","170","8","",""
"null","304901","pSARL_v2","pSARL_v2vt40b2ru","61006be07e74dd9f144d12f1","freq_resp","img/green_2bandit_a.png","70","70","test","","","","8","",""
"null","305073","pSARL_v2","pSARL_v2vt40b2ru","61006be07e74dd9f144d12f1","fixation","img/fixation.png","null","","test","","","","","",""
"693","305772","pSARL_v2","pSARL_v2vt40b2ru","61006be07e74dd9f144d12f1","infreq","img/orange_2bandit_a2.png","68","68","test","1","171","171","8","",""
"null","305899","pSARL_v2","pSARL_v2vt40b2ru","61006be07e74dd9f144d12f1","infreq_resp","img/orange_2bandit_a.png","68","68","test","","","","8","",""
"null","306057","pSARL_v2","pSARL_v2vt40b2ru","61006be07e74dd9f144d12f1","fixation","img/fixation.png","null","","test","","","","","",""
"569","306633","pSARL_v2","pSARL_v2vt40b2ru","61006be07e74dd9f144d12f1","freq","img/green_2bandit_a2.png","70","70","test","1","172","172","8","",""
"null","306882","pSARL_v2","pSARL_v2vt40b2ru","61006be07e74dd9f144d12f1","freq_resp","img/green_2bandit_a.png","70","70","test","","","","8","",""
"null","307053","pSARL_v2","pSARL_v2vt40b2ru","61006be07e74dd9f144d12f1","fixation","img/fixation.png","null","","test","","","","","",""
"459","307518","pSARL_v2","pSARL_v2vt40b2ru","61006be07e74dd9f144d12f1","freq","img/green_2bandit_a2.png","70","70","test","1","173","173","8","",""
"null","307878","pSARL_v2","pSARL_v2vt40b2ru","61006be07e74dd9f144d12f1","freq_resp","img/green_2bandit_a.png","70","70","test","","","","8","",""
"null","308051","pSARL_v2","pSARL_v2vt40b2ru","61006be07e74dd9f144d12f1","fixation","img/fixation.png","null","","test","","","","","",""
"606","308664","pSARL_v2","pSARL_v2vt40b2ru","61006be07e74dd9f144d12f1","freq","img/green_2bandit_a2.png","70","70","test","1","174","174","8","",""
"null","308877","pSARL_v2","pSARL_v2vt40b2ru","61006be07e74dd9f144d12f1","freq_resp","img/green_2bandit_a.png","70","70","test","","","","8","",""
"null","309048","pSARL_v2","pSARL_v2vt40b2ru","61006be07e74dd9f144d12f1","fixation","img/fixation.png","null","","test","","","","","",""
"356","309410","pSARL_v2","pSARL_v2vt40b2ru","61006be07e74dd9f144d12f1","freq","img/green_2bandit_a2.png","70","70","test","1","175","175","8","",""
"null","309874","pSARL_v2","pSARL_v2vt40b2ru","61006be07e74dd9f144d12f1","freq_resp","img/green_2bandit_a.png","70","70","test","","","","8","",""
"null","310046","pSARL_v2","pSARL_v2vt40b2ru","61006be07e74dd9f144d12f1","fixation","img/fixation.png","null","","test","","","","","",""
"269","310321","pSARL_v2","pSARL_v2vt40b2ru","61006be07e74dd9f144d12f1","freq","img/green_2bandit_a2.png","70","70","test","1","176","176","8","",""
"null","310871","pSARL_v2","pSARL_v2vt40b2ru","61006be07e74dd9f144d12f1","freq_resp","img/green_2bandit_a.png","70","70","test","","","","8","",""
"null","311042","pSARL_v2","pSARL_v2vt40b2ru","61006be07e74dd9f144d12f1","fixation","img/fixation.png","null","","test","","","","","",""
"302","311348","pSARL_v2","pSARL_v2vt40b2ru","61006be07e74dd9f144d12f1","freq","img/green_2bandit_a2.png","70","70","test","1","177","177","8","",""
"null","311868","pSARL_v2","pSARL_v2vt40b2ru","61006be07e74dd9f144d12f1","freq_resp","img/green_2bandit_a.png","70","70","test","","","","8","",""
"null","312039","pSARL_v2","pSARL_v2vt40b2ru","61006be07e74dd9f144d12f1","fixation","img/fixation.png","null","","test","","","","","",""
"247","312292","pSARL_v2","pSARL_v2vt40b2ru","61006be07e74dd9f144d12f1","freq","img/green_2bandit_a2.png","70","70","test","1","178","178","8","",""
"null","312861","pSARL_v2","pSARL_v2vt40b2ru","61006be07e74dd9f144d12f1","freq_resp","img/green_2bandit_a.png","70","70","test","","","","8","",""
"null","313031","pSARL_v2","pSARL_v2vt40b2ru","61006be07e74dd9f144d12f1","fixation","img/fixation.png","null","","test","","","","","",""
"336","313373","pSARL_v2","pSARL_v2vt40b2ru","61006be07e74dd9f144d12f1","freq","img/green_2bandit_a2.png","70","70","test","1","179","179","8","",""
"null","313857","pSARL_v2","pSARL_v2vt40b2ru","61006be07e74dd9f144d12f1","freq_resp","img/green_2bandit_a.png","70","70","test","","","","8","",""
"null","314029","pSARL_v2","pSARL_v2vt40b2ru","61006be07e74dd9f144d12f1","fixation","img/fixation.png","null","","test","","","","","",""
"325","314358","pSARL_v2","pSARL_v2vt40b2ru","61006be07e74dd9f144d12f1","freq","img/green_2bandit_a2.png","70","70","test","1","180","180","8","",""
"null","314853","pSARL_v2","pSARL_v2vt40b2ru","61006be07e74dd9f144d12f1","freq_resp","img/green_2bandit_a.png","70","70","test","","","","8","",""
"null","315025","pSARL_v2","pSARL_v2vt40b2ru","61006be07e74dd9f144d12f1","fixation","img/fixation.png","null","","test","","","","","",""
"303","315334","pSARL_v2","pSARL_v2vt40b2ru","61006be07e74dd9f144d12f1","freq","img/green_2bandit_a2.png","70","70","test","1","181","181","8","",""
"null","315850","pSARL_v2","pSARL_v2vt40b2ru","61006be07e74dd9f144d12f1","freq_resp","img/green_2bandit_a.png","70","70","test","","","","8","",""
"null","316022","pSARL_v2","pSARL_v2vt40b2ru","61006be07e74dd9f144d12f1","fixation","img/fixation.png","null","","test","","","","","",""
"356","316384","pSARL_v2","pSARL_v2vt40b2ru","61006be07e74dd9f144d12f1","freq","img/green_2bandit_a2.png","70","70","test","1","182","182","8","",""
"null","316849","pSARL_v2","pSARL_v2vt40b2ru","61006be07e74dd9f144d12f1","freq_resp","img/green_2bandit_a.png","70","70","test","","","","8","",""
"null","317019","pSARL_v2","pSARL_v2vt40b2ru","61006be07e74dd9f144d12f1","fixation","img/fixation.png","null","","test","","","","","",""
"312","317336","pSARL_v2","pSARL_v2vt40b2ru","61006be07e74dd9f144d12f1","freq","img/green_2bandit_a2.png","70","70","test","1","183","183","8","",""
"null","317845","pSARL_v2","pSARL_v2vt40b2ru","61006be07e74dd9f144d12f1","freq_resp","img/green_2bandit_a.png","70","70","test","","","","8","",""
"null","318017","pSARL_v2","pSARL_v2vt40b2ru","61006be07e74dd9f144d12f1","fixation","img/fixation.png","null","","test","","","","","",""
"447","318470","pSARL_v2","pSARL_v2vt40b2ru","61006be07e74dd9f144d12f1","reward","img/slot.png","74","","test","","","","","",""
"null","319235","pSARL_v2","pSARL_v2vt40b2ru","61006be07e74dd9f144d12f1","points","<div class=""verylowPoints""> -4 </div>","null","na","test","","","","8","-4","7"
"313","319553","pSARL_v2","pSARL_v2vt40b2ru","61006be07e74dd9f144d12f1","freq","img/green_2bandit_a2.png","70","70","test","1","184","184","9","",""
"null","320063","pSARL_v2","pSARL_v2vt40b2ru","61006be07e74dd9f144d12f1","freq_resp","img/green_2bandit_a.png","70","70","test","","","","9","",""
"null","320234","pSARL_v2","pSARL_v2vt40b2ru","61006be07e74dd9f144d12f1","fixation","img/fixation.png","null","","test","","","","","",""
"325","320564","pSARL_v2","pSARL_v2vt40b2ru","61006be07e74dd9f144d12f1","freq","img/green_2bandit_a2.png","70","70","test","1","185","185","9","",""
"null","321061","pSARL_v2","pSARL_v2vt40b2ru","61006be07e74dd9f144d12f1","freq_resp","img/green_2bandit_a.png","70","70","test","","","","9","",""
"null","321231","pSARL_v2","pSARL_v2vt40b2ru","61006be07e74dd9f144d12f1","fixation","img/fixation.png","null","","test","","","","","",""
"331","321570","pSARL_v2","pSARL_v2vt40b2ru","61006be07e74dd9f144d12f1","freq","img/green_2bandit_a2.png","70","70","test","1","186","186","9","",""
"null","322074","pSARL_v2","pSARL_v2vt40b2ru","61006be07e74dd9f144d12f1","freq_resp","img/green_2bandit_a.png","70","70","test","","","","9","",""
"null","322244","pSARL_v2","pSARL_v2vt40b2ru","61006be07e74dd9f144d12f1","fixation","img/fixation.png","null","","test","","","","","",""
"314","322564","pSARL_v2","pSARL_v2vt40b2ru","61006be07e74dd9f144d12f1","freq","img/green_2bandit_a2.png","70","70","test","1","187","187","9","",""
"null","323071","pSARL_v2","pSARL_v2vt40b2ru","61006be07e74dd9f144d12f1","freq_resp","img/green_2bandit_a.png","70","70","test","","","","9","",""
"null","323242","pSARL_v2","pSARL_v2vt40b2ru","61006be07e74dd9f144d12f1","fixation","img/fixation.png","null","","test","","","","","",""
"514","323762","pSARL_v2","pSARL_v2vt40b2ru","61006be07e74dd9f144d12f1","infreq","img/orange_2bandit_a2.png","68","68","test","1","188","188","9","",""
"null","324069","pSARL_v2","pSARL_v2vt40b2ru","61006be07e74dd9f144d12f1","infreq_resp","img/orange_2bandit_a.png","68","68","test","","","","9","",""
"null","324241","pSARL_v2","pSARL_v2vt40b2ru","61006be07e74dd9f144d12f1","fixation","img/fixation.png","null","","test","","","","","",""
"378","324626","pSARL_v2","pSARL_v2vt40b2ru","61006be07e74dd9f144d12f1","freq","img/green_2bandit_a2.png","70","70","test","1","189","189","9","",""
"null","325067","pSARL_v2","pSARL_v2vt40b2ru","61006be07e74dd9f144d12f1","freq_resp","img/green_2bandit_a.png","70","70","test","","","","9","",""
"null","325235","pSARL_v2","pSARL_v2vt40b2ru","61006be07e74dd9f144d12f1","fixation","img/fixation.png","null","","test","","","","","",""
"480","325721","pSARL_v2","pSARL_v2vt40b2ru","61006be07e74dd9f144d12f1","infreq","img/orange_2bandit_a2.png","68","68","test","1","190","190","9","",""
"null","326063","pSARL_v2","pSARL_v2vt40b2ru","61006be07e74dd9f144d12f1","infreq_resp","img/orange_2bandit_a.png","68","68","test","","","","9","",""
"null","326231","pSARL_v2","pSARL_v2vt40b2ru","61006be07e74dd9f144d12f1","fixation","img/fixation.png","null","","test","","","","","",""
"364","326602","pSARL_v2","pSARL_v2vt40b2ru","61006be07e74dd9f144d12f1","freq","img/green_2bandit_a2.png","70","70","test","1","191","191","9","",""
"null","327047","pSARL_v2","pSARL_v2vt40b2ru","61006be07e74dd9f144d12f1","freq_resp","img/green_2bandit_a.png","70","70","test","","","","9","",""
"null","327217","pSARL_v2","pSARL_v2vt40b2ru","61006be07e74dd9f144d12f1","fixation","img/fixation.png","null","","test","","","","","",""
"464","327687","pSARL_v2","pSARL_v2vt40b2ru","61006be07e74dd9f144d12f1","freq","img/green_2bandit_a2.png","70","70","test","1","192","192","9","",""
"null","328044","pSARL_v2","pSARL_v2vt40b2ru","61006be07e74dd9f144d12f1","freq_resp","img/green_2bandit_a.png","70","70","test","","","","9","",""
"null","328217","pSARL_v2","pSARL_v2vt40b2ru","61006be07e74dd9f144d12f1","fixation","img/fixation.png","null","","test","","","","","",""
"337","328560","pSARL_v2","pSARL_v2vt40b2ru","61006be07e74dd9f144d12f1","freq","img/green_2bandit_a2.png","70","70","test","1","193","193","9","",""
"null","329089","pSARL_v2","pSARL_v2vt40b2ru","61006be07e74dd9f144d12f1","freq_resp","img/green_2bandit_a.png","70","70","test","","","","9","",""
"null","329261","pSARL_v2","pSARL_v2vt40b2ru","61006be07e74dd9f144d12f1","fixation","img/fixation.png","null","","test","","","","","",""
"273","329540","pSARL_v2","pSARL_v2vt40b2ru","61006be07e74dd9f144d12f1","freq","img/green_2bandit_a2.png","70","70","test","1","194","194","9","",""
"null","330084","pSARL_v2","pSARL_v2vt40b2ru","61006be07e74dd9f144d12f1","freq_resp","img/green_2bandit_a.png","70","70","test","","","","9","",""
"null","330256","pSARL_v2","pSARL_v2vt40b2ru","61006be07e74dd9f144d12f1","fixation","img/fixation.png","null","","test","","","","","",""
"331","330595","pSARL_v2","pSARL_v2vt40b2ru","61006be07e74dd9f144d12f1","freq","img/green_2bandit_a2.png","70","70","test","1","195","195","9","",""
"null","331083","pSARL_v2","pSARL_v2vt40b2ru","61006be07e74dd9f144d12f1","freq_resp","img/green_2bandit_a.png","70","70","test","","","","9","",""
"null","331253","pSARL_v2","pSARL_v2vt40b2ru","61006be07e74dd9f144d12f1","fixation","img/fixation.png","null","","test","","","","","",""
"290","331550","pSARL_v2","pSARL_v2vt40b2ru","61006be07e74dd9f144d12f1","freq","img/green_2bandit_a2.png","70","70","test","1","196","196","9","",""
"null","332080","pSARL_v2","pSARL_v2vt40b2ru","61006be07e74dd9f144d12f1","freq_resp","img/green_2bandit_a.png","70","70","test","","","","9","",""
"null","332251","pSARL_v2","pSARL_v2vt40b2ru","61006be07e74dd9f144d12f1","fixation","img/fixation.png","null","","test","","","","","",""
"331","332589","pSARL_v2","pSARL_v2vt40b2ru","61006be07e74dd9f144d12f1","freq","img/green_2bandit_a2.png","70","70","test","1","197","197","9","",""
"null","333078","pSARL_v2","pSARL_v2vt40b2ru","61006be07e74dd9f144d12f1","freq_resp","img/green_2bandit_a.png","70","70","test","","","","9","",""
"null","333250","pSARL_v2","pSARL_v2vt40b2ru","61006be07e74dd9f144d12f1","fixation","img/fixation.png","null","","test","","","","","",""
"319","333576","pSARL_v2","pSARL_v2vt40b2ru","61006be07e74dd9f144d12f1","freq","img/green_2bandit_a2.png","70","70","test","1","198","198","9","",""
"null","334106","pSARL_v2","pSARL_v2vt40b2ru","61006be07e74dd9f144d12f1","freq_resp","img/green_2bandit_a.png","70","70","test","","","","9","",""
"null","334277","pSARL_v2","pSARL_v2vt40b2ru","61006be07e74dd9f144d12f1","fixation","img/fixation.png","null","","test","","","","","",""
"263","334545","pSARL_v2","pSARL_v2vt40b2ru","61006be07e74dd9f144d12f1","freq","img/green_2bandit_a2.png","70","70","test","1","199","199","9","",""
"null","335100","pSARL_v2","pSARL_v2vt40b2ru","61006be07e74dd9f144d12f1","freq_resp","img/green_2bandit_a.png","70","70","test","","","","9","",""
"null","335271","pSARL_v2","pSARL_v2vt40b2ru","61006be07e74dd9f144d12f1","fixation","img/fixation.png","null","","test","","","","","",""
"308","335584","pSARL_v2","pSARL_v2vt40b2ru","61006be07e74dd9f144d12f1","freq","img/green_2bandit_a2.png","70","70","test","1","200","200","9","",""
"null","336094","pSARL_v2","pSARL_v2vt40b2ru","61006be07e74dd9f144d12f1","freq_resp","img/green_2bandit_a.png","70","70","test","","","","9","",""
"null","336266","pSARL_v2","pSARL_v2vt40b2ru","61006be07e74dd9f144d12f1","fixation","img/fixation.png","null","","test","","","","","",""
"309","336581","pSARL_v2","pSARL_v2vt40b2ru","61006be07e74dd9f144d12f1","freq","img/green_2bandit_a2.png","70","70","test","1","201","201","9","",""
"null","337095","pSARL_v2","pSARL_v2vt40b2ru","61006be07e74dd9f144d12f1","freq_resp","img/green_2bandit_a.png","70","70","test","","","","9","",""
"null","337265","pSARL_v2","pSARL_v2vt40b2ru","61006be07e74dd9f144d12f1","fixation","img/fixation.png","null","","test","","","","","",""
"316","337586","pSARL_v2","pSARL_v2vt40b2ru","61006be07e74dd9f144d12f1","freq","img/green_2bandit_a2.png","70","70","test","1","202","202","9","",""
"null","338090","pSARL_v2","pSARL_v2vt40b2ru","61006be07e74dd9f144d12f1","freq_resp","img/green_2bandit_a.png","70","70","test","","","","9","",""
"null","338262","pSARL_v2","pSARL_v2vt40b2ru","61006be07e74dd9f144d12f1","fixation","img/fixation.png","null","","test","","","","","",""
"279","338547","pSARL_v2","pSARL_v2vt40b2ru","61006be07e74dd9f144d12f1","freq","img/green_2bandit_a2.png","70","70","test","1","203","203","9","",""
"null","339121","pSARL_v2","pSARL_v2vt40b2ru","61006be07e74dd9f144d12f1","freq_resp","img/green_2bandit_a.png","70","70","test","","","","9","",""
"null","339293","pSARL_v2","pSARL_v2vt40b2ru","61006be07e74dd9f144d12f1","fixation","img/fixation.png","null","","test","","","","","",""
"352","339652","pSARL_v2","pSARL_v2vt40b2ru","61006be07e74dd9f144d12f1","infreq","img/orange_2bandit_a2.png","68","68","test","1","204","204","9","",""
"null","340120","pSARL_v2","pSARL_v2vt40b2ru","61006be07e74dd9f144d12f1","infreq_resp","img/orange_2bandit_a.png","68","68","test","","","","9","",""
"null","340290","pSARL_v2","pSARL_v2vt40b2ru","61006be07e74dd9f144d12f1","fixation","img/fixation.png","null","","test","","","","","",""
"272","340570","pSARL_v2","pSARL_v2vt40b2ru","61006be07e74dd9f144d12f1","freq","img/green_2bandit_a2.png","70","70","test","1","205","205","9","",""
"null","341116","pSARL_v2","pSARL_v2vt40b2ru","61006be07e74dd9f144d12f1","freq_resp","img/green_2bandit_a.png","70","70","test","","","","9","",""
"null","341288","pSARL_v2","pSARL_v2vt40b2ru","61006be07e74dd9f144d12f1","fixation","img/fixation.png","null","","test","","","","","",""
"264","341558","pSARL_v2","pSARL_v2vt40b2ru","61006be07e74dd9f144d12f1","freq","img/green_2bandit_a2.png","70","70","test","1","206","206","9","",""
"null","342111","pSARL_v2","pSARL_v2vt40b2ru","61006be07e74dd9f144d12f1","freq_resp","img/green_2bandit_a.png","70","70","test","","","","9","",""
"null","342281","pSARL_v2","pSARL_v2vt40b2ru","61006be07e74dd9f144d12f1","fixation","img/fixation.png","null","","test","","","","","",""
"439","342727","pSARL_v2","pSARL_v2vt40b2ru","61006be07e74dd9f144d12f1","reward","img/slot.png","74","","test","","","","","",""
"null","343486","pSARL_v2","pSARL_v2vt40b2ru","61006be07e74dd9f144d12f1","points","<div class=""verylowPoints""> -3 </div>","null","na","test","","","","9","-3","8"
"272","343764","pSARL_v2","pSARL_v2vt40b2ru","61006be07e74dd9f144d12f1","freq","img/green_2bandit_a2.png","70","70","test","1","207","207","10","",""
"null","344314","pSARL_v2","pSARL_v2vt40b2ru","61006be07e74dd9f144d12f1","freq_resp","img/green_2bandit_a.png","70","70","test","","","","10","",""
"null","344480","pSARL_v2","pSARL_v2vt40b2ru","61006be07e74dd9f144d12f1","fixation","img/fixation.png","null","","test","","","","","",""
"285","344770","pSARL_v2","pSARL_v2vt40b2ru","61006be07e74dd9f144d12f1","freq","img/green_2bandit_a2.png","70","70","test","1","208","208","10","",""
"null","345306","pSARL_v2","pSARL_v2vt40b2ru","61006be07e74dd9f144d12f1","freq_resp","img/green_2bandit_a.png","70","70","test","","","","10","",""
"null","345475","pSARL_v2","pSARL_v2vt40b2ru","61006be07e74dd9f144d12f1","fixation","img/fixation.png","null","","test","","","","","",""
"352","345833","pSARL_v2","pSARL_v2vt40b2ru","61006be07e74dd9f144d12f1","freq","img/green_2bandit_a2.png","70","70","test","1","209","209","10","",""
"null","346302","pSARL_v2","pSARL_v2vt40b2ru","61006be07e74dd9f144d12f1","freq_resp","img/green_2bandit_a.png","70","70","test","","","","10","",""
"null","346474","pSARL_v2","pSARL_v2vt40b2ru","61006be07e74dd9f144d12f1","fixation","img/fixation.png","null","","test","","","","","",""
"325","346804","pSARL_v2","pSARL_v2vt40b2ru","61006be07e74dd9f144d12f1","freq","img/green_2bandit_a2.png","70","70","test","1","210","210","10","",""
"null","347301","pSARL_v2","pSARL_v2vt40b2ru","61006be07e74dd9f144d12f1","freq_resp","img/green_2bandit_a.png","70","70","test","","","","10","",""
"null","347471","pSARL_v2","pSARL_v2vt40b2ru","61006be07e74dd9f144d12f1","fixation","img/fixation.png","null","","test","","","","","",""
"306","347785","pSARL_v2","pSARL_v2vt40b2ru","61006be07e74dd9f144d12f1","freq","img/green_2bandit_a2.png","70","70","test","1","211","211","10","",""
"null","348297","pSARL_v2","pSARL_v2vt40b2ru","61006be07e74dd9f144d12f1","freq_resp","img/green_2bandit_a.png","70","70","test","","","","10","",""
"null","348470","pSARL_v2","pSARL_v2vt40b2ru","61006be07e74dd9f144d12f1","fixation","img/fixation.png","null","","test","","","","","",""
"244","348718","pSARL_v2","pSARL_v2vt40b2ru","61006be07e74dd9f144d12f1","freq","img/green_2bandit_a2.png","70","70","test","1","212","212","10","",""
