"rt","time_elapsed","expId","subject","prolificID","trialType","stimulus","key_press","corrresp","phase","corr","trialNum","attentionRunNum","blockNum","points","rlNum"
"8948.59999999404","8956","pSARL_v2","pSARL_v295pf2u23","633dc8e5addedfeac9a74b22","","","","","","","","","","",""
"","11945","pSARL_v2","pSARL_v295pf2u23","633dc8e5addedfeac9a74b22","fullscreen","","","","","","","","","",""
"82186.90000000596","94134","pSARL_v2","pSARL_v295pf2u23","633dc8e5addedfeac9a74b22","","","","","","","","","","",""
"null","94955","pSARL_v2","pSARL_v295pf2u23","633dc8e5addedfeac9a74b22","freqPrac","img/green_2bandit_a2.png","null","70","prac","0","","","","",""
"null","95973","pSARL_v2","pSARL_v295pf2u23","633dc8e5addedfeac9a74b22","feedback","img/tooSlow.png","null","na","prac","","","","","",""
"null","96139","pSARL_v2","pSARL_v295pf2u23","633dc8e5addedfeac9a74b22","fixation","img/fixation.png","null","","prac","","","","","",""
"620.9000000059605","96763","pSARL_v2","pSARL_v295pf2u23","633dc8e5addedfeac9a74b22","infreqPrac","img/orange_2bandit_a2.png","68","68","prac","1","","","","",""
"620.9000000059605","96955","pSARL_v2","pSARL_v295pf2u23","633dc8e5addedfeac9a74b22","infreqPrac_resp","img/orange_2bandit_a.png","68","68","prac","","","","","",""
"null","97123","pSARL_v2","pSARL_v295pf2u23","633dc8e5addedfeac9a74b22","fixation","img/fixation.png","null","","prac","","","","","",""
"525.2000000178814","97651","pSARL_v2","pSARL_v295pf2u23","633dc8e5addedfeac9a74b22","freqPrac","img/green_2bandit_a2.png","70","70","prac","1","","","","",""
"525.2000000178814","97947","pSARL_v2","pSARL_v295pf2u23","633dc8e5addedfeac9a74b22","freqPrac_resp","img/green_2bandit_a.png","70","70","prac","","","","","",""
"null","98107","pSARL_v2","pSARL_v295pf2u23","633dc8e5addedfeac9a74b22","fixation","img/fixation.png","null","","prac","","","","","",""
"437.2000000178814","98547","pSARL_v2","pSARL_v295pf2u23","633dc8e5addedfeac9a74b22","infreqPrac","img/orange_2bandit_a2.png","68","68","prac","1","","","","",""
"437.2000000178814","98926","pSARL_v2","pSARL_v295pf2u23","633dc8e5addedfeac9a74b22","infreqPrac_resp","img/orange_2bandit_a.png","68","68","prac","","","","","",""
"null","99091","pSARL_v2","pSARL_v295pf2u23","633dc8e5addedfeac9a74b22","fixation","img/fixation.png","null","","prac","","","","","",""
"373.2000000178814","99467","pSARL_v2","pSARL_v295pf2u23","633dc8e5addedfeac9a74b22","infreqPrac","img/orange_2bandit_a2.png","68","68","prac","1","","","","",""
"373.2000000178814","99905","pSARL_v2","pSARL_v295pf2u23","633dc8e5addedfeac9a74b22","infreqPrac_resp","img/orange_2bandit_a.png","68","68","prac","","","","","",""
"null","100073","pSARL_v2","pSARL_v295pf2u23","633dc8e5addedfeac9a74b22","fixation","img/fixation.png","null","","prac","","","","","",""
"375.40000000596046","100451","pSARL_v2","pSARL_v295pf2u23","633dc8e5addedfeac9a74b22","infreqPrac","img/orange_2bandit_a2.png","68","68","prac","1","","","","",""
"375.40000000596046","100888","pSARL_v2","pSARL_v295pf2u23","633dc8e5addedfeac9a74b22","infreqPrac_resp","img/orange_2bandit_a.png","68","68","prac","","","","","",""
"null","101055","pSARL_v2","pSARL_v295pf2u23","633dc8e5addedfeac9a74b22","fixation","img/fixation.png","null","","prac","","","","","",""
"424.7000000178814","101483","pSARL_v2","pSARL_v295pf2u23","633dc8e5addedfeac9a74b22","freqPrac","img/green_2bandit_a2.png","70","70","prac","1","","","","",""
"424.7000000178814","101874","pSARL_v2","pSARL_v295pf2u23","633dc8e5addedfeac9a74b22","freqPrac_resp","img/green_2bandit_a.png","70","70","prac","","","","","",""
"null","102040","pSARL_v2","pSARL_v295pf2u23","633dc8e5addedfeac9a74b22","fixation","img/fixation.png","null","","prac","","","","","",""
"407.80000001192093","102451","pSARL_v2","pSARL_v295pf2u23","633dc8e5addedfeac9a74b22","infreqPrac","img/orange_2bandit_a2.png","68","68","prac","1","","","","",""
"407.80000001192093","102856","pSARL_v2","pSARL_v295pf2u23","633dc8e5addedfeac9a74b22","infreqPrac_resp","img/orange_2bandit_a.png","68","68","prac","","","","","",""
"null","103023","pSARL_v2","pSARL_v295pf2u23","633dc8e5addedfeac9a74b22","fixation","img/fixation.png","null","","prac","","","","","",""
"448.59999999403954","103475","pSARL_v2","pSARL_v295pf2u23","633dc8e5addedfeac9a74b22","freqPrac","img/green_2bandit_a2.png","70","70","prac","1","","","","",""
"448.59999999403954","103843","pSARL_v2","pSARL_v295pf2u23","633dc8e5addedfeac9a74b22","freqPrac_resp","img/green_2bandit_a.png","70","70","prac","","","","","",""
"null","104007","pSARL_v2","pSARL_v295pf2u23","633dc8e5addedfeac9a74b22","fixation","img/fixation.png","null","","prac","","","","","",""
"363","104373","pSARL_v2","pSARL_v295pf2u23","633dc8e5addedfeac9a74b22","freqPrac","img/green_2bandit_a2.png","70","70","prac","1","","","","",""
"363","104821","pSARL_v2","pSARL_v295pf2u23","633dc8e5addedfeac9a74b22","freqPrac_resp","img/green_2bandit_a.png","70","70","prac","","","","","",""
"null","104989","pSARL_v2","pSARL_v295pf2u23","633dc8e5addedfeac9a74b22","fixation","img/fixation.png","null","","prac","","","","","",""
"24835","129827","pSARL_v2","pSARL_v295pf2u23","633dc8e5addedfeac9a74b22","","","","","prac","","","","","",""
"676.9000000059605","130507","pSARL_v2","pSARL_v295pf2u23","633dc8e5addedfeac9a74b22","rewardPractice","img/slot.png","74","","prac","","","","","",""
"null","131264","pSARL_v2","pSARL_v295pf2u23","633dc8e5addedfeac9a74b22","feedback","<div class=""veryhighPoints""> +15 </div>","null","na","prac","","","","","",""
"null","131438","pSARL_v2","pSARL_v295pf2u23","633dc8e5addedfeac9a74b22","fixation","img/fixation.png","null","","prac","","","","","",""
"15355.5","146796","pSARL_v2","pSARL_v295pf2u23","633dc8e5addedfeac9a74b22","","","","","prac","","","","","",""
"746.9000000059605","147546","pSARL_v2","pSARL_v295pf2u23","633dc8e5addedfeac9a74b22","freq","img/green_2bandit_a2.png","68","70","test","0","1","1","1","",""
"null","147608","pSARL_v2","pSARL_v295pf2u23","633dc8e5addedfeac9a74b22","freq_resp","img/green_2bandit_a.png","68","70","test","","","","1","",""
"null","147772","pSARL_v2","pSARL_v295pf2u23","633dc8e5addedfeac9a74b22","fixation","img/fixation.png","null","","test","","","","","",""
"627.3999999761581","148402","pSARL_v2","pSARL_v295pf2u23","633dc8e5addedfeac9a74b22","freq","img/green_2bandit_a2.png","70","70","test","1","2","2","1","",""
"null","148586","pSARL_v2","pSARL_v295pf2u23","633dc8e5addedfeac9a74b22","freq_resp","img/green_2bandit_a.png","70","70","test","","","","1","",""
"null","148754","pSARL_v2","pSARL_v295pf2u23","633dc8e5addedfeac9a74b22","fixation","img/fixation.png","null","","test","","","","","",""
"453.59999999403954","149210","pSARL_v2","pSARL_v295pf2u23","633dc8e5addedfeac9a74b22","freq","img/green_2bandit_a2.png","70","70","test","1","3","3","1","",""
"null","149574","pSARL_v2","pSARL_v295pf2u23","633dc8e5addedfeac9a74b22","freq_resp","img/green_2bandit_a.png","70","70","test","","","","1","",""
"null","149738","pSARL_v2","pSARL_v295pf2u23","633dc8e5addedfeac9a74b22","fixation","img/fixation.png","null","","test","","","","","",""
"356.90000000596046","150098","pSARL_v2","pSARL_v295pf2u23","633dc8e5addedfeac9a74b22","freq","img/green_2bandit_a2.png","70","70","test","1","4","4","1","",""
"null","150567","pSARL_v2","pSARL_v295pf2u23","633dc8e5addedfeac9a74b22","freq_resp","img/green_2bandit_a.png","70","70","test","","","","1","",""
"null","150737","pSARL_v2","pSARL_v295pf2u23","633dc8e5addedfeac9a74b22","fixation","img/fixation.png","null","","test","","","","","",""
"318.2999999821186","151058","pSARL_v2","pSARL_v295pf2u23","633dc8e5addedfeac9a74b22","freq","img/green_2bandit_a2.png","70","70","test","1","5","5","1","",""
"null","151549","pSARL_v2","pSARL_v295pf2u23","633dc8e5addedfeac9a74b22","freq_resp","img/green_2bandit_a.png","70","70","test","","","","1","",""
"null","151705","pSARL_v2","pSARL_v295pf2u23","633dc8e5addedfeac9a74b22","fixation","img/fixation.png","null","","test","","","","","",""
"542.0999999940395","152250","pSARL_v2","pSARL_v295pf2u23","633dc8e5addedfeac9a74b22","infreq","img/orange_2bandit_a2.png","68","68","test","1","6","6","1","",""
"null","152514","pSARL_v2","pSARL_v295pf2u23","633dc8e5addedfeac9a74b22","infreq_resp","img/orange_2bandit_a.png","68","68","test","","","","1","",""
"null","152687","pSARL_v2","pSARL_v295pf2u23","633dc8e5addedfeac9a74b22","fixation","img/fixation.png","null","","test","","","","","",""
"368.40000000596046","153058","pSARL_v2","pSARL_v295pf2u23","633dc8e5addedfeac9a74b22","infreq","img/orange_2bandit_a2.png","68","68","test","1","7","7","1","",""
"null","153502","pSARL_v2","pSARL_v295pf2u23","633dc8e5addedfeac9a74b22","infreq_resp","img/orange_2bandit_a.png","68","68","test","","","","1","",""
"null","153670","pSARL_v2","pSARL_v295pf2u23","633dc8e5addedfeac9a74b22","fixation","img/fixation.png","null","","test","","","","","",""
"449","154122","pSARL_v2","pSARL_v295pf2u23","633dc8e5addedfeac9a74b22","freq","img/green_2bandit_a2.png","70","70","test","1","8","8","1","",""
"null","154483","pSARL_v2","pSARL_v295pf2u23","633dc8e5addedfeac9a74b22","freq_resp","img/green_2bandit_a.png","70","70","test","","","","1","",""
"null","154638","pSARL_v2","pSARL_v295pf2u23","633dc8e5addedfeac9a74b22","fixation","img/fixation.png","null","","test","","","","","",""
"440.59999999403954","155082","pSARL_v2","pSARL_v295pf2u23","633dc8e5addedfeac9a74b22","freq","img/green_2bandit_a2.png","70","70","test","1","9","9","1","",""
"null","155456","pSARL_v2","pSARL_v295pf2u23","633dc8e5addedfeac9a74b22","freq_resp","img/green_2bandit_a.png","70","70","test","","","","1","",""
"null","155622","pSARL_v2","pSARL_v295pf2u23","633dc8e5addedfeac9a74b22","fixation","img/fixation.png","null","","test","","","","","",""
"321.40000000596046","155946","pSARL_v2","pSARL_v295pf2u23","633dc8e5addedfeac9a74b22","freq","img/green_2bandit_a2.png","70","70","test","1","10","10","1","",""
"null","156433","pSARL_v2","pSARL_v295pf2u23","633dc8e5addedfeac9a74b22","freq_resp","img/green_2bandit_a.png","70","70","test","","","","1","",""
"null","156603","pSARL_v2","pSARL_v295pf2u23","633dc8e5addedfeac9a74b22","fixation","img/fixation.png","null","","test","","","","","",""
"293.39999997615814","156900","pSARL_v2","pSARL_v295pf2u23","633dc8e5addedfeac9a74b22","freq","img/green_2bandit_a2.png","70","70","test","1","11","11","1","",""
"null","157413","pSARL_v2","pSARL_v295pf2u23","633dc8e5addedfeac9a74b22","freq_resp","img/green_2bandit_a.png","70","70","test","","","","1","",""
"null","157572","pSARL_v2","pSARL_v295pf2u23","633dc8e5addedfeac9a74b22","fixation","img/fixation.png","null","","test","","","","","",""
"315.40000000596046","157890","pSARL_v2","pSARL_v295pf2u23","633dc8e5addedfeac9a74b22","freq","img/green_2bandit_a2.png","70","70","test","1","12","12","1","",""
"null","158398","pSARL_v2","pSARL_v295pf2u23","633dc8e5addedfeac9a74b22","freq_resp","img/green_2bandit_a.png","70","70","test","","","","1","",""
"null","158555","pSARL_v2","pSARL_v295pf2u23","633dc8e5addedfeac9a74b22","fixation","img/fixation.png","null","","test","","","","","",""
"300.19999998807907","158859","pSARL_v2","pSARL_v295pf2u23","633dc8e5addedfeac9a74b22","freq","img/green_2bandit_a2.png","70","70","test","1","13","13","1","",""
"null","159365","pSARL_v2","pSARL_v295pf2u23","633dc8e5addedfeac9a74b22","freq_resp","img/green_2bandit_a.png","70","70","test","","","","1","",""
"null","159522","pSARL_v2","pSARL_v295pf2u23","633dc8e5addedfeac9a74b22","fixation","img/fixation.png","null","","test","","","","","",""
"301.5","159827","pSARL_v2","pSARL_v295pf2u23","633dc8e5addedfeac9a74b22","freq","img/green_2bandit_a2.png","70","70","test","1","14","14","1","",""
"null","160331","pSARL_v2","pSARL_v295pf2u23","633dc8e5addedfeac9a74b22","freq_resp","img/green_2bandit_a.png","70","70","test","","","","1","",""
"null","160489","pSARL_v2","pSARL_v295pf2u23","633dc8e5addedfeac9a74b22","fixation","img/fixation.png","null","","test","","","","","",""
"295","160787","pSARL_v2","pSARL_v295pf2u23","633dc8e5addedfeac9a74b22","freq","img/green_2bandit_a2.png","70","70","test","1","15","15","1","",""
"null","161298","pSARL_v2","pSARL_v295pf2u23","633dc8e5addedfeac9a74b22","freq_resp","img/green_2bandit_a.png","70","70","test","","","","1","",""
"null","161470","pSARL_v2","pSARL_v295pf2u23","633dc8e5addedfeac9a74b22","fixation","img/fixation.png","null","","test","","","","","",""
"305.30000001192093","161779","pSARL_v2","pSARL_v295pf2u23","633dc8e5addedfeac9a74b22","freq","img/green_2bandit_a2.png","70","70","test","1","16","16","1","",""
"null","162284","pSARL_v2","pSARL_v295pf2u23","633dc8e5addedfeac9a74b22","freq_resp","img/green_2bandit_a.png","70","70","test","","","","1","",""
"null","162454","pSARL_v2","pSARL_v295pf2u23","633dc8e5addedfeac9a74b22","fixation","img/fixation.png","null","","test","","","","","",""
"289.7000000178814","162747","pSARL_v2","pSARL_v295pf2u23","633dc8e5addedfeac9a74b22","freq","img/green_2bandit_a2.png","70","70","test","1","17","17","1","",""
"null","163266","pSARL_v2","pSARL_v295pf2u23","633dc8e5addedfeac9a74b22","freq_resp","img/green_2bandit_a.png","70","70","test","","","","1","",""
"null","163438","pSARL_v2","pSARL_v295pf2u23","633dc8e5addedfeac9a74b22","fixation","img/fixation.png","null","","test","","","","","",""
"298","163739","pSARL_v2","pSARL_v295pf2u23","633dc8e5addedfeac9a74b22","freq","img/green_2bandit_a2.png","70","70","test","1","18","18","1","",""
"null","164249","pSARL_v2","pSARL_v295pf2u23","633dc8e5addedfeac9a74b22","freq_resp","img/green_2bandit_a.png","70","70","test","","","","1","",""
"null","164421","pSARL_v2","pSARL_v295pf2u23","633dc8e5addedfeac9a74b22","fixation","img/fixation.png","null","","test","","","","","",""
"274.80000001192093","164699","pSARL_v2","pSARL_v295pf2u23","633dc8e5addedfeac9a74b22","freq","img/green_2bandit_a2.png","70","70","test","1","19","19","1","",""
"null","165245","pSARL_v2","pSARL_v295pf2u23","633dc8e5addedfeac9a74b22","freq_resp","img/green_2bandit_a.png","70","70","test","","","","1","",""
"null","165404","pSARL_v2","pSARL_v295pf2u23","633dc8e5addedfeac9a74b22","fixation","img/fixation.png","null","","test","","","","","",""
"259","165667","pSARL_v2","pSARL_v295pf2u23","633dc8e5addedfeac9a74b22","freq","img/green_2bandit_a2.png","70","70","test","1","20","20","1","",""
"null","166228","pSARL_v2","pSARL_v295pf2u23","633dc8e5addedfeac9a74b22","freq_resp","img/green_2bandit_a.png","70","70","test","","","","1","",""
"null","166388","pSARL_v2","pSARL_v295pf2u23","633dc8e5addedfeac9a74b22","fixation","img/fixation.png","null","","test","","","","","",""
"299","166691","pSARL_v2","pSARL_v295pf2u23","633dc8e5addedfeac9a74b22","freq","img/green_2bandit_a2.png","70","70","test","1","21","21","1","",""
"null","167200","pSARL_v2","pSARL_v295pf2u23","633dc8e5addedfeac9a74b22","freq_resp","img/green_2bandit_a.png","70","70","test","","","","1","",""
"null","167371","pSARL_v2","pSARL_v295pf2u23","633dc8e5addedfeac9a74b22","fixation","img/fixation.png","null","","test","","","","","",""
"422.59999999403954","167796","pSARL_v2","pSARL_v295pf2u23","633dc8e5addedfeac9a74b22","reward","img/slot.png","74","","test","","","","","",""
"null","168564","pSARL_v2","pSARL_v295pf2u23","633dc8e5addedfeac9a74b22","points","<div class=""verylowPoints""> -6 </div>","null","na","test","","","","1","-6","0"
"571.6000000238419","169139","pSARL_v2","pSARL_v295pf2u23","633dc8e5addedfeac9a74b22","freq","img/green_2bandit_a2.png","70","70","test","1","22","22","2","",""
"null","169382","pSARL_v2","pSARL_v295pf2u23","633dc8e5addedfeac9a74b22","freq_resp","img/green_2bandit_a.png","70","70","test","","","","2","",""
"null","169538","pSARL_v2","pSARL_v295pf2u23","633dc8e5addedfeac9a74b22","fixation","img/fixation.png","null","","test","","","","","",""
"517.6999999880791","170058","pSARL_v2","pSARL_v295pf2u23","633dc8e5addedfeac9a74b22","infreq","img/orange_2bandit_a2.png","68","68","test","1","23","23","2","",""
"null","170346","pSARL_v2","pSARL_v295pf2u23","633dc8e5addedfeac9a74b22","infreq_resp","img/orange_2bandit_a.png","68","68","test","","","","2","",""
"null","170520","pSARL_v2","pSARL_v295pf2u23","633dc8e5addedfeac9a74b22","fixation","img/fixation.png","null","","test","","","","","",""
"487.40000000596046","171011","pSARL_v2","pSARL_v295pf2u23","633dc8e5addedfeac9a74b22","freq","img/green_2bandit_a2.png","70","70","test","1","24","24","2","",""
"null","171343","pSARL_v2","pSARL_v295pf2u23","633dc8e5addedfeac9a74b22","freq_resp","img/green_2bandit_a.png","70","70","test","","","","2","",""
"null","171505","pSARL_v2","pSARL_v295pf2u23","633dc8e5addedfeac9a74b22","fixation","img/fixation.png","null","","test","","","","","",""
"398.5","171907","pSARL_v2","pSARL_v295pf2u23","633dc8e5addedfeac9a74b22","freq","img/green_2bandit_a2.png","70","70","test","1","25","25","2","",""
"null","172321","pSARL_v2","pSARL_v295pf2u23","633dc8e5addedfeac9a74b22","freq_resp","img/green_2bandit_a.png","70","70","test","","","","2","",""
"null","172488","pSARL_v2","pSARL_v295pf2u23","633dc8e5addedfeac9a74b22","fixation","img/fixation.png","null","","test","","","","","",""
"319.30000001192093","172811","pSARL_v2","pSARL_v295pf2u23","633dc8e5addedfeac9a74b22","freq","img/green_2bandit_a2.png","70","70","test","1","26","26","2","",""
"null","173299","pSARL_v2","pSARL_v295pf2u23","633dc8e5addedfeac9a74b22","freq_resp","img/green_2bandit_a.png","70","70","test","","","","2","",""
"null","173470","pSARL_v2","pSARL_v295pf2u23","633dc8e5addedfeac9a74b22","fixation","img/fixation.png","null","","test","","","","","",""
"297.39999997615814","173770","pSARL_v2","pSARL_v295pf2u23","633dc8e5addedfeac9a74b22","freq","img/green_2bandit_a2.png","70","70","test","1","27","27","2","",""
"null","174291","pSARL_v2","pSARL_v295pf2u23","633dc8e5addedfeac9a74b22","freq_resp","img/green_2bandit_a.png","70","70","test","","","","2","",""
"null","174455","pSARL_v2","pSARL_v295pf2u23","633dc8e5addedfeac9a74b22","fixation","img/fixation.png","null","","test","","","","","",""
"304.5","174763","pSARL_v2","pSARL_v295pf2u23","633dc8e5addedfeac9a74b22","freq","img/green_2bandit_a2.png","70","70","test","1","28","28","2","",""
"null","175280","pSARL_v2","pSARL_v295pf2u23","633dc8e5addedfeac9a74b22","freq_resp","img/green_2bandit_a.png","70","70","test","","","","2","",""
"null","175453","pSARL_v2","pSARL_v295pf2u23","633dc8e5addedfeac9a74b22","fixation","img/fixation.png","null","","test","","","","","",""
"273.89999997615814","175731","pSARL_v2","pSARL_v295pf2u23","633dc8e5addedfeac9a74b22","freq","img/green_2bandit_a2.png","70","70","test","1","29","29","2","",""
"null","176277","pSARL_v2","pSARL_v295pf2u23","633dc8e5addedfeac9a74b22","freq_resp","img/green_2bandit_a.png","70","70","test","","","","2","",""
"null","176438","pSARL_v2","pSARL_v295pf2u23","633dc8e5addedfeac9a74b22","fixation","img/fixation.png","null","","test","","","","","",""
"257.7000000178814","176699","pSARL_v2","pSARL_v295pf2u23","633dc8e5addedfeac9a74b22","freq","img/green_2bandit_a2.png","70","70","test","1","30","30","2","",""
"null","177260","pSARL_v2","pSARL_v295pf2u23","633dc8e5addedfeac9a74b22","freq_resp","img/green_2bandit_a.png","70","70","test","","","","2","",""
"null","177421","pSARL_v2","pSARL_v295pf2u23","633dc8e5addedfeac9a74b22","fixation","img/fixation.png","null","","test","","","","","",""
"257.90000000596046","177682","pSARL_v2","pSARL_v295pf2u23","633dc8e5addedfeac9a74b22","freq","img/green_2bandit_a2.png","70","70","test","1","31","31","2","",""
"null","178243","pSARL_v2","pSARL_v295pf2u23","633dc8e5addedfeac9a74b22","freq_resp","img/green_2bandit_a.png","70","70","test","","","","2","",""
"null","178404","pSARL_v2","pSARL_v295pf2u23","633dc8e5addedfeac9a74b22","fixation","img/fixation.png","null","","test","","","","","",""
"261.59999999403954","178669","pSARL_v2","pSARL_v295pf2u23","633dc8e5addedfeac9a74b22","freq","img/green_2bandit_a2.png","70","70","test","1","32","32","2","",""
"null","179227","pSARL_v2","pSARL_v295pf2u23","633dc8e5addedfeac9a74b22","freq_resp","img/green_2bandit_a.png","70","70","test","","","","2","",""
"null","179388","pSARL_v2","pSARL_v295pf2u23","633dc8e5addedfeac9a74b22","fixation","img/fixation.png","null","","test","","","","","",""
"243","179635","pSARL_v2","pSARL_v295pf2u23","633dc8e5addedfeac9a74b22","freq","img/green_2bandit_a2.png","70","70","test","1","33","33","2","",""
"null","180210","pSARL_v2","pSARL_v295pf2u23","633dc8e5addedfeac9a74b22","freq_resp","img/green_2bandit_a.png","70","70","test","","","","2","",""
"null","180371","pSARL_v2","pSARL_v295pf2u23","633dc8e5addedfeac9a74b22","fixation","img/fixation.png","null","","test","","","","","",""
"276.5","180650","pSARL_v2","pSARL_v295pf2u23","633dc8e5addedfeac9a74b22","freq","img/green_2bandit_a2.png","70","70","test","1","34","34","2","",""
"null","181194","pSARL_v2","pSARL_v295pf2u23","633dc8e5addedfeac9a74b22","freq_resp","img/green_2bandit_a.png","70","70","test","","","","2","",""
"null","181355","pSARL_v2","pSARL_v295pf2u23","633dc8e5addedfeac9a74b22","fixation","img/fixation.png","null","","test","","","","","",""
"284.69999998807907","181642","pSARL_v2","pSARL_v295pf2u23","633dc8e5addedfeac9a74b22","freq","img/green_2bandit_a2.png","70","70","test","1","35","35","2","",""
"null","182179","pSARL_v2","pSARL_v295pf2u23","633dc8e5addedfeac9a74b22","freq_resp","img/green_2bandit_a.png","70","70","test","","","","2","",""
"null","182338","pSARL_v2","pSARL_v295pf2u23","633dc8e5addedfeac9a74b22","fixation","img/fixation.png","null","","test","","","","","",""
"453.5","182794","pSARL_v2","pSARL_v295pf2u23","633dc8e5addedfeac9a74b22","infreq","img/orange_2bandit_a2.png","68","68","test","1","36","36","2","",""
"null","183157","pSARL_v2","pSARL_v295pf2u23","633dc8e5addedfeac9a74b22","infreq_resp","img/orange_2bandit_a.png","68","68","test","","","","2","",""
"null","183321","pSARL_v2","pSARL_v295pf2u23","633dc8e5addedfeac9a74b22","fixation","img/fixation.png","null","","test","","","","","",""
"414","183738","pSARL_v2","pSARL_v295pf2u23","633dc8e5addedfeac9a74b22","freq","img/green_2bandit_a2.png","70","70","test","1","37","37","2","",""
"null","184139","pSARL_v2","pSARL_v295pf2u23","633dc8e5addedfeac9a74b22","freq_resp","img/green_2bandit_a.png","70","70","test","","","","2","",""
"null","184304","pSARL_v2","pSARL_v295pf2u23","633dc8e5addedfeac9a74b22","fixation","img/fixation.png","null","","test","","","","","",""
"327.2999999821186","184634","pSARL_v2","pSARL_v295pf2u23","633dc8e5addedfeac9a74b22","freq","img/green_2bandit_a2.png","70","70","test","1","38","38","2","",""
"null","185115","pSARL_v2","pSARL_v295pf2u23","633dc8e5addedfeac9a74b22","freq_resp","img/green_2bandit_a.png","70","70","test","","","","2","",""
"null","185287","pSARL_v2","pSARL_v295pf2u23","633dc8e5addedfeac9a74b22","fixation","img/fixation.png","null","","test","","","","","",""
"336.5","185626","pSARL_v2","pSARL_v295pf2u23","633dc8e5addedfeac9a74b22","freq","img/green_2bandit_a2.png","70","70","test","1","39","39","2","",""
"null","186100","pSARL_v2","pSARL_v295pf2u23","633dc8e5addedfeac9a74b22","freq_resp","img/green_2bandit_a.png","70","70","test","","","","2","",""
"null","186269","pSARL_v2","pSARL_v295pf2u23","633dc8e5addedfeac9a74b22","fixation","img/fixation.png","null","","test","","","","","",""
"305.80000001192093","186578","pSARL_v2","pSARL_v295pf2u23","633dc8e5addedfeac9a74b22","freq","img/green_2bandit_a2.png","70","70","test","1","40","40","2","",""
"null","187082","pSARL_v2","pSARL_v295pf2u23","633dc8e5addedfeac9a74b22","freq_resp","img/green_2bandit_a.png","70","70","test","","","","2","",""
"null","187253","pSARL_v2","pSARL_v295pf2u23","633dc8e5addedfeac9a74b22","fixation","img/fixation.png","null","","test","","","","","",""
"281.80000001192093","187538","pSARL_v2","pSARL_v295pf2u23","633dc8e5addedfeac9a74b22","freq","img/green_2bandit_a2.png","70","70","test","1","41","41","2","",""
"null","188078","pSARL_v2","pSARL_v295pf2u23","633dc8e5addedfeac9a74b22","freq_resp","img/green_2bandit_a.png","70","70","test","","","","2","",""
"null","188237","pSARL_v2","pSARL_v295pf2u23","633dc8e5addedfeac9a74b22","fixation","img/fixation.png","null","","test","","","","","",""
"265.69999998807907","188506","pSARL_v2","pSARL_v295pf2u23","633dc8e5addedfeac9a74b22","freq","img/green_2bandit_a2.png","70","70","test","1","42","42","2","",""
"null","189060","pSARL_v2","pSARL_v295pf2u23","633dc8e5addedfeac9a74b22","freq_resp","img/green_2bandit_a.png","70","70","test","","","","2","",""
"null","189221","pSARL_v2","pSARL_v295pf2u23","633dc8e5addedfeac9a74b22","fixation","img/fixation.png","null","","test","","","","","",""
"300.09999999403954","189524","pSARL_v2","pSARL_v295pf2u23","633dc8e5addedfeac9a74b22","freq","img/green_2bandit_a2.png","70","70","test","1","43","43","2","",""
"null","190047","pSARL_v2","pSARL_v295pf2u23","633dc8e5addedfeac9a74b22","freq_resp","img/green_2bandit_a.png","70","70","test","","","","2","",""
"null","190204","pSARL_v2","pSARL_v295pf2u23","633dc8e5addedfeac9a74b22","fixation","img/fixation.png","null","","test","","","","","",""
"427.40000000596046","190634","pSARL_v2","pSARL_v295pf2u23","633dc8e5addedfeac9a74b22","reward","img/slot.png","74","","test","","","","","",""
"null","191395","pSARL_v2","pSARL_v295pf2u23","633dc8e5addedfeac9a74b22","points","<div class=""verylowPoints""> -11 </div>","null","na","test","","","","2","-11","1"
"531.6999999880791","191930","pSARL_v2","pSARL_v295pf2u23","633dc8e5addedfeac9a74b22","freq","img/green_2bandit_a2.png","70","70","test","1","44","44","3","",""
"null","192212","pSARL_v2","pSARL_v295pf2u23","633dc8e5addedfeac9a74b22","freq_resp","img/green_2bandit_a.png","70","70","test","","","","3","",""
"null","192371","pSARL_v2","pSARL_v295pf2u23","633dc8e5addedfeac9a74b22","fixation","img/fixation.png","null","","test","","","","","",""
"299.90000000596046","192674","pSARL_v2","pSARL_v295pf2u23","633dc8e5addedfeac9a74b22","freq","img/green_2bandit_a2.png","70","70","test","1","45","45","3","",""
"null","193180","pSARL_v2","pSARL_v295pf2u23","633dc8e5addedfeac9a74b22","freq_resp","img/green_2bandit_a.png","70","70","test","","","","3","",""
"null","193338","pSARL_v2","pSARL_v295pf2u23","633dc8e5addedfeac9a74b22","fixation","img/fixation.png","null","","test","","","","","",""
"301.40000000596046","193642","pSARL_v2","pSARL_v295pf2u23","633dc8e5addedfeac9a74b22","freq","img/green_2bandit_a2.png","70","70","test","1","46","46","3","",""
"null","194147","pSARL_v2","pSARL_v295pf2u23","633dc8e5addedfeac9a74b22","freq_resp","img/green_2bandit_a.png","70","70","test","","","","3","",""
"null","194320","pSARL_v2","pSARL_v295pf2u23","633dc8e5addedfeac9a74b22","fixation","img/fixation.png","null","","test","","","","","",""
"511.2000000178814","194834","pSARL_v2","pSARL_v295pf2u23","633dc8e5addedfeac9a74b22","freq","img/green_2bandit_a2.png","70","70","test","1","47","47","3","",""
"null","195143","pSARL_v2","pSARL_v295pf2u23","633dc8e5addedfeac9a74b22","freq_resp","img/green_2bandit_a.png","70","70","test","","","","3","",""
"null","195319","pSARL_v2","pSARL_v295pf2u23","633dc8e5addedfeac9a74b22","fixation","img/fixation.png","null","","test","","","","","",""
"295.80000001192093","195618","pSARL_v2","pSARL_v295pf2u23","633dc8e5addedfeac9a74b22","freq","img/green_2bandit_a2.png","70","70","test","1","48","48","3","",""
"null","196129","pSARL_v2","pSARL_v295pf2u23","633dc8e5addedfeac9a74b22","freq_resp","img/green_2bandit_a.png","70","70","test","","","","3","",""
"null","196303","pSARL_v2","pSARL_v295pf2u23","633dc8e5addedfeac9a74b22","fixation","img/fixation.png","null","","test","","","","","",""
"295.90000000596046","196602","pSARL_v2","pSARL_v295pf2u23","633dc8e5addedfeac9a74b22","freq","img/green_2bandit_a2.png","70","70","test","1","49","49","3","",""
"null","197128","pSARL_v2","pSARL_v295pf2u23","633dc8e5addedfeac9a74b22","freq_resp","img/green_2bandit_a.png","70","70","test","","","","3","",""
"null","197302","pSARL_v2","pSARL_v295pf2u23","633dc8e5addedfeac9a74b22","fixation","img/fixation.png","null","","test","","","","","",""
"224.59999999403954","197530","pSARL_v2","pSARL_v295pf2u23","633dc8e5addedfeac9a74b22","freq","img/green_2bandit_a2.png","70","70","test","1","50","50","3","",""
"null","198123","pSARL_v2","pSARL_v295pf2u23","633dc8e5addedfeac9a74b22","freq_resp","img/green_2bandit_a.png","70","70","test","","","","3","",""
"null","198287","pSARL_v2","pSARL_v295pf2u23","633dc8e5addedfeac9a74b22","fixation","img/fixation.png","null","","test","","","","","",""
"160.40000000596046","198450","pSARL_v2","pSARL_v295pf2u23","633dc8e5addedfeac9a74b22","freq","img/green_2bandit_a2.png","70","70","test","1","51","51","3","",""
"null","199103","pSARL_v2","pSARL_v295pf2u23","633dc8e5addedfeac9a74b22","freq_resp","img/green_2bandit_a.png","70","70","test","","","","3","",""
"null","199270","pSARL_v2","pSARL_v295pf2u23","633dc8e5addedfeac9a74b22","fixation","img/fixation.png","null","","test","","","","","",""
"249.2000000178814","199522","pSARL_v2","pSARL_v295pf2u23","633dc8e5addedfeac9a74b22","freq","img/green_2bandit_a2.png","70","70","test","1","52","52","3","",""
"null","200093","pSARL_v2","pSARL_v295pf2u23","633dc8e5addedfeac9a74b22","freq_resp","img/green_2bandit_a.png","70","70","test","","","","3","",""
"null","200254","pSARL_v2","pSARL_v295pf2u23","633dc8e5addedfeac9a74b22","fixation","img/fixation.png","null","","test","","","","","",""
"258.69999998807907","200516","pSARL_v2","pSARL_v295pf2u23","633dc8e5addedfeac9a74b22","freq","img/green_2bandit_a2.png","70","70","test","1","53","53","3","",""
"null","201076","pSARL_v2","pSARL_v295pf2u23","633dc8e5addedfeac9a74b22","freq_resp","img/green_2bandit_a.png","70","70","test","","","","3","",""
"null","201237","pSARL_v2","pSARL_v295pf2u23","633dc8e5addedfeac9a74b22","fixation","img/fixation.png","null","","test","","","","","",""
"274","201514","pSARL_v2","pSARL_v295pf2u23","633dc8e5addedfeac9a74b22","freq","img/green_2bandit_a2.png","70","70","test","1","54","54","3","",""
"null","202060","pSARL_v2","pSARL_v295pf2u23","633dc8e5addedfeac9a74b22","freq_resp","img/green_2bandit_a.png","70","70","test","","","","3","",""
"null","202221","pSARL_v2","pSARL_v295pf2u23","633dc8e5addedfeac9a74b22","fixation","img/fixation.png","null","","test","","","","","",""
"266.2999999821186","202490","pSARL_v2","pSARL_v295pf2u23","633dc8e5addedfeac9a74b22","freq","img/green_2bandit_a2.png","70","70","test","1","55","55","3","",""
"null","203044","pSARL_v2","pSARL_v295pf2u23","633dc8e5addedfeac9a74b22","freq_resp","img/green_2bandit_a.png","70","70","test","","","","3","",""
"null","203204","pSARL_v2","pSARL_v295pf2u23","633dc8e5addedfeac9a74b22","fixation","img/fixation.png","null","","test","","","","","",""
"275.10000002384186","203482","pSARL_v2","pSARL_v295pf2u23","633dc8e5addedfeac9a74b22","freq","img/green_2bandit_a2.png","70","70","test","1","56","56","3","",""
"null","204027","pSARL_v2","pSARL_v295pf2u23","633dc8e5addedfeac9a74b22","freq_resp","img/green_2bandit_a.png","70","70","test","","","","3","",""
"null","204187","pSARL_v2","pSARL_v295pf2u23","633dc8e5addedfeac9a74b22","fixation","img/fixation.png","null","","test","","","","","",""
"244.30000001192093","204434","pSARL_v2","pSARL_v295pf2u23","633dc8e5addedfeac9a74b22","freq","img/green_2bandit_a2.png","70","70","test","1","57","57","3","",""
"null","205008","pSARL_v2","pSARL_v295pf2u23","633dc8e5addedfeac9a74b22","freq_resp","img/green_2bandit_a.png","70","70","test","","","","3","",""
"null","205170","pSARL_v2","pSARL_v295pf2u23","633dc8e5addedfeac9a74b22","fixation","img/fixation.png","null","","test","","","","","",""
"412.2999999821186","205587","pSARL_v2","pSARL_v295pf2u23","633dc8e5addedfeac9a74b22","infreq","img/orange_2bandit_a2.png","68","68","test","1","58","58","3","",""
"null","205986","pSARL_v2","pSARL_v295pf2u23","633dc8e5addedfeac9a74b22","infreq_resp","img/orange_2bandit_a.png","68","68","test","","","","3","",""
"null","206154","pSARL_v2","pSARL_v295pf2u23","633dc8e5addedfeac9a74b22","fixation","img/fixation.png","null","","test","","","","","",""
"341.2999999821186","206498","pSARL_v2","pSARL_v295pf2u23","633dc8e5addedfeac9a74b22","freq","img/green_2bandit_a2.png","70","70","test","1","59","59","3","",""
"null","206966","pSARL_v2","pSARL_v295pf2u23","633dc8e5addedfeac9a74b22","freq_resp","img/green_2bandit_a.png","70","70","test","","","","3","",""
"null","207135","pSARL_v2","pSARL_v295pf2u23","633dc8e5addedfeac9a74b22","fixation","img/fixation.png","null","","test","","","","","",""
"271.59999999403954","207410","pSARL_v2","pSARL_v295pf2u23","633dc8e5addedfeac9a74b22","freq","img/green_2bandit_a2.png","70","70","test","1","60","60","3","",""
"null","207959","pSARL_v2","pSARL_v295pf2u23","633dc8e5addedfeac9a74b22","freq_resp","img/green_2bandit_a.png","70","70","test","","","","3","",""
"null","208135","pSARL_v2","pSARL_v295pf2u23","633dc8e5addedfeac9a74b22","fixation","img/fixation.png","null","","test","","","","","",""
"263.39999997615814","208402","pSARL_v2","pSARL_v295pf2u23","633dc8e5addedfeac9a74b22","freq","img/green_2bandit_a2.png","70","70","test","1","61","61","3","",""
"null","208945","pSARL_v2","pSARL_v295pf2u23","633dc8e5addedfeac9a74b22","freq_resp","img/green_2bandit_a.png","70","70","test","","","","3","",""
"null","209119","pSARL_v2","pSARL_v295pf2u23","633dc8e5addedfeac9a74b22","fixation","img/fixation.png","null","","test","","","","","",""
"256.2999999821186","209378","pSARL_v2","pSARL_v295pf2u23","633dc8e5addedfeac9a74b22","freq","img/green_2bandit_a2.png","70","70","test","1","62","62","3","",""
"null","209943","pSARL_v2","pSARL_v295pf2u23","633dc8e5addedfeac9a74b22","freq_resp","img/green_2bandit_a.png","70","70","test","","","","3","",""
"null","210104","pSARL_v2","pSARL_v295pf2u23","633dc8e5addedfeac9a74b22","fixation","img/fixation.png","null","","test","","","","","",""
"183.09999999403954","210290","pSARL_v2","pSARL_v295pf2u23","633dc8e5addedfeac9a74b22","freq","img/green_2bandit_a2.png","70","70","test","1","63","63","3","",""
"null","210921","pSARL_v2","pSARL_v295pf2u23","633dc8e5addedfeac9a74b22","freq_resp","img/green_2bandit_a.png","70","70","test","","","","3","",""
"null","211087","pSARL_v2","pSARL_v295pf2u23","633dc8e5addedfeac9a74b22","fixation","img/fixation.png","null","","test","","","","","",""
"257.60000002384186","211348","pSARL_v2","pSARL_v295pf2u23","633dc8e5addedfeac9a74b22","freq","img/green_2bandit_a2.png","70","70","test","1","64","64","3","",""
"null","211909","pSARL_v2","pSARL_v295pf2u23","633dc8e5addedfeac9a74b22","freq_resp","img/green_2bandit_a.png","70","70","test","","","","3","",""
"null","212070","pSARL_v2","pSARL_v295pf2u23","633dc8e5addedfeac9a74b22","fixation","img/fixation.png","null","","test","","","","","",""
"225.09999999403954","212298","pSARL_v2","pSARL_v295pf2u23","633dc8e5addedfeac9a74b22","infreq","img/orange_2bandit_a2.png","70","68","test","0","65","65","3","",""
"null","212890","pSARL_v2","pSARL_v295pf2u23","633dc8e5addedfeac9a74b22","infreq_resp","img/orange_2bandit_a.png","70","68","test","","","","3","",""
"null","213053","pSARL_v2","pSARL_v295pf2u23","633dc8e5addedfeac9a74b22","fixation","img/fixation.png","null","","test","","","","","",""
"329.2999999821186","213386","pSARL_v2","pSARL_v295pf2u23","633dc8e5addedfeac9a74b22","freq","img/green_2bandit_a2.png","70","70","test","1","66","66","3","",""
"null","213877","pSARL_v2","pSARL_v295pf2u23","633dc8e5addedfeac9a74b22","freq_resp","img/green_2bandit_a.png","70","70","test","","","","3","",""
"null","214036","pSARL_v2","pSARL_v295pf2u23","633dc8e5addedfeac9a74b22","fixation","img/fixation.png","null","","test","","","","","",""
"386.19999998807907","214426","pSARL_v2","pSARL_v295pf2u23","633dc8e5addedfeac9a74b22","reward","img/slot.png","74","","test","","","","","",""
"null","215195","pSARL_v2","pSARL_v295pf2u23","633dc8e5addedfeac9a74b22","points","<div class=""verylowPoints""> -7 </div>","null","na","test","","","","3","-7","2"
"804","216002","pSARL_v2","pSARL_v295pf2u23","633dc8e5addedfeac9a74b22","freq","img/green_2bandit_a2.png","70","70","test","1","67","67","4","",""
"null","216170","pSARL_v2","pSARL_v295pf2u23","633dc8e5addedfeac9a74b22","fixation","img/fixation.png","null","","test","","","","","",""
"516.5","216690","pSARL_v2","pSARL_v295pf2u23","633dc8e5addedfeac9a74b22","freq","img/green_2bandit_a2.png","70","70","test","1","68","68","4","",""
"null","216994","pSARL_v2","pSARL_v295pf2u23","633dc8e5addedfeac9a74b22","freq_resp","img/green_2bandit_a.png","70","70","test","","","","4","",""
"null","217153","pSARL_v2","pSARL_v295pf2u23","633dc8e5addedfeac9a74b22","fixation","img/fixation.png","null","","test","","","","","",""
"326","217482","pSARL_v2","pSARL_v295pf2u23","633dc8e5addedfeac9a74b22","freq","img/green_2bandit_a2.png","70","70","test","1","69","69","4","",""
"null","217964","pSARL_v2","pSARL_v295pf2u23","633dc8e5addedfeac9a74b22","freq_resp","img/green_2bandit_a.png","70","70","test","","","","4","",""
"null","218135","pSARL_v2","pSARL_v295pf2u23","633dc8e5addedfeac9a74b22","fixation","img/fixation.png","null","","test","","","","","",""
"271.19999998807907","218412","pSARL_v2","pSARL_v295pf2u23","633dc8e5addedfeac9a74b22","freq","img/green_2bandit_a2.png","70","70","test","1","70","70","4","",""
"null","218962","pSARL_v2","pSARL_v295pf2u23","633dc8e5addedfeac9a74b22","freq_resp","img/green_2bandit_a.png","70","70","test","","","","4","",""
"null","219138","pSARL_v2","pSARL_v295pf2u23","633dc8e5addedfeac9a74b22","fixation","img/fixation.png","null","","test","","","","","",""
"263.5","219405","pSARL_v2","pSARL_v295pf2u23","633dc8e5addedfeac9a74b22","freq","img/green_2bandit_a2.png","70","70","test","1","71","71","4","",""
"null","219947","pSARL_v2","pSARL_v295pf2u23","633dc8e5addedfeac9a74b22","freq_resp","img/green_2bandit_a.png","70","70","test","","","","4","",""
"null","220121","pSARL_v2","pSARL_v295pf2u23","633dc8e5addedfeac9a74b22","fixation","img/fixation.png","null","","test","","","","","",""
"264.69999998807907","220389","pSARL_v2","pSARL_v295pf2u23","633dc8e5addedfeac9a74b22","freq","img/green_2bandit_a2.png","70","70","test","1","72","72","4","",""
"null","220946","pSARL_v2","pSARL_v295pf2u23","633dc8e5addedfeac9a74b22","freq_resp","img/green_2bandit_a.png","70","70","test","","","","4","",""
"null","221121","pSARL_v2","pSARL_v295pf2u23","633dc8e5addedfeac9a74b22","fixation","img/fixation.png","null","","test","","","","","",""
"258.10000002384186","221382","pSARL_v2","pSARL_v295pf2u23","633dc8e5addedfeac9a74b22","freq","img/green_2bandit_a2.png","70","70","test","1","73","73","4","",""
"null","221945","pSARL_v2","pSARL_v295pf2u23","633dc8e5addedfeac9a74b22","freq_resp","img/green_2bandit_a.png","70","70","test","","","","4","",""
"null","222105","pSARL_v2","pSARL_v295pf2u23","633dc8e5addedfeac9a74b22","fixation","img/fixation.png","null","","test","","","","","",""
"368.19999998807907","222476","pSARL_v2","pSARL_v295pf2u23","633dc8e5addedfeac9a74b22","infreq","img/orange_2bandit_a2.png","68","68","test","1","74","74","4","",""
"null","222921","pSARL_v2","pSARL_v295pf2u23","633dc8e5addedfeac9a74b22","infreq_resp","img/orange_2bandit_a.png","68","68","test","","","","4","",""
"null","223088","pSARL_v2","pSARL_v295pf2u23","633dc8e5addedfeac9a74b22","fixation","img/fixation.png","null","","test","","","","","",""
"320.90000000596046","223413","pSARL_v2","pSARL_v295pf2u23","633dc8e5addedfeac9a74b22","freq","img/green_2bandit_a2.png","70","70","test","1","75","75","4","",""
"null","223901","pSARL_v2","pSARL_v295pf2u23","633dc8e5addedfeac9a74b22","freq_resp","img/green_2bandit_a.png","70","70","test","","","","4","",""
"null","224071","pSARL_v2","pSARL_v295pf2u23","633dc8e5addedfeac9a74b22","fixation","img/fixation.png","null","","test","","","","","",""
"228.5","224308","pSARL_v2","pSARL_v295pf2u23","633dc8e5addedfeac9a74b22","freq","img/green_2bandit_a2.png","70","70","test","1","76","76","4","",""
"null","224895","pSARL_v2","pSARL_v295pf2u23","633dc8e5addedfeac9a74b22","freq_resp","img/green_2bandit_a.png","70","70","test","","","","4","",""
"null","225055","pSARL_v2","pSARL_v295pf2u23","633dc8e5addedfeac9a74b22","fixation","img/fixation.png","null","","test","","","","","",""
"273.7000000178814","225332","pSARL_v2","pSARL_v295pf2u23","633dc8e5addedfeac9a74b22","freq","img/green_2bandit_a2.png","70","70","test","1","77","77","4","",""
"null","225879","pSARL_v2","pSARL_v295pf2u23","633dc8e5addedfeac9a74b22","freq_resp","img/green_2bandit_a.png","70","70","test","","","","4","",""
"null","226038","pSARL_v2","pSARL_v295pf2u23","633dc8e5addedfeac9a74b22","fixation","img/fixation.png","null","","test","","","","","",""
"258.80000001192093","226300","pSARL_v2","pSARL_v295pf2u23","633dc8e5addedfeac9a74b22","freq","img/green_2bandit_a2.png","70","70","test","1","78","78","4","",""
"null","226861","pSARL_v2","pSARL_v295pf2u23","633dc8e5addedfeac9a74b22","freq_resp","img/green_2bandit_a.png","70","70","test","","","","4","",""
"null","227022","pSARL_v2","pSARL_v295pf2u23","633dc8e5addedfeac9a74b22","fixation","img/fixation.png","null","","test","","","","","",""
"275.30000001192093","227300","pSARL_v2","pSARL_v295pf2u23","633dc8e5addedfeac9a74b22","freq","img/green_2bandit_a2.png","70","70","test","1","79","79","4","",""
"null","227846","pSARL_v2","pSARL_v295pf2u23","633dc8e5addedfeac9a74b22","freq_resp","img/green_2bandit_a.png","70","70","test","","","","4","",""
"null","228005","pSARL_v2","pSARL_v295pf2u23","633dc8e5addedfeac9a74b22","fixation","img/fixation.png","null","","test","","","","","",""
"240.80000001192093","228252","pSARL_v2","pSARL_v295pf2u23","633dc8e5addedfeac9a74b22","freq","img/green_2bandit_a2.png","70","70","test","1","80","80","4","",""
"null","228827","pSARL_v2","pSARL_v295pf2u23","633dc8e5addedfeac9a74b22","freq_resp","img/green_2bandit_a.png","70","70","test","","","","4","",""
"null","228988","pSARL_v2","pSARL_v295pf2u23","633dc8e5addedfeac9a74b22","fixation","img/fixation.png","null","","test","","","","","",""
"261","229252","pSARL_v2","pSARL_v295pf2u23","633dc8e5addedfeac9a74b22","freq","img/green_2bandit_a2.png","70","70","test","1","81","81","4","",""
"null","229811","pSARL_v2","pSARL_v295pf2u23","633dc8e5addedfeac9a74b22","freq_resp","img/green_2bandit_a.png","70","70","test","","","","4","",""
"null","229972","pSARL_v2","pSARL_v295pf2u23","633dc8e5addedfeac9a74b22","fixation","img/fixation.png","null","","test","","","","","",""
"269.40000000596046","230244","pSARL_v2","pSARL_v295pf2u23","633dc8e5addedfeac9a74b22","freq","img/green_2bandit_a2.png","70","70","test","1","82","82","4","",""
"null","230793","pSARL_v2","pSARL_v295pf2u23","633dc8e5addedfeac9a74b22","freq_resp","img/green_2bandit_a.png","70","70","test","","","","4","",""
"null","230955","pSARL_v2","pSARL_v295pf2u23","633dc8e5addedfeac9a74b22","fixation","img/fixation.png","null","","test","","","","","",""
"238.59999999403954","231196","pSARL_v2","pSARL_v295pf2u23","633dc8e5addedfeac9a74b22","freq","img/green_2bandit_a2.png","70","70","test","1","83","83","4","",""
"null","231761","pSARL_v2","pSARL_v295pf2u23","633dc8e5addedfeac9a74b22","freq_resp","img/green_2bandit_a.png","70","70","test","","","","4","",""
"null","231921","pSARL_v2","pSARL_v295pf2u23","633dc8e5addedfeac9a74b22","fixation","img/fixation.png","null","","test","","","","","",""
"225.59999999403954","232150","pSARL_v2","pSARL_v295pf2u23","633dc8e5addedfeac9a74b22","infreq","img/orange_2bandit_a2.png","70","68","test","0","84","84","4","",""
"null","232744","pSARL_v2","pSARL_v295pf2u23","633dc8e5addedfeac9a74b22","infreq_resp","img/orange_2bandit_a.png","70","68","test","","","","4","",""
"null","232906","pSARL_v2","pSARL_v295pf2u23","633dc8e5addedfeac9a74b22","fixation","img/fixation.png","null","","test","","","","","",""
"295.5","233204","pSARL_v2","pSARL_v295pf2u23","633dc8e5addedfeac9a74b22","freq","img/green_2bandit_a2.png","70","70","test","1","85","85","4","",""
"null","233715","pSARL_v2","pSARL_v295pf2u23","633dc8e5addedfeac9a74b22","freq_resp","img/green_2bandit_a.png","70","70","test","","","","4","",""
"null","233888","pSARL_v2","pSARL_v295pf2u23","633dc8e5addedfeac9a74b22","fixation","img/fixation.png","null","","test","","","","","",""
"297.5","234188","pSARL_v2","pSARL_v295pf2u23","633dc8e5addedfeac9a74b22","freq","img/green_2bandit_a2.png","70","70","test","1","86","86","4","",""
"null","234699","pSARL_v2","pSARL_v295pf2u23","633dc8e5addedfeac9a74b22","freq_resp","img/green_2bandit_a.png","70","70","test","","","","4","",""
"null","234871","pSARL_v2","pSARL_v295pf2u23","633dc8e5addedfeac9a74b22","fixation","img/fixation.png","null","","test","","","","","",""
"274.30000001192093","235148","pSARL_v2","pSARL_v295pf2u23","633dc8e5addedfeac9a74b22","freq","img/green_2bandit_a2.png","70","70","test","1","87","87","4","",""
"null","235694","pSARL_v2","pSARL_v295pf2u23","633dc8e5addedfeac9a74b22","freq_resp","img/green_2bandit_a.png","70","70","test","","","","4","",""
"null","235855","pSARL_v2","pSARL_v295pf2u23","633dc8e5addedfeac9a74b22","fixation","img/fixation.png","null","","test","","","","","",""
"306.40000000596046","236164","pSARL_v2","pSARL_v295pf2u23","633dc8e5addedfeac9a74b22","freq","img/green_2bandit_a2.png","70","70","test","1","88","88","4","",""
"null","236671","pSARL_v2","pSARL_v295pf2u23","633dc8e5addedfeac9a74b22","freq_resp","img/green_2bandit_a.png","70","70","test","","","","4","",""
"null","236838","pSARL_v2","pSARL_v295pf2u23","633dc8e5addedfeac9a74b22","fixation","img/fixation.png","null","","test","","","","","",""
"323.09999999403954","237164","pSARL_v2","pSARL_v295pf2u23","633dc8e5addedfeac9a74b22","freq","img/green_2bandit_a2.png","70","70","test","1","89","89","4","",""
"null","237665","pSARL_v2","pSARL_v295pf2u23","633dc8e5addedfeac9a74b22","freq_resp","img/green_2bandit_a.png","70","70","test","","","","4","",""
"null","237822","pSARL_v2","pSARL_v295pf2u23","633dc8e5addedfeac9a74b22","fixation","img/fixation.png","null","","test","","","","","",""
"299.39999997615814","238124","pSARL_v2","pSARL_v295pf2u23","633dc8e5addedfeac9a74b22","freq","img/green_2bandit_a2.png","70","70","test","1","90","90","4","",""
"null","238631","pSARL_v2","pSARL_v295pf2u23","633dc8e5addedfeac9a74b22","freq_resp","img/green_2bandit_a.png","70","70","test","","","","4","",""
"null","238788","pSARL_v2","pSARL_v295pf2u23","633dc8e5addedfeac9a74b22","fixation","img/fixation.png","null","","test","","","","","",""
"244.89999997615814","239036","pSARL_v2","pSARL_v295pf2u23","633dc8e5addedfeac9a74b22","freq","img/green_2bandit_a2.png","70","70","test","1","91","91","4","",""
"null","239609","pSARL_v2","pSARL_v295pf2u23","633dc8e5addedfeac9a74b22","freq_resp","img/green_2bandit_a.png","70","70","test","","","","4","",""
"null","239771","pSARL_v2","pSARL_v295pf2u23","633dc8e5addedfeac9a74b22","fixation","img/fixation.png","null","","test","","","","","",""
"366","240140","pSARL_v2","pSARL_v295pf2u23","633dc8e5addedfeac9a74b22","reward","img/slot.png","74","","test","","","","","",""
"null","240904","pSARL_v2","pSARL_v295pf2u23","633dc8e5addedfeac9a74b22","points","<div class=""verylowPoints""> -3 </div>","null","na","test","","","","4","-3","3"
"521.5","241428","pSARL_v2","pSARL_v295pf2u23","633dc8e5addedfeac9a74b22","freq","img/green_2bandit_a2.png","70","70","test","1","92","92","5","",""
"null","241728","pSARL_v2","pSARL_v295pf2u23","633dc8e5addedfeac9a74b22","freq_resp","img/green_2bandit_a.png","70","70","test","","","","5","",""
"null","241888","pSARL_v2","pSARL_v295pf2u23","633dc8e5addedfeac9a74b22","fixation","img/fixation.png","null","","test","","","","","",""
"315.10000002384186","242206","pSARL_v2","pSARL_v295pf2u23","633dc8e5addedfeac9a74b22","freq","img/green_2bandit_a2.png","70","70","test","1","93","93","5","",""
"null","242699","pSARL_v2","pSARL_v295pf2u23","633dc8e5addedfeac9a74b22","freq_resp","img/green_2bandit_a.png","70","70","test","","","","5","",""
"null","242870","pSARL_v2","pSARL_v295pf2u23","633dc8e5addedfeac9a74b22","fixation","img/fixation.png","null","","test","","","","","",""
"307.19999998807907","243180","pSARL_v2","pSARL_v295pf2u23","633dc8e5addedfeac9a74b22","freq","img/green_2bandit_a2.png","70","70","test","1","94","94","5","",""
"null","243697","pSARL_v2","pSARL_v295pf2u23","633dc8e5addedfeac9a74b22","freq_resp","img/green_2bandit_a.png","70","70","test","","","","5","",""
"null","243854","pSARL_v2","pSARL_v295pf2u23","633dc8e5addedfeac9a74b22","fixation","img/fixation.png","null","","test","","","","","",""
"402.59999999403954","244260","pSARL_v2","pSARL_v295pf2u23","633dc8e5addedfeac9a74b22","infreq","img/orange_2bandit_a2.png","68","68","test","1","95","95","5","",""
"null","244671","pSARL_v2","pSARL_v295pf2u23","633dc8e5addedfeac9a74b22","infreq_resp","img/orange_2bandit_a.png","68","68","test","","","","5","",""
"null","244837","pSARL_v2","pSARL_v295pf2u23","633dc8e5addedfeac9a74b22","fixation","img/fixation.png","null","","test","","","","","",""
"323.5","245164","pSARL_v2","pSARL_v295pf2u23","633dc8e5addedfeac9a74b22","freq","img/green_2bandit_a2.png","70","70","test","1","96","96","5","",""
"null","245664","pSARL_v2","pSARL_v295pf2u23","633dc8e5addedfeac9a74b22","freq_resp","img/green_2bandit_a.png","70","70","test","","","","5","",""
"null","245821","pSARL_v2","pSARL_v295pf2u23","633dc8e5addedfeac9a74b22","fixation","img/fixation.png","null","","test","","","","","",""
"403.7999999821186","246228","pSARL_v2","pSARL_v295pf2u23","633dc8e5addedfeac9a74b22","infreq","img/orange_2bandit_a2.png","68","68","test","1","97","97","5","",""
"null","246637","pSARL_v2","pSARL_v295pf2u23","633dc8e5addedfeac9a74b22","infreq_resp","img/orange_2bandit_a.png","68","68","test","","","","5","",""
"null","246804","pSARL_v2","pSARL_v295pf2u23","633dc8e5addedfeac9a74b22","fixation","img/fixation.png","null","","test","","","","","",""
"316.5","247124","pSARL_v2","pSARL_v295pf2u23","633dc8e5addedfeac9a74b22","freq","img/green_2bandit_a2.png","70","70","test","1","98","98","5","",""
"null","247615","pSARL_v2","pSARL_v295pf2u23","633dc8e5addedfeac9a74b22","freq_resp","img/green_2bandit_a.png","70","70","test","","","","5","",""
"null","247787","pSARL_v2","pSARL_v295pf2u23","633dc8e5addedfeac9a74b22","fixation","img/fixation.png","null","","test","","","","","",""
"366.19999998807907","248156","pSARL_v2","pSARL_v295pf2u23","633dc8e5addedfeac9a74b22","freq","img/green_2bandit_a2.png","70","70","test","1","99","99","5","",""
"null","248602","pSARL_v2","pSARL_v295pf2u23","633dc8e5addedfeac9a74b22","freq_resp","img/green_2bandit_a.png","70","70","test","","","","5","",""
"null","248770","pSARL_v2","pSARL_v295pf2u23","633dc8e5addedfeac9a74b22","fixation","img/fixation.png","null","","test","","","","","",""
"287","249060","pSARL_v2","pSARL_v295pf2u23","633dc8e5addedfeac9a74b22","freq","img/green_2bandit_a2.png","70","70","test","1","100","100","5","",""
"null","249578","pSARL_v2","pSARL_v295pf2u23","633dc8e5addedfeac9a74b22","freq_resp","img/green_2bandit_a.png","70","70","test","","","","5","",""
"null","249754","pSARL_v2","pSARL_v295pf2u23","633dc8e5addedfeac9a74b22","fixation","img/fixation.png","null","","test","","","","","",""
"303.19999998807907","250060","pSARL_v2","pSARL_v295pf2u23","633dc8e5addedfeac9a74b22","freq","img/green_2bandit_a2.png","70","70","test","1","101","101","5","",""
"null","250578","pSARL_v2","pSARL_v295pf2u23","633dc8e5addedfeac9a74b22","freq_resp","img/green_2bandit_a.png","70","70","test","","","","5","",""
"null","250753","pSARL_v2","pSARL_v295pf2u23","633dc8e5addedfeac9a74b22","fixation","img/fixation.png","null","","test","","","","","",""
"263.69999998807907","251020","pSARL_v2","pSARL_v295pf2u23","633dc8e5addedfeac9a74b22","freq","img/green_2bandit_a2.png","70","70","test","1","102","102","5","",""
"null","251578","pSARL_v2","pSARL_v295pf2u23","633dc8e5addedfeac9a74b22","freq_resp","img/green_2bandit_a.png","70","70","test","","","","5","",""
"null","251753","pSARL_v2","pSARL_v295pf2u23","633dc8e5addedfeac9a74b22","fixation","img/fixation.png","null","","test","","","","","",""
"248.09999999403954","252004","pSARL_v2","pSARL_v295pf2u23","633dc8e5addedfeac9a74b22","freq","img/green_2bandit_a2.png","70","70","test","1","103","103","5","",""
"null","252577","pSARL_v2","pSARL_v295pf2u23","633dc8e5addedfeac9a74b22","freq_resp","img/green_2bandit_a.png","70","70","test","","","","5","",""
"null","252738","pSARL_v2","pSARL_v295pf2u23","633dc8e5addedfeac9a74b22","fixation","img/fixation.png","null","","test","","","","","",""
"288.89999997615814","253030","pSARL_v2","pSARL_v295pf2u23","633dc8e5addedfeac9a74b22","freq","img/green_2bandit_a2.png","70","70","test","1","104","104","5","",""
"null","253546","pSARL_v2","pSARL_v295pf2u23","633dc8e5addedfeac9a74b22","freq_resp","img/green_2bandit_a.png","70","70","test","","","","5","",""
"null","253719","pSARL_v2","pSARL_v295pf2u23","633dc8e5addedfeac9a74b22","fixation","img/fixation.png","null","","test","","","","","",""
"257.5","253980","pSARL_v2","pSARL_v295pf2u23","633dc8e5addedfeac9a74b22","freq","img/green_2bandit_a2.png","70","70","test","1","105","105","5","",""
"null","254543","pSARL_v2","pSARL_v295pf2u23","633dc8e5addedfeac9a74b22","freq_resp","img/green_2bandit_a.png","70","70","test","","","","5","",""
"null","254704","pSARL_v2","pSARL_v295pf2u23","633dc8e5addedfeac9a74b22","fixation","img/fixation.png","null","","test","","","","","",""
"297.09999999403954","255004","pSARL_v2","pSARL_v295pf2u23","633dc8e5addedfeac9a74b22","freq","img/green_2bandit_a2.png","70","70","test","1","106","106","5","",""
"null","255515","pSARL_v2","pSARL_v295pf2u23","633dc8e5addedfeac9a74b22","freq_resp","img/green_2bandit_a.png","70","70","test","","","","5","",""
"null","255686","pSARL_v2","pSARL_v295pf2u23","633dc8e5addedfeac9a74b22","fixation","img/fixation.png","null","","test","","","","","",""
"90.30000001192093","255780","pSARL_v2","pSARL_v295pf2u23","633dc8e5addedfeac9a74b22","freq","img/green_2bandit_a2.png","70","70","test","1","107","107","5","",""
"null","256515","pSARL_v2","pSARL_v295pf2u23","633dc8e5addedfeac9a74b22","freq_resp","img/green_2bandit_a.png","70","70","test","","","","5","",""
"null","256686","pSARL_v2","pSARL_v295pf2u23","633dc8e5addedfeac9a74b22","fixation","img/fixation.png","null","","test","","","","","",""
"290.5","256980","pSARL_v2","pSARL_v295pf2u23","633dc8e5addedfeac9a74b22","freq","img/green_2bandit_a2.png","70","70","test","1","108","108","5","",""
"null","257498","pSARL_v2","pSARL_v295pf2u23","633dc8e5addedfeac9a74b22","freq_resp","img/green_2bandit_a.png","70","70","test","","","","5","",""
"null","257669","pSARL_v2","pSARL_v295pf2u23","633dc8e5addedfeac9a74b22","fixation","img/fixation.png","null","","test","","","","","",""
"299.30000001192093","257972","pSARL_v2","pSARL_v295pf2u23","633dc8e5addedfeac9a74b22","freq","img/green_2bandit_a2.png","70","70","test","1","109","109","5","",""
"null","258481","pSARL_v2","pSARL_v295pf2u23","633dc8e5addedfeac9a74b22","freq_resp","img/green_2bandit_a.png","70","70","test","","","","5","",""
"null","258637","pSARL_v2","pSARL_v295pf2u23","633dc8e5addedfeac9a74b22","fixation","img/fixation.png","null","","test","","","","","",""
"267.7000000178814","258908","pSARL_v2","pSARL_v295pf2u23","633dc8e5addedfeac9a74b22","freq","img/green_2bandit_a2.png","70","70","test","1","110","110","5","",""
"null","259461","pSARL_v2","pSARL_v295pf2u23","633dc8e5addedfeac9a74b22","freq_resp","img/green_2bandit_a.png","70","70","test","","","","5","",""
"null","259620","pSARL_v2","pSARL_v295pf2u23","633dc8e5addedfeac9a74b22","fixation","img/fixation.png","null","","test","","","","","",""
"300.30000001192093","259924","pSARL_v2","pSARL_v295pf2u23","633dc8e5addedfeac9a74b22","freq","img/green_2bandit_a2.png","70","70","test","1","111","111","5","",""
"null","260431","pSARL_v2","pSARL_v295pf2u23","633dc8e5addedfeac9a74b22","freq_resp","img/green_2bandit_a.png","70","70","test","","","","5","",""
"null","260603","pSARL_v2","pSARL_v295pf2u23","633dc8e5addedfeac9a74b22","fixation","img/fixation.png","null","","test","","","","","",""
"null","261426","pSARL_v2","pSARL_v295pf2u23","633dc8e5addedfeac9a74b22","infreq","img/orange_2bandit_a2.png","null","68","test","0","112","112","5","",""
"null","261587","pSARL_v2","pSARL_v295pf2u23","633dc8e5addedfeac9a74b22","fixation","img/fixation.png","null","","test","","","","","",""
"717.5","262308","pSARL_v2","pSARL_v295pf2u23","633dc8e5addedfeac9a74b22","freq","img/green_2bandit_a2.png","70","70","test","1","113","113","5","",""
"null","262408","pSARL_v2","pSARL_v295pf2u23","633dc8e5addedfeac9a74b22","freq_resp","img/green_2bandit_a.png","70","70","test","","","","5","",""
"null","262570","pSARL_v2","pSARL_v295pf2u23","633dc8e5addedfeac9a74b22","fixation","img/fixation.png","null","","test","","","","","",""
"430.30000001192093","263004","pSARL_v2","pSARL_v295pf2u23","633dc8e5addedfeac9a74b22","freq","img/green_2bandit_a2.png","70","70","test","1","114","114","5","",""
"null","263389","pSARL_v2","pSARL_v295pf2u23","633dc8e5addedfeac9a74b22","freq_resp","img/green_2bandit_a.png","70","70","test","","","","5","",""
"null","263554","pSARL_v2","pSARL_v295pf2u23","633dc8e5addedfeac9a74b22","fixation","img/fixation.png","null","","test","","","","","",""
"440.90000000596046","263998","pSARL_v2","pSARL_v295pf2u23","633dc8e5addedfeac9a74b22","reward","img/slot.png","74","","test","","","","","",""
"null","264762","pSARL_v2","pSARL_v295pf2u23","633dc8e5addedfeac9a74b22","points","<div class=""veryhighPoints""> +1 </div>","null","na","test","","","","5","1","4"
"790.1000000238419","265556","pSARL_v2","pSARL_v295pf2u23","633dc8e5addedfeac9a74b22","freq","img/green_2bandit_a2.png","70","70","test","1","115","115","6","",""
"null","265576","pSARL_v2","pSARL_v295pf2u23","633dc8e5addedfeac9a74b22","freq_resp","img/green_2bandit_a.png","70","70","test","","","","6","",""
"null","265735","pSARL_v2","pSARL_v295pf2u23","633dc8e5addedfeac9a74b22","fixation","img/fixation.png","null","","test","","","","","",""
"457.2000000178814","266196","pSARL_v2","pSARL_v295pf2u23","633dc8e5addedfeac9a74b22","freq","img/green_2bandit_a2.png","70","70","test","1","116","116","6","",""
"null","266556","pSARL_v2","pSARL_v295pf2u23","633dc8e5addedfeac9a74b22","freq_resp","img/green_2bandit_a.png","70","70","test","","","","6","",""
"null","266720","pSARL_v2","pSARL_v295pf2u23","633dc8e5addedfeac9a74b22","fixation","img/fixation.png","null","","test","","","","","",""
"312.2000000178814","267036","pSARL_v2","pSARL_v295pf2u23","633dc8e5addedfeac9a74b22","freq","img/green_2bandit_a2.png","70","70","test","1","117","117","6","",""
"null","267532","pSARL_v2","pSARL_v295pf2u23","633dc8e5addedfeac9a74b22","freq_resp","img/green_2bandit_a.png","70","70","test","","","","6","",""
"null","267703","pSARL_v2","pSARL_v295pf2u23","633dc8e5addedfeac9a74b22","fixation","img/fixation.png","null","","test","","","","","",""
"306","268012","pSARL_v2","pSARL_v295pf2u23","633dc8e5addedfeac9a74b22","freq","img/green_2bandit_a2.png","70","70","test","1","118","118","6","",""
"null","268516","pSARL_v2","pSARL_v295pf2u23","633dc8e5addedfeac9a74b22","freq_resp","img/green_2bandit_a.png","70","70","test","","","","6","",""
"null","268686","pSARL_v2","pSARL_v295pf2u23","633dc8e5addedfeac9a74b22","fixation","img/fixation.png","null","","test","","","","","",""
"474.09999999403954","269164","pSARL_v2","pSARL_v295pf2u23","633dc8e5addedfeac9a74b22","infreq","img/orange_2bandit_a2.png","68","68","test","1","119","119","6","",""
"null","269508","pSARL_v2","pSARL_v295pf2u23","633dc8e5addedfeac9a74b22","infreq_resp","img/orange_2bandit_a.png","68","68","test","","","","6","",""
"null","269670","pSARL_v2","pSARL_v295pf2u23","633dc8e5addedfeac9a74b22","fixation","img/fixation.png","null","","test","","","","","",""
"330","270004","pSARL_v2","pSARL_v295pf2u23","633dc8e5addedfeac9a74b22","freq","img/green_2bandit_a2.png","70","70","test","1","120","120","6","",""
"null","270498","pSARL_v2","pSARL_v295pf2u23","633dc8e5addedfeac9a74b22","freq_resp","img/green_2bandit_a.png","70","70","test","","","","6","",""
"null","270669","pSARL_v2","pSARL_v295pf2u23","633dc8e5addedfeac9a74b22","fixation","img/fixation.png","null","","test","","","","","",""
"299.19999998807907","270972","pSARL_v2","pSARL_v295pf2u23","633dc8e5addedfeac9a74b22","freq","img/green_2bandit_a2.png","70","70","test","1","121","121","6","",""
"null","271480","pSARL_v2","pSARL_v295pf2u23","633dc8e5addedfeac9a74b22","freq_resp","img/green_2bandit_a.png","70","70","test","","","","6","",""
"null","271637","pSARL_v2","pSARL_v295pf2u23","633dc8e5addedfeac9a74b22","fixation","img/fixation.png","null","","test","","","","","",""
"291.59999999403954","271932","pSARL_v2","pSARL_v295pf2u23","633dc8e5addedfeac9a74b22","freq","img/green_2bandit_a2.png","70","70","test","1","122","122","6","",""
"null","272446","pSARL_v2","pSARL_v295pf2u23","633dc8e5addedfeac9a74b22","freq_resp","img/green_2bandit_a.png","70","70","test","","","","6","",""
"null","272619","pSARL_v2","pSARL_v295pf2u23","633dc8e5addedfeac9a74b22","fixation","img/fixation.png","null","","test","","","","","",""
"173.59999999403954","272796","pSARL_v2","pSARL_v295pf2u23","633dc8e5addedfeac9a74b22","freq","img/green_2bandit_a2.png","70","70","test","1","123","123","6","",""
"null","273437","pSARL_v2","pSARL_v295pf2u23","633dc8e5addedfeac9a74b22","freq_resp","img/green_2bandit_a.png","70","70","test","","","","6","",""
"null","273604","pSARL_v2","pSARL_v295pf2u23","633dc8e5addedfeac9a74b22","fixation","img/fixation.png","null","","test","","","","","",""
"252.69999998807907","273860","pSARL_v2","pSARL_v295pf2u23","633dc8e5addedfeac9a74b22","freq","img/green_2bandit_a2.png","70","70","test","1","124","124","6","",""
"null","274426","pSARL_v2","pSARL_v295pf2u23","633dc8e5addedfeac9a74b22","freq_resp","img/green_2bandit_a.png","70","70","test","","","","6","",""
"null","274603","pSARL_v2","pSARL_v295pf2u23","633dc8e5addedfeac9a74b22","fixation","img/fixation.png","null","","test","","","","","",""
"295.59999999403954","274901","pSARL_v2","pSARL_v295pf2u23","633dc8e5addedfeac9a74b22","freq","img/green_2bandit_a2.png","70","70","test","1","125","125","6","",""
"null","275413","pSARL_v2","pSARL_v295pf2u23","633dc8e5addedfeac9a74b22","freq_resp","img/green_2bandit_a.png","70","70","test","","","","6","",""
"null","275585","pSARL_v2","pSARL_v295pf2u23","633dc8e5addedfeac9a74b22","fixation","img/fixation.png","null","","test","","","","","",""
"271.09999999403954","275860","pSARL_v2","pSARL_v295pf2u23","633dc8e5addedfeac9a74b22","freq","img/green_2bandit_a2.png","70","70","test","1","126","126","6","",""
"null","276395","pSARL_v2","pSARL_v295pf2u23","633dc8e5addedfeac9a74b22","freq_resp","img/green_2bandit_a.png","70","70","test","","","","6","",""
"null","276569","pSARL_v2","pSARL_v295pf2u23","633dc8e5addedfeac9a74b22","fixation","img/fixation.png","null","","test","","","","","",""
"271.69999998807907","276844","pSARL_v2","pSARL_v295pf2u23","633dc8e5addedfeac9a74b22","freq","img/green_2bandit_a2.png","70","70","test","1","127","127","6","",""
"null","277379","pSARL_v2","pSARL_v295pf2u23","633dc8e5addedfeac9a74b22","freq_resp","img/green_2bandit_a.png","70","70","test","","","","6","",""
"null","277552","pSARL_v2","pSARL_v295pf2u23","633dc8e5addedfeac9a74b22","fixation","img/fixation.png","null","","test","","","","","",""
"232.7999999821186","277788","pSARL_v2","pSARL_v295pf2u23","633dc8e5addedfeac9a74b22","freq","img/green_2bandit_a2.png","70","70","test","1","128","128","6","",""
"null","278374","pSARL_v2","pSARL_v295pf2u23","633dc8e5addedfeac9a74b22","freq_resp","img/green_2bandit_a.png","70","70","test","","","","6","",""
"null","278535","pSARL_v2","pSARL_v295pf2u23","633dc8e5addedfeac9a74b22","fixation","img/fixation.png","null","","test","","","","","",""
"295.69999998807907","278834","pSARL_v2","pSARL_v295pf2u23","633dc8e5addedfeac9a74b22","freq","img/green_2bandit_a2.png","70","70","test","1","129","129","6","",""
"null","279344","pSARL_v2","pSARL_v295pf2u23","633dc8e5addedfeac9a74b22","freq_resp","img/green_2bandit_a.png","70","70","test","","","","6","",""
"null","279517","pSARL_v2","pSARL_v295pf2u23","633dc8e5addedfeac9a74b22","fixation","img/fixation.png","null","","test","","","","","",""
"281.59999999403954","279802","pSARL_v2","pSARL_v295pf2u23","633dc8e5addedfeac9a74b22","freq","img/green_2bandit_a2.png","70","70","test","1","130","130","6","",""
"null","280342","pSARL_v2","pSARL_v295pf2u23","633dc8e5addedfeac9a74b22","freq_resp","img/green_2bandit_a.png","70","70","test","","","","6","",""
"null","280501","pSARL_v2","pSARL_v295pf2u23","633dc8e5addedfeac9a74b22","fixation","img/fixation.png","null","","test","","","","","",""
"329.30000001192093","280834","pSARL_v2","pSARL_v295pf2u23","633dc8e5addedfeac9a74b22","infreq","img/orange_2bandit_a2.png","68","68","test","1","131","131","6","",""
"null","281314","pSARL_v2","pSARL_v295pf2u23","633dc8e5addedfeac9a74b22","infreq_resp","img/orange_2bandit_a.png","68","68","test","","","","6","",""
"null","281483","pSARL_v2","pSARL_v295pf2u23","633dc8e5addedfeac9a74b22","fixation","img/fixation.png","null","","test","","","","","",""
"299.19999998807907","281786","pSARL_v2","pSARL_v295pf2u23","633dc8e5addedfeac9a74b22","freq","img/green_2bandit_a2.png","70","70","test","1","132","132","6","",""
"null","282295","pSARL_v2","pSARL_v295pf2u23","633dc8e5addedfeac9a74b22","freq_resp","img/green_2bandit_a.png","70","70","test","","","","6","",""
"null","282451","pSARL_v2","pSARL_v295pf2u23","633dc8e5addedfeac9a74b22","fixation","img/fixation.png","null","","test","","","","","",""
"259.69999998807907","282714","pSARL_v2","pSARL_v295pf2u23","633dc8e5addedfeac9a74b22","freq","img/green_2bandit_a2.png","70","70","test","1","133","133","6","",""
"null","283274","pSARL_v2","pSARL_v295pf2u23","633dc8e5addedfeac9a74b22","freq_resp","img/green_2bandit_a.png","70","70","test","","","","6","",""
"null","283435","pSARL_v2","pSARL_v295pf2u23","633dc8e5addedfeac9a74b22","fixation","img/fixation.png","null","","test","","","","","",""
"259.69999998807907","283698","pSARL_v2","pSARL_v295pf2u23","633dc8e5addedfeac9a74b22","freq","img/green_2bandit_a2.png","70","70","test","1","134","134","6","",""
"null","284256","pSARL_v2","pSARL_v295pf2u23","633dc8e5addedfeac9a74b22","freq_resp","img/green_2bandit_a.png","70","70","test","","","","6","",""
"null","284418","pSARL_v2","pSARL_v295pf2u23","633dc8e5addedfeac9a74b22","fixation","img/fixation.png","null","","test","","","","","",""
"284.80000001192093","284706","pSARL_v2","pSARL_v295pf2u23","633dc8e5addedfeac9a74b22","freq","img/green_2bandit_a2.png","70","70","test","1","135","135","6","",""
"null","285227","pSARL_v2","pSARL_v295pf2u23","633dc8e5addedfeac9a74b22","freq_resp","img/green_2bandit_a.png","70","70","test","","","","6","",""
"null","285400","pSARL_v2","pSARL_v295pf2u23","633dc8e5addedfeac9a74b22","fixation","img/fixation.png","null","","test","","","","","",""
"280.5","285683","pSARL_v2","pSARL_v295pf2u23","633dc8e5addedfeac9a74b22","freq","img/green_2bandit_a2.png","70","70","test","1","136","136","6","",""
"null","286210","pSARL_v2","pSARL_v295pf2u23","633dc8e5addedfeac9a74b22","freq_resp","img/green_2bandit_a.png","70","70","test","","","","6","",""
"null","286371","pSARL_v2","pSARL_v295pf2u23","633dc8e5addedfeac9a74b22","fixation","img/fixation.png","null","","test","","","","","",""
"371.30000001192093","286746","pSARL_v2","pSARL_v295pf2u23","633dc8e5addedfeac9a74b22","reward","img/slot.png","74","","test","","","","","",""
"null","287509","pSARL_v2","pSARL_v295pf2u23","633dc8e5addedfeac9a74b22","points","<div class=""verylowPoints""> -7 </div>","null","na","test","","","","6","-7","5"
"529.5","288042","pSARL_v2","pSARL_v295pf2u23","633dc8e5addedfeac9a74b22","freq","img/green_2bandit_a2.png","70","70","test","1","137","137","7","",""
"null","288326","pSARL_v2","pSARL_v295pf2u23","633dc8e5addedfeac9a74b22","freq_resp","img/green_2bandit_a.png","70","70","test","","","","7","",""
"null","288484","pSARL_v2","pSARL_v295pf2u23","633dc8e5addedfeac9a74b22","fixation","img/fixation.png","null","","test","","","","","",""
"282.30000001192093","288770","pSARL_v2","pSARL_v295pf2u23","633dc8e5addedfeac9a74b22","freq","img/green_2bandit_a2.png","70","70","test","1","138","138","7","",""
"null","289309","pSARL_v2","pSARL_v295pf2u23","633dc8e5addedfeac9a74b22","freq_resp","img/green_2bandit_a.png","70","70","test","","","","7","",""
"null","289467","pSARL_v2","pSARL_v295pf2u23","633dc8e5addedfeac9a74b22","fixation","img/fixation.png","null","","test","","","","","",""
"299","289770","pSARL_v2","pSARL_v295pf2u23","633dc8e5addedfeac9a74b22","freq","img/green_2bandit_a2.png","70","70","test","1","139","139","7","",""
"null","290278","pSARL_v2","pSARL_v295pf2u23","633dc8e5addedfeac9a74b22","freq_resp","img/green_2bandit_a.png","70","70","test","","","","7","",""
"null","290434","pSARL_v2","pSARL_v295pf2u23","633dc8e5addedfeac9a74b22","fixation","img/fixation.png","null","","test","","","","","",""
"284.5","290722","pSARL_v2","pSARL_v295pf2u23","633dc8e5addedfeac9a74b22","freq","img/green_2bandit_a2.png","70","70","test","1","140","140","7","",""
"null","291243","pSARL_v2","pSARL_v295pf2u23","633dc8e5addedfeac9a74b22","freq_resp","img/green_2bandit_a.png","70","70","test","","","","7","",""
"null","291416","pSARL_v2","pSARL_v295pf2u23","633dc8e5addedfeac9a74b22","fixation","img/fixation.png","null","","test","","","","","",""
"270","291690","pSARL_v2","pSARL_v295pf2u23","633dc8e5addedfeac9a74b22","freq","img/green_2bandit_a2.png","70","70","test","1","141","141","7","",""
"null","292226","pSARL_v2","pSARL_v295pf2u23","633dc8e5addedfeac9a74b22","freq_resp","img/green_2bandit_a.png","70","70","test","","","","7","",""
"null","292399","pSARL_v2","pSARL_v295pf2u23","633dc8e5addedfeac9a74b22","fixation","img/fixation.png","null","","test","","","","","",""
"278.90000000596046","292682","pSARL_v2","pSARL_v295pf2u23","633dc8e5addedfeac9a74b22","freq","img/green_2bandit_a2.png","70","70","test","1","142","142","7","",""
"null","293224","pSARL_v2","pSARL_v295pf2u23","633dc8e5addedfeac9a74b22","freq_resp","img/green_2bandit_a.png","70","70","test","","","","7","",""
"null","293400","pSARL_v2","pSARL_v295pf2u23","633dc8e5addedfeac9a74b22","fixation","img/fixation.png","null","","test","","","","","",""
"214.2000000178814","293618","pSARL_v2","pSARL_v295pf2u23","633dc8e5addedfeac9a74b22","freq","img/green_2bandit_a2.png","70","70","test","1","143","143","7","",""
"null","294221","pSARL_v2","pSARL_v295pf2u23","633dc8e5addedfeac9a74b22","freq_resp","img/green_2bandit_a.png","70","70","test","","","","7","",""
"null","294384","pSARL_v2","pSARL_v295pf2u23","633dc8e5addedfeac9a74b22","fixation","img/fixation.png","null","","test","","","","","",""
"214.10000002384186","294602","pSARL_v2","pSARL_v295pf2u23","633dc8e5addedfeac9a74b22","infreq","img/orange_2bandit_a2.png","70","68","test","0","144","144","7","",""
"null","295194","pSARL_v2","pSARL_v295pf2u23","633dc8e5addedfeac9a74b22","infreq_resp","img/orange_2bandit_a.png","70","68","test","","","","7","",""
"null","295366","pSARL_v2","pSARL_v295pf2u23","633dc8e5addedfeac9a74b22","fixation","img/fixation.png","null","","test","","","","","",""
"441.80000001192093","295811","pSARL_v2","pSARL_v295pf2u23","633dc8e5addedfeac9a74b22","infreq","img/orange_2bandit_a2.png","68","68","test","1","145","145","7","",""
"null","296186","pSARL_v2","pSARL_v295pf2u23","633dc8e5addedfeac9a74b22","infreq_resp","img/orange_2bandit_a.png","68","68","test","","","","7","",""
"null","296350","pSARL_v2","pSARL_v295pf2u23","633dc8e5addedfeac9a74b22","fixation","img/fixation.png","null","","test","","","","","",""
"351.80000001192093","296706","pSARL_v2","pSARL_v295pf2u23","633dc8e5addedfeac9a74b22","freq","img/green_2bandit_a2.png","70","70","test","1","146","146","7","",""
"null","297163","pSARL_v2","pSARL_v295pf2u23","633dc8e5addedfeac9a74b22","freq_resp","img/green_2bandit_a.png","70","70","test","","","","7","",""
"null","297333","pSARL_v2","pSARL_v295pf2u23","633dc8e5addedfeac9a74b22","fixation","img/fixation.png","null","","test","","","","","",""
"313","297649","pSARL_v2","pSARL_v295pf2u23","633dc8e5addedfeac9a74b22","freq","img/green_2bandit_a2.png","70","70","test","1","147","147","7","",""
"null","298145","pSARL_v2","pSARL_v295pf2u23","633dc8e5addedfeac9a74b22","freq_resp","img/green_2bandit_a.png","70","70","test","","","","7","",""
"null","298317","pSARL_v2","pSARL_v295pf2u23","633dc8e5addedfeac9a74b22","fixation","img/fixation.png","null","","test","","","","","",""
"273.69999998807907","298593","pSARL_v2","pSARL_v295pf2u23","633dc8e5addedfeac9a74b22","freq","img/green_2bandit_a2.png","70","70","test","1","148","148","7","",""
"null","299140","pSARL_v2","pSARL_v295pf2u23","633dc8e5addedfeac9a74b22","freq_resp","img/green_2bandit_a.png","70","70","test","","","","7","",""
"null","299300","pSARL_v2","pSARL_v295pf2u23","633dc8e5addedfeac9a74b22","fixation","img/fixation.png","null","","test","","","","","",""
"217.80000001192093","299521","pSARL_v2","pSARL_v295pf2u23","633dc8e5addedfeac9a74b22","freq","img/green_2bandit_a2.png","70","70","test","1","149","149","7","",""
"null","300120","pSARL_v2","pSARL_v295pf2u23","633dc8e5addedfeac9a74b22","freq_resp","img/green_2bandit_a.png","70","70","test","","","","7","",""
"null","300284","pSARL_v2","pSARL_v295pf2u23","633dc8e5addedfeac9a74b22","fixation","img/fixation.png","null","","test","","","","","",""
"258.5","300546","pSARL_v2","pSARL_v295pf2u23","633dc8e5addedfeac9a74b22","freq","img/green_2bandit_a2.png","70","70","test","1","150","150","7","",""
"null","301105","pSARL_v2","pSARL_v295pf2u23","633dc8e5addedfeac9a74b22","freq_resp","img/green_2bandit_a.png","70","70","test","","","","7","",""
"null","301266","pSARL_v2","pSARL_v295pf2u23","633dc8e5addedfeac9a74b22","fixation","img/fixation.png","null","","test","","","","","",""
"292.10000002384186","301561","pSARL_v2","pSARL_v295pf2u23","633dc8e5addedfeac9a74b22","freq","img/green_2bandit_a2.png","70","70","test","1","151","151","7","",""
"null","302074","pSARL_v2","pSARL_v295pf2u23","633dc8e5addedfeac9a74b22","freq_resp","img/green_2bandit_a.png","70","70","test","","","","7","",""
"null","302248","pSARL_v2","pSARL_v295pf2u23","633dc8e5addedfeac9a74b22","fixation","img/fixation.png","null","","test","","","","","",""
"278.40000000596046","302529","pSARL_v2","pSARL_v295pf2u23","633dc8e5addedfeac9a74b22","freq","img/green_2bandit_a2.png","70","70","test","1","152","152","7","",""
"null","303072","pSARL_v2","pSARL_v295pf2u23","633dc8e5addedfeac9a74b22","freq_resp","img/green_2bandit_a.png","70","70","test","","","","7","",""
"null","303249","pSARL_v2","pSARL_v295pf2u23","633dc8e5addedfeac9a74b22","fixation","img/fixation.png","null","","test","","","","","",""
"117.59999999403954","303369","pSARL_v2","pSARL_v295pf2u23","633dc8e5addedfeac9a74b22","freq","img/green_2bandit_a2.png","70","70","test","1","153","153","7","",""
"null","304063","pSARL_v2","pSARL_v295pf2u23","633dc8e5addedfeac9a74b22","freq_resp","img/green_2bandit_a.png","70","70","test","","","","7","",""
"null","304232","pSARL_v2","pSARL_v295pf2u23","633dc8e5addedfeac9a74b22","fixation","img/fixation.png","null","","test","","","","","",""
"262.2999999821186","304497","pSARL_v2","pSARL_v295pf2u23","633dc8e5addedfeac9a74b22","freq","img/green_2bandit_a2.png","70","70","test","1","154","154","7","",""
"null","305055","pSARL_v2","pSARL_v295pf2u23","633dc8e5addedfeac9a74b22","freq_resp","img/green_2bandit_a.png","70","70","test","","","","7","",""
"null","305216","pSARL_v2","pSARL_v295pf2u23","633dc8e5addedfeac9a74b22","fixation","img/fixation.png","null","","test","","","","","",""
"254.2999999821186","305473","pSARL_v2","pSARL_v295pf2u23","633dc8e5addedfeac9a74b22","freq","img/green_2bandit_a2.png","70","70","test","1","155","155","7","",""
"null","306038","pSARL_v2","pSARL_v295pf2u23","633dc8e5addedfeac9a74b22","freq_resp","img/green_2bandit_a.png","70","70","test","","","","7","",""
"null","306199","pSARL_v2","pSARL_v295pf2u23","633dc8e5addedfeac9a74b22","fixation","img/fixation.png","null","","test","","","","","",""
"280.7999999821186","306483","pSARL_v2","pSARL_v295pf2u23","633dc8e5addedfeac9a74b22","freq","img/green_2bandit_a2.png","70","70","test","1","156","156","7","",""
"null","307024","pSARL_v2","pSARL_v295pf2u23","633dc8e5addedfeac9a74b22","freq_resp","img/green_2bandit_a.png","70","70","test","","","","7","",""
"null","307199","pSARL_v2","pSARL_v295pf2u23","633dc8e5addedfeac9a74b22","fixation","img/fixation.png","null","","test","","","","","",""
"255.5","307457","pSARL_v2","pSARL_v295pf2u23","633dc8e5addedfeac9a74b22","freq","img/green_2bandit_a2.png","70","70","test","1","157","157","7","",""
"null","308021","pSARL_v2","pSARL_v295pf2u23","633dc8e5addedfeac9a74b22","freq_resp","img/green_2bandit_a.png","70","70","test","","","","7","",""
"null","308182","pSARL_v2","pSARL_v295pf2u23","633dc8e5addedfeac9a74b22","fixation","img/fixation.png","null","","test","","","","","",""
"271.90000000596046","308457","pSARL_v2","pSARL_v295pf2u23","633dc8e5addedfeac9a74b22","freq","img/green_2bandit_a2.png","70","70","test","1","158","158","7","",""
"null","309005","pSARL_v2","pSARL_v295pf2u23","633dc8e5addedfeac9a74b22","freq_resp","img/green_2bandit_a.png","70","70","test","","","","7","",""
"null","309166","pSARL_v2","pSARL_v295pf2u23","633dc8e5addedfeac9a74b22","fixation","img/fixation.png","null","","test","","","","","",""
"271.7999999821186","309442","pSARL_v2","pSARL_v295pf2u23","633dc8e5addedfeac9a74b22","freq","img/green_2bandit_a2.png","70","70","test","1","159","159","7","",""
"null","309991","pSARL_v2","pSARL_v295pf2u23","633dc8e5addedfeac9a74b22","freq_resp","img/green_2bandit_a.png","70","70","test","","","","7","",""
"null","310149","pSARL_v2","pSARL_v295pf2u23","633dc8e5addedfeac9a74b22","fixation","img/fixation.png","null","","test","","","","","",""
"273.30000001192093","310425","pSARL_v2","pSARL_v295pf2u23","633dc8e5addedfeac9a74b22","freq","img/green_2bandit_a2.png","70","70","test","1","160","160","7","",""
"null","310973","pSARL_v2","pSARL_v295pf2u23","633dc8e5addedfeac9a74b22","freq_resp","img/green_2bandit_a.png","70","70","test","","","","7","",""
"null","311132","pSARL_v2","pSARL_v295pf2u23","633dc8e5addedfeac9a74b22","fixation","img/fixation.png","null","","test","","","","","",""
"394.09999999403954","311529","pSARL_v2","pSARL_v295pf2u23","633dc8e5addedfeac9a74b22","reward","img/slot.png","74","","test","","","","","",""
"null","312291","pSARL_v2","pSARL_v295pf2u23","633dc8e5addedfeac9a74b22","points","<div class=""verylowPoints""> -6 </div>","null","na","test","","","","7","-6","6"
"322.90000000596046","312617","pSARL_v2","pSARL_v295pf2u23","633dc8e5addedfeac9a74b22","freq","img/green_2bandit_a2.png","70","70","test","1","161","161","8","",""
"null","313111","pSARL_v2","pSARL_v295pf2u23","633dc8e5addedfeac9a74b22","freq_resp","img/green_2bandit_a.png","70","70","test","","","","8","",""
"null","313266","pSARL_v2","pSARL_v295pf2u23","633dc8e5addedfeac9a74b22","fixation","img/fixation.png","null","","test","","","","","",""
"315.80000001192093","313585","pSARL_v2","pSARL_v295pf2u23","633dc8e5addedfeac9a74b22","freq","img/green_2bandit_a2.png","70","70","test","1","162","162","8","",""
"null","314078","pSARL_v2","pSARL_v295pf2u23","633dc8e5addedfeac9a74b22","freq_resp","img/green_2bandit_a.png","70","70","test","","","","8","",""
"null","314248","pSARL_v2","pSARL_v295pf2u23","633dc8e5addedfeac9a74b22","fixation","img/fixation.png","null","","test","","","","","",""
"342.09999999403954","314593","pSARL_v2","pSARL_v295pf2u23","633dc8e5addedfeac9a74b22","freq","img/green_2bandit_a2.png","70","70","test","1","163","163","8","",""
"null","315063","pSARL_v2","pSARL_v295pf2u23","633dc8e5addedfeac9a74b22","freq_resp","img/green_2bandit_a.png","70","70","test","","","","8","",""
"null","315231","pSARL_v2","pSARL_v295pf2u23","633dc8e5addedfeac9a74b22","fixation","img/fixation.png","null","","test","","","","","",""
"270.80000001192093","315505","pSARL_v2","pSARL_v295pf2u23","633dc8e5addedfeac9a74b22","freq","img/green_2bandit_a2.png","70","70","test","1","164","164","8","",""
"null","316056","pSARL_v2","pSARL_v295pf2u23","633dc8e5addedfeac9a74b22","freq_resp","img/green_2bandit_a.png","70","70","test","","","","8","",""
"null","316231","pSARL_v2","pSARL_v295pf2u23","633dc8e5addedfeac9a74b22","fixation","img/fixation.png","null","","test","","","","","",""
"296.30000001192093","316531","pSARL_v2","pSARL_v295pf2u23","633dc8e5addedfeac9a74b22","freq","img/green_2bandit_a2.png","70","70","test","1","165","165","8","",""
"null","317041","pSARL_v2","pSARL_v295pf2u23","633dc8e5addedfeac9a74b22","freq_resp","img/green_2bandit_a.png","70","70","test","","","","8","",""
"null","317215","pSARL_v2","pSARL_v295pf2u23","633dc8e5addedfeac9a74b22","fixation","img/fixation.png","null","","test","","","","","",""
"391.40000000596046","317609","pSARL_v2","pSARL_v295pf2u23","633dc8e5addedfeac9a74b22","infreq","img/orange_2bandit_a2.png","68","68","test","1","166","166","8","",""
"null","318030","pSARL_v2","pSARL_v295pf2u23","633dc8e5addedfeac9a74b22","infreq_resp","img/orange_2bandit_a.png","68","68","test","","","","8","",""
"null","318197","pSARL_v2","pSARL_v295pf2u23","633dc8e5addedfeac9a74b22","fixation","img/fixation.png","null","","test","","","","","",""
"312.60000002384186","318513","pSARL_v2","pSARL_v295pf2u23","633dc8e5addedfeac9a74b22","freq","img/green_2bandit_a2.png","70","70","test","1","167","167","8","",""
"null","319009","pSARL_v2","pSARL_v295pf2u23","633dc8e5addedfeac9a74b22","freq_resp","img/green_2bandit_a.png","70","70","test","","","","8","",""
"null","319181","pSARL_v2","pSARL_v295pf2u23","633dc8e5addedfeac9a74b22","fixation","img/fixation.png","null","","test","","","","","",""
"288.5","319473","pSARL_v2","pSARL_v295pf2u23","633dc8e5addedfeac9a74b22","freq","img/green_2bandit_a2.png","70","70","test","1","168","168","8","",""
"null","319991","pSARL_v2","pSARL_v295pf2u23","633dc8e5addedfeac9a74b22","freq_resp","img/green_2bandit_a.png","70","70","test","","","","8","",""
"null","320149","pSARL_v2","pSARL_v295pf2u23","633dc8e5addedfeac9a74b22","fixation","img/fixation.png","null","","test","","","","","",""
"264.59999999403954","320417","pSARL_v2","pSARL_v295pf2u23","633dc8e5addedfeac9a74b22","freq","img/green_2bandit_a2.png","70","70","test","1","169","169","8","",""
"null","320972","pSARL_v2","pSARL_v295pf2u23","633dc8e5addedfeac9a74b22","freq_resp","img/green_2bandit_a.png","70","70","test","","","","8","",""
"null","321132","pSARL_v2","pSARL_v295pf2u23","633dc8e5addedfeac9a74b22","fixation","img/fixation.png","null","","test","","","","","",""
"265.90000000596046","321401","pSARL_v2","pSARL_v295pf2u23","633dc8e5addedfeac9a74b22","freq","img/green_2bandit_a2.png","70","70","test","1","170","170","8","",""
"null","321956","pSARL_v2","pSARL_v295pf2u23","633dc8e5addedfeac9a74b22","freq_resp","img/green_2bandit_a.png","70","70","test","","","","8","",""
"null","322115","pSARL_v2","pSARL_v295pf2u23","633dc8e5addedfeac9a74b22","fixation","img/fixation.png","null","","test","","","","","",""
"283","322401","pSARL_v2","pSARL_v295pf2u23","633dc8e5addedfeac9a74b22","freq","img/green_2bandit_a2.png","70","70","test","1","171","171","8","",""
"null","322940","pSARL_v2","pSARL_v295pf2u23","633dc8e5addedfeac9a74b22","freq_resp","img/green_2bandit_a.png","70","70","test","","","","8","",""
"null","323099","pSARL_v2","pSARL_v295pf2u23","633dc8e5addedfeac9a74b22","fixation","img/fixation.png","null","","test","","","","","",""
"243.40000000596046","323345","pSARL_v2","pSARL_v295pf2u23","633dc8e5addedfeac9a74b22","infreq","img/orange_2bandit_a2.png","70","68","test","0","172","172","8","",""
"null","323920","pSARL_v2","pSARL_v295pf2u23","633dc8e5addedfeac9a74b22","infreq_resp","img/orange_2bandit_a.png","70","68","test","","","","8","",""
"null","324082","pSARL_v2","pSARL_v295pf2u23","633dc8e5addedfeac9a74b22","fixation","img/fixation.png","null","","test","","","","","",""
"307.59999999403954","324393","pSARL_v2","pSARL_v295pf2u23","633dc8e5addedfeac9a74b22","freq","img/green_2bandit_a2.png","70","70","test","1","173","173","8","",""
"null","324891","pSARL_v2","pSARL_v295pf2u23","633dc8e5addedfeac9a74b22","freq_resp","img/green_2bandit_a.png","70","70","test","","","","8","",""
"null","325064","pSARL_v2","pSARL_v295pf2u23","633dc8e5addedfeac9a74b22","fixation","img/fixation.png","null","","test","","","","","",""
"270.09999999403954","325337","pSARL_v2","pSARL_v295pf2u23","633dc8e5addedfeac9a74b22","freq","img/green_2bandit_a2.png","70","70","test","1","174","174","8","",""
"null","325873","pSARL_v2","pSARL_v295pf2u23","633dc8e5addedfeac9a74b22","freq_resp","img/green_2bandit_a.png","70","70","test","","","","8","",""
"null","326047","pSARL_v2","pSARL_v295pf2u23","633dc8e5addedfeac9a74b22","fixation","img/fixation.png","null","","test","","","","","",""
"254.40000000596046","326305","pSARL_v2","pSARL_v295pf2u23","633dc8e5addedfeac9a74b22","freq","img/green_2bandit_a2.png","70","70","test","1","175","175","8","",""
"null","326870","pSARL_v2","pSARL_v295pf2u23","633dc8e5addedfeac9a74b22","freq_resp","img/green_2bandit_a.png","70","70","test","","","","8","",""
"null","327032","pSARL_v2","pSARL_v295pf2u23","633dc8e5addedfeac9a74b22","fixation","img/fixation.png","null","","test","","","","","",""
"407.69999998807907","327443","pSARL_v2","pSARL_v295pf2u23","633dc8e5addedfeac9a74b22","freq","img/green_2bandit_a2.png","70","70","test","1","176","176","8","",""
"null","327848","pSARL_v2","pSARL_v295pf2u23","633dc8e5addedfeac9a74b22","freq_resp","img/green_2bandit_a.png","70","70","test","","","","8","",""
"null","328015","pSARL_v2","pSARL_v295pf2u23","633dc8e5addedfeac9a74b22","fixation","img/fixation.png","null","","test","","","","","",""
"262.80000001192093","328281","pSARL_v2","pSARL_v295pf2u23","633dc8e5addedfeac9a74b22","freq","img/green_2bandit_a2.png","70","70","test","1","177","177","8","",""
"null","328837","pSARL_v2","pSARL_v295pf2u23","633dc8e5addedfeac9a74b22","freq_resp","img/green_2bandit_a.png","70","70","test","","","","8","",""
"null","328999","pSARL_v2","pSARL_v295pf2u23","633dc8e5addedfeac9a74b22","fixation","img/fixation.png","null","","test","","","","","",""
"279.10000002384186","329281","pSARL_v2","pSARL_v295pf2u23","633dc8e5addedfeac9a74b22","freq","img/green_2bandit_a2.png","70","70","test","1","178","178","8","",""
"null","329822","pSARL_v2","pSARL_v295pf2u23","633dc8e5addedfeac9a74b22","freq_resp","img/green_2bandit_a.png","70","70","test","","","","8","",""
"null","329981","pSARL_v2","pSARL_v295pf2u23","633dc8e5addedfeac9a74b22","fixation","img/fixation.png","null","","test","","","","","",""
"256.59999999403954","330241","pSARL_v2","pSARL_v295pf2u23","633dc8e5addedfeac9a74b22","freq","img/green_2bandit_a2.png","70","70","test","1","179","179","8","",""
"null","330804","pSARL_v2","pSARL_v295pf2u23","633dc8e5addedfeac9a74b22","freq_resp","img/green_2bandit_a.png","70","70","test","","","","8","",""
"null","330965","pSARL_v2","pSARL_v295pf2u23","633dc8e5addedfeac9a74b22","fixation","img/fixation.png","null","","test","","","","","",""
"249","331217","pSARL_v2","pSARL_v295pf2u23","633dc8e5addedfeac9a74b22","freq","img/green_2bandit_a2.png","70","70","test","1","180","180","8","",""
"null","331787","pSARL_v2","pSARL_v295pf2u23","633dc8e5addedfeac9a74b22","freq_resp","img/green_2bandit_a.png","70","70","test","","","","8","",""
"null","331948","pSARL_v2","pSARL_v295pf2u23","633dc8e5addedfeac9a74b22","fixation","img/fixation.png","null","","test","","","","","",""
"314","332265","pSARL_v2","pSARL_v295pf2u23","633dc8e5addedfeac9a74b22","freq","img/green_2bandit_a2.png","70","70","test","1","181","181","8","",""
"null","332775","pSARL_v2","pSARL_v295pf2u23","633dc8e5addedfeac9a74b22","freq_resp","img/green_2bandit_a.png","70","70","test","","","","8","",""
"null","332931","pSARL_v2","pSARL_v295pf2u23","633dc8e5addedfeac9a74b22","fixation","img/fixation.png","null","","test","","","","","",""
"258.2999999821186","333193","pSARL_v2","pSARL_v295pf2u23","633dc8e5addedfeac9a74b22","freq","img/green_2bandit_a2.png","70","70","test","1","182","182","8","",""
"null","333754","pSARL_v2","pSARL_v295pf2u23","633dc8e5addedfeac9a74b22","freq_resp","img/green_2bandit_a.png","70","70","test","","","","8","",""
"null","333915","pSARL_v2","pSARL_v295pf2u23","633dc8e5addedfeac9a74b22","fixation","img/fixation.png","null","","test","","","","","",""
"314.69999998807907","334233","pSARL_v2","pSARL_v295pf2u23","633dc8e5addedfeac9a74b22","freq","img/green_2bandit_a2.png","70","70","test","1","183","183","8","",""
"null","334744","pSARL_v2","pSARL_v295pf2u23","633dc8e5addedfeac9a74b22","freq_resp","img/green_2bandit_a.png","70","70","test","","","","8","",""
"null","334913","pSARL_v2","pSARL_v295pf2u23","633dc8e5addedfeac9a74b22","fixation","img/fixation.png","null","","test","","","","","",""
"460.2999999821186","335377","pSARL_v2","pSARL_v295pf2u23","633dc8e5addedfeac9a74b22","reward","img/slot.png","74","","test","","","","","",""
"null","336140","pSARL_v2","pSARL_v295pf2u23","633dc8e5addedfeac9a74b22","points","<div class=""verylowPoints""> -4 </div>","null","na","test","","","","8","-4","7"
"457.69999998807907","336601","pSARL_v2","pSARL_v295pf2u23","633dc8e5addedfeac9a74b22","freq","img/green_2bandit_a2.png","70","70","test","1","184","184","9","",""
"null","336968","pSARL_v2","pSARL_v295pf2u23","633dc8e5addedfeac9a74b22","freq_resp","img/green_2bandit_a.png","70","70","test","","","","9","",""
"null","337132","pSARL_v2","pSARL_v295pf2u23","633dc8e5addedfeac9a74b22","fixation","img/fixation.png","null","","test","","","","","",""
"242.09999999403954","337377","pSARL_v2","pSARL_v295pf2u23","633dc8e5addedfeac9a74b22","freq","img/green_2bandit_a2.png","70","70","test","1","185","185","9","",""
"null","337952","pSARL_v2","pSARL_v295pf2u23","633dc8e5addedfeac9a74b22","freq_resp","img/green_2bandit_a.png","70","70","test","","","","9","",""
"null","338114","pSARL_v2","pSARL_v295pf2u23","633dc8e5addedfeac9a74b22","fixation","img/fixation.png","null","","test","","","","","",""
"309.2000000178814","338426","pSARL_v2","pSARL_v295pf2u23","633dc8e5addedfeac9a74b22","freq","img/green_2bandit_a2.png","70","70","test","1","186","186","9","",""
"null","338925","pSARL_v2","pSARL_v295pf2u23","633dc8e5addedfeac9a74b22","freq_resp","img/green_2bandit_a.png","70","70","test","","","","9","",""
"null","339097","pSARL_v2","pSARL_v295pf2u23","633dc8e5addedfeac9a74b22","fixation","img/fixation.png","null","","test","","","","","",""
"260.69999998807907","339361","pSARL_v2","pSARL_v295pf2u23","633dc8e5addedfeac9a74b22","freq","img/green_2bandit_a2.png","70","70","test","1","187","187","9","",""
"null","339921","pSARL_v2","pSARL_v295pf2u23","633dc8e5addedfeac9a74b22","freq_resp","img/green_2bandit_a.png","70","70","test","","","","9","",""
"null","340097","pSARL_v2","pSARL_v295pf2u23","633dc8e5addedfeac9a74b22","fixation","img/fixation.png","null","","test","","","","","",""
"261.09999999403954","340362","pSARL_v2","pSARL_v295pf2u23","633dc8e5addedfeac9a74b22","freq","img/green_2bandit_a2.png","70","70","test","1","188","188","9","",""
"null","340921","pSARL_v2","pSARL_v295pf2u23","633dc8e5addedfeac9a74b22","freq_resp","img/green_2bandit_a.png","70","70","test","","","","9","",""
"null","341098","pSARL_v2","pSARL_v295pf2u23","633dc8e5addedfeac9a74b22","fixation","img/fixation.png","null","","test","","","","","",""
"228.69999998807907","341330","pSARL_v2","pSARL_v295pf2u23","633dc8e5addedfeac9a74b22","freq","img/green_2bandit_a2.png","70","70","test","1","189","189","9","",""
"null","341919","pSARL_v2","pSARL_v295pf2u23","633dc8e5addedfeac9a74b22","freq_resp","img/green_2bandit_a.png","70","70","test","","","","9","",""
"null","342082","pSARL_v2","pSARL_v295pf2u23","633dc8e5addedfeac9a74b22","fixation","img/fixation.png","null","","test","","","","","",""
"260.59999999403954","342345","pSARL_v2","pSARL_v295pf2u23","633dc8e5addedfeac9a74b22","freq","img/green_2bandit_a2.png","70","70","test","1","190","190","9","",""
"null","342904","pSARL_v2","pSARL_v295pf2u23","633dc8e5addedfeac9a74b22","freq_resp","img/green_2bandit_a.png","70","70","test","","","","9","",""
"null","343081","pSARL_v2","pSARL_v295pf2u23","633dc8e5addedfeac9a74b22","fixation","img/fixation.png","null","","test","","","","","",""
"429.40000000596046","343514","pSARL_v2","pSARL_v295pf2u23","633dc8e5addedfeac9a74b22","infreq","img/orange_2bandit_a2.png","68","68","test","1","191","191","9","",""
"null","343899","pSARL_v2","pSARL_v295pf2u23","633dc8e5addedfeac9a74b22","infreq_resp","img/orange_2bandit_a.png","68","68","test","","","","9","",""
"null","344065","pSARL_v2","pSARL_v295pf2u23","633dc8e5addedfeac9a74b22","fixation","img/fixation.png","null","","test","","","","","",""
"301.09999999403954","344370","pSARL_v2","pSARL_v295pf2u23","633dc8e5addedfeac9a74b22","freq","img/green_2bandit_a2.png","70","70","test","1","192","192","9","",""
"null","344875","pSARL_v2","pSARL_v295pf2u23","633dc8e5addedfeac9a74b22","freq_resp","img/green_2bandit_a.png","70","70","test","","","","9","",""
"null","345048","pSARL_v2","pSARL_v295pf2u23","633dc8e5addedfeac9a74b22","fixation","img/fixation.png","null","","test","","","","","",""
"270.5","345322","pSARL_v2","pSARL_v295pf2u23","633dc8e5addedfeac9a74b22","freq","img/green_2bandit_a2.png","70","70","test","1","193","193","9","",""
"null","345871","pSARL_v2","pSARL_v295pf2u23","633dc8e5addedfeac9a74b22","freq_resp","img/green_2bandit_a.png","70","70","test","","","","9","",""
"null","346031","pSARL_v2","pSARL_v295pf2u23","633dc8e5addedfeac9a74b22","fixation","img/fixation.png","null","","test","","","","","",""
"406.90000000596046","346441","pSARL_v2","pSARL_v295pf2u23","633dc8e5addedfeac9a74b22","infreq","img/orange_2bandit_a2.png","68","68","test","1","194","194","9","",""
"null","346848","pSARL_v2","pSARL_v295pf2u23","633dc8e5addedfeac9a74b22","infreq_resp","img/orange_2bandit_a.png","68","68","test","","","","9","",""
"null","347013","pSARL_v2","pSARL_v295pf2u23","633dc8e5addedfeac9a74b22","fixation","img/fixation.png","null","","test","","","","","",""
"392.7000000178814","347409","pSARL_v2","pSARL_v295pf2u23","633dc8e5addedfeac9a74b22","infreq","img/orange_2bandit_a2.png","68","68","test","1","195","195","9","",""
"null","347830","pSARL_v2","pSARL_v295pf2u23","633dc8e5addedfeac9a74b22","infreq_resp","img/orange_2bandit_a.png","68","68","test","","","","9","",""
"null","347998","pSARL_v2","pSARL_v295pf2u23","633dc8e5addedfeac9a74b22","fixation","img/fixation.png","null","","test","","","","","",""
"368.40000000596046","348369","pSARL_v2","pSARL_v295pf2u23","633dc8e5addedfeac9a74b22","freq","img/green_2bandit_a2.png","70","70","test","1","196","196","9","",""
"null","348813","pSARL_v2","pSARL_v295pf2u23","633dc8e5addedfeac9a74b22","freq_resp","img/green_2bandit_a.png","70","70","test","","","","9","",""
"null","348982","pSARL_v2","pSARL_v295pf2u23","633dc8e5addedfeac9a74b22","fixation","img/fixation.png","null","","test","","","","","",""
"258.5","349244","pSARL_v2","pSARL_v295pf2u23","633dc8e5addedfeac9a74b22","freq","img/green_2bandit_a2.png","70","70","test","1","197","197","9","",""
"null","349804","pSARL_v2","pSARL_v295pf2u23","633dc8e5addedfeac9a74b22","freq_resp","img/green_2bandit_a.png","70","70","test","","","","9","",""
"null","349965","pSARL_v2","pSARL_v295pf2u23","633dc8e5addedfeac9a74b22","fixation","img/fixation.png","null","","test","","","","","",""
"265.5","350233","pSARL_v2","pSARL_v295pf2u23","633dc8e5addedfeac9a74b22","freq","img/green_2bandit_a2.png","70","70","test","1","198","198","9","",""
"null","350788","pSARL_v2","pSARL_v295pf2u23","633dc8e5addedfeac9a74b22","freq_resp","img/green_2bandit_a.png","70","70","test","","","","9","",""
"null","350948","pSARL_v2","pSARL_v295pf2u23","633dc8e5addedfeac9a74b22","fixation","img/fixation.png","null","","test","","","","","",""
"233.7000000178814","351185","pSARL_v2","pSARL_v295pf2u23","633dc8e5addedfeac9a74b22","freq","img/green_2bandit_a2.png","70","70","test","1","199","199","9","",""
"null","351770","pSARL_v2","pSARL_v295pf2u23","633dc8e5addedfeac9a74b22","freq_resp","img/green_2bandit_a.png","70","70","test","","","","9","",""
"null","351933","pSARL_v2","pSARL_v295pf2u23","633dc8e5addedfeac9a74b22","fixation","img/fixation.png","null","","test","","","","","",""
"225.59999999403954","352161","pSARL_v2","pSARL_v295pf2u23","633dc8e5addedfeac9a74b22","freq","img/green_2bandit_a2.png","70","70","test","1","200","200","9","",""
"null","352751","pSARL_v2","pSARL_v295pf2u23","633dc8e5addedfeac9a74b22","freq_resp","img/green_2bandit_a.png","70","70","test","","","","9","",""
"null","352916","pSARL_v2","pSARL_v295pf2u23","633dc8e5addedfeac9a74b22","fixation","img/fixation.png","null","","test","","","","","",""
"null","353722","pSARL_v2","pSARL_v295pf2u23","633dc8e5addedfeac9a74b22","freq","img/green_2bandit_a2.png","null","70","test","0","201","201","9","",""
"null","353897","pSARL_v2","pSARL_v295pf2u23","633dc8e5addedfeac9a74b22","fixation","img/fixation.png","null","","test","","","","","",""
"253","354153","pSARL_v2","pSARL_v295pf2u23","633dc8e5addedfeac9a74b22","freq","img/green_2bandit_a2.png","70","70","test","1","202","202","9","",""
"null","354721","pSARL_v2","pSARL_v295pf2u23","633dc8e5addedfeac9a74b22","freq_resp","img/green_2bandit_a.png","70","70","test","","","","9","",""
"null","354897","pSARL_v2","pSARL_v295pf2u23","633dc8e5addedfeac9a74b22","fixation","img/fixation.png","null","","test","","","","","",""
"253","355153","pSARL_v2","pSARL_v295pf2u23","633dc8e5addedfeac9a74b22","freq","img/green_2bandit_a2.png","70","70","test","1","203","203","9","",""
"null","355721","pSARL_v2","pSARL_v295pf2u23","633dc8e5addedfeac9a74b22","freq_resp","img/green_2bandit_a.png","70","70","test","","","","9","",""
"null","355897","pSARL_v2","pSARL_v295pf2u23","633dc8e5addedfeac9a74b22","fixation","img/fixation.png","null","","test","","","","","",""
"260.7000000178814","356161","pSARL_v2","pSARL_v295pf2u23","633dc8e5addedfeac9a74b22","freq","img/green_2bandit_a2.png","70","70","test","1","204","204","9","",""
"null","356721","pSARL_v2","pSARL_v295pf2u23","633dc8e5addedfeac9a74b22","freq_resp","img/green_2bandit_a.png","70","70","test","","","","9","",""
"null","356897","pSARL_v2","pSARL_v295pf2u23","633dc8e5addedfeac9a74b22","fixation","img/fixation.png","null","","test","","","","","",""
"220.90000000596046","357121","pSARL_v2","pSARL_v295pf2u23","633dc8e5addedfeac9a74b22","freq","img/green_2bandit_a2.png","70","70","test","1","205","205","9","",""
"null","357718","pSARL_v2","pSARL_v295pf2u23","633dc8e5addedfeac9a74b22","freq_resp","img/green_2bandit_a.png","70","70","test","","","","9","",""
"null","357882","pSARL_v2","pSARL_v295pf2u23","633dc8e5addedfeac9a74b22","fixation","img/fixation.png","null","","test","","","","","",""
"252.30000001192093","358137","pSARL_v2","pSARL_v295pf2u23","633dc8e5addedfeac9a74b22","freq","img/green_2bandit_a2.png","70","70","test","1","206","206","9","",""
"null","358704","pSARL_v2","pSARL_v295pf2u23","633dc8e5addedfeac9a74b22","freq_resp","img/green_2bandit_a.png","70","70","test","","","","9","",""
"null","358865","pSARL_v2","pSARL_v295pf2u23","633dc8e5addedfeac9a74b22","fixation","img/fixation.png","null","","test","","","","","",""
"269.5","359137","pSARL_v2","pSARL_v295pf2u23","633dc8e5addedfeac9a74b22","freq","img/green_2bandit_a2.png","70","70","test","1","207","207","9","",""
"null","359688","pSARL_v2","pSARL_v295pf2u23","633dc8e5addedfeac9a74b22","freq_resp","img/green_2bandit_a.png","70","70","test","","","","9","",""
"null","359848","pSARL_v2","pSARL_v295pf2u23","633dc8e5addedfeac9a74b22","fixation","img/fixation.png","null","","test","","","","","",""
