"rt","time_elapsed","expId","subject","prolificID","trialType","stimulus","key_press","corrresp","phase","corr","trialNum","attentionRunNum","blockNum","points","rlNum"
"13985","14002","pSARL_v2","pSARL_v2prrv8eud","63cfe582f6e51cd4ca556e0f","","","","","","","","","","",""
"","16868","pSARL_v2","pSARL_v2prrv8eud","63cfe582f6e51cd4ca556e0f","fullscreen","","","","","","","","","",""
"722662.3999999762","739551","pSARL_v2","pSARL_v2prrv8eud","63cfe582f6e51cd4ca556e0f","","","","","","","","","","",""
"null","740376","pSARL_v2","pSARL_v2prrv8eud","63cfe582f6e51cd4ca556e0f","freqPrac","img/orange_2bandit_a2.png","null","70","prac","0","","","","",""
"null","741388","pSARL_v2","pSARL_v2prrv8eud","63cfe582f6e51cd4ca556e0f","feedback","img/tooSlow.png","null","na","prac","","","","","",""
"null","741562","pSARL_v2","pSARL_v2prrv8eud","63cfe582f6e51cd4ca556e0f","fixation","img/fixation.png","null","","prac","","","","","",""
"null","742375","pSARL_v2","pSARL_v2prrv8eud","63cfe582f6e51cd4ca556e0f","infreqPrac","img/green_2bandit_a2.png","null","68","prac","0","","","","",""
"null","743393","pSARL_v2","pSARL_v2prrv8eud","63cfe582f6e51cd4ca556e0f","feedback","img/tooSlow.png","null","na","prac","","","","","",""
"null","743552","pSARL_v2","pSARL_v2prrv8eud","63cfe582f6e51cd4ca556e0f","fixation","img/fixation.png","null","","prac","","","","","",""
"null","744364","pSARL_v2","pSARL_v2prrv8eud","63cfe582f6e51cd4ca556e0f","freqPrac","img/orange_2bandit_a2.png","null","70","prac","0","","","","",""
"null","745373","pSARL_v2","pSARL_v2prrv8eud","63cfe582f6e51cd4ca556e0f","feedback","img/tooSlow.png","null","na","prac","","","","","",""
"null","745531","pSARL_v2","pSARL_v2prrv8eud","63cfe582f6e51cd4ca556e0f","fixation","img/fixation.png","null","","prac","","","","","",""
"287.5999999642372","745827","pSARL_v2","pSARL_v2prrv8eud","63cfe582f6e51cd4ca556e0f","infreqPrac","img/green_2bandit_a2.png","68","68","prac","1","","","","",""
"287.5999999642372","746415","pSARL_v2","pSARL_v2prrv8eud","63cfe582f6e51cd4ca556e0f","infreqPrac_resp","img/green_2bandit_a.png","68","68","prac","","","","","",""
"null","746594","pSARL_v2","pSARL_v2prrv8eud","63cfe582f6e51cd4ca556e0f","fixation","img/fixation.png","null","","prac","","","","","",""
"623.3999999761581","747225","pSARL_v2","pSARL_v2prrv8eud","63cfe582f6e51cd4ca556e0f","infreqPrac","img/green_2bandit_a2.png","68","68","prac","1","","","","",""
"623.3999999761581","747426","pSARL_v2","pSARL_v2prrv8eud","63cfe582f6e51cd4ca556e0f","infreqPrac_resp","img/green_2bandit_a.png","68","68","prac","","","","","",""
"null","747595","pSARL_v2","pSARL_v2prrv8eud","63cfe582f6e51cd4ca556e0f","fixation","img/fixation.png","null","","prac","","","","","",""
"422.80000001192093","748027","pSARL_v2","pSARL_v2prrv8eud","63cfe582f6e51cd4ca556e0f","infreqPrac","img/green_2bandit_a2.png","68","68","prac","1","","","","",""
"422.80000001192093","748418","pSARL_v2","pSARL_v2prrv8eud","63cfe582f6e51cd4ca556e0f","infreqPrac_resp","img/green_2bandit_a.png","68","68","prac","","","","","",""
"null","748590","pSARL_v2","pSARL_v2prrv8eud","63cfe582f6e51cd4ca556e0f","fixation","img/fixation.png","null","","prac","","","","","",""
"356","748955","pSARL_v2","pSARL_v2prrv8eud","63cfe582f6e51cd4ca556e0f","freqPrac","img/orange_2bandit_a2.png","70","70","prac","1","","","","",""
"356","749407","pSARL_v2","pSARL_v2prrv8eud","63cfe582f6e51cd4ca556e0f","freqPrac_resp","img/orange_2bandit_a.png","70","70","prac","","","","","",""
"null","749566","pSARL_v2","pSARL_v2prrv8eud","63cfe582f6e51cd4ca556e0f","fixation","img/fixation.png","null","","prac","","","","","",""
"500.4000000357628","750075","pSARL_v2","pSARL_v2prrv8eud","63cfe582f6e51cd4ca556e0f","infreqPrac","img/green_2bandit_a2.png","68","68","prac","1","","","","",""
"500.4000000357628","750390","pSARL_v2","pSARL_v2prrv8eud","63cfe582f6e51cd4ca556e0f","infreqPrac_resp","img/green_2bandit_a.png","68","68","prac","","","","","",""
"null","750562","pSARL_v2","pSARL_v2prrv8eud","63cfe582f6e51cd4ca556e0f","fixation","img/fixation.png","null","","prac","","","","","",""
"440.0999999642372","751011","pSARL_v2","pSARL_v2prrv8eud","63cfe582f6e51cd4ca556e0f","freqPrac","img/orange_2bandit_a2.png","70","70","prac","1","","","","",""
"440.0999999642372","751391","pSARL_v2","pSARL_v2prrv8eud","63cfe582f6e51cd4ca556e0f","freqPrac_resp","img/orange_2bandit_a.png","70","70","prac","","","","","",""
"null","751568","pSARL_v2","pSARL_v2prrv8eud","63cfe582f6e51cd4ca556e0f","fixation","img/fixation.png","null","","prac","","","","","",""
"457.19999998807907","752032","pSARL_v2","pSARL_v2prrv8eud","63cfe582f6e51cd4ca556e0f","freqPrac","img/orange_2bandit_a2.png","70","70","prac","1","","","","",""
"457.19999998807907","752393","pSARL_v2","pSARL_v2prrv8eud","63cfe582f6e51cd4ca556e0f","freqPrac_resp","img/orange_2bandit_a.png","70","70","prac","","","","","",""
"null","752565","pSARL_v2","pSARL_v2prrv8eud","63cfe582f6e51cd4ca556e0f","fixation","img/fixation.png","null","","prac","","","","","",""
"16126.800000011921","768700","pSARL_v2","pSARL_v2prrv8eud","63cfe582f6e51cd4ca556e0f","","","","","prac","","","","","",""
"1270.199999988079","769978","pSARL_v2","pSARL_v2prrv8eud","63cfe582f6e51cd4ca556e0f","rewardPractice","img/slot.png","74","","prac","","","","","",""
"null","770752","pSARL_v2","pSARL_v2prrv8eud","63cfe582f6e51cd4ca556e0f","feedback","<div class=""veryhighPoints""> +15 </div>","null","na","prac","","","","","",""
"null","770925","pSARL_v2","pSARL_v2prrv8eud","63cfe582f6e51cd4ca556e0f","fixation","img/fixation.png","null","","prac","","","","","",""
"13663.400000035763","784596","pSARL_v2","pSARL_v2prrv8eud","63cfe582f6e51cd4ca556e0f","","","","","prac","","","","","",""
"null","785407","pSARL_v2","pSARL_v2prrv8eud","63cfe582f6e51cd4ca556e0f","freq","img/orange_2bandit_a2.png","null","70","test","0","1","1","1","",""
"null","785579","pSARL_v2","pSARL_v2prrv8eud","63cfe582f6e51cd4ca556e0f","fixation","img/fixation.png","null","","test","","","","","",""
"231.19999998807907","785816","pSARL_v2","pSARL_v2prrv8eud","63cfe582f6e51cd4ca556e0f","freq","img/orange_2bandit_a2.png","68","70","test","0","2","2","1","",""
"null","786398","pSARL_v2","pSARL_v2prrv8eud","63cfe582f6e51cd4ca556e0f","freq_resp","img/orange_2bandit_a.png","68","70","test","","","","1","",""
"null","786557","pSARL_v2","pSARL_v2prrv8eud","63cfe582f6e51cd4ca556e0f","fixation","img/fixation.png","null","","test","","","","","",""
"485","787050","pSARL_v2","pSARL_v2prrv8eud","63cfe582f6e51cd4ca556e0f","infreq","img/green_2bandit_a2.png","70","68","test","0","3","3","1","",""
"null","787377","pSARL_v2","pSARL_v2prrv8eud","63cfe582f6e51cd4ca556e0f","infreq_resp","img/green_2bandit_a.png","70","68","test","","","","1","",""
"null","787536","pSARL_v2","pSARL_v2prrv8eud","63cfe582f6e51cd4ca556e0f","fixation","img/fixation.png","null","","test","","","","","",""
"786.1999999880791","788330","pSARL_v2","pSARL_v2prrv8eud","63cfe582f6e51cd4ca556e0f","freq","img/orange_2bandit_a2.png","68","70","test","0","4","4","1","",""
"null","788351","pSARL_v2","pSARL_v2prrv8eud","63cfe582f6e51cd4ca556e0f","freq_resp","img/orange_2bandit_a.png","68","70","test","","","","1","",""
"null","788516","pSARL_v2","pSARL_v2prrv8eud","63cfe582f6e51cd4ca556e0f","fixation","img/fixation.png","null","","test","","","","","",""
"null","789340","pSARL_v2","pSARL_v2prrv8eud","63cfe582f6e51cd4ca556e0f","freq","img/orange_2bandit_a2.png","null","70","test","0","5","5","1","",""
"null","789512","pSARL_v2","pSARL_v2prrv8eud","63cfe582f6e51cd4ca556e0f","fixation","img/fixation.png","null","","test","","","","","",""
"281.30000001192093","789800","pSARL_v2","pSARL_v2prrv8eud","63cfe582f6e51cd4ca556e0f","freq","img/orange_2bandit_a2.png","70","70","test","1","6","6","1","",""
"null","790329","pSARL_v2","pSARL_v2prrv8eud","63cfe582f6e51cd4ca556e0f","freq_resp","img/orange_2bandit_a.png","70","70","test","","","","1","",""
"null","790488","pSARL_v2","pSARL_v2prrv8eud","63cfe582f6e51cd4ca556e0f","fixation","img/fixation.png","null","","test","","","","","",""
"297.5","790794","pSARL_v2","pSARL_v2prrv8eud","63cfe582f6e51cd4ca556e0f","infreq","img/green_2bandit_a2.png","68","68","test","1","7","7","1","",""
"null","791312","pSARL_v2","pSARL_v2prrv8eud","63cfe582f6e51cd4ca556e0f","infreq_resp","img/green_2bandit_a.png","68","68","test","","","","1","",""
"null","791471","pSARL_v2","pSARL_v2prrv8eud","63cfe582f6e51cd4ca556e0f","fixation","img/fixation.png","null","","test","","","","","",""
"483.4000000357628","791962","pSARL_v2","pSARL_v2prrv8eud","63cfe582f6e51cd4ca556e0f","freq","img/orange_2bandit_a2.png","68","70","test","0","8","8","1","",""
"null","792293","pSARL_v2","pSARL_v2prrv8eud","63cfe582f6e51cd4ca556e0f","freq_resp","img/orange_2bandit_a.png","68","70","test","","","","1","",""
"null","792466","pSARL_v2","pSARL_v2prrv8eud","63cfe582f6e51cd4ca556e0f","fixation","img/fixation.png","null","","test","","","","","",""
"464.19999998807907","792939","pSARL_v2","pSARL_v2prrv8eud","63cfe582f6e51cd4ca556e0f","freq","img/orange_2bandit_a2.png","68","70","test","0","9","9","1","",""
"null","793293","pSARL_v2","pSARL_v2prrv8eud","63cfe582f6e51cd4ca556e0f","freq_resp","img/orange_2bandit_a.png","68","70","test","","","","1","",""
"null","793467","pSARL_v2","pSARL_v2prrv8eud","63cfe582f6e51cd4ca556e0f","fixation","img/fixation.png","null","","test","","","","","",""
"447.5","793923","pSARL_v2","pSARL_v2prrv8eud","63cfe582f6e51cd4ca556e0f","freq","img/orange_2bandit_a2.png","70","70","test","1","10","10","1","",""
"null","794297","pSARL_v2","pSARL_v2prrv8eud","63cfe582f6e51cd4ca556e0f","freq_resp","img/orange_2bandit_a.png","70","70","test","","","","1","",""
"null","794471","pSARL_v2","pSARL_v2prrv8eud","63cfe582f6e51cd4ca556e0f","fixation","img/fixation.png","null","","test","","","","","",""
"null","795290","pSARL_v2","pSARL_v2prrv8eud","63cfe582f6e51cd4ca556e0f","freq","img/orange_2bandit_a2.png","null","70","test","0","11","11","1","",""
"null","795465","pSARL_v2","pSARL_v2prrv8eud","63cfe582f6e51cd4ca556e0f","fixation","img/fixation.png","null","","test","","","","","",""
"0.30000001192092896","795472","pSARL_v2","pSARL_v2prrv8eud","63cfe582f6e51cd4ca556e0f","freq","img/orange_2bandit_a2.png","68","70","test","0","12","12","1","",""
"null","796284","pSARL_v2","pSARL_v2prrv8eud","63cfe582f6e51cd4ca556e0f","freq_resp","img/orange_2bandit_a.png","68","70","test","","","","1","",""
"null","796457","pSARL_v2","pSARL_v2prrv8eud","63cfe582f6e51cd4ca556e0f","fixation","img/fixation.png","null","","test","","","","","",""
"440","796906","pSARL_v2","pSARL_v2prrv8eud","63cfe582f6e51cd4ca556e0f","freq","img/orange_2bandit_a2.png","68","70","test","0","13","13","1","",""
"null","797284","pSARL_v2","pSARL_v2prrv8eud","63cfe582f6e51cd4ca556e0f","freq_resp","img/orange_2bandit_a.png","68","70","test","","","","1","",""
"null","797455","pSARL_v2","pSARL_v2prrv8eud","63cfe582f6e51cd4ca556e0f","fixation","img/fixation.png","null","","test","","","","","",""
"354.60000002384186","797818","pSARL_v2","pSARL_v2prrv8eud","63cfe582f6e51cd4ca556e0f","freq","img/orange_2bandit_a2.png","68","70","test","0","14","14","1","",""
"null","798278","pSARL_v2","pSARL_v2prrv8eud","63cfe582f6e51cd4ca556e0f","freq_resp","img/orange_2bandit_a.png","68","70","test","","","","1","",""
"null","798451","pSARL_v2","pSARL_v2prrv8eud","63cfe582f6e51cd4ca556e0f","fixation","img/fixation.png","null","","test","","","","","",""
"510.7999999523163","798970","pSARL_v2","pSARL_v2prrv8eud","63cfe582f6e51cd4ca556e0f","freq","img/orange_2bandit_a2.png","68","70","test","0","15","15","1","",""
"null","799272","pSARL_v2","pSARL_v2prrv8eud","63cfe582f6e51cd4ca556e0f","freq_resp","img/orange_2bandit_a.png","68","70","test","","","","1","",""
"null","799431","pSARL_v2","pSARL_v2prrv8eud","63cfe582f6e51cd4ca556e0f","fixation","img/fixation.png","null","","test","","","","","",""
"null","800247","pSARL_v2","pSARL_v2prrv8eud","63cfe582f6e51cd4ca556e0f","freq","img/orange_2bandit_a2.png","null","70","test","0","16","16","1","",""
"null","800418","pSARL_v2","pSARL_v2prrv8eud","63cfe582f6e51cd4ca556e0f","fixation","img/fixation.png","null","","test","","","","","",""
"null","801230","pSARL_v2","pSARL_v2prrv8eud","63cfe582f6e51cd4ca556e0f","infreq","img/green_2bandit_a2.png","null","68","test","0","17","17","1","",""
"null","801403","pSARL_v2","pSARL_v2prrv8eud","63cfe582f6e51cd4ca556e0f","fixation","img/fixation.png","null","","test","","","","","",""
"null","802225","pSARL_v2","pSARL_v2prrv8eud","63cfe582f6e51cd4ca556e0f","freq","img/orange_2bandit_a2.png","null","70","test","0","18","18","1","",""
"null","802399","pSARL_v2","pSARL_v2prrv8eud","63cfe582f6e51cd4ca556e0f","fixation","img/fixation.png","null","","test","","","","","",""
"null","803219","pSARL_v2","pSARL_v2prrv8eud","63cfe582f6e51cd4ca556e0f","freq","img/orange_2bandit_a2.png","null","70","test","0","19","19","1","",""
"null","803393","pSARL_v2","pSARL_v2prrv8eud","63cfe582f6e51cd4ca556e0f","fixation","img/fixation.png","null","","test","","","","","",""
"577.1000000238419","803978","pSARL_v2","pSARL_v2prrv8eud","63cfe582f6e51cd4ca556e0f","freq","img/orange_2bandit_a2.png","70","70","test","1","20","20","1","",""
"null","804216","pSARL_v2","pSARL_v2prrv8eud","63cfe582f6e51cd4ca556e0f","freq_resp","img/orange_2bandit_a.png","70","70","test","","","","1","",""
"null","804377","pSARL_v2","pSARL_v2prrv8eud","63cfe582f6e51cd4ca556e0f","fixation","img/fixation.png","null","","test","","","","","",""
"1145.4000000357628","805529","pSARL_v2","pSARL_v2prrv8eud","63cfe582f6e51cd4ca556e0f","reward","img/slot.png","74","","test","","","","","",""
"null","806291","pSARL_v2","pSARL_v2prrv8eud","63cfe582f6e51cd4ca556e0f","points","<div class=""verylowPoints""> -6 </div>","null","na","test","","","","1","-6","0"
"358.69999998807907","806658","pSARL_v2","pSARL_v2prrv8eud","63cfe582f6e51cd4ca556e0f","freq","img/orange_2bandit_a2.png","68","70","test","0","21","21","2","",""
"null","807118","pSARL_v2","pSARL_v2prrv8eud","63cfe582f6e51cd4ca556e0f","freq_resp","img/orange_2bandit_a.png","68","70","test","","","","2","",""
"null","807291","pSARL_v2","pSARL_v2prrv8eud","63cfe582f6e51cd4ca556e0f","fixation","img/fixation.png","null","","test","","","","","",""
"582.9000000357628","807882","pSARL_v2","pSARL_v2prrv8eud","63cfe582f6e51cd4ca556e0f","freq","img/orange_2bandit_a2.png","68","70","test","0","22","22","2","",""
"null","808108","pSARL_v2","pSARL_v2prrv8eud","63cfe582f6e51cd4ca556e0f","freq_resp","img/orange_2bandit_a.png","68","70","test","","","","2","",""
"null","808286","pSARL_v2","pSARL_v2prrv8eud","63cfe582f6e51cd4ca556e0f","fixation","img/fixation.png","null","","test","","","","","",""
"null","809110","pSARL_v2","pSARL_v2prrv8eud","63cfe582f6e51cd4ca556e0f","freq","img/orange_2bandit_a2.png","null","70","test","0","23","23","2","",""
"null","809268","pSARL_v2","pSARL_v2prrv8eud","63cfe582f6e51cd4ca556e0f","fixation","img/fixation.png","null","","test","","","","","",""
"21.600000023841858","809297","pSARL_v2","pSARL_v2prrv8eud","63cfe582f6e51cd4ca556e0f","freq","img/orange_2bandit_a2.png","68","70","test","0","24","24","2","",""
"null","810086","pSARL_v2","pSARL_v2prrv8eud","63cfe582f6e51cd4ca556e0f","freq_resp","img/orange_2bandit_a.png","68","70","test","","","","2","",""
"null","810245","pSARL_v2","pSARL_v2prrv8eud","63cfe582f6e51cd4ca556e0f","fixation","img/fixation.png","null","","test","","","","","",""
"385.10000002384186","810666","pSARL_v2","pSARL_v2prrv8eud","63cfe582f6e51cd4ca556e0f","freq","img/orange_2bandit_a2.png","68","70","test","0","25","25","2","",""
"null","811103","pSARL_v2","pSARL_v2prrv8eud","63cfe582f6e51cd4ca556e0f","freq_resp","img/orange_2bandit_a.png","68","70","test","","","","2","",""
"null","811275","pSARL_v2","pSARL_v2prrv8eud","63cfe582f6e51cd4ca556e0f","fixation","img/fixation.png","null","","test","","","","","",""
"438.5","811721","pSARL_v2","pSARL_v2prrv8eud","63cfe582f6e51cd4ca556e0f","freq","img/orange_2bandit_a2.png","68","70","test","0","26","26","2","",""
"null","812098","pSARL_v2","pSARL_v2prrv8eud","63cfe582f6e51cd4ca556e0f","freq_resp","img/orange_2bandit_a.png","68","70","test","","","","2","",""
"null","812273","pSARL_v2","pSARL_v2prrv8eud","63cfe582f6e51cd4ca556e0f","fixation","img/fixation.png","null","","test","","","","","",""
"497.69999998807907","812779","pSARL_v2","pSARL_v2prrv8eud","63cfe582f6e51cd4ca556e0f","freq","img/orange_2bandit_a2.png","68","70","test","0","27","27","2","",""
"null","813093","pSARL_v2","pSARL_v2prrv8eud","63cfe582f6e51cd4ca556e0f","freq_resp","img/orange_2bandit_a.png","68","70","test","","","","2","",""
"null","813266","pSARL_v2","pSARL_v2prrv8eud","63cfe582f6e51cd4ca556e0f","fixation","img/fixation.png","null","","test","","","","","",""
"511.69999998807907","813785","pSARL_v2","pSARL_v2prrv8eud","63cfe582f6e51cd4ca556e0f","infreq","img/green_2bandit_a2.png","70","68","test","0","28","28","2","",""
"null","814094","pSARL_v2","pSARL_v2prrv8eud","63cfe582f6e51cd4ca556e0f","infreq_resp","img/green_2bandit_a.png","70","68","test","","","","2","",""
"null","814258","pSARL_v2","pSARL_v2prrv8eud","63cfe582f6e51cd4ca556e0f","fixation","img/fixation.png","null","","test","","","","","",""
"552.2999999523163","814820","pSARL_v2","pSARL_v2prrv8eud","63cfe582f6e51cd4ca556e0f","infreq","img/green_2bandit_a2.png","70","68","test","0","29","29","2","",""
"null","815082","pSARL_v2","pSARL_v2prrv8eud","63cfe582f6e51cd4ca556e0f","infreq_resp","img/green_2bandit_a.png","70","68","test","","","","2","",""
"null","815252","pSARL_v2","pSARL_v2prrv8eud","63cfe582f6e51cd4ca556e0f","fixation","img/fixation.png","null","","test","","","","","",""
"null","816067","pSARL_v2","pSARL_v2prrv8eud","63cfe582f6e51cd4ca556e0f","freq","img/orange_2bandit_a2.png","null","70","test","0","30","30","2","",""
"null","816238","pSARL_v2","pSARL_v2prrv8eud","63cfe582f6e51cd4ca556e0f","fixation","img/fixation.png","null","","test","","","","","",""
"780.2000000476837","817026","pSARL_v2","pSARL_v2prrv8eud","63cfe582f6e51cd4ca556e0f","infreq","img/green_2bandit_a2.png","70","68","test","0","31","31","2","",""
"null","817053","pSARL_v2","pSARL_v2prrv8eud","63cfe582f6e51cd4ca556e0f","infreq_resp","img/green_2bandit_a.png","70","68","test","","","","2","",""
"null","817211","pSARL_v2","pSARL_v2prrv8eud","63cfe582f6e51cd4ca556e0f","fixation","img/fixation.png","null","","test","","","","","",""
"null","818023","pSARL_v2","pSARL_v2prrv8eud","63cfe582f6e51cd4ca556e0f","freq","img/orange_2bandit_a2.png","null","70","test","0","32","32","2","",""
"null","818196","pSARL_v2","pSARL_v2prrv8eud","63cfe582f6e51cd4ca556e0f","fixation","img/fixation.png","null","","test","","","","","",""
"null","819013","pSARL_v2","pSARL_v2prrv8eud","63cfe582f6e51cd4ca556e0f","freq","img/orange_2bandit_a2.png","null","70","test","0","33","33","2","",""
"null","819187","pSARL_v2","pSARL_v2prrv8eud","63cfe582f6e51cd4ca556e0f","fixation","img/fixation.png","null","","test","","","","","",""
"798.5","819994","pSARL_v2","pSARL_v2prrv8eud","63cfe582f6e51cd4ca556e0f","freq","img/orange_2bandit_a2.png","70","70","test","1","34","34","2","",""
"null","820006","pSARL_v2","pSARL_v2prrv8eud","63cfe582f6e51cd4ca556e0f","freq_resp","img/orange_2bandit_a.png","70","70","test","","","","2","",""
"null","820173","pSARL_v2","pSARL_v2prrv8eud","63cfe582f6e51cd4ca556e0f","fixation","img/fixation.png","null","","test","","","","","",""
"628.6999999880791","820810","pSARL_v2","pSARL_v2prrv8eud","63cfe582f6e51cd4ca556e0f","freq","img/orange_2bandit_a2.png","70","70","test","1","35","35","2","",""
"null","821002","pSARL_v2","pSARL_v2prrv8eud","63cfe582f6e51cd4ca556e0f","freq_resp","img/orange_2bandit_a.png","70","70","test","","","","2","",""
"null","821174","pSARL_v2","pSARL_v2prrv8eud","63cfe582f6e51cd4ca556e0f","fixation","img/fixation.png","null","","test","","","","","",""
"379.9000000357628","821562","pSARL_v2","pSARL_v2prrv8eud","63cfe582f6e51cd4ca556e0f","freq","img/orange_2bandit_a2.png","70","70","test","1","36","36","2","",""
"null","822005","pSARL_v2","pSARL_v2prrv8eud","63cfe582f6e51cd4ca556e0f","freq_resp","img/orange_2bandit_a.png","70","70","test","","","","2","",""
"null","822179","pSARL_v2","pSARL_v2prrv8eud","63cfe582f6e51cd4ca556e0f","fixation","img/fixation.png","null","","test","","","","","",""
"366.60000002384186","822555","pSARL_v2","pSARL_v2prrv8eud","63cfe582f6e51cd4ca556e0f","freq","img/orange_2bandit_a2.png","70","70","test","1","37","37","2","",""
"null","823011","pSARL_v2","pSARL_v2prrv8eud","63cfe582f6e51cd4ca556e0f","freq_resp","img/orange_2bandit_a.png","70","70","test","","","","2","",""
"null","823186","pSARL_v2","pSARL_v2prrv8eud","63cfe582f6e51cd4ca556e0f","fixation","img/fixation.png","null","","test","","","","","",""
"295.5999999642372","823490","pSARL_v2","pSARL_v2prrv8eud","63cfe582f6e51cd4ca556e0f","freq","img/orange_2bandit_a2.png","70","70","test","1","38","38","2","",""
"null","824008","pSARL_v2","pSARL_v2prrv8eud","63cfe582f6e51cd4ca556e0f","freq_resp","img/orange_2bandit_a.png","70","70","test","","","","2","",""
"null","824168","pSARL_v2","pSARL_v2prrv8eud","63cfe582f6e51cd4ca556e0f","fixation","img/fixation.png","null","","test","","","","","",""
"314.5","824490","pSARL_v2","pSARL_v2prrv8eud","63cfe582f6e51cd4ca556e0f","freq","img/orange_2bandit_a2.png","70","70","test","1","39","39","2","",""
"null","825000","pSARL_v2","pSARL_v2prrv8eud","63cfe582f6e51cd4ca556e0f","freq_resp","img/orange_2bandit_a.png","70","70","test","","","","2","",""
"null","825160","pSARL_v2","pSARL_v2prrv8eud","63cfe582f6e51cd4ca556e0f","fixation","img/fixation.png","null","","test","","","","","",""
"322.60000002384186","825489","pSARL_v2","pSARL_v2prrv8eud","63cfe582f6e51cd4ca556e0f","freq","img/orange_2bandit_a2.png","70","70","test","1","40","40","2","",""
"null","825979","pSARL_v2","pSARL_v2prrv8eud","63cfe582f6e51cd4ca556e0f","freq_resp","img/orange_2bandit_a.png","70","70","test","","","","2","",""
"null","826153","pSARL_v2","pSARL_v2prrv8eud","63cfe582f6e51cd4ca556e0f","fixation","img/fixation.png","null","","test","","","","","",""
"273.19999998807907","826435","pSARL_v2","pSARL_v2prrv8eud","63cfe582f6e51cd4ca556e0f","freq","img/orange_2bandit_a2.png","70","70","test","1","41","41","2","",""
"null","826972","pSARL_v2","pSARL_v2prrv8eud","63cfe582f6e51cd4ca556e0f","freq_resp","img/orange_2bandit_a.png","70","70","test","","","","2","",""
"null","827142","pSARL_v2","pSARL_v2prrv8eud","63cfe582f6e51cd4ca556e0f","fixation","img/fixation.png","null","","test","","","","","",""
"332","827482","pSARL_v2","pSARL_v2prrv8eud","63cfe582f6e51cd4ca556e0f","freq","img/orange_2bandit_a2.png","70","70","test","1","42","42","2","",""
"null","827973","pSARL_v2","pSARL_v2prrv8eud","63cfe582f6e51cd4ca556e0f","freq_resp","img/orange_2bandit_a.png","70","70","test","","","","2","",""
"null","828131","pSARL_v2","pSARL_v2prrv8eud","63cfe582f6e51cd4ca556e0f","fixation","img/fixation.png","null","","test","","","","","",""
"518.6000000238419","828658","pSARL_v2","pSARL_v2prrv8eud","63cfe582f6e51cd4ca556e0f","reward","img/slot.png","74","","test","","","","","",""
"null","829424","pSARL_v2","pSARL_v2prrv8eud","63cfe582f6e51cd4ca556e0f","points","<div class=""verylowPoints""> -11 </div>","null","na","test","","","","2","-11","1"
"null","830242","pSARL_v2","pSARL_v2prrv8eud","63cfe582f6e51cd4ca556e0f","freq","img/orange_2bandit_a2.png","null","70","test","0","43","43","3","",""
"null","830413","pSARL_v2","pSARL_v2prrv8eud","63cfe582f6e51cd4ca556e0f","fixation","img/fixation.png","null","","test","","","","","",""
"556.8000000119209","830977","pSARL_v2","pSARL_v2prrv8eud","63cfe582f6e51cd4ca556e0f","freq","img/orange_2bandit_a2.png","70","70","test","1","44","44","3","",""
"null","831238","pSARL_v2","pSARL_v2prrv8eud","63cfe582f6e51cd4ca556e0f","freq_resp","img/orange_2bandit_a.png","70","70","test","","","","3","",""
"null","831410","pSARL_v2","pSARL_v2prrv8eud","63cfe582f6e51cd4ca556e0f","fixation","img/fixation.png","null","","test","","","","","",""
"328.19999998807907","831745","pSARL_v2","pSARL_v2prrv8eud","63cfe582f6e51cd4ca556e0f","freq","img/orange_2bandit_a2.png","70","70","test","1","45","45","3","",""
"null","832229","pSARL_v2","pSARL_v2prrv8eud","63cfe582f6e51cd4ca556e0f","freq_resp","img/orange_2bandit_a.png","70","70","test","","","","3","",""
"null","832401","pSARL_v2","pSARL_v2prrv8eud","63cfe582f6e51cd4ca556e0f","fixation","img/fixation.png","null","","test","","","","","",""
"488.30000001192093","832898","pSARL_v2","pSARL_v2prrv8eud","63cfe582f6e51cd4ca556e0f","freq","img/orange_2bandit_a2.png","70","70","test","1","46","46","3","",""
"null","833234","pSARL_v2","pSARL_v2prrv8eud","63cfe582f6e51cd4ca556e0f","freq_resp","img/orange_2bandit_a.png","70","70","test","","","","3","",""
"null","833392","pSARL_v2","pSARL_v2prrv8eud","63cfe582f6e51cd4ca556e0f","fixation","img/fixation.png","null","","test","","","","","",""
"385.4000000357628","833786","pSARL_v2","pSARL_v2prrv8eud","63cfe582f6e51cd4ca556e0f","freq","img/orange_2bandit_a2.png","70","70","test","1","47","47","3","",""
"null","834216","pSARL_v2","pSARL_v2prrv8eud","63cfe582f6e51cd4ca556e0f","freq_resp","img/orange_2bandit_a.png","70","70","test","","","","3","",""
"null","834386","pSARL_v2","pSARL_v2prrv8eud","63cfe582f6e51cd4ca556e0f","fixation","img/fixation.png","null","","test","","","","","",""
"263.89999997615814","834659","pSARL_v2","pSARL_v2prrv8eud","63cfe582f6e51cd4ca556e0f","infreq","img/green_2bandit_a2.png","70","68","test","0","48","48","3","",""
"null","835206","pSARL_v2","pSARL_v2prrv8eud","63cfe582f6e51cd4ca556e0f","infreq_resp","img/green_2bandit_a.png","70","68","test","","","","3","",""
"null","835365","pSARL_v2","pSARL_v2prrv8eud","63cfe582f6e51cd4ca556e0f","fixation","img/fixation.png","null","","test","","","","","",""
"460.19999998807907","835835","pSARL_v2","pSARL_v2prrv8eud","63cfe582f6e51cd4ca556e0f","freq","img/orange_2bandit_a2.png","70","70","test","1","49","49","3","",""
"null","836185","pSARL_v2","pSARL_v2prrv8eud","63cfe582f6e51cd4ca556e0f","freq_resp","img/orange_2bandit_a.png","70","70","test","","","","3","",""
"null","836353","pSARL_v2","pSARL_v2prrv8eud","63cfe582f6e51cd4ca556e0f","fixation","img/fixation.png","null","","test","","","","","",""
"721","837081","pSARL_v2","pSARL_v2prrv8eud","63cfe582f6e51cd4ca556e0f","infreq","img/green_2bandit_a2.png","70","68","test","0","50","50","3","",""
"null","837170","pSARL_v2","pSARL_v2prrv8eud","63cfe582f6e51cd4ca556e0f","infreq_resp","img/green_2bandit_a.png","70","68","test","","","","3","",""
"null","837329","pSARL_v2","pSARL_v2prrv8eud","63cfe582f6e51cd4ca556e0f","fixation","img/fixation.png","null","","test","","","","","",""
"577.2999999523163","837914","pSARL_v2","pSARL_v2prrv8eud","63cfe582f6e51cd4ca556e0f","freq","img/orange_2bandit_a2.png","70","70","test","1","51","51","3","",""
"null","838149","pSARL_v2","pSARL_v2prrv8eud","63cfe582f6e51cd4ca556e0f","freq_resp","img/orange_2bandit_a.png","70","70","test","","","","3","",""
"null","838307","pSARL_v2","pSARL_v2prrv8eud","63cfe582f6e51cd4ca556e0f","fixation","img/fixation.png","null","","test","","","","","",""
"382.2000000476837","838697","pSARL_v2","pSARL_v2prrv8eud","63cfe582f6e51cd4ca556e0f","freq","img/orange_2bandit_a2.png","70","70","test","1","52","52","3","",""
"null","839134","pSARL_v2","pSARL_v2prrv8eud","63cfe582f6e51cd4ca556e0f","freq_resp","img/orange_2bandit_a.png","70","70","test","","","","3","",""
"null","839306","pSARL_v2","pSARL_v2prrv8eud","63cfe582f6e51cd4ca556e0f","fixation","img/fixation.png","null","","test","","","","","",""
"320.4000000357628","839636","pSARL_v2","pSARL_v2prrv8eud","63cfe582f6e51cd4ca556e0f","freq","img/orange_2bandit_a2.png","70","70","test","1","53","53","3","",""
"null","840132","pSARL_v2","pSARL_v2prrv8eud","63cfe582f6e51cd4ca556e0f","freq_resp","img/orange_2bandit_a.png","70","70","test","","","","3","",""
"null","840290","pSARL_v2","pSARL_v2prrv8eud","63cfe582f6e51cd4ca556e0f","fixation","img/fixation.png","null","","test","","","","","",""
"336.69999998807907","840635","pSARL_v2","pSARL_v2prrv8eud","63cfe582f6e51cd4ca556e0f","freq","img/orange_2bandit_a2.png","70","70","test","1","54","54","3","",""
"null","841121","pSARL_v2","pSARL_v2prrv8eud","63cfe582f6e51cd4ca556e0f","freq_resp","img/orange_2bandit_a.png","70","70","test","","","","3","",""
"null","841281","pSARL_v2","pSARL_v2prrv8eud","63cfe582f6e51cd4ca556e0f","fixation","img/fixation.png","null","","test","","","","","",""
"304.5999999642372","841593","pSARL_v2","pSARL_v2prrv8eud","63cfe582f6e51cd4ca556e0f","freq","img/orange_2bandit_a2.png","70","70","test","1","55","55","3","",""
"null","842096","pSARL_v2","pSARL_v2prrv8eud","63cfe582f6e51cd4ca556e0f","freq_resp","img/orange_2bandit_a.png","70","70","test","","","","3","",""
"null","842255","pSARL_v2","pSARL_v2prrv8eud","63cfe582f6e51cd4ca556e0f","fixation","img/fixation.png","null","","test","","","","","",""
"371.5999999642372","842636","pSARL_v2","pSARL_v2prrv8eud","63cfe582f6e51cd4ca556e0f","freq","img/orange_2bandit_a2.png","70","70","test","1","56","56","3","",""
"null","843090","pSARL_v2","pSARL_v2prrv8eud","63cfe582f6e51cd4ca556e0f","freq_resp","img/orange_2bandit_a.png","70","70","test","","","","3","",""
"null","843260","pSARL_v2","pSARL_v2prrv8eud","63cfe582f6e51cd4ca556e0f","fixation","img/fixation.png","null","","test","","","","","",""
"286.2000000476837","843554","pSARL_v2","pSARL_v2prrv8eud","63cfe582f6e51cd4ca556e0f","freq","img/orange_2bandit_a2.png","70","70","test","1","57","57","3","",""
"null","844084","pSARL_v2","pSARL_v2prrv8eud","63cfe582f6e51cd4ca556e0f","freq_resp","img/orange_2bandit_a.png","70","70","test","","","","3","",""
"null","844242","pSARL_v2","pSARL_v2prrv8eud","63cfe582f6e51cd4ca556e0f","fixation","img/fixation.png","null","","test","","","","","",""
"287.80000001192093","844537","pSARL_v2","pSARL_v2prrv8eud","63cfe582f6e51cd4ca556e0f","freq","img/orange_2bandit_a2.png","70","70","test","1","58","58","3","",""
"null","845070","pSARL_v2","pSARL_v2prrv8eud","63cfe582f6e51cd4ca556e0f","freq_resp","img/orange_2bandit_a.png","70","70","test","","","","3","",""
"null","845229","pSARL_v2","pSARL_v2prrv8eud","63cfe582f6e51cd4ca556e0f","fixation","img/fixation.png","null","","test","","","","","",""
"341.30000001192093","845577","pSARL_v2","pSARL_v2prrv8eud","63cfe582f6e51cd4ca556e0f","freq","img/orange_2bandit_a2.png","70","70","test","1","59","59","3","",""
"null","846052","pSARL_v2","pSARL_v2prrv8eud","63cfe582f6e51cd4ca556e0f","freq_resp","img/orange_2bandit_a.png","70","70","test","","","","3","",""
"null","846211","pSARL_v2","pSARL_v2prrv8eud","63cfe582f6e51cd4ca556e0f","fixation","img/fixation.png","null","","test","","","","","",""
"734.8000000119209","846953","pSARL_v2","pSARL_v2prrv8eud","63cfe582f6e51cd4ca556e0f","freq","img/orange_2bandit_a2.png","70","70","test","1","60","60","3","",""
"null","847040","pSARL_v2","pSARL_v2prrv8eud","63cfe582f6e51cd4ca556e0f","freq_resp","img/orange_2bandit_a.png","70","70","test","","","","3","",""
"null","847211","pSARL_v2","pSARL_v2prrv8eud","63cfe582f6e51cd4ca556e0f","fixation","img/fixation.png","null","","test","","","","","",""
"430.80000001192093","847649","pSARL_v2","pSARL_v2prrv8eud","63cfe582f6e51cd4ca556e0f","freq","img/orange_2bandit_a2.png","70","70","test","1","61","61","3","",""
"null","848029","pSARL_v2","pSARL_v2prrv8eud","63cfe582f6e51cd4ca556e0f","freq_resp","img/orange_2bandit_a.png","70","70","test","","","","3","",""
"null","848189","pSARL_v2","pSARL_v2prrv8eud","63cfe582f6e51cd4ca556e0f","fixation","img/fixation.png","null","","test","","","","","",""
"285","848482","pSARL_v2","pSARL_v2prrv8eud","63cfe582f6e51cd4ca556e0f","freq","img/orange_2bandit_a2.png","70","70","test","1","62","62","3","",""
"null","849020","pSARL_v2","pSARL_v2prrv8eud","63cfe582f6e51cd4ca556e0f","freq_resp","img/orange_2bandit_a.png","70","70","test","","","","3","",""
"null","849193","pSARL_v2","pSARL_v2prrv8eud","63cfe582f6e51cd4ca556e0f","fixation","img/fixation.png","null","","test","","","","","",""
"448.5","849649","pSARL_v2","pSARL_v2prrv8eud","63cfe582f6e51cd4ca556e0f","freq","img/orange_2bandit_a2.png","70","70","test","1","63","63","3","",""
"null","850013","pSARL_v2","pSARL_v2prrv8eud","63cfe582f6e51cd4ca556e0f","freq_resp","img/orange_2bandit_a.png","70","70","test","","","","3","",""
"null","850188","pSARL_v2","pSARL_v2prrv8eud","63cfe582f6e51cd4ca556e0f","fixation","img/fixation.png","null","","test","","","","","",""
"350.2000000476837","850546","pSARL_v2","pSARL_v2prrv8eud","63cfe582f6e51cd4ca556e0f","freq","img/orange_2bandit_a2.png","70","70","test","1","64","64","3","",""
"null","851009","pSARL_v2","pSARL_v2prrv8eud","63cfe582f6e51cd4ca556e0f","freq_resp","img/orange_2bandit_a.png","70","70","test","","","","3","",""
"null","851181","pSARL_v2","pSARL_v2prrv8eud","63cfe582f6e51cd4ca556e0f","fixation","img/fixation.png","null","","test","","","","","",""
"356.5","851545","pSARL_v2","pSARL_v2prrv8eud","63cfe582f6e51cd4ca556e0f","freq","img/orange_2bandit_a2.png","70","70","test","1","65","65","3","",""
"null","852012","pSARL_v2","pSARL_v2prrv8eud","63cfe582f6e51cd4ca556e0f","freq_resp","img/orange_2bandit_a.png","70","70","test","","","","3","",""
"null","852185","pSARL_v2","pSARL_v2prrv8eud","63cfe582f6e51cd4ca556e0f","fixation","img/fixation.png","null","","test","","","","","",""
"321.39999997615814","852513","pSARL_v2","pSARL_v2prrv8eud","63cfe582f6e51cd4ca556e0f","freq","img/orange_2bandit_a2.png","70","70","test","1","66","66","3","",""
"null","853004","pSARL_v2","pSARL_v2prrv8eud","63cfe582f6e51cd4ca556e0f","freq_resp","img/orange_2bandit_a.png","70","70","test","","","","3","",""
"null","853179","pSARL_v2","pSARL_v2prrv8eud","63cfe582f6e51cd4ca556e0f","fixation","img/fixation.png","null","","test","","","","","",""
"518.6000000238419","853705","pSARL_v2","pSARL_v2prrv8eud","63cfe582f6e51cd4ca556e0f","reward","img/slot.png","74","","test","","","","","",""
"null","854464","pSARL_v2","pSARL_v2prrv8eud","63cfe582f6e51cd4ca556e0f","points","<div class=""verylowPoints""> -7 </div>","null","na","test","","","","3","-7","2"
"585.3000000119209","855057","pSARL_v2","pSARL_v2prrv8eud","63cfe582f6e51cd4ca556e0f","freq","img/orange_2bandit_a2.png","70","70","test","1","67","67","4","",""
"null","855282","pSARL_v2","pSARL_v2prrv8eud","63cfe582f6e51cd4ca556e0f","freq_resp","img/orange_2bandit_a.png","70","70","test","","","","4","",""
"null","855441","pSARL_v2","pSARL_v2prrv8eud","63cfe582f6e51cd4ca556e0f","fixation","img/fixation.png","null","","test","","","","","",""
"384","855833","pSARL_v2","pSARL_v2prrv8eud","63cfe582f6e51cd4ca556e0f","freq","img/orange_2bandit_a2.png","70","70","test","1","68","68","4","",""
"null","856264","pSARL_v2","pSARL_v2prrv8eud","63cfe582f6e51cd4ca556e0f","freq_resp","img/orange_2bandit_a.png","70","70","test","","","","4","",""
"null","856434","pSARL_v2","pSARL_v2prrv8eud","63cfe582f6e51cd4ca556e0f","fixation","img/fixation.png","null","","test","","","","","",""
"279","856721","pSARL_v2","pSARL_v2prrv8eud","63cfe582f6e51cd4ca556e0f","freq","img/orange_2bandit_a2.png","70","70","test","1","69","69","4","",""
"null","857252","pSARL_v2","pSARL_v2prrv8eud","63cfe582f6e51cd4ca556e0f","freq_resp","img/orange_2bandit_a.png","70","70","test","","","","4","",""
"null","857422","pSARL_v2","pSARL_v2prrv8eud","63cfe582f6e51cd4ca556e0f","fixation","img/fixation.png","null","","test","","","","","",""
"475.5999999642372","857905","pSARL_v2","pSARL_v2prrv8eud","63cfe582f6e51cd4ca556e0f","infreq","img/green_2bandit_a2.png","68","68","test","1","70","70","4","",""
"null","858247","pSARL_v2","pSARL_v2prrv8eud","63cfe582f6e51cd4ca556e0f","infreq_resp","img/green_2bandit_a.png","68","68","test","","","","4","",""
"null","858422","pSARL_v2","pSARL_v2prrv8eud","63cfe582f6e51cd4ca556e0f","fixation","img/fixation.png","null","","test","","","","","",""
"515.8000000119209","858945","pSARL_v2","pSARL_v2prrv8eud","63cfe582f6e51cd4ca556e0f","freq","img/orange_2bandit_a2.png","70","70","test","1","71","71","4","",""
"null","859241","pSARL_v2","pSARL_v2prrv8eud","63cfe582f6e51cd4ca556e0f","freq_resp","img/orange_2bandit_a.png","70","70","test","","","","4","",""
"null","859414","pSARL_v2","pSARL_v2prrv8eud","63cfe582f6e51cd4ca556e0f","fixation","img/fixation.png","null","","test","","","","","",""
"403.9000000357628","859826","pSARL_v2","pSARL_v2prrv8eud","63cfe582f6e51cd4ca556e0f","freq","img/orange_2bandit_a2.png","70","70","test","1","72","72","4","",""
"null","860231","pSARL_v2","pSARL_v2prrv8eud","63cfe582f6e51cd4ca556e0f","freq_resp","img/orange_2bandit_a.png","70","70","test","","","","4","",""
"null","860400","pSARL_v2","pSARL_v2prrv8eud","63cfe582f6e51cd4ca556e0f","fixation","img/fixation.png","null","","test","","","","","",""
"345.10000002384186","860754","pSARL_v2","pSARL_v2prrv8eud","63cfe582f6e51cd4ca556e0f","freq","img/orange_2bandit_a2.png","70","70","test","1","73","73","4","",""
"null","861218","pSARL_v2","pSARL_v2prrv8eud","63cfe582f6e51cd4ca556e0f","freq_resp","img/orange_2bandit_a.png","70","70","test","","","","4","",""
"null","861391","pSARL_v2","pSARL_v2prrv8eud","63cfe582f6e51cd4ca556e0f","fixation","img/fixation.png","null","","test","","","","","",""
"538.0999999642372","861938","pSARL_v2","pSARL_v2prrv8eud","63cfe582f6e51cd4ca556e0f","freq","img/orange_2bandit_a2.png","70","70","test","1","74","74","4","",""
"null","862208","pSARL_v2","pSARL_v2prrv8eud","63cfe582f6e51cd4ca556e0f","freq_resp","img/orange_2bandit_a.png","70","70","test","","","","4","",""
"null","862367","pSARL_v2","pSARL_v2prrv8eud","63cfe582f6e51cd4ca556e0f","fixation","img/fixation.png","null","","test","","","","","",""
"370.5","862746","pSARL_v2","pSARL_v2prrv8eud","63cfe582f6e51cd4ca556e0f","freq","img/orange_2bandit_a2.png","70","70","test","1","75","75","4","",""
"null","863197","pSARL_v2","pSARL_v2prrv8eud","63cfe582f6e51cd4ca556e0f","freq_resp","img/orange_2bandit_a.png","70","70","test","","","","4","",""
"null","863371","pSARL_v2","pSARL_v2prrv8eud","63cfe582f6e51cd4ca556e0f","fixation","img/fixation.png","null","","test","","","","","",""
"287.0999999642372","863666","pSARL_v2","pSARL_v2prrv8eud","63cfe582f6e51cd4ca556e0f","freq","img/orange_2bandit_a2.png","70","70","test","1","76","76","4","",""
"null","864197","pSARL_v2","pSARL_v2prrv8eud","63cfe582f6e51cd4ca556e0f","freq_resp","img/orange_2bandit_a.png","70","70","test","","","","4","",""
"null","864358","pSARL_v2","pSARL_v2prrv8eud","63cfe582f6e51cd4ca556e0f","fixation","img/fixation.png","null","","test","","","","","",""
"251.39999997615814","864618","pSARL_v2","pSARL_v2prrv8eud","63cfe582f6e51cd4ca556e0f","infreq","img/green_2bandit_a2.png","70","68","test","0","77","77","4","",""
"null","865176","pSARL_v2","pSARL_v2prrv8eud","63cfe582f6e51cd4ca556e0f","infreq_resp","img/green_2bandit_a.png","70","68","test","","","","4","",""
"null","865336","pSARL_v2","pSARL_v2prrv8eud","63cfe582f6e51cd4ca556e0f","fixation","img/fixation.png","null","","test","","","","","",""
"153.5999999642372","865497","pSARL_v2","pSARL_v2prrv8eud","63cfe582f6e51cd4ca556e0f","infreq","img/green_2bandit_a2.png","68","68","test","1","78","78","4","",""
"null","866168","pSARL_v2","pSARL_v2prrv8eud","63cfe582f6e51cd4ca556e0f","infreq_resp","img/green_2bandit_a.png","68","68","test","","","","4","",""
"null","866340","pSARL_v2","pSARL_v2prrv8eud","63cfe582f6e51cd4ca556e0f","fixation","img/fixation.png","null","","test","","","","","",""
"38","866386","pSARL_v2","pSARL_v2prrv8eud","63cfe582f6e51cd4ca556e0f","freq","img/orange_2bandit_a2.png","68","70","test","0","79","79","4","",""
"null","867168","pSARL_v2","pSARL_v2prrv8eud","63cfe582f6e51cd4ca556e0f","freq_resp","img/orange_2bandit_a.png","68","70","test","","","","4","",""
"null","867327","pSARL_v2","pSARL_v2prrv8eud","63cfe582f6e51cd4ca556e0f","fixation","img/fixation.png","null","","test","","","","","",""
"130.39999997615814","867465","pSARL_v2","pSARL_v2prrv8eud","63cfe582f6e51cd4ca556e0f","freq","img/orange_2bandit_a2.png","68","70","test","0","80","80","4","",""
"null","868158","pSARL_v2","pSARL_v2prrv8eud","63cfe582f6e51cd4ca556e0f","freq_resp","img/orange_2bandit_a.png","68","70","test","","","","4","",""
"null","868318","pSARL_v2","pSARL_v2prrv8eud","63cfe582f6e51cd4ca556e0f","fixation","img/fixation.png","null","","test","","","","","",""
"83.89999997615814","868409","pSARL_v2","pSARL_v2prrv8eud","63cfe582f6e51cd4ca556e0f","freq","img/orange_2bandit_a2.png","70","70","test","1","81","81","4","",""
"null","869138","pSARL_v2","pSARL_v2prrv8eud","63cfe582f6e51cd4ca556e0f","freq_resp","img/orange_2bandit_a.png","70","70","test","","","","4","",""
"null","869310","pSARL_v2","pSARL_v2prrv8eud","63cfe582f6e51cd4ca556e0f","fixation","img/fixation.png","null","","test","","","","","",""
"36","869353","pSARL_v2","pSARL_v2prrv8eud","63cfe582f6e51cd4ca556e0f","freq","img/orange_2bandit_a2.png","68","70","test","0","82","82","4","",""
"null","870137","pSARL_v2","pSARL_v2prrv8eud","63cfe582f6e51cd4ca556e0f","freq_resp","img/orange_2bandit_a.png","68","70","test","","","","4","",""
"null","870310","pSARL_v2","pSARL_v2prrv8eud","63cfe582f6e51cd4ca556e0f","fixation","img/fixation.png","null","","test","","","","","",""
"92.5","870410","pSARL_v2","pSARL_v2prrv8eud","63cfe582f6e51cd4ca556e0f","freq","img/orange_2bandit_a2.png","70","70","test","1","83","83","4","",""
"null","871130","pSARL_v2","pSARL_v2prrv8eud","63cfe582f6e51cd4ca556e0f","freq_resp","img/orange_2bandit_a.png","70","70","test","","","","4","",""
"null","871290","pSARL_v2","pSARL_v2prrv8eud","63cfe582f6e51cd4ca556e0f","fixation","img/fixation.png","null","","test","","","","","",""
"15.699999988079071","871313","pSARL_v2","pSARL_v2prrv8eud","63cfe582f6e51cd4ca556e0f","freq","img/orange_2bandit_a2.png","70","70","test","1","84","84","4","",""
"null","872109","pSARL_v2","pSARL_v2prrv8eud","63cfe582f6e51cd4ca556e0f","freq_resp","img/orange_2bandit_a.png","70","70","test","","","","4","",""
"null","872288","pSARL_v2","pSARL_v2prrv8eud","63cfe582f6e51cd4ca556e0f","fixation","img/fixation.png","null","","test","","","","","",""
"161.60000002384186","872457","pSARL_v2","pSARL_v2prrv8eud","63cfe582f6e51cd4ca556e0f","freq","img/orange_2bandit_a2.png","68","70","test","0","85","85","4","",""
"null","873117","pSARL_v2","pSARL_v2prrv8eud","63cfe582f6e51cd4ca556e0f","freq_resp","img/orange_2bandit_a.png","68","70","test","","","","4","",""
"null","873291","pSARL_v2","pSARL_v2prrv8eud","63cfe582f6e51cd4ca556e0f","fixation","img/fixation.png","null","","test","","","","","",""
"8.599999964237213","873307","pSARL_v2","pSARL_v2prrv8eud","63cfe582f6e51cd4ca556e0f","freq","img/orange_2bandit_a2.png","70","70","test","1","86","86","4","",""
"null","874113","pSARL_v2","pSARL_v2prrv8eud","63cfe582f6e51cd4ca556e0f","freq_resp","img/orange_2bandit_a.png","70","70","test","","","","4","",""
"null","874283","pSARL_v2","pSARL_v2prrv8eud","63cfe582f6e51cd4ca556e0f","fixation","img/fixation.png","null","","test","","","","","",""
"2702.7000000476837","876992","pSARL_v2","pSARL_v2prrv8eud","63cfe582f6e51cd4ca556e0f","reward","img/slot.png","74","","test","","","","","",""
"null","877755","pSARL_v2","pSARL_v2prrv8eud","63cfe582f6e51cd4ca556e0f","points","<div class=""verylowPoints""> -3 </div>","null","na","test","","","","4","-3","3"
"582.7999999523163","878345","pSARL_v2","pSARL_v2prrv8eud","63cfe582f6e51cd4ca556e0f","freq","img/orange_2bandit_a2.png","70","70","test","1","87","87","5","",""
"null","878572","pSARL_v2","pSARL_v2prrv8eud","63cfe582f6e51cd4ca556e0f","freq_resp","img/orange_2bandit_a.png","70","70","test","","","","5","",""
"null","878742","pSARL_v2","pSARL_v2prrv8eud","63cfe582f6e51cd4ca556e0f","fixation","img/fixation.png","null","","test","","","","","",""
"444.89999997615814","879194","pSARL_v2","pSARL_v2prrv8eud","63cfe582f6e51cd4ca556e0f","freq","img/orange_2bandit_a2.png","70","70","test","1","88","88","5","",""
"null","879561","pSARL_v2","pSARL_v2prrv8eud","63cfe582f6e51cd4ca556e0f","freq_resp","img/orange_2bandit_a.png","70","70","test","","","","5","",""
"null","879733","pSARL_v2","pSARL_v2prrv8eud","63cfe582f6e51cd4ca556e0f","fixation","img/fixation.png","null","","test","","","","","",""
"420.30000001192093","880162","pSARL_v2","pSARL_v2prrv8eud","63cfe582f6e51cd4ca556e0f","infreq","img/green_2bandit_a2.png","68","68","test","1","89","89","5","",""
"null","880566","pSARL_v2","pSARL_v2prrv8eud","63cfe582f6e51cd4ca556e0f","infreq_resp","img/green_2bandit_a.png","68","68","test","","","","5","",""
"null","880736","pSARL_v2","pSARL_v2prrv8eud","63cfe582f6e51cd4ca556e0f","fixation","img/fixation.png","null","","test","","","","","",""
"425.0999999642372","881171","pSARL_v2","pSARL_v2prrv8eud","63cfe582f6e51cd4ca556e0f","freq","img/orange_2bandit_a2.png","70","70","test","1","90","90","5","",""
"null","881563","pSARL_v2","pSARL_v2prrv8eud","63cfe582f6e51cd4ca556e0f","freq_resp","img/orange_2bandit_a.png","70","70","test","","","","5","",""
"null","881733","pSARL_v2","pSARL_v2prrv8eud","63cfe582f6e51cd4ca556e0f","fixation","img/fixation.png","null","","test","","","","","",""
"436.2000000476837","882176","pSARL_v2","pSARL_v2prrv8eud","63cfe582f6e51cd4ca556e0f","freq","img/orange_2bandit_a2.png","70","70","test","1","91","91","5","",""
"null","882564","pSARL_v2","pSARL_v2prrv8eud","63cfe582f6e51cd4ca556e0f","freq_resp","img/orange_2bandit_a.png","70","70","test","","","","5","",""
"null","882734","pSARL_v2","pSARL_v2prrv8eud","63cfe582f6e51cd4ca556e0f","fixation","img/fixation.png","null","","test","","","","","",""
"291.5","883033","pSARL_v2","pSARL_v2prrv8eud","63cfe582f6e51cd4ca556e0f","freq","img/orange_2bandit_a2.png","70","70","test","1","92","92","5","",""
"null","883565","pSARL_v2","pSARL_v2prrv8eud","63cfe582f6e51cd4ca556e0f","freq_resp","img/orange_2bandit_a.png","70","70","test","","","","5","",""
"null","883732","pSARL_v2","pSARL_v2prrv8eud","63cfe582f6e51cd4ca556e0f","fixation","img/fixation.png","null","","test","","","","","",""
"293.10000002384186","884033","pSARL_v2","pSARL_v2prrv8eud","63cfe582f6e51cd4ca556e0f","freq","img/orange_2bandit_a2.png","70","70","test","1","93","93","5","",""
"null","884551","pSARL_v2","pSARL_v2prrv8eud","63cfe582f6e51cd4ca556e0f","freq_resp","img/orange_2bandit_a.png","70","70","test","","","","5","",""
"null","884710","pSARL_v2","pSARL_v2prrv8eud","63cfe582f6e51cd4ca556e0f","fixation","img/fixation.png","null","","test","","","","","",""
"339.7000000476837","885058","pSARL_v2","pSARL_v2prrv8eud","63cfe582f6e51cd4ca556e0f","freq","img/orange_2bandit_a2.png","70","70","test","1","94","94","5","",""
"null","885526","pSARL_v2","pSARL_v2prrv8eud","63cfe582f6e51cd4ca556e0f","freq_resp","img/orange_2bandit_a.png","70","70","test","","","","5","",""
"null","885685","pSARL_v2","pSARL_v2prrv8eud","63cfe582f6e51cd4ca556e0f","fixation","img/fixation.png","null","","test","","","","","",""
"349.10000002384186","886041","pSARL_v2","pSARL_v2prrv8eud","63cfe582f6e51cd4ca556e0f","freq","img/orange_2bandit_a2.png","70","70","test","1","95","95","5","",""
"null","886505","pSARL_v2","pSARL_v2prrv8eud","63cfe582f6e51cd4ca556e0f","freq_resp","img/orange_2bandit_a.png","70","70","test","","","","5","",""
"null","886679","pSARL_v2","pSARL_v2prrv8eud","63cfe582f6e51cd4ca556e0f","fixation","img/fixation.png","null","","test","","","","","",""
"355.0999999642372","887041","pSARL_v2","pSARL_v2prrv8eud","63cfe582f6e51cd4ca556e0f","freq","img/orange_2bandit_a2.png","70","70","test","1","96","96","5","",""
"null","887494","pSARL_v2","pSARL_v2prrv8eud","63cfe582f6e51cd4ca556e0f","freq_resp","img/orange_2bandit_a.png","70","70","test","","","","5","",""
"null","887654","pSARL_v2","pSARL_v2prrv8eud","63cfe582f6e51cd4ca556e0f","fixation","img/fixation.png","null","","test","","","","","",""
"443.80000001192093","888105","pSARL_v2","pSARL_v2prrv8eud","63cfe582f6e51cd4ca556e0f","freq","img/orange_2bandit_a2.png","70","70","test","1","97","97","5","",""
"null","888480","pSARL_v2","pSARL_v2prrv8eud","63cfe582f6e51cd4ca556e0f","freq_resp","img/orange_2bandit_a.png","70","70","test","","","","5","",""
"null","888653","pSARL_v2","pSARL_v2prrv8eud","63cfe582f6e51cd4ca556e0f","fixation","img/fixation.png","null","","test","","","","","",""
"356.60000002384186","889017","pSARL_v2","pSARL_v2prrv8eud","63cfe582f6e51cd4ca556e0f","freq","img/orange_2bandit_a2.png","70","70","test","1","98","98","5","",""
"null","889470","pSARL_v2","pSARL_v2prrv8eud","63cfe582f6e51cd4ca556e0f","freq_resp","img/orange_2bandit_a.png","70","70","test","","","","5","",""
"null","889645","pSARL_v2","pSARL_v2prrv8eud","63cfe582f6e51cd4ca556e0f","fixation","img/fixation.png","null","","test","","","","","",""
"300.80000001192093","889954","pSARL_v2","pSARL_v2prrv8eud","63cfe582f6e51cd4ca556e0f","freq","img/orange_2bandit_a2.png","70","70","test","1","99","99","5","",""
"null","890472","pSARL_v2","pSARL_v2prrv8eud","63cfe582f6e51cd4ca556e0f","freq_resp","img/orange_2bandit_a.png","70","70","test","","","","5","",""
"null","890640","pSARL_v2","pSARL_v2prrv8eud","63cfe582f6e51cd4ca556e0f","fixation","img/fixation.png","null","","test","","","","","",""
"337.5","890986","pSARL_v2","pSARL_v2prrv8eud","63cfe582f6e51cd4ca556e0f","freq","img/orange_2bandit_a2.png","70","70","test","1","100","100","5","",""
"null","891470","pSARL_v2","pSARL_v2prrv8eud","63cfe582f6e51cd4ca556e0f","freq_resp","img/orange_2bandit_a.png","70","70","test","","","","5","",""
"null","891629","pSARL_v2","pSARL_v2prrv8eud","63cfe582f6e51cd4ca556e0f","fixation","img/fixation.png","null","","test","","","","","",""
"300.10000002384186","891938","pSARL_v2","pSARL_v2prrv8eud","63cfe582f6e51cd4ca556e0f","freq","img/orange_2bandit_a2.png","70","70","test","1","101","101","5","",""
"null","892460","pSARL_v2","pSARL_v2prrv8eud","63cfe582f6e51cd4ca556e0f","freq_resp","img/orange_2bandit_a.png","70","70","test","","","","5","",""
"null","892633","pSARL_v2","pSARL_v2prrv8eud","63cfe582f6e51cd4ca556e0f","fixation","img/fixation.png","null","","test","","","","","",""
"298","892940","pSARL_v2","pSARL_v2prrv8eud","63cfe582f6e51cd4ca556e0f","freq","img/orange_2bandit_a2.png","70","70","test","1","102","102","5","",""
"null","893454","pSARL_v2","pSARL_v2prrv8eud","63cfe582f6e51cd4ca556e0f","freq_resp","img/orange_2bandit_a.png","70","70","test","","","","5","",""
"null","893625","pSARL_v2","pSARL_v2prrv8eud","63cfe582f6e51cd4ca556e0f","fixation","img/fixation.png","null","","test","","","","","",""
"265.0999999642372","893898","pSARL_v2","pSARL_v2prrv8eud","63cfe582f6e51cd4ca556e0f","freq","img/orange_2bandit_a2.png","70","70","test","1","103","103","5","",""
"null","894443","pSARL_v2","pSARL_v2prrv8eud","63cfe582f6e51cd4ca556e0f","freq_resp","img/orange_2bandit_a.png","70","70","test","","","","5","",""
"null","894602","pSARL_v2","pSARL_v2prrv8eud","63cfe582f6e51cd4ca556e0f","fixation","img/fixation.png","null","","test","","","","","",""
"263.19999998807907","894873","pSARL_v2","pSARL_v2prrv8eud","63cfe582f6e51cd4ca556e0f","infreq","img/green_2bandit_a2.png","70","68","test","0","104","104","5","",""
"null","895423","pSARL_v2","pSARL_v2prrv8eud","63cfe582f6e51cd4ca556e0f","infreq_resp","img/green_2bandit_a.png","70","68","test","","","","5","",""
"null","895595","pSARL_v2","pSARL_v2prrv8eud","63cfe582f6e51cd4ca556e0f","fixation","img/fixation.png","null","","test","","","","","",""
"478.60000002384186","896086","pSARL_v2","pSARL_v2prrv8eud","63cfe582f6e51cd4ca556e0f","freq","img/orange_2bandit_a2.png","70","70","test","1","105","105","5","",""
"null","896431","pSARL_v2","pSARL_v2prrv8eud","63cfe582f6e51cd4ca556e0f","freq_resp","img/orange_2bandit_a.png","70","70","test","","","","5","",""
"null","896605","pSARL_v2","pSARL_v2prrv8eud","63cfe582f6e51cd4ca556e0f","fixation","img/fixation.png","null","","test","","","","","",""
"476.5","897089","pSARL_v2","pSARL_v2prrv8eud","63cfe582f6e51cd4ca556e0f","freq","img/orange_2bandit_a2.png","70","70","test","1","106","106","5","",""
"null","897422","pSARL_v2","pSARL_v2prrv8eud","63cfe582f6e51cd4ca556e0f","freq_resp","img/orange_2bandit_a.png","70","70","test","","","","5","",""
"null","897596","pSARL_v2","pSARL_v2prrv8eud","63cfe582f6e51cd4ca556e0f","fixation","img/fixation.png","null","","test","","","","","",""
"422.0999999642372","898026","pSARL_v2","pSARL_v2prrv8eud","63cfe582f6e51cd4ca556e0f","freq","img/orange_2bandit_a2.png","70","70","test","1","107","107","5","",""
"null","898412","pSARL_v2","pSARL_v2prrv8eud","63cfe582f6e51cd4ca556e0f","freq_resp","img/orange_2bandit_a.png","70","70","test","","","","5","",""
"null","898585","pSARL_v2","pSARL_v2prrv8eud","63cfe582f6e51cd4ca556e0f","fixation","img/fixation.png","null","","test","","","","","",""
"600.8000000119209","899194","pSARL_v2","pSARL_v2prrv8eud","63cfe582f6e51cd4ca556e0f","freq","img/orange_2bandit_a2.png","70","70","test","1","108","108","5","",""
"null","899404","pSARL_v2","pSARL_v2prrv8eud","63cfe582f6e51cd4ca556e0f","freq_resp","img/orange_2bandit_a.png","70","70","test","","","","5","",""
"null","899575","pSARL_v2","pSARL_v2prrv8eud","63cfe582f6e51cd4ca556e0f","fixation","img/fixation.png","null","","test","","","","","",""
"475.19999998807907","900058","pSARL_v2","pSARL_v2prrv8eud","63cfe582f6e51cd4ca556e0f","reward","img/slot.png","74","","test","","","","","",""
"null","900829","pSARL_v2","pSARL_v2prrv8eud","63cfe582f6e51cd4ca556e0f","points","<div class=""veryhighPoints""> +1 </div>","null","na","test","","","","5","1","4"
"548.1999999880791","901386","pSARL_v2","pSARL_v2prrv8eud","63cfe582f6e51cd4ca556e0f","freq","img/orange_2bandit_a2.png","70","70","test","1","109","109","6","",""
"null","901652","pSARL_v2","pSARL_v2prrv8eud","63cfe582f6e51cd4ca556e0f","freq_resp","img/orange_2bandit_a.png","70","70","test","","","","6","",""
"null","901810","pSARL_v2","pSARL_v2prrv8eud","63cfe582f6e51cd4ca556e0f","fixation","img/fixation.png","null","","test","","","","","",""
"null","902639","pSARL_v2","pSARL_v2prrv8eud","63cfe582f6e51cd4ca556e0f","freq","img/orange_2bandit_a2.png","null","70","test","0","110","110","6","",""
"null","902805","pSARL_v2","pSARL_v2prrv8eud","63cfe582f6e51cd4ca556e0f","fixation","img/fixation.png","null","","test","","","","","",""
"null","903617","pSARL_v2","pSARL_v2prrv8eud","63cfe582f6e51cd4ca556e0f","freq","img/orange_2bandit_a2.png","null","70","test","0","111","111","6","",""
"null","903777","pSARL_v2","pSARL_v2prrv8eud","63cfe582f6e51cd4ca556e0f","fixation","img/fixation.png","null","","test","","","","","",""
"192.80000001192093","903979","pSARL_v2","pSARL_v2prrv8eud","63cfe582f6e51cd4ca556e0f","infreq","img/green_2bandit_a2.png","70","68","test","0","112","112","6","",""
"null","904609","pSARL_v2","pSARL_v2prrv8eud","63cfe582f6e51cd4ca556e0f","infreq_resp","img/green_2bandit_a.png","70","68","test","","","","6","",""
"null","904784","pSARL_v2","pSARL_v2prrv8eud","63cfe582f6e51cd4ca556e0f","fixation","img/fixation.png","null","","test","","","","","",""
"473.10000002384186","905265","pSARL_v2","pSARL_v2prrv8eud","63cfe582f6e51cd4ca556e0f","freq","img/orange_2bandit_a2.png","68","70","test","0","113","113","6","",""
"null","905603","pSARL_v2","pSARL_v2prrv8eud","63cfe582f6e51cd4ca556e0f","freq_resp","img/orange_2bandit_a.png","68","70","test","","","","6","",""
"null","905773","pSARL_v2","pSARL_v2prrv8eud","63cfe582f6e51cd4ca556e0f","fixation","img/fixation.png","null","","test","","","","","",""
"724.6000000238419","906506","pSARL_v2","pSARL_v2prrv8eud","63cfe582f6e51cd4ca556e0f","freq","img/orange_2bandit_a2.png","70","70","test","1","114","114","6","",""
"null","906591","pSARL_v2","pSARL_v2prrv8eud","63cfe582f6e51cd4ca556e0f","freq_resp","img/orange_2bandit_a.png","70","70","test","","","","6","",""
"null","906750","pSARL_v2","pSARL_v2prrv8eud","63cfe582f6e51cd4ca556e0f","fixation","img/fixation.png","null","","test","","","","","",""
"null","907573","pSARL_v2","pSARL_v2prrv8eud","63cfe582f6e51cd4ca556e0f","freq","img/orange_2bandit_a2.png","null","70","test","0","115","115","6","",""
"null","907744","pSARL_v2","pSARL_v2prrv8eud","63cfe582f6e51cd4ca556e0f","fixation","img/fixation.png","null","","test","","","","","",""
"441.0999999642372","908195","pSARL_v2","pSARL_v2prrv8eud","63cfe582f6e51cd4ca556e0f","freq","img/orange_2bandit_a2.png","70","70","test","1","116","116","6","",""
"null","908577","pSARL_v2","pSARL_v2prrv8eud","63cfe582f6e51cd4ca556e0f","freq_resp","img/orange_2bandit_a.png","70","70","test","","","","6","",""
"null","908747","pSARL_v2","pSARL_v2prrv8eud","63cfe582f6e51cd4ca556e0f","fixation","img/fixation.png","null","","test","","","","","",""
"318.19999998807907","909074","pSARL_v2","pSARL_v2prrv8eud","63cfe582f6e51cd4ca556e0f","freq","img/orange_2bandit_a2.png","70","70","test","1","117","117","6","",""
"null","909567","pSARL_v2","pSARL_v2prrv8eud","63cfe582f6e51cd4ca556e0f","freq_resp","img/orange_2bandit_a.png","70","70","test","","","","6","",""
"null","909741","pSARL_v2","pSARL_v2prrv8eud","63cfe582f6e51cd4ca556e0f","fixation","img/fixation.png","null","","test","","","","","",""
"293.30000001192093","910041","pSARL_v2","pSARL_v2prrv8eud","63cfe582f6e51cd4ca556e0f","freq","img/orange_2bandit_a2.png","70","70","test","1","118","118","6","",""
"null","910566","pSARL_v2","pSARL_v2prrv8eud","63cfe582f6e51cd4ca556e0f","freq_resp","img/orange_2bandit_a.png","70","70","test","","","","6","",""
"null","910723","pSARL_v2","pSARL_v2prrv8eud","63cfe582f6e51cd4ca556e0f","fixation","img/fixation.png","null","","test","","","","","",""
"342","911073","pSARL_v2","pSARL_v2prrv8eud","63cfe582f6e51cd4ca556e0f","freq","img/orange_2bandit_a2.png","70","70","test","1","119","119","6","",""
"null","911550","pSARL_v2","pSARL_v2prrv8eud","63cfe582f6e51cd4ca556e0f","freq_resp","img/orange_2bandit_a.png","70","70","test","","","","6","",""
"null","911720","pSARL_v2","pSARL_v2prrv8eud","63cfe582f6e51cd4ca556e0f","fixation","img/fixation.png","null","","test","","","","","",""
"297.30000001192093","912024","pSARL_v2","pSARL_v2prrv8eud","63cfe582f6e51cd4ca556e0f","freq","img/orange_2bandit_a2.png","70","70","test","1","120","120","6","",""
"null","912542","pSARL_v2","pSARL_v2prrv8eud","63cfe582f6e51cd4ca556e0f","freq_resp","img/orange_2bandit_a.png","70","70","test","","","","6","",""
"null","912701","pSARL_v2","pSARL_v2prrv8eud","63cfe582f6e51cd4ca556e0f","fixation","img/fixation.png","null","","test","","","","","",""
"333.80000001192093","913042","pSARL_v2","pSARL_v2prrv8eud","63cfe582f6e51cd4ca556e0f","freq","img/orange_2bandit_a2.png","70","70","test","1","121","121","6","",""
"null","913529","pSARL_v2","pSARL_v2prrv8eud","63cfe582f6e51cd4ca556e0f","freq_resp","img/orange_2bandit_a.png","70","70","test","","","","6","",""
"null","913688","pSARL_v2","pSARL_v2prrv8eud","63cfe582f6e51cd4ca556e0f","fixation","img/fixation.png","null","","test","","","","","",""
"266.39999997615814","913963","pSARL_v2","pSARL_v2prrv8eud","63cfe582f6e51cd4ca556e0f","freq","img/orange_2bandit_a2.png","70","70","test","1","122","122","6","",""
"null","914505","pSARL_v2","pSARL_v2prrv8eud","63cfe582f6e51cd4ca556e0f","freq_resp","img/orange_2bandit_a.png","70","70","test","","","","6","",""
"null","914664","pSARL_v2","pSARL_v2prrv8eud","63cfe582f6e51cd4ca556e0f","fixation","img/fixation.png","null","","test","","","","","",""
"450.5999999642372","915122","pSARL_v2","pSARL_v2prrv8eud","63cfe582f6e51cd4ca556e0f","infreq","img/green_2bandit_a2.png","68","68","test","1","123","123","6","",""
"null","915486","pSARL_v2","pSARL_v2prrv8eud","63cfe582f6e51cd4ca556e0f","infreq_resp","img/green_2bandit_a.png","68","68","test","","","","6","",""
"null","915659","pSARL_v2","pSARL_v2prrv8eud","63cfe582f6e51cd4ca556e0f","fixation","img/fixation.png","null","","test","","","","","",""
"454.39999997615814","916121","pSARL_v2","pSARL_v2prrv8eud","63cfe582f6e51cd4ca556e0f","freq","img/orange_2bandit_a2.png","70","70","test","1","124","124","6","",""
"null","916477","pSARL_v2","pSARL_v2prrv8eud","63cfe582f6e51cd4ca556e0f","freq_resp","img/orange_2bandit_a.png","70","70","test","","","","6","",""
"null","916646","pSARL_v2","pSARL_v2prrv8eud","63cfe582f6e51cd4ca556e0f","fixation","img/fixation.png","null","","test","","","","","",""
"332.69999998807907","916986","pSARL_v2","pSARL_v2prrv8eud","63cfe582f6e51cd4ca556e0f","freq","img/orange_2bandit_a2.png","70","70","test","1","125","125","6","",""
"null","917473","pSARL_v2","pSARL_v2prrv8eud","63cfe582f6e51cd4ca556e0f","freq_resp","img/orange_2bandit_a.png","70","70","test","","","","6","",""
"null","917645","pSARL_v2","pSARL_v2prrv8eud","63cfe582f6e51cd4ca556e0f","fixation","img/fixation.png","null","","test","","","","","",""
"317.69999998807907","917970","pSARL_v2","pSARL_v2prrv8eud","63cfe582f6e51cd4ca556e0f","freq","img/orange_2bandit_a2.png","70","70","test","1","126","126","6","",""
"null","918475","pSARL_v2","pSARL_v2prrv8eud","63cfe582f6e51cd4ca556e0f","freq_resp","img/orange_2bandit_a.png","70","70","test","","","","6","",""
"null","918633","pSARL_v2","pSARL_v2prrv8eud","63cfe582f6e51cd4ca556e0f","fixation","img/fixation.png","null","","test","","","","","",""
"345.10000002384186","918986","pSARL_v2","pSARL_v2prrv8eud","63cfe582f6e51cd4ca556e0f","freq","img/orange_2bandit_a2.png","70","70","test","1","127","127","6","",""
"null","919450","pSARL_v2","pSARL_v2prrv8eud","63cfe582f6e51cd4ca556e0f","freq_resp","img/orange_2bandit_a.png","70","70","test","","","","6","",""
"null","919622","pSARL_v2","pSARL_v2prrv8eud","63cfe582f6e51cd4ca556e0f","fixation","img/fixation.png","null","","test","","","","","",""
"308.19999998807907","919937","pSARL_v2","pSARL_v2prrv8eud","63cfe582f6e51cd4ca556e0f","freq","img/orange_2bandit_a2.png","70","70","test","1","128","128","6","",""
"null","920450","pSARL_v2","pSARL_v2prrv8eud","63cfe582f6e51cd4ca556e0f","freq_resp","img/orange_2bandit_a.png","70","70","test","","","","6","",""
"null","920609","pSARL_v2","pSARL_v2prrv8eud","63cfe582f6e51cd4ca556e0f","fixation","img/fixation.png","null","","test","","","","","",""
"489.60000002384186","921106","pSARL_v2","pSARL_v2prrv8eud","63cfe582f6e51cd4ca556e0f","reward","img/slot.png","74","","test","","","","","",""
"null","921868","pSARL_v2","pSARL_v2prrv8eud","63cfe582f6e51cd4ca556e0f","points","<div class=""verylowPoints""> -7 </div>","null","na","test","","","","6","-7","5"
"773.8000000119209","922651","pSARL_v2","pSARL_v2prrv8eud","63cfe582f6e51cd4ca556e0f","freq","img/orange_2bandit_a2.png","70","70","test","1","129","129","7","",""
"null","922686","pSARL_v2","pSARL_v2prrv8eud","63cfe582f6e51cd4ca556e0f","freq_resp","img/orange_2bandit_a.png","70","70","test","","","","7","",""
"null","922845","pSARL_v2","pSARL_v2prrv8eud","63cfe582f6e51cd4ca556e0f","fixation","img/fixation.png","null","","test","","","","","",""
"null","923661","pSARL_v2","pSARL_v2prrv8eud","63cfe582f6e51cd4ca556e0f","freq","img/orange_2bandit_a2.png","null","70","test","0","130","130","7","",""
"null","923833","pSARL_v2","pSARL_v2prrv8eud","63cfe582f6e51cd4ca556e0f","fixation","img/fixation.png","null","","test","","","","","",""
"482","924321","pSARL_v2","pSARL_v2prrv8eud","63cfe582f6e51cd4ca556e0f","freq","img/orange_2bandit_a2.png","70","70","test","1","131","131","7","",""
"null","924654","pSARL_v2","pSARL_v2prrv8eud","63cfe582f6e51cd4ca556e0f","freq_resp","img/orange_2bandit_a.png","70","70","test","","","","7","",""
"null","924813","pSARL_v2","pSARL_v2prrv8eud","63cfe582f6e51cd4ca556e0f","fixation","img/fixation.png","null","","test","","","","","",""
"317.19999998807907","925138","pSARL_v2","pSARL_v2prrv8eud","63cfe582f6e51cd4ca556e0f","freq","img/orange_2bandit_a2.png","70","70","test","1","132","132","7","",""
"null","925634","pSARL_v2","pSARL_v2prrv8eud","63cfe582f6e51cd4ca556e0f","freq_resp","img/orange_2bandit_a.png","70","70","test","","","","7","",""
"null","925793","pSARL_v2","pSARL_v2prrv8eud","63cfe582f6e51cd4ca556e0f","fixation","img/fixation.png","null","","test","","","","","",""
"337.5999999642372","926139","pSARL_v2","pSARL_v2prrv8eud","63cfe582f6e51cd4ca556e0f","freq","img/orange_2bandit_a2.png","70","70","test","1","133","133","7","",""
"null","926623","pSARL_v2","pSARL_v2prrv8eud","63cfe582f6e51cd4ca556e0f","freq_resp","img/orange_2bandit_a.png","70","70","test","","","","7","",""
"null","926793","pSARL_v2","pSARL_v2prrv8eud","63cfe582f6e51cd4ca556e0f","fixation","img/fixation.png","null","","test","","","","","",""
"273.2999999523163","927079","pSARL_v2","pSARL_v2prrv8eud","63cfe582f6e51cd4ca556e0f","freq","img/orange_2bandit_a2.png","70","70","test","1","134","134","7","",""
"null","927626","pSARL_v2","pSARL_v2prrv8eud","63cfe582f6e51cd4ca556e0f","freq_resp","img/orange_2bandit_a.png","70","70","test","","","","7","",""
"null","927786","pSARL_v2","pSARL_v2prrv8eud","63cfe582f6e51cd4ca556e0f","fixation","img/fixation.png","null","","test","","","","","",""
"288.80000001192093","928085","pSARL_v2","pSARL_v2prrv8eud","63cfe582f6e51cd4ca556e0f","freq","img/orange_2bandit_a2.png","70","70","test","1","135","135","7","",""
"null","928616","pSARL_v2","pSARL_v2prrv8eud","63cfe582f6e51cd4ca556e0f","freq_resp","img/orange_2bandit_a.png","70","70","test","","","","7","",""
"null","928776","pSARL_v2","pSARL_v2prrv8eud","63cfe582f6e51cd4ca556e0f","fixation","img/fixation.png","null","","test","","","","","",""
"258.5","929043","pSARL_v2","pSARL_v2prrv8eud","63cfe582f6e51cd4ca556e0f","freq","img/orange_2bandit_a2.png","70","70","test","1","136","136","7","",""
"null","929600","pSARL_v2","pSARL_v2prrv8eud","63cfe582f6e51cd4ca556e0f","freq_resp","img/orange_2bandit_a.png","70","70","test","","","","7","",""
"null","929775","pSARL_v2","pSARL_v2prrv8eud","63cfe582f6e51cd4ca556e0f","fixation","img/fixation.png","null","","test","","","","","",""
"307.9000000357628","930091","pSARL_v2","pSARL_v2prrv8eud","63cfe582f6e51cd4ca556e0f","freq","img/orange_2bandit_a2.png","70","70","test","1","137","137","7","",""
"null","930593","pSARL_v2","pSARL_v2prrv8eud","63cfe582f6e51cd4ca556e0f","freq_resp","img/orange_2bandit_a.png","70","70","test","","","","7","",""
"null","930767","pSARL_v2","pSARL_v2prrv8eud","63cfe582f6e51cd4ca556e0f","fixation","img/fixation.png","null","","test","","","","","",""
"308","931086","pSARL_v2","pSARL_v2prrv8eud","63cfe582f6e51cd4ca556e0f","freq","img/orange_2bandit_a2.png","70","70","test","1","138","138","7","",""
"null","931586","pSARL_v2","pSARL_v2prrv8eud","63cfe582f6e51cd4ca556e0f","freq_resp","img/orange_2bandit_a.png","70","70","test","","","","7","",""
"null","931759","pSARL_v2","pSARL_v2prrv8eud","63cfe582f6e51cd4ca556e0f","fixation","img/fixation.png","null","","test","","","","","",""
"307.80000001192093","932076","pSARL_v2","pSARL_v2prrv8eud","63cfe582f6e51cd4ca556e0f","freq","img/orange_2bandit_a2.png","70","70","test","1","139","139","7","",""
"null","932580","pSARL_v2","pSARL_v2prrv8eud","63cfe582f6e51cd4ca556e0f","freq_resp","img/orange_2bandit_a.png","70","70","test","","","","7","",""
"null","932752","pSARL_v2","pSARL_v2prrv8eud","63cfe582f6e51cd4ca556e0f","fixation","img/fixation.png","null","","test","","","","","",""
"306.4000000357628","933067","pSARL_v2","pSARL_v2prrv8eud","63cfe582f6e51cd4ca556e0f","freq","img/orange_2bandit_a2.png","70","70","test","1","140","140","7","",""
"null","933583","pSARL_v2","pSARL_v2prrv8eud","63cfe582f6e51cd4ca556e0f","freq_resp","img/orange_2bandit_a.png","70","70","test","","","","7","",""
"null","933753","pSARL_v2","pSARL_v2prrv8eud","63cfe582f6e51cd4ca556e0f","fixation","img/fixation.png","null","","test","","","","","",""
"290.30000001192093","934051","pSARL_v2","pSARL_v2prrv8eud","63cfe582f6e51cd4ca556e0f","freq","img/orange_2bandit_a2.png","70","70","test","1","141","141","7","",""
"null","934579","pSARL_v2","pSARL_v2prrv8eud","63cfe582f6e51cd4ca556e0f","freq_resp","img/orange_2bandit_a.png","70","70","test","","","","7","",""
"null","934739","pSARL_v2","pSARL_v2prrv8eud","63cfe582f6e51cd4ca556e0f","fixation","img/fixation.png","null","","test","","","","","",""
"287.69999998807907","935036","pSARL_v2","pSARL_v2prrv8eud","63cfe582f6e51cd4ca556e0f","freq","img/orange_2bandit_a2.png","70","70","test","1","142","142","7","",""
"null","935567","pSARL_v2","pSARL_v2prrv8eud","63cfe582f6e51cd4ca556e0f","freq_resp","img/orange_2bandit_a.png","70","70","test","","","","7","",""
"null","935739","pSARL_v2","pSARL_v2prrv8eud","63cfe582f6e51cd4ca556e0f","fixation","img/fixation.png","null","","test","","","","","",""
"271","936019","pSARL_v2","pSARL_v2prrv8eud","63cfe582f6e51cd4ca556e0f","infreq","img/green_2bandit_a2.png","70","68","test","0","143","143","7","",""
"null","936565","pSARL_v2","pSARL_v2prrv8eud","63cfe582f6e51cd4ca556e0f","infreq_resp","img/green_2bandit_a.png","70","68","test","","","","7","",""
"null","936735","pSARL_v2","pSARL_v2prrv8eud","63cfe582f6e51cd4ca556e0f","fixation","img/fixation.png","null","","test","","","","","",""
"435.69999998807907","937181","pSARL_v2","pSARL_v2prrv8eud","63cfe582f6e51cd4ca556e0f","freq","img/orange_2bandit_a2.png","70","70","test","1","144","144","7","",""
"null","937578","pSARL_v2","pSARL_v2prrv8eud","63cfe582f6e51cd4ca556e0f","freq_resp","img/orange_2bandit_a.png","70","70","test","","","","7","",""
"null","937791","pSARL_v2","pSARL_v2prrv8eud","63cfe582f6e51cd4ca556e0f","fixation","img/fixation.png","null","","test","","","","","",""
"299.89999997615814","938101","pSARL_v2","pSARL_v2prrv8eud","63cfe582f6e51cd4ca556e0f","freq","img/orange_2bandit_a2.png","70","70","test","1","145","145","7","",""
"null","938617","pSARL_v2","pSARL_v2prrv8eud","63cfe582f6e51cd4ca556e0f","freq_resp","img/orange_2bandit_a.png","70","70","test","","","","7","",""
"null","938789","pSARL_v2","pSARL_v2prrv8eud","63cfe582f6e51cd4ca556e0f","fixation","img/fixation.png","null","","test","","","","","",""
"284.89999997615814","939085","pSARL_v2","pSARL_v2prrv8eud","63cfe582f6e51cd4ca556e0f","freq","img/orange_2bandit_a2.png","70","70","test","1","146","146","7","",""
"null","939616","pSARL_v2","pSARL_v2prrv8eud","63cfe582f6e51cd4ca556e0f","freq_resp","img/orange_2bandit_a.png","70","70","test","","","","7","",""
"null","939789","pSARL_v2","pSARL_v2prrv8eud","63cfe582f6e51cd4ca556e0f","fixation","img/fixation.png","null","","test","","","","","",""
"261.69999998807907","940059","pSARL_v2","pSARL_v2prrv8eud","63cfe582f6e51cd4ca556e0f","freq","img/orange_2bandit_a2.png","70","70","test","1","147","147","7","",""
"null","940621","pSARL_v2","pSARL_v2prrv8eud","63cfe582f6e51cd4ca556e0f","freq_resp","img/orange_2bandit_a.png","70","70","test","","","","7","",""
"null","940780","pSARL_v2","pSARL_v2prrv8eud","63cfe582f6e51cd4ca556e0f","fixation","img/fixation.png","null","","test","","","","","",""
"326.5999999642372","941115","pSARL_v2","pSARL_v2prrv8eud","63cfe582f6e51cd4ca556e0f","freq","img/orange_2bandit_a2.png","70","70","test","1","148","148","7","",""
"null","941606","pSARL_v2","pSARL_v2prrv8eud","63cfe582f6e51cd4ca556e0f","freq_resp","img/orange_2bandit_a.png","70","70","test","","","","7","",""
"null","941764","pSARL_v2","pSARL_v2prrv8eud","63cfe582f6e51cd4ca556e0f","fixation","img/fixation.png","null","","test","","","","","",""
"471","942244","pSARL_v2","pSARL_v2prrv8eud","63cfe582f6e51cd4ca556e0f","infreq","img/green_2bandit_a2.png","68","68","test","1","149","149","7","",""
"null","942591","pSARL_v2","pSARL_v2prrv8eud","63cfe582f6e51cd4ca556e0f","infreq_resp","img/green_2bandit_a.png","68","68","test","","","","7","",""
"null","942764","pSARL_v2","pSARL_v2prrv8eud","63cfe582f6e51cd4ca556e0f","fixation","img/fixation.png","null","","test","","","","","",""
"431.0999999642372","943203","pSARL_v2","pSARL_v2prrv8eud","63cfe582f6e51cd4ca556e0f","freq","img/orange_2bandit_a2.png","70","70","test","1","150","150","7","",""
"null","943593","pSARL_v2","pSARL_v2prrv8eud","63cfe582f6e51cd4ca556e0f","freq_resp","img/orange_2bandit_a.png","70","70","test","","","","7","",""
"null","943769","pSARL_v2","pSARL_v2prrv8eud","63cfe582f6e51cd4ca556e0f","fixation","img/fixation.png","null","","test","","","","","",""
"369.30000001192093","944147","pSARL_v2","pSARL_v2prrv8eud","63cfe582f6e51cd4ca556e0f","freq","img/orange_2bandit_a2.png","70","70","test","1","151","151","7","",""
"null","944599","pSARL_v2","pSARL_v2prrv8eud","63cfe582f6e51cd4ca556e0f","freq_resp","img/orange_2bandit_a.png","70","70","test","","","","7","",""
"null","944774","pSARL_v2","pSARL_v2prrv8eud","63cfe582f6e51cd4ca556e0f","fixation","img/fixation.png","null","","test","","","","","",""
"309.19999998807907","945095","pSARL_v2","pSARL_v2prrv8eud","63cfe582f6e51cd4ca556e0f","freq","img/orange_2bandit_a2.png","70","70","test","1","152","152","7","",""
"null","945596","pSARL_v2","pSARL_v2prrv8eud","63cfe582f6e51cd4ca556e0f","freq_resp","img/orange_2bandit_a.png","70","70","test","","","","7","",""
"null","945755","pSARL_v2","pSARL_v2prrv8eud","63cfe582f6e51cd4ca556e0f","fixation","img/fixation.png","null","","test","","","","","",""
"351.7000000476837","946115","pSARL_v2","pSARL_v2prrv8eud","63cfe582f6e51cd4ca556e0f","freq","img/orange_2bandit_a2.png","70","70","test","1","153","153","7","",""
"null","946586","pSARL_v2","pSARL_v2prrv8eud","63cfe582f6e51cd4ca556e0f","freq_resp","img/orange_2bandit_a.png","70","70","test","","","","7","",""
"null","946745","pSARL_v2","pSARL_v2prrv8eud","63cfe582f6e51cd4ca556e0f","fixation","img/fixation.png","null","","test","","","","","",""
"329.80000001192093","947086","pSARL_v2","pSARL_v2prrv8eud","63cfe582f6e51cd4ca556e0f","freq","img/orange_2bandit_a2.png","70","70","test","1","154","154","7","",""
"null","947569","pSARL_v2","pSARL_v2prrv8eud","63cfe582f6e51cd4ca556e0f","freq_resp","img/orange_2bandit_a.png","70","70","test","","","","7","",""
"null","947728","pSARL_v2","pSARL_v2prrv8eud","63cfe582f6e51cd4ca556e0f","fixation","img/fixation.png","null","","test","","","","","",""
"569.9000000357628","948306","pSARL_v2","pSARL_v2prrv8eud","63cfe582f6e51cd4ca556e0f","reward","img/slot.png","74","","test","","","","","",""
"null","949068","pSARL_v2","pSARL_v2prrv8eud","63cfe582f6e51cd4ca556e0f","points","<div class=""verylowPoints""> -6 </div>","null","na","test","","","","7","-6","6"
"534.3000000119209","949611","pSARL_v2","pSARL_v2prrv8eud","63cfe582f6e51cd4ca556e0f","freq","img/orange_2bandit_a2.png","70","70","test","1","155","155","8","",""
"null","949900","pSARL_v2","pSARL_v2prrv8eud","63cfe582f6e51cd4ca556e0f","freq_resp","img/orange_2bandit_a.png","70","70","test","","","","8","",""
"null","950070","pSARL_v2","pSARL_v2prrv8eud","63cfe582f6e51cd4ca556e0f","fixation","img/fixation.png","null","","test","","","","","",""
"356.10000002384186","950435","pSARL_v2","pSARL_v2prrv8eud","63cfe582f6e51cd4ca556e0f","freq","img/orange_2bandit_a2.png","70","70","test","1","156","156","8","",""
"null","950903","pSARL_v2","pSARL_v2prrv8eud","63cfe582f6e51cd4ca556e0f","freq_resp","img/orange_2bandit_a.png","70","70","test","","","","8","",""
"null","951063","pSARL_v2","pSARL_v2prrv8eud","63cfe582f6e51cd4ca556e0f","fixation","img/fixation.png","null","","test","","","","","",""
"307.60000002384186","951378","pSARL_v2","pSARL_v2prrv8eud","63cfe582f6e51cd4ca556e0f","freq","img/orange_2bandit_a2.png","70","70","test","1","157","157","8","",""
"null","951879","pSARL_v2","pSARL_v2prrv8eud","63cfe582f6e51cd4ca556e0f","freq_resp","img/orange_2bandit_a.png","70","70","test","","","","8","",""
"null","952038","pSARL_v2","pSARL_v2prrv8eud","63cfe582f6e51cd4ca556e0f","fixation","img/fixation.png","null","","test","","","","","",""
"333.10000002384186","952378","pSARL_v2","pSARL_v2prrv8eud","63cfe582f6e51cd4ca556e0f","freq","img/orange_2bandit_a2.png","70","70","test","1","158","158","8","",""
"null","952866","pSARL_v2","pSARL_v2prrv8eud","63cfe582f6e51cd4ca556e0f","freq_resp","img/orange_2bandit_a.png","70","70","test","","","","8","",""
"null","953025","pSARL_v2","pSARL_v2prrv8eud","63cfe582f6e51cd4ca556e0f","fixation","img/fixation.png","null","","test","","","","","",""
"329.5","953362","pSARL_v2","pSARL_v2prrv8eud","63cfe582f6e51cd4ca556e0f","freq","img/orange_2bandit_a2.png","70","70","test","1","159","159","8","",""
"null","953850","pSARL_v2","pSARL_v2prrv8eud","63cfe582f6e51cd4ca556e0f","freq_resp","img/orange_2bandit_a.png","70","70","test","","","","8","",""
"null","954008","pSARL_v2","pSARL_v2prrv8eud","63cfe582f6e51cd4ca556e0f","fixation","img/fixation.png","null","","test","","","","","",""
"546.5","954562","pSARL_v2","pSARL_v2prrv8eud","63cfe582f6e51cd4ca556e0f","infreq","img/green_2bandit_a2.png","68","68","test","1","160","160","8","",""
"null","954837","pSARL_v2","pSARL_v2prrv8eud","63cfe582f6e51cd4ca556e0f","infreq_resp","img/green_2bandit_a.png","68","68","test","","","","8","",""
"null","954997","pSARL_v2","pSARL_v2prrv8eud","63cfe582f6e51cd4ca556e0f","fixation","img/fixation.png","null","","test","","","","","",""
"null","955820","pSARL_v2","pSARL_v2prrv8eud","63cfe582f6e51cd4ca556e0f","freq","img/orange_2bandit_a2.png","null","70","test","0","161","161","8","",""
"null","955991","pSARL_v2","pSARL_v2prrv8eud","63cfe582f6e51cd4ca556e0f","fixation","img/fixation.png","null","","test","","","","","",""
"427","956425","pSARL_v2","pSARL_v2prrv8eud","63cfe582f6e51cd4ca556e0f","freq","img/orange_2bandit_a2.png","70","70","test","1","162","162","8","",""
"null","956811","pSARL_v2","pSARL_v2prrv8eud","63cfe582f6e51cd4ca556e0f","freq_resp","img/orange_2bandit_a.png","70","70","test","","","","8","",""
"null","956981","pSARL_v2","pSARL_v2prrv8eud","63cfe582f6e51cd4ca556e0f","fixation","img/fixation.png","null","","test","","","","","",""
"308.69999998807907","957298","pSARL_v2","pSARL_v2prrv8eud","63cfe582f6e51cd4ca556e0f","freq","img/orange_2bandit_a2.png","70","70","test","1","163","163","8","",""
"null","957801","pSARL_v2","pSARL_v2prrv8eud","63cfe582f6e51cd4ca556e0f","freq_resp","img/orange_2bandit_a.png","70","70","test","","","","8","",""
"null","957960","pSARL_v2","pSARL_v2prrv8eud","63cfe582f6e51cd4ca556e0f","fixation","img/fixation.png","null","","test","","","","","",""
"546.1999999880791","958514","pSARL_v2","pSARL_v2prrv8eud","63cfe582f6e51cd4ca556e0f","freq","img/orange_2bandit_a2.png","70","70","test","1","164","164","8","",""
"null","958778","pSARL_v2","pSARL_v2prrv8eud","63cfe582f6e51cd4ca556e0f","freq_resp","img/orange_2bandit_a.png","70","70","test","","","","8","",""
"null","958951","pSARL_v2","pSARL_v2prrv8eud","63cfe582f6e51cd4ca556e0f","fixation","img/fixation.png","null","","test","","","","","",""
"547.3000000119209","959507","pSARL_v2","pSARL_v2prrv8eud","63cfe582f6e51cd4ca556e0f","freq","img/orange_2bandit_a2.png","70","70","test","1","165","165","8","",""
"null","959768","pSARL_v2","pSARL_v2prrv8eud","63cfe582f6e51cd4ca556e0f","freq_resp","img/orange_2bandit_a.png","70","70","test","","","","8","",""
"null","959926","pSARL_v2","pSARL_v2prrv8eud","63cfe582f6e51cd4ca556e0f","fixation","img/fixation.png","null","","test","","","","","",""
"428.10000002384186","960361","pSARL_v2","pSARL_v2prrv8eud","63cfe582f6e51cd4ca556e0f","freq","img/orange_2bandit_a2.png","70","70","test","1","166","166","8","",""
"null","960753","pSARL_v2","pSARL_v2prrv8eud","63cfe582f6e51cd4ca556e0f","freq_resp","img/orange_2bandit_a.png","70","70","test","","","","8","",""
"null","960927","pSARL_v2","pSARL_v2prrv8eud","63cfe582f6e51cd4ca556e0f","fixation","img/fixation.png","null","","test","","","","","",""
"378.80000001192093","961313","pSARL_v2","pSARL_v2prrv8eud","63cfe582f6e51cd4ca556e0f","freq","img/orange_2bandit_a2.png","70","70","test","1","167","167","8","",""
"null","961749","pSARL_v2","pSARL_v2prrv8eud","63cfe582f6e51cd4ca556e0f","freq_resp","img/orange_2bandit_a.png","70","70","test","","","","8","",""
"null","961922","pSARL_v2","pSARL_v2prrv8eud","63cfe582f6e51cd4ca556e0f","fixation","img/fixation.png","null","","test","","","","","",""
"624.1999999880791","962554","pSARL_v2","pSARL_v2prrv8eud","63cfe582f6e51cd4ca556e0f","freq","img/orange_2bandit_a2.png","70","70","test","1","168","168","8","",""
"null","962754","pSARL_v2","pSARL_v2prrv8eud","63cfe582f6e51cd4ca556e0f","freq_resp","img/orange_2bandit_a.png","70","70","test","","","","8","",""
"null","962923","pSARL_v2","pSARL_v2prrv8eud","63cfe582f6e51cd4ca556e0f","fixation","img/fixation.png","null","","test","","","","","",""
"759.3999999761581","963690","pSARL_v2","pSARL_v2prrv8eud","63cfe582f6e51cd4ca556e0f","freq","img/orange_2bandit_a2.png","70","70","test","1","169","169","8","",""
"null","963743","pSARL_v2","pSARL_v2prrv8eud","63cfe582f6e51cd4ca556e0f","freq_resp","img/orange_2bandit_a.png","70","70","test","","","","8","",""
"null","963917","pSARL_v2","pSARL_v2prrv8eud","63cfe582f6e51cd4ca556e0f","fixation","img/fixation.png","null","","test","","","","","",""
"629.9000000357628","964554","pSARL_v2","pSARL_v2prrv8eud","63cfe582f6e51cd4ca556e0f","freq","img/orange_2bandit_a2.png","70","70","test","1","170","170","8","",""
"null","964743","pSARL_v2","pSARL_v2prrv8eud","63cfe582f6e51cd4ca556e0f","freq_resp","img/orange_2bandit_a.png","70","70","test","","","","8","",""
"null","964915","pSARL_v2","pSARL_v2prrv8eud","63cfe582f6e51cd4ca556e0f","fixation","img/fixation.png","null","","test","","","","","",""
"527.6999999880791","965450","pSARL_v2","pSARL_v2prrv8eud","63cfe582f6e51cd4ca556e0f","infreq","img/green_2bandit_a2.png","68","68","test","1","171","171","8","",""
"null","965744","pSARL_v2","pSARL_v2prrv8eud","63cfe582f6e51cd4ca556e0f","infreq_resp","img/green_2bandit_a.png","68","68","test","","","","8","",""
"null","965915","pSARL_v2","pSARL_v2prrv8eud","63cfe582f6e51cd4ca556e0f","fixation","img/fixation.png","null","","test","","","","","",""
"null","966722","pSARL_v2","pSARL_v2prrv8eud","63cfe582f6e51cd4ca556e0f","freq","img/orange_2bandit_a2.png","null","70","test","0","172","172","8","",""
"null","966883","pSARL_v2","pSARL_v2prrv8eud","63cfe582f6e51cd4ca556e0f","fixation","img/fixation.png","null","","test","","","","","",""
"null","967703","pSARL_v2","pSARL_v2prrv8eud","63cfe582f6e51cd4ca556e0f","freq","img/orange_2bandit_a2.png","null","70","test","0","173","173","8","",""
"null","967862","pSARL_v2","pSARL_v2prrv8eud","63cfe582f6e51cd4ca556e0f","fixation","img/fixation.png","null","","test","","","","","",""
"652.5","968521","pSARL_v2","pSARL_v2prrv8eud","63cfe582f6e51cd4ca556e0f","freq","img/orange_2bandit_a2.png","70","70","test","1","174","174","8","",""
"null","968686","pSARL_v2","pSARL_v2prrv8eud","63cfe582f6e51cd4ca556e0f","freq_resp","img/orange_2bandit_a.png","70","70","test","","","","8","",""
"null","968858","pSARL_v2","pSARL_v2prrv8eud","63cfe582f6e51cd4ca556e0f","fixation","img/fixation.png","null","","test","","","","","",""
"null","969674","pSARL_v2","pSARL_v2prrv8eud","63cfe582f6e51cd4ca556e0f","freq","img/orange_2bandit_a2.png","null","70","test","0","175","175","8","",""
"null","969844","pSARL_v2","pSARL_v2prrv8eud","63cfe582f6e51cd4ca556e0f","fixation","img/fixation.png","null","","test","","","","","",""
"157.19999998807907","970010","pSARL_v2","pSARL_v2prrv8eud","63cfe582f6e51cd4ca556e0f","freq","img/orange_2bandit_a2.png","68","70","test","0","176","176","8","",""
"null","970663","pSARL_v2","pSARL_v2prrv8eud","63cfe582f6e51cd4ca556e0f","freq_resp","img/orange_2bandit_a.png","68","70","test","","","","8","",""
"null","970820","pSARL_v2","pSARL_v2prrv8eud","63cfe582f6e51cd4ca556e0f","fixation","img/fixation.png","null","","test","","","","","",""
"1488.2000000476837","972317","pSARL_v2","pSARL_v2prrv8eud","63cfe582f6e51cd4ca556e0f","reward","img/slot.png","74","","test","","","","","",""
"null","973089","pSARL_v2","pSARL_v2prrv8eud","63cfe582f6e51cd4ca556e0f","points","<div class=""verylowPoints""> -4 </div>","null","na","test","","","","8","-4","7"
"null","973915","pSARL_v2","pSARL_v2prrv8eud","63cfe582f6e51cd4ca556e0f","freq","img/orange_2bandit_a2.png","null","70","test","0","177","177","9","",""
"null","974073","pSARL_v2","pSARL_v2prrv8eud","63cfe582f6e51cd4ca556e0f","fixation","img/fixation.png","null","","test","","","","","",""
"737.3000000119209","974819","pSARL_v2","pSARL_v2prrv8eud","63cfe582f6e51cd4ca556e0f","infreq","img/green_2bandit_a2.png","68","68","test","1","178","178","9","",""
"null","974902","pSARL_v2","pSARL_v2prrv8eud","63cfe582f6e51cd4ca556e0f","infreq_resp","img/green_2bandit_a.png","68","68","test","","","","9","",""
"null","975081","pSARL_v2","pSARL_v2prrv8eud","63cfe582f6e51cd4ca556e0f","fixation","img/fixation.png","null","","test","","","","","",""
"689.5","975778","pSARL_v2","pSARL_v2prrv8eud","63cfe582f6e51cd4ca556e0f","freq","img/orange_2bandit_a2.png","70","70","test","1","179","179","9","",""
"null","975901","pSARL_v2","pSARL_v2prrv8eud","63cfe582f6e51cd4ca556e0f","freq_resp","img/orange_2bandit_a.png","70","70","test","","","","9","",""
"null","976070","pSARL_v2","pSARL_v2prrv8eud","63cfe582f6e51cd4ca556e0f","fixation","img/fixation.png","null","","test","","","","","",""
"531.6999999880791","976609","pSARL_v2","pSARL_v2prrv8eud","63cfe582f6e51cd4ca556e0f","freq","img/orange_2bandit_a2.png","70","70","test","1","180","180","9","",""
"null","976901","pSARL_v2","pSARL_v2prrv8eud","63cfe582f6e51cd4ca556e0f","freq_resp","img/orange_2bandit_a.png","70","70","test","","","","9","",""
"null","977061","pSARL_v2","pSARL_v2prrv8eud","63cfe582f6e51cd4ca556e0f","fixation","img/fixation.png","null","","test","","","","","",""
"null","977879","pSARL_v2","pSARL_v2prrv8eud","63cfe582f6e51cd4ca556e0f","freq","img/orange_2bandit_a2.png","null","70","test","0","181","181","9","",""
"null","978038","pSARL_v2","pSARL_v2prrv8eud","63cfe582f6e51cd4ca556e0f","fixation","img/fixation.png","null","","test","","","","","",""
"null","978856","pSARL_v2","pSARL_v2prrv8eud","63cfe582f6e51cd4ca556e0f","freq","img/orange_2bandit_a2.png","null","70","test","0","182","182","9","",""
"null","979015","pSARL_v2","pSARL_v2prrv8eud","63cfe582f6e51cd4ca556e0f","fixation","img/fixation.png","null","","test","","","","","",""
"603.1999999880791","979627","pSARL_v2","pSARL_v2prrv8eud","63cfe582f6e51cd4ca556e0f","infreq","img/green_2bandit_a2.png","68","68","test","1","183","183","9","",""
"null","979838","pSARL_v2","pSARL_v2prrv8eud","63cfe582f6e51cd4ca556e0f","infreq_resp","img/green_2bandit_a.png","68","68","test","","","","9","",""
"null","980005","pSARL_v2","pSARL_v2prrv8eud","63cfe582f6e51cd4ca556e0f","fixation","img/fixation.png","null","","test","","","","","",""
"null","980817","pSARL_v2","pSARL_v2prrv8eud","63cfe582f6e51cd4ca556e0f","freq","img/orange_2bandit_a2.png","null","70","test","0","184","184","9","",""
"null","980978","pSARL_v2","pSARL_v2prrv8eud","63cfe582f6e51cd4ca556e0f","fixation","img/fixation.png","null","","test","","","","","",""
"null","981794","pSARL_v2","pSARL_v2prrv8eud","63cfe582f6e51cd4ca556e0f","freq","img/orange_2bandit_a2.png","null","70","test","0","185","185","9","",""
"null","981966","pSARL_v2","pSARL_v2prrv8eud","63cfe582f6e51cd4ca556e0f","fixation","img/fixation.png","null","","test","","","","","",""
"755.4000000357628","982730","pSARL_v2","pSARL_v2prrv8eud","63cfe582f6e51cd4ca556e0f","freq","img/orange_2bandit_a2.png","68","70","test","0","186","186","9","",""
"null","982834","pSARL_v2","pSARL_v2prrv8eud","63cfe582f6e51cd4ca556e0f","freq_resp","img/orange_2bandit_a.png","68","70","test","","","","9","",""
"null","983001","pSARL_v2","pSARL_v2prrv8eud","63cfe582f6e51cd4ca556e0f","fixation","img/fixation.png","null","","test","","","","","",""
"424.9000000357628","983434","pSARL_v2","pSARL_v2prrv8eud","63cfe582f6e51cd4ca556e0f","freq","img/orange_2bandit_a2.png","70","70","test","1","187","187","9","",""
"null","983830","pSARL_v2","pSARL_v2prrv8eud","63cfe582f6e51cd4ca556e0f","freq_resp","img/orange_2bandit_a.png","70","70","test","","","","9","",""
"null","984003","pSARL_v2","pSARL_v2prrv8eud","63cfe582f6e51cd4ca556e0f","fixation","img/fixation.png","null","","test","","","","","",""
"143.5","984154","pSARL_v2","pSARL_v2prrv8eud","63cfe582f6e51cd4ca556e0f","freq","img/orange_2bandit_a2.png","70","70","test","1","188","188","9","",""
"null","984834","pSARL_v2","pSARL_v2prrv8eud","63cfe582f6e51cd4ca556e0f","freq_resp","img/orange_2bandit_a.png","70","70","test","","","","9","",""
"null","984994","pSARL_v2","pSARL_v2prrv8eud","63cfe582f6e51cd4ca556e0f","fixation","img/fixation.png","null","","test","","","","","",""
"null","985805","pSARL_v2","pSARL_v2prrv8eud","63cfe582f6e51cd4ca556e0f","freq","img/orange_2bandit_a2.png","null","70","test","0","189","189","9","",""
"null","985965","pSARL_v2","pSARL_v2prrv8eud","63cfe582f6e51cd4ca556e0f","fixation","img/fixation.png","null","","test","","","","","",""
"725.1000000238419","986698","pSARL_v2","pSARL_v2prrv8eud","63cfe582f6e51cd4ca556e0f","freq","img/orange_2bandit_a2.png","70","70","test","1","190","190","9","",""
"null","986781","pSARL_v2","pSARL_v2prrv8eud","63cfe582f6e51cd4ca556e0f","freq_resp","img/orange_2bandit_a.png","70","70","test","","","","9","",""
"null","986941","pSARL_v2","pSARL_v2prrv8eud","63cfe582f6e51cd4ca556e0f","fixation","img/fixation.png","null","","test","","","","","",""
"413.60000002384186","987363","pSARL_v2","pSARL_v2prrv8eud","63cfe582f6e51cd4ca556e0f","freq","img/orange_2bandit_a2.png","70","70","test","1","191","191","9","",""
"null","987772","pSARL_v2","pSARL_v2prrv8eud","63cfe582f6e51cd4ca556e0f","freq_resp","img/orange_2bandit_a.png","70","70","test","","","","9","",""
"null","987946","pSARL_v2","pSARL_v2prrv8eud","63cfe582f6e51cd4ca556e0f","fixation","img/fixation.png","null","","test","","","","","",""
"null","988755","pSARL_v2","pSARL_v2prrv8eud","63cfe582f6e51cd4ca556e0f","freq","img/orange_2bandit_a2.png","null","70","test","0","192","192","9","",""
"null","988925","pSARL_v2","pSARL_v2prrv8eud","63cfe582f6e51cd4ca556e0f","fixation","img/fixation.png","null","","test","","","","","",""
"null","989742","pSARL_v2","pSARL_v2prrv8eud","63cfe582f6e51cd4ca556e0f","freq","img/orange_2bandit_a2.png","null","70","test","0","193","193","9","",""
"null","989914","pSARL_v2","pSARL_v2prrv8eud","63cfe582f6e51cd4ca556e0f","fixation","img/fixation.png","null","","test","","","","","",""
"null","990721","pSARL_v2","pSARL_v2prrv8eud","63cfe582f6e51cd4ca556e0f","freq","img/orange_2bandit_a2.png","null","70","test","0","194","194","9","",""
"null","990886","pSARL_v2","pSARL_v2prrv8eud","63cfe582f6e51cd4ca556e0f","fixation","img/fixation.png","null","","test","","","","","",""
"null","991704","pSARL_v2","pSARL_v2prrv8eud","63cfe582f6e51cd4ca556e0f","freq","img/orange_2bandit_a2.png","null","70","test","0","195","195","9","",""
"null","991863","pSARL_v2","pSARL_v2prrv8eud","63cfe582f6e51cd4ca556e0f","fixation","img/fixation.png","null","","test","","","","","",""
"null","992673","pSARL_v2","pSARL_v2prrv8eud","63cfe582f6e51cd4ca556e0f","freq","img/orange_2bandit_a2.png","null","70","test","0","196","196","9","",""
"null","992831","pSARL_v2","pSARL_v2prrv8eud","63cfe582f6e51cd4ca556e0f","fixation","img/fixation.png","null","","test","","","","","",""
"null","993640","pSARL_v2","pSARL_v2prrv8eud","63cfe582f6e51cd4ca556e0f","freq","img/orange_2bandit_a2.png","null","70","test","0","197","197","9","",""
"null","993813","pSARL_v2","pSARL_v2prrv8eud","63cfe582f6e51cd4ca556e0f","fixation","img/fixation.png","null","","test","","","","","",""
"166","993986","pSARL_v2","pSARL_v2prrv8eud","63cfe582f6e51cd4ca556e0f","freq","img/orange_2bandit_a2.png","70","70","test","1","198","198","9","",""
"null","994631","pSARL_v2","pSARL_v2prrv8eud","63cfe582f6e51cd4ca556e0f","freq_resp","img/orange_2bandit_a.png","70","70","test","","","","9","",""
"null","994790","pSARL_v2","pSARL_v2prrv8eud","63cfe582f6e51cd4ca556e0f","fixation","img/fixation.png","null","","test","","","","","",""
"12.099999964237213","994809","pSARL_v2","pSARL_v2prrv8eud","63cfe582f6e51cd4ca556e0f","freq","img/orange_2bandit_a2.png","70","70","test","1","199","199","9","",""
"null","995620","pSARL_v2","pSARL_v2prrv8eud","63cfe582f6e51cd4ca556e0f","freq_resp","img/orange_2bandit_a.png","70","70","test","","","","9","",""
"null","995789","pSARL_v2","pSARL_v2prrv8eud","63cfe582f6e51cd4ca556e0f","fixation","img/fixation.png","null","","test","","","","","",""
"236.70000004768372","996033","pSARL_v2","pSARL_v2prrv8eud","63cfe582f6e51cd4ca556e0f","infreq","img/green_2bandit_a2.png","70","68","test","0","200","200","9","",""
"null","996616","pSARL_v2","pSARL_v2prrv8eud","63cfe582f6e51cd4ca556e0f","infreq_resp","img/green_2bandit_a.png","70","68","test","","","","9","",""
"null","996787","pSARL_v2","pSARL_v2prrv8eud","63cfe582f6e51cd4ca556e0f","fixation","img/fixation.png","null","","test","","","","","",""
"351.10000002384186","997145","pSARL_v2","pSARL_v2prrv8eud","63cfe582f6e51cd4ca556e0f","freq","img/orange_2bandit_a2.png","70","70","test","1","201","201","9","",""
"null","997602","pSARL_v2","pSARL_v2prrv8eud","63cfe582f6e51cd4ca556e0f","freq_resp","img/orange_2bandit_a.png","70","70","test","","","","9","",""
"null","997774","pSARL_v2","pSARL_v2prrv8eud","63cfe582f6e51cd4ca556e0f","fixation","img/fixation.png","null","","test","","","","","",""
"292.19999998807907","998074","pSARL_v2","pSARL_v2prrv8eud","63cfe582f6e51cd4ca556e0f","freq","img/orange_2bandit_a2.png","70","70","test","1","202","202","9","",""
"null","998605","pSARL_v2","pSARL_v2prrv8eud","63cfe582f6e51cd4ca556e0f","freq_resp","img/orange_2bandit_a.png","70","70","test","","","","9","",""
"null","998775","pSARL_v2","pSARL_v2prrv8eud","63cfe582f6e51cd4ca556e0f","fixation","img/fixation.png","null","","test","","","","","",""
"802.9000000357628","999585","pSARL_v2","pSARL_v2prrv8eud","63cfe582f6e51cd4ca556e0f","freq","img/orange_2bandit_a2.png","70","70","test","1","203","203","9","",""
"null","999745","pSARL_v2","pSARL_v2prrv8eud","63cfe582f6e51cd4ca556e0f","fixation","img/fixation.png","null","","test","","","","","",""
"640.6000000238419","1000393","pSARL_v2","pSARL_v2prrv8eud","63cfe582f6e51cd4ca556e0f","reward","img/slot.png","74","","test","","","","","",""
"null","1001164","pSARL_v2","pSARL_v2prrv8eud","63cfe582f6e51cd4ca556e0f","points","<div class=""verylowPoints""> -3 </div>","null","na","test","","","","9","-3","8"
"null","1001974","pSARL_v2","pSARL_v2prrv8eud","63cfe582f6e51cd4ca556e0f","freq","img/orange_2bandit_a2.png","null","70","test","0","204","204","10","",""
"null","1002133","pSARL_v2","pSARL_v2prrv8eud","63cfe582f6e51cd4ca556e0f","fixation","img/fixation.png","null","","test","","","","","",""
"13.300000011920929","1002154","pSARL_v2","pSARL_v2prrv8eud","63cfe582f6e51cd4ca556e0f","freq","img/orange_2bandit_a2.png","70","70","test","1","205","205","10","",""
"null","1002954","pSARL_v2","pSARL_v2prrv8eud","63cfe582f6e51cd4ca556e0f","freq_resp","img/orange_2bandit_a.png","70","70","test","","","","10","",""
"null","1003113","pSARL_v2","pSARL_v2prrv8eud","63cfe582f6e51cd4ca556e0f","fixation","img/fixation.png","null","","test","","","","","",""
"25.5","1003145","pSARL_v2","pSARL_v2prrv8eud","63cfe582f6e51cd4ca556e0f","infreq","img/green_2bandit_a2.png","70","68","test","0","206","206","10","",""
"null","1003931","pSARL_v2","pSARL_v2prrv8eud","63cfe582f6e51cd4ca556e0f","infreq_resp","img/green_2bandit_a.png","70","68","test","","","","10","",""
"null","1004104","pSARL_v2","pSARL_v2prrv8eud","63cfe582f6e51cd4ca556e0f","fixation","img/fixation.png","null","","test","","","","","",""
"753.6999999880791","1004866","pSARL_v2","pSARL_v2prrv8eud","63cfe582f6e51cd4ca556e0f","freq","img/orange_2bandit_a2.png","70","70","test","1","207","207","10","",""
"null","1004933","pSARL_v2","pSARL_v2prrv8eud","63cfe582f6e51cd4ca556e0f","freq_resp","img/orange_2bandit_a.png","70","70","test","","","","10","",""
"null","1005091","pSARL_v2","pSARL_v2prrv8eud","63cfe582f6e51cd4ca556e0f","fixation","img/fixation.png","null","","test","","","","","",""
"null","1005910","pSARL_v2","pSARL_v2prrv8eud","63cfe582f6e51cd4ca556e0f","infreq","img/green_2bandit_a2.png","null","68","test","0","208","208","10","",""
"null","1006090","pSARL_v2","pSARL_v2prrv8eud","63cfe582f6e51cd4ca556e0f","fixation","img/fixation.png","null","","test","","","","","",""
"511.89999997615814","1006610","pSARL_v2","pSARL_v2prrv8eud","63cfe582f6e51cd4ca556e0f","freq","img/orange_2bandit_a2.png","68","70","test","0","209","209","10","",""
"null","1006920","pSARL_v2","pSARL_v2prrv8eud","63cfe582f6e51cd4ca556e0f","freq_resp","img/orange_2bandit_a.png","68","70","test","","","","10","",""
"null","1007094","pSARL_v2","pSARL_v2prrv8eud","63cfe582f6e51cd4ca556e0f","fixation","img/fixation.png","null","","test","","","","","",""
"556.5999999642372","1007657","pSARL_v2","pSARL_v2prrv8eud","63cfe582f6e51cd4ca556e0f","freq","img/orange_2bandit_a2.png","70","70","test","1","210","210","10","",""
"null","1007912","pSARL_v2","pSARL_v2prrv8eud","63cfe582f6e51cd4ca556e0f","freq_resp","img/orange_2bandit_a.png","70","70","test","","","","10","",""
"null","1008086","pSARL_v2","pSARL_v2prrv8eud","63cfe582f6e51cd4ca556e0f","fixation","img/fixation.png","null","","test","","","","","",""
"355.89999997615814","1008451","pSARL_v2","pSARL_v2prrv8eud","63cfe582f6e51cd4ca556e0f","freq","img/orange_2bandit_a2.png","70","70","test","1","211","211","10","",""
"null","1008915","pSARL_v2","pSARL_v2prrv8eud","63cfe582f6e51cd4ca556e0f","freq_resp","img/orange_2bandit_a.png","70","70","test","","","","10","",""
"null","1009092","pSARL_v2","pSARL_v2prrv8eud","63cfe582f6e51cd4ca556e0f","fixation","img/fixation.png","null","","test","","","","","",""
"222.30000001192093","1009322","pSARL_v2","pSARL_v2prrv8eud","63cfe582f6e51cd4ca556e0f","freq","img/orange_2bandit_a2.png","70","70","test","1","212","212","10","",""
"null","1009913","pSARL_v2","pSARL_v2prrv8eud","63cfe582f6e51cd4ca556e0f","freq_resp","img/orange_2bandit_a.png","70","70","test","","","","10","",""
"null","1010091","pSARL_v2","pSARL_v2prrv8eud","63cfe582f6e51cd4ca556e0f","fixation","img/fixation.png","null","","test","","","","","",""
"343.39999997615814","1010442","pSARL_v2","pSARL_v2prrv8eud","63cfe582f6e51cd4ca556e0f","freq","img/orange_2bandit_a2.png","70","70","test","1","213","213","10","",""
"null","1010918","pSARL_v2","pSARL_v2prrv8eud","63cfe582f6e51cd4ca556e0f","freq_resp","img/orange_2bandit_a.png","70","70","test","","","","10","",""
"null","1011077","pSARL_v2","pSARL_v2prrv8eud","63cfe582f6e51cd4ca556e0f","fixation","img/fixation.png","null","","test","","","","","",""
"429.5","1011513","pSARL_v2","pSARL_v2prrv8eud","63cfe582f6e51cd4ca556e0f","freq","img/orange_2bandit_a2.png","70","70","test","1","214","214","10","",""
"null","1011903","pSARL_v2","pSARL_v2prrv8eud","63cfe582f6e51cd4ca556e0f","freq_resp","img/orange_2bandit_a.png","70","70","test","","","","10","",""
"null","1012080","pSARL_v2","pSARL_v2prrv8eud","63cfe582f6e51cd4ca556e0f","fixation","img/fixation.png","null","","test","","","","","",""
"570.1000000238419","1012658","pSARL_v2","pSARL_v2prrv8eud","63cfe582f6e51cd4ca556e0f","freq","img/orange_2bandit_a2.png","70","70","test","1","215","215","10","",""
"null","1012903","pSARL_v2","pSARL_v2prrv8eud","63cfe582f6e51cd4ca556e0f","freq_resp","img/orange_2bandit_a.png","70","70","test","","","","10","",""
"null","1013071","pSARL_v2","pSARL_v2prrv8eud","63cfe582f6e51cd4ca556e0f","fixation","img/fixation.png","null","","test","","","","","",""
"426.9000000357628","1013507","pSARL_v2","pSARL_v2prrv8eud","63cfe582f6e51cd4ca556e0f","freq","img/orange_2bandit_a2.png","70","70","test","1","216","216","10","",""
"null","1013905","pSARL_v2","pSARL_v2prrv8eud","63cfe582f6e51cd4ca556e0f","freq_resp","img/orange_2bandit_a.png","70","70","test","","","","10","",""
"null","1014084","pSARL_v2","pSARL_v2prrv8eud","63cfe582f6e51cd4ca556e0f","fixation","img/fixation.png","null","","test","","","","","",""
"374","1014466","pSARL_v2","pSARL_v2prrv8eud","63cfe582f6e51cd4ca556e0f","freq","img/orange_2bandit_a2.png","70","70","test","1","217","217","10","",""
"null","1014903","pSARL_v2","pSARL_v2prrv8eud","63cfe582f6e51cd4ca556e0f","freq_resp","img/orange_2bandit_a.png","70","70","test","","","","10","",""
