"rt","time_elapsed","expId","subject","prolificID","trialType","stimulus","key_press","corrresp","phase","corr","trialNum","attentionRunNum","blockNum","points","rlNum"
"5031.5","5038","pSARL_v2","pSARL_v2cq5l33gx","5be084ec4c397b0001ec3567","","","","","","","","","","",""
"","8349","pSARL_v2","pSARL_v2cq5l33gx","5be084ec4c397b0001ec3567","fullscreen","","","","","","","","","",""
"72838.1000000001","81191","pSARL_v2","pSARL_v2cq5l33gx","5be084ec4c397b0001ec3567","","","","","","","","","","",""
"null","82003","pSARL_v2","pSARL_v2cq5l33gx","5be084ec4c397b0001ec3567","freqPrac","img/orange_2bandit_b2.png","null","70","prac","0","","","","",""
"null","83020","pSARL_v2","pSARL_v2cq5l33gx","5be084ec4c397b0001ec3567","feedback","img/tooSlow.png","null","na","prac","","","","","",""
"null","83174","pSARL_v2","pSARL_v2cq5l33gx","5be084ec4c397b0001ec3567","fixation","img/fixation.png","null","","prac","","","","","",""
"490.4000000001397","83668","pSARL_v2","pSARL_v2cq5l33gx","5be084ec4c397b0001ec3567","infreqPrac","img/green_2bandit_b2.png","68","68","prac","1","","","","",""
"490.4000000001397","83983","pSARL_v2","pSARL_v2cq5l33gx","5be084ec4c397b0001ec3567","infreqPrac_resp","img/green_2bandit_b.png","68","68","prac","","","","","",""
"null","84137","pSARL_v2","pSARL_v2cq5l33gx","5be084ec4c397b0001ec3567","fixation","img/fixation.png","null","","prac","","","","","",""
"444","84584","pSARL_v2","pSARL_v2cq5l33gx","5be084ec4c397b0001ec3567","freqPrac","img/orange_2bandit_b2.png","70","70","prac","1","","","","",""
"444","84958","pSARL_v2","pSARL_v2cq5l33gx","5be084ec4c397b0001ec3567","freqPrac_resp","img/orange_2bandit_b.png","70","70","prac","","","","","",""
"null","85114","pSARL_v2","pSARL_v2cq5l33gx","5be084ec4c397b0001ec3567","fixation","img/fixation.png","null","","prac","","","","","",""
"417.10000000009313","85535","pSARL_v2","pSARL_v2cq5l33gx","5be084ec4c397b0001ec3567","infreqPrac","img/green_2bandit_b2.png","68","68","prac","1","","","","",""
"417.10000000009313","85925","pSARL_v2","pSARL_v2cq5l33gx","5be084ec4c397b0001ec3567","infreqPrac_resp","img/green_2bandit_b.png","68","68","prac","","","","","",""
"null","86083","pSARL_v2","pSARL_v2cq5l33gx","5be084ec4c397b0001ec3567","fixation","img/fixation.png","null","","prac","","","","","",""
"344.10000000009313","86430","pSARL_v2","pSARL_v2cq5l33gx","5be084ec4c397b0001ec3567","infreqPrac","img/green_2bandit_b2.png","68","68","prac","1","","","","",""
"344.10000000009313","86897","pSARL_v2","pSARL_v2cq5l33gx","5be084ec4c397b0001ec3567","infreqPrac_resp","img/green_2bandit_b.png","68","68","prac","","","","","",""
"null","87054","pSARL_v2","pSARL_v2cq5l33gx","5be084ec4c397b0001ec3567","fixation","img/fixation.png","null","","prac","","","","","",""
"311.19999999995343","87367","pSARL_v2","pSARL_v2cq5l33gx","5be084ec4c397b0001ec3567","infreqPrac","img/green_2bandit_b2.png","68","68","prac","1","","","","",""
"311.19999999995343","87859","pSARL_v2","pSARL_v2cq5l33gx","5be084ec4c397b0001ec3567","infreqPrac_resp","img/green_2bandit_b.png","68","68","prac","","","","","",""
"null","88027","pSARL_v2","pSARL_v2cq5l33gx","5be084ec4c397b0001ec3567","fixation","img/fixation.png","null","","prac","","","","","",""
"398.5","88429","pSARL_v2","pSARL_v2cq5l33gx","5be084ec4c397b0001ec3567","freqPrac","img/orange_2bandit_b2.png","70","70","prac","1","","","","",""
"398.5","88842","pSARL_v2","pSARL_v2cq5l33gx","5be084ec4c397b0001ec3567","freqPrac_resp","img/orange_2bandit_b.png","70","70","prac","","","","","",""
"null","89011","pSARL_v2","pSARL_v2cq5l33gx","5be084ec4c397b0001ec3567","fixation","img/fixation.png","null","","prac","","","","","",""
"382.69999999995343","89397","pSARL_v2","pSARL_v2cq5l33gx","5be084ec4c397b0001ec3567","infreqPrac","img/green_2bandit_b2.png","68","68","prac","1","","","","",""
"382.69999999995343","89831","pSARL_v2","pSARL_v2cq5l33gx","5be084ec4c397b0001ec3567","infreqPrac_resp","img/green_2bandit_b.png","68","68","prac","","","","","",""
"null","89986","pSARL_v2","pSARL_v2cq5l33gx","5be084ec4c397b0001ec3567","fixation","img/fixation.png","null","","prac","","","","","",""
"344.10000000009313","90333","pSARL_v2","pSARL_v2cq5l33gx","5be084ec4c397b0001ec3567","freqPrac","img/orange_2bandit_b2.png","68","70","prac","0","","","","",""
"344.10000000009313","90791","pSARL_v2","pSARL_v2cq5l33gx","5be084ec4c397b0001ec3567","freqPrac_resp","img/orange_2bandit_b.png","68","70","prac","","","","","",""
"null","91804","pSARL_v2","pSARL_v2cq5l33gx","5be084ec4c397b0001ec3567","feedback","img/wrongKey.png","null","na","prac","","","","","",""
"null","91959","pSARL_v2","pSARL_v2cq5l33gx","5be084ec4c397b0001ec3567","fixation","img/fixation.png","null","","prac","","","","","",""
"560.6000000000931","92523","pSARL_v2","pSARL_v2cq5l33gx","5be084ec4c397b0001ec3567","freqPrac","img/orange_2bandit_b2.png","70","70","prac","1","","","","",""
"560.6000000000931","92771","pSARL_v2","pSARL_v2cq5l33gx","5be084ec4c397b0001ec3567","freqPrac_resp","img/orange_2bandit_b.png","70","70","prac","","","","","",""
"null","92926","pSARL_v2","pSARL_v2cq5l33gx","5be084ec4c397b0001ec3567","fixation","img/fixation.png","null","","prac","","","","","",""
"29245.399999999907","122175","pSARL_v2","pSARL_v2cq5l33gx","5be084ec4c397b0001ec3567","","","","","prac","","","","","",""
"731.3000000000466","122909","pSARL_v2","pSARL_v2cq5l33gx","5be084ec4c397b0001ec3567","rewardPractice","img/slot.png","74","","prac","","","","","",""
"null","123665","pSARL_v2","pSARL_v2cq5l33gx","5be084ec4c397b0001ec3567","feedback","<div class=""veryhighPoints""> +15 </div>","null","na","prac","","","","","",""
"null","123836","pSARL_v2","pSARL_v2cq5l33gx","5be084ec4c397b0001ec3567","fixation","img/fixation.png","null","","prac","","","","","",""
"24928.300000000047","148767","pSARL_v2","pSARL_v2cq5l33gx","5be084ec4c397b0001ec3567","","","","","prac","","","","","",""
"554","149324","pSARL_v2","pSARL_v2cq5l33gx","5be084ec4c397b0001ec3567","freq","img/orange_2bandit_b2.png","70","70","test","1","1","1","1","",""
"null","149577","pSARL_v2","pSARL_v2cq5l33gx","5be084ec4c397b0001ec3567","freq_resp","img/orange_2bandit_b.png","70","70","test","","","","1","",""
"null","149731","pSARL_v2","pSARL_v2cq5l33gx","5be084ec4c397b0001ec3567","fixation","img/fixation.png","null","","test","","","","","",""
"307.60000000009313","150041","pSARL_v2","pSARL_v2cq5l33gx","5be084ec4c397b0001ec3567","freq","img/orange_2bandit_b2.png","70","70","test","1","2","2","1","",""
"null","150541","pSARL_v2","pSARL_v2cq5l33gx","5be084ec4c397b0001ec3567","freq_resp","img/orange_2bandit_b.png","70","70","test","","","","1","",""
"null","150697","pSARL_v2","pSARL_v2cq5l33gx","5be084ec4c397b0001ec3567","fixation","img/fixation.png","null","","test","","","","","",""
"368.79999999981374","151068","pSARL_v2","pSARL_v2cq5l33gx","5be084ec4c397b0001ec3567","freq","img/orange_2bandit_b2.png","70","70","test","1","3","3","1","",""
"null","151506","pSARL_v2","pSARL_v2cq5l33gx","5be084ec4c397b0001ec3567","freq_resp","img/orange_2bandit_b.png","70","70","test","","","","1","",""
"null","151659","pSARL_v2","pSARL_v2cq5l33gx","5be084ec4c397b0001ec3567","fixation","img/fixation.png","null","","test","","","","","",""
"307.69999999995343","151969","pSARL_v2","pSARL_v2cq5l33gx","5be084ec4c397b0001ec3567","freq","img/orange_2bandit_b2.png","70","70","test","1","4","4","1","",""
"null","152479","pSARL_v2","pSARL_v2cq5l33gx","5be084ec4c397b0001ec3567","freq_resp","img/orange_2bandit_b.png","70","70","test","","","","1","",""
"null","152633","pSARL_v2","pSARL_v2cq5l33gx","5be084ec4c397b0001ec3567","fixation","img/fixation.png","null","","test","","","","","",""
"296.60000000009313","152933","pSARL_v2","pSARL_v2cq5l33gx","5be084ec4c397b0001ec3567","freq","img/orange_2bandit_b2.png","70","70","test","1","5","5","1","",""
"null","153453","pSARL_v2","pSARL_v2cq5l33gx","5be084ec4c397b0001ec3567","freq_resp","img/orange_2bandit_b.png","70","70","test","","","","1","",""
"null","153607","pSARL_v2","pSARL_v2cq5l33gx","5be084ec4c397b0001ec3567","fixation","img/fixation.png","null","","test","","","","","",""
"311","153922","pSARL_v2","pSARL_v2cq5l33gx","5be084ec4c397b0001ec3567","freq","img/orange_2bandit_b2.png","70","70","test","1","6","6","1","",""
"null","154428","pSARL_v2","pSARL_v2cq5l33gx","5be084ec4c397b0001ec3567","freq_resp","img/orange_2bandit_b.png","70","70","test","","","","1","",""
"null","154583","pSARL_v2","pSARL_v2cq5l33gx","5be084ec4c397b0001ec3567","fixation","img/fixation.png","null","","test","","","","","",""
"301.80000000004657","154887","pSARL_v2","pSARL_v2cq5l33gx","5be084ec4c397b0001ec3567","freq","img/orange_2bandit_b2.png","70","70","test","1","7","7","1","",""
"null","155403","pSARL_v2","pSARL_v2cq5l33gx","5be084ec4c397b0001ec3567","freq_resp","img/orange_2bandit_b.png","70","70","test","","","","1","",""
"null","155557","pSARL_v2","pSARL_v2cq5l33gx","5be084ec4c397b0001ec3567","fixation","img/fixation.png","null","","test","","","","","",""
"313.80000000004657","155874","pSARL_v2","pSARL_v2cq5l33gx","5be084ec4c397b0001ec3567","freq","img/orange_2bandit_b2.png","70","70","test","1","8","8","1","",""
"null","156365","pSARL_v2","pSARL_v2cq5l33gx","5be084ec4c397b0001ec3567","freq_resp","img/orange_2bandit_b.png","70","70","test","","","","1","",""
"null","156519","pSARL_v2","pSARL_v2cq5l33gx","5be084ec4c397b0001ec3567","fixation","img/fixation.png","null","","test","","","","","",""
"291.89999999990687","156815","pSARL_v2","pSARL_v2cq5l33gx","5be084ec4c397b0001ec3567","freq","img/orange_2bandit_b2.png","70","70","test","1","9","9","1","",""
"null","157341","pSARL_v2","pSARL_v2cq5l33gx","5be084ec4c397b0001ec3567","freq_resp","img/orange_2bandit_b.png","70","70","test","","","","1","",""
"null","157494","pSARL_v2","pSARL_v2cq5l33gx","5be084ec4c397b0001ec3567","fixation","img/fixation.png","null","","test","","","","","",""
"314.10000000009313","157811","pSARL_v2","pSARL_v2cq5l33gx","5be084ec4c397b0001ec3567","freq","img/orange_2bandit_b2.png","70","70","test","1","10","10","1","",""
"null","158303","pSARL_v2","pSARL_v2cq5l33gx","5be084ec4c397b0001ec3567","freq_resp","img/orange_2bandit_b.png","70","70","test","","","","1","",""
"null","158456","pSARL_v2","pSARL_v2cq5l33gx","5be084ec4c397b0001ec3567","fixation","img/fixation.png","null","","test","","","","","",""
"288.19999999995343","158747","pSARL_v2","pSARL_v2cq5l33gx","5be084ec4c397b0001ec3567","freq","img/orange_2bandit_b2.png","70","70","test","1","11","11","1","",""
"null","159268","pSARL_v2","pSARL_v2cq5l33gx","5be084ec4c397b0001ec3567","freq_resp","img/orange_2bandit_b.png","70","70","test","","","","1","",""
"null","159422","pSARL_v2","pSARL_v2cq5l33gx","5be084ec4c397b0001ec3567","fixation","img/fixation.png","null","","test","","","","","",""
"261.9000000001397","159687","pSARL_v2","pSARL_v2cq5l33gx","5be084ec4c397b0001ec3567","freq","img/orange_2bandit_b2.png","70","70","test","1","12","12","1","",""
"null","160241","pSARL_v2","pSARL_v2cq5l33gx","5be084ec4c397b0001ec3567","freq_resp","img/orange_2bandit_b.png","70","70","test","","","","1","",""
"null","160395","pSARL_v2","pSARL_v2cq5l33gx","5be084ec4c397b0001ec3567","fixation","img/fixation.png","null","","test","","","","","",""
"254","160652","pSARL_v2","pSARL_v2cq5l33gx","5be084ec4c397b0001ec3567","freq","img/orange_2bandit_b2.png","70","70","test","1","13","13","1","",""
"null","161203","pSARL_v2","pSARL_v2cq5l33gx","5be084ec4c397b0001ec3567","freq_resp","img/orange_2bandit_b.png","70","70","test","","","","1","",""
"null","161356","pSARL_v2","pSARL_v2cq5l33gx","5be084ec4c397b0001ec3567","fixation","img/fixation.png","null","","test","","","","","",""
"271","161630","pSARL_v2","pSARL_v2cq5l33gx","5be084ec4c397b0001ec3567","freq","img/orange_2bandit_b2.png","70","70","test","1","14","14","1","",""
"null","162164","pSARL_v2","pSARL_v2cq5l33gx","5be084ec4c397b0001ec3567","freq_resp","img/orange_2bandit_b.png","70","70","test","","","","1","",""
"null","162319","pSARL_v2","pSARL_v2cq5l33gx","5be084ec4c397b0001ec3567","fixation","img/fixation.png","null","","test","","","","","",""
"239.30000000004657","162561","pSARL_v2","pSARL_v2cq5l33gx","5be084ec4c397b0001ec3567","freq","img/orange_2bandit_b2.png","70","70","test","1","15","15","1","",""
"null","163139","pSARL_v2","pSARL_v2cq5l33gx","5be084ec4c397b0001ec3567","freq_resp","img/orange_2bandit_b.png","70","70","test","","","","1","",""
"null","163293","pSARL_v2","pSARL_v2cq5l33gx","5be084ec4c397b0001ec3567","fixation","img/fixation.png","null","","test","","","","","",""
"273.60000000009313","163570","pSARL_v2","pSARL_v2cq5l33gx","5be084ec4c397b0001ec3567","freq","img/orange_2bandit_b2.png","70","70","test","1","16","16","1","",""
"null","164115","pSARL_v2","pSARL_v2cq5l33gx","5be084ec4c397b0001ec3567","freq_resp","img/orange_2bandit_b.png","70","70","test","","","","1","",""
"null","164269","pSARL_v2","pSARL_v2cq5l33gx","5be084ec4c397b0001ec3567","fixation","img/fixation.png","null","","test","","","","","",""
"265.19999999995343","164537","pSARL_v2","pSARL_v2cq5l33gx","5be084ec4c397b0001ec3567","infreq","img/green_2bandit_b2.png","70","68","test","0","17","17","1","",""
"null","165076","pSARL_v2","pSARL_v2cq5l33gx","5be084ec4c397b0001ec3567","infreq_resp","img/green_2bandit_b.png","70","68","test","","","","1","",""
"null","165231","pSARL_v2","pSARL_v2cq5l33gx","5be084ec4c397b0001ec3567","fixation","img/fixation.png","null","","test","","","","","",""
"396.5","165630","pSARL_v2","pSARL_v2cq5l33gx","5be084ec4c397b0001ec3567","infreq","img/green_2bandit_b2.png","68","68","test","1","18","18","1","",""
"null","166052","pSARL_v2","pSARL_v2cq5l33gx","5be084ec4c397b0001ec3567","infreq_resp","img/green_2bandit_b.png","68","68","test","","","","1","",""
"null","166207","pSARL_v2","pSARL_v2cq5l33gx","5be084ec4c397b0001ec3567","fixation","img/fixation.png","null","","test","","","","","",""
"365","166575","pSARL_v2","pSARL_v2cq5l33gx","5be084ec4c397b0001ec3567","freq","img/orange_2bandit_b2.png","70","70","test","1","19","19","1","",""
"null","167025","pSARL_v2","pSARL_v2cq5l33gx","5be084ec4c397b0001ec3567","freq_resp","img/orange_2bandit_b.png","70","70","test","","","","1","",""
"null","167179","pSARL_v2","pSARL_v2cq5l33gx","5be084ec4c397b0001ec3567","fixation","img/fixation.png","null","","test","","","","","",""
"558.1000000000931","167740","pSARL_v2","pSARL_v2cq5l33gx","5be084ec4c397b0001ec3567","reward","img/slot.png","74","","test","","","","","",""
"null","168499","pSARL_v2","pSARL_v2cq5l33gx","5be084ec4c397b0001ec3567","points","<div class=""verylowPoints""> -6 </div>","null","na","test","","","","1","-6","0"
"657.0999999998603","169159","pSARL_v2","pSARL_v2cq5l33gx","5be084ec4c397b0001ec3567","freq","img/orange_2bandit_b2.png","70","70","test","1","20","20","2","",""
"null","169319","pSARL_v2","pSARL_v2cq5l33gx","5be084ec4c397b0001ec3567","freq_resp","img/orange_2bandit_b.png","70","70","test","","","","2","",""
"null","169473","pSARL_v2","pSARL_v2cq5l33gx","5be084ec4c397b0001ec3567","fixation","img/fixation.png","null","","test","","","","","",""
"365.5","169842","pSARL_v2","pSARL_v2cq5l33gx","5be084ec4c397b0001ec3567","freq","img/orange_2bandit_b2.png","70","70","test","1","21","21","2","",""
"null","170280","pSARL_v2","pSARL_v2cq5l33gx","5be084ec4c397b0001ec3567","freq_resp","img/orange_2bandit_b.png","70","70","test","","","","2","",""
"null","170433","pSARL_v2","pSARL_v2cq5l33gx","5be084ec4c397b0001ec3567","fixation","img/fixation.png","null","","test","","","","","",""
"287.89999999990687","170724","pSARL_v2","pSARL_v2cq5l33gx","5be084ec4c397b0001ec3567","freq","img/orange_2bandit_b2.png","70","70","test","1","22","22","2","",""
"null","171240","pSARL_v2","pSARL_v2cq5l33gx","5be084ec4c397b0001ec3567","freq_resp","img/orange_2bandit_b.png","70","70","test","","","","2","",""
"null","171392","pSARL_v2","pSARL_v2cq5l33gx","5be084ec4c397b0001ec3567","fixation","img/fixation.png","null","","test","","","","","",""
"272.0999999998603","171667","pSARL_v2","pSARL_v2cq5l33gx","5be084ec4c397b0001ec3567","freq","img/orange_2bandit_b2.png","70","70","test","1","23","23","2","",""
"null","172200","pSARL_v2","pSARL_v2cq5l33gx","5be084ec4c397b0001ec3567","freq_resp","img/orange_2bandit_b.png","70","70","test","","","","2","",""
"null","172355","pSARL_v2","pSARL_v2cq5l33gx","5be084ec4c397b0001ec3567","fixation","img/fixation.png","null","","test","","","","","",""
"303.39999999990687","172661","pSARL_v2","pSARL_v2cq5l33gx","5be084ec4c397b0001ec3567","freq","img/orange_2bandit_b2.png","70","70","test","1","24","24","2","",""
"null","173160","pSARL_v2","pSARL_v2cq5l33gx","5be084ec4c397b0001ec3567","freq_resp","img/orange_2bandit_b.png","70","70","test","","","","2","",""
"null","173314","pSARL_v2","pSARL_v2cq5l33gx","5be084ec4c397b0001ec3567","fixation","img/fixation.png","null","","test","","","","","",""
"296.5999999998603","173613","pSARL_v2","pSARL_v2cq5l33gx","5be084ec4c397b0001ec3567","freq","img/orange_2bandit_b2.png","70","70","test","1","25","25","2","",""
"null","174130","pSARL_v2","pSARL_v2cq5l33gx","5be084ec4c397b0001ec3567","freq_resp","img/orange_2bandit_b.png","70","70","test","","","","2","",""
"null","174283","pSARL_v2","pSARL_v2cq5l33gx","5be084ec4c397b0001ec3567","fixation","img/fixation.png","null","","test","","","","","",""
"281.5","174568","pSARL_v2","pSARL_v2cq5l33gx","5be084ec4c397b0001ec3567","freq","img/orange_2bandit_b2.png","70","70","test","1","26","26","2","",""
"null","175091","pSARL_v2","pSARL_v2cq5l33gx","5be084ec4c397b0001ec3567","freq_resp","img/orange_2bandit_b.png","70","70","test","","","","2","",""
"null","175245","pSARL_v2","pSARL_v2cq5l33gx","5be084ec4c397b0001ec3567","fixation","img/fixation.png","null","","test","","","","","",""
"301.60000000009313","175550","pSARL_v2","pSARL_v2cq5l33gx","5be084ec4c397b0001ec3567","freq","img/orange_2bandit_b2.png","70","70","test","1","27","27","2","",""
"null","176055","pSARL_v2","pSARL_v2cq5l33gx","5be084ec4c397b0001ec3567","freq_resp","img/orange_2bandit_b.png","70","70","test","","","","2","",""
"null","176209","pSARL_v2","pSARL_v2cq5l33gx","5be084ec4c397b0001ec3567","fixation","img/fixation.png","null","","test","","","","","",""
"277.80000000004657","176490","pSARL_v2","pSARL_v2cq5l33gx","5be084ec4c397b0001ec3567","freq","img/orange_2bandit_b2.png","70","70","test","1","28","28","2","",""
"null","177019","pSARL_v2","pSARL_v2cq5l33gx","5be084ec4c397b0001ec3567","freq_resp","img/orange_2bandit_b.png","70","70","test","","","","2","",""
"null","177173","pSARL_v2","pSARL_v2cq5l33gx","5be084ec4c397b0001ec3567","fixation","img/fixation.png","null","","test","","","","","",""
"432.10000000009313","177608","pSARL_v2","pSARL_v2cq5l33gx","5be084ec4c397b0001ec3567","infreq","img/green_2bandit_b2.png","68","68","test","1","29","29","2","",""
"null","177981","pSARL_v2","pSARL_v2cq5l33gx","5be084ec4c397b0001ec3567","infreq_resp","img/green_2bandit_b.png","68","68","test","","","","2","",""
"null","178137","pSARL_v2","pSARL_v2cq5l33gx","5be084ec4c397b0001ec3567","fixation","img/fixation.png","null","","test","","","","","",""
"324.30000000004657","178464","pSARL_v2","pSARL_v2cq5l33gx","5be084ec4c397b0001ec3567","infreq","img/green_2bandit_b2.png","68","68","test","1","30","30","2","",""
"null","178957","pSARL_v2","pSARL_v2cq5l33gx","5be084ec4c397b0001ec3567","infreq_resp","img/green_2bandit_b.png","68","68","test","","","","2","",""
"null","179112","pSARL_v2","pSARL_v2cq5l33gx","5be084ec4c397b0001ec3567","fixation","img/fixation.png","null","","test","","","","","",""
"358.30000000004657","179474","pSARL_v2","pSARL_v2cq5l33gx","5be084ec4c397b0001ec3567","freq","img/orange_2bandit_b2.png","70","70","test","1","31","31","2","",""
"null","179932","pSARL_v2","pSARL_v2cq5l33gx","5be084ec4c397b0001ec3567","freq_resp","img/orange_2bandit_b.png","70","70","test","","","","2","",""
"null","180088","pSARL_v2","pSARL_v2cq5l33gx","5be084ec4c397b0001ec3567","fixation","img/fixation.png","null","","test","","","","","",""
"292.60000000009313","180383","pSARL_v2","pSARL_v2cq5l33gx","5be084ec4c397b0001ec3567","freq","img/orange_2bandit_b2.png","70","70","test","1","32","32","2","",""
"null","180907","pSARL_v2","pSARL_v2cq5l33gx","5be084ec4c397b0001ec3567","freq_resp","img/orange_2bandit_b.png","70","70","test","","","","2","",""
"null","181063","pSARL_v2","pSARL_v2cq5l33gx","5be084ec4c397b0001ec3567","fixation","img/fixation.png","null","","test","","","","","",""
"276.9000000001397","181343","pSARL_v2","pSARL_v2cq5l33gx","5be084ec4c397b0001ec3567","freq","img/orange_2bandit_b2.png","70","70","test","1","33","33","2","",""
"null","181870","pSARL_v2","pSARL_v2cq5l33gx","5be084ec4c397b0001ec3567","freq_resp","img/orange_2bandit_b.png","70","70","test","","","","2","",""
"null","182025","pSARL_v2","pSARL_v2cq5l33gx","5be084ec4c397b0001ec3567","fixation","img/fixation.png","null","","test","","","","","",""
"440.5","182469","pSARL_v2","pSARL_v2cq5l33gx","5be084ec4c397b0001ec3567","infreq","img/green_2bandit_b2.png","68","68","test","1","34","34","2","",""
"null","182846","pSARL_v2","pSARL_v2cq5l33gx","5be084ec4c397b0001ec3567","infreq_resp","img/green_2bandit_b.png","68","68","test","","","","2","",""
"null","183001","pSARL_v2","pSARL_v2cq5l33gx","5be084ec4c397b0001ec3567","fixation","img/fixation.png","null","","test","","","","","",""
"385.0999999998603","183389","pSARL_v2","pSARL_v2cq5l33gx","5be084ec4c397b0001ec3567","freq","img/orange_2bandit_b2.png","70","70","test","1","35","35","2","",""
"null","183821","pSARL_v2","pSARL_v2cq5l33gx","5be084ec4c397b0001ec3567","freq_resp","img/orange_2bandit_b.png","70","70","test","","","","2","",""
"null","183990","pSARL_v2","pSARL_v2cq5l33gx","5be084ec4c397b0001ec3567","fixation","img/fixation.png","null","","test","","","","","",""
"290.80000000004657","184284","pSARL_v2","pSARL_v2cq5l33gx","5be084ec4c397b0001ec3567","freq","img/orange_2bandit_b2.png","70","70","test","1","36","36","2","",""
"null","184812","pSARL_v2","pSARL_v2cq5l33gx","5be084ec4c397b0001ec3567","freq_resp","img/orange_2bandit_b.png","70","70","test","","","","2","",""
"null","184982","pSARL_v2","pSARL_v2cq5l33gx","5be084ec4c397b0001ec3567","fixation","img/fixation.png","null","","test","","","","","",""
"354","185339","pSARL_v2","pSARL_v2cq5l33gx","5be084ec4c397b0001ec3567","freq","img/orange_2bandit_b2.png","70","70","test","1","37","37","2","",""
"null","185800","pSARL_v2","pSARL_v2cq5l33gx","5be084ec4c397b0001ec3567","freq_resp","img/orange_2bandit_b.png","70","70","test","","","","2","",""
"null","185955","pSARL_v2","pSARL_v2cq5l33gx","5be084ec4c397b0001ec3567","fixation","img/fixation.png","null","","test","","","","","",""
"281.80000000004657","186240","pSARL_v2","pSARL_v2cq5l33gx","5be084ec4c397b0001ec3567","freq","img/orange_2bandit_b2.png","70","70","test","1","38","38","2","",""
"null","186764","pSARL_v2","pSARL_v2cq5l33gx","5be084ec4c397b0001ec3567","freq_resp","img/orange_2bandit_b.png","70","70","test","","","","2","",""
"null","186921","pSARL_v2","pSARL_v2cq5l33gx","5be084ec4c397b0001ec3567","fixation","img/fixation.png","null","","test","","","","","",""
"278.5","187202","pSARL_v2","pSARL_v2cq5l33gx","5be084ec4c397b0001ec3567","freq","img/orange_2bandit_b2.png","70","70","test","1","39","39","2","",""
"null","187741","pSARL_v2","pSARL_v2cq5l33gx","5be084ec4c397b0001ec3567","freq_resp","img/orange_2bandit_b.png","70","70","test","","","","2","",""
"null","187910","pSARL_v2","pSARL_v2cq5l33gx","5be084ec4c397b0001ec3567","fixation","img/fixation.png","null","","test","","","","","",""
"283.89999999990687","188197","pSARL_v2","pSARL_v2cq5l33gx","5be084ec4c397b0001ec3567","freq","img/orange_2bandit_b2.png","70","70","test","1","40","40","2","",""
"null","188725","pSARL_v2","pSARL_v2cq5l33gx","5be084ec4c397b0001ec3567","freq_resp","img/orange_2bandit_b.png","70","70","test","","","","2","",""
"null","188879","pSARL_v2","pSARL_v2cq5l33gx","5be084ec4c397b0001ec3567","fixation","img/fixation.png","null","","test","","","","","",""
"282.19999999995343","189164","pSARL_v2","pSARL_v2cq5l33gx","5be084ec4c397b0001ec3567","freq","img/orange_2bandit_b2.png","70","70","test","1","41","41","2","",""
"null","189690","pSARL_v2","pSARL_v2cq5l33gx","5be084ec4c397b0001ec3567","freq_resp","img/orange_2bandit_b.png","70","70","test","","","","2","",""
"null","189844","pSARL_v2","pSARL_v2cq5l33gx","5be084ec4c397b0001ec3567","fixation","img/fixation.png","null","","test","","","","","",""
"451.5","190298","pSARL_v2","pSARL_v2cq5l33gx","5be084ec4c397b0001ec3567","reward","img/slot.png","74","","test","","","","","",""
"null","191055","pSARL_v2","pSARL_v2cq5l33gx","5be084ec4c397b0001ec3567","points","<div class=""verylowPoints""> -11 </div>","null","na","test","","","","2","-11","1"
"465.60000000009313","191523","pSARL_v2","pSARL_v2cq5l33gx","5be084ec4c397b0001ec3567","freq","img/orange_2bandit_b2.png","70","70","test","1","42","42","3","",""
"null","191863","pSARL_v2","pSARL_v2cq5l33gx","5be084ec4c397b0001ec3567","freq_resp","img/orange_2bandit_b.png","70","70","test","","","","3","",""
"null","192018","pSARL_v2","pSARL_v2cq5l33gx","5be084ec4c397b0001ec3567","fixation","img/fixation.png","null","","test","","","","","",""
"327","192348","pSARL_v2","pSARL_v2cq5l33gx","5be084ec4c397b0001ec3567","freq","img/orange_2bandit_b2.png","70","70","test","1","43","43","3","",""
"null","192826","pSARL_v2","pSARL_v2cq5l33gx","5be084ec4c397b0001ec3567","freq_resp","img/orange_2bandit_b.png","70","70","test","","","","3","",""
"null","192981","pSARL_v2","pSARL_v2cq5l33gx","5be084ec4c397b0001ec3567","fixation","img/fixation.png","null","","test","","","","","",""
"311.9000000001397","193296","pSARL_v2","pSARL_v2cq5l33gx","5be084ec4c397b0001ec3567","freq","img/orange_2bandit_b2.png","70","70","test","1","44","44","3","",""
"null","193800","pSARL_v2","pSARL_v2cq5l33gx","5be084ec4c397b0001ec3567","freq_resp","img/orange_2bandit_b.png","70","70","test","","","","3","",""
"null","193954","pSARL_v2","pSARL_v2cq5l33gx","5be084ec4c397b0001ec3567","fixation","img/fixation.png","null","","test","","","","","",""
"275","194232","pSARL_v2","pSARL_v2cq5l33gx","5be084ec4c397b0001ec3567","freq","img/orange_2bandit_b2.png","70","70","test","1","45","45","3","",""
"null","194762","pSARL_v2","pSARL_v2cq5l33gx","5be084ec4c397b0001ec3567","freq_resp","img/orange_2bandit_b.png","70","70","test","","","","3","",""
"null","194918","pSARL_v2","pSARL_v2cq5l33gx","5be084ec4c397b0001ec3567","fixation","img/fixation.png","null","","test","","","","","",""
"282.30000000004657","195203","pSARL_v2","pSARL_v2cq5l33gx","5be084ec4c397b0001ec3567","freq","img/orange_2bandit_b2.png","70","70","test","1","46","46","3","",""
"null","195724","pSARL_v2","pSARL_v2cq5l33gx","5be084ec4c397b0001ec3567","freq_resp","img/orange_2bandit_b.png","70","70","test","","","","3","",""
"null","195878","pSARL_v2","pSARL_v2cq5l33gx","5be084ec4c397b0001ec3567","fixation","img/fixation.png","null","","test","","","","","",""
"281.80000000004657","196163","pSARL_v2","pSARL_v2cq5l33gx","5be084ec4c397b0001ec3567","freq","img/orange_2bandit_b2.png","70","70","test","1","47","47","3","",""
"null","196700","pSARL_v2","pSARL_v2cq5l33gx","5be084ec4c397b0001ec3567","freq_resp","img/orange_2bandit_b.png","70","70","test","","","","3","",""
"null","196853","pSARL_v2","pSARL_v2cq5l33gx","5be084ec4c397b0001ec3567","fixation","img/fixation.png","null","","test","","","","","",""
"310.80000000004657","197166","pSARL_v2","pSARL_v2cq5l33gx","5be084ec4c397b0001ec3567","freq","img/orange_2bandit_b2.png","70","70","test","1","48","48","3","",""
"null","197661","pSARL_v2","pSARL_v2cq5l33gx","5be084ec4c397b0001ec3567","freq_resp","img/orange_2bandit_b.png","70","70","test","","","","3","",""
"null","197815","pSARL_v2","pSARL_v2cq5l33gx","5be084ec4c397b0001ec3567","fixation","img/fixation.png","null","","test","","","","","",""
"325.10000000009313","198143","pSARL_v2","pSARL_v2cq5l33gx","5be084ec4c397b0001ec3567","freq","img/orange_2bandit_b2.png","70","70","test","1","49","49","3","",""
"null","198634","pSARL_v2","pSARL_v2cq5l33gx","5be084ec4c397b0001ec3567","freq_resp","img/orange_2bandit_b.png","70","70","test","","","","3","",""
"null","198788","pSARL_v2","pSARL_v2cq5l33gx","5be084ec4c397b0001ec3567","fixation","img/fixation.png","null","","test","","","","","",""
"289","199080","pSARL_v2","pSARL_v2cq5l33gx","5be084ec4c397b0001ec3567","freq","img/orange_2bandit_b2.png","70","70","test","1","50","50","3","",""
"null","199599","pSARL_v2","pSARL_v2cq5l33gx","5be084ec4c397b0001ec3567","freq_resp","img/orange_2bandit_b.png","70","70","test","","","","3","",""
"null","199752","pSARL_v2","pSARL_v2cq5l33gx","5be084ec4c397b0001ec3567","fixation","img/fixation.png","null","","test","","","","","",""
"287.5","200043","pSARL_v2","pSARL_v2cq5l33gx","5be084ec4c397b0001ec3567","freq","img/orange_2bandit_b2.png","70","70","test","1","51","51","3","",""
"null","200562","pSARL_v2","pSARL_v2cq5l33gx","5be084ec4c397b0001ec3567","freq_resp","img/orange_2bandit_b.png","70","70","test","","","","3","",""
"null","200716","pSARL_v2","pSARL_v2cq5l33gx","5be084ec4c397b0001ec3567","fixation","img/fixation.png","null","","test","","","","","",""
"294.19999999995343","201013","pSARL_v2","pSARL_v2cq5l33gx","5be084ec4c397b0001ec3567","freq","img/orange_2bandit_b2.png","70","70","test","1","52","52","3","",""
"null","201524","pSARL_v2","pSARL_v2cq5l33gx","5be084ec4c397b0001ec3567","freq_resp","img/orange_2bandit_b.png","70","70","test","","","","3","",""
"null","201678","pSARL_v2","pSARL_v2cq5l33gx","5be084ec4c397b0001ec3567","fixation","img/fixation.png","null","","test","","","","","",""
"309.69999999995343","201991","pSARL_v2","pSARL_v2cq5l33gx","5be084ec4c397b0001ec3567","freq","img/orange_2bandit_b2.png","70","70","test","1","53","53","3","",""
"null","202485","pSARL_v2","pSARL_v2cq5l33gx","5be084ec4c397b0001ec3567","freq_resp","img/orange_2bandit_b.png","70","70","test","","","","3","",""
"null","202639","pSARL_v2","pSARL_v2cq5l33gx","5be084ec4c397b0001ec3567","fixation","img/fixation.png","null","","test","","","","","",""
"391.20000000018626","203033","pSARL_v2","pSARL_v2cq5l33gx","5be084ec4c397b0001ec3567","infreq","img/green_2bandit_b2.png","68","68","test","1","54","54","3","",""
"null","203448","pSARL_v2","pSARL_v2cq5l33gx","5be084ec4c397b0001ec3567","infreq_resp","img/green_2bandit_b.png","68","68","test","","","","3","",""
"null","203604","pSARL_v2","pSARL_v2cq5l33gx","5be084ec4c397b0001ec3567","fixation","img/fixation.png","null","","test","","","","","",""
"337.80000000004657","203945","pSARL_v2","pSARL_v2cq5l33gx","5be084ec4c397b0001ec3567","infreq","img/green_2bandit_b2.png","68","68","test","1","55","55","3","",""
"null","204422","pSARL_v2","pSARL_v2cq5l33gx","5be084ec4c397b0001ec3567","infreq_resp","img/green_2bandit_b.png","68","68","test","","","","3","",""
"null","204576","pSARL_v2","pSARL_v2cq5l33gx","5be084ec4c397b0001ec3567","fixation","img/fixation.png","null","","test","","","","","",""
"357.60000000009313","204937","pSARL_v2","pSARL_v2cq5l33gx","5be084ec4c397b0001ec3567","freq","img/orange_2bandit_b2.png","70","70","test","1","56","56","3","",""
"null","205394","pSARL_v2","pSARL_v2cq5l33gx","5be084ec4c397b0001ec3567","freq_resp","img/orange_2bandit_b.png","70","70","test","","","","3","",""
"null","205563","pSARL_v2","pSARL_v2cq5l33gx","5be084ec4c397b0001ec3567","fixation","img/fixation.png","null","","test","","","","","",""
"305.20000000018626","205871","pSARL_v2","pSARL_v2cq5l33gx","5be084ec4c397b0001ec3567","freq","img/orange_2bandit_b2.png","70","70","test","1","57","57","3","",""
"null","206384","pSARL_v2","pSARL_v2cq5l33gx","5be084ec4c397b0001ec3567","freq_resp","img/orange_2bandit_b.png","70","70","test","","","","3","",""
"null","206538","pSARL_v2","pSARL_v2cq5l33gx","5be084ec4c397b0001ec3567","fixation","img/fixation.png","null","","test","","","","","",""
"291.19999999995343","206832","pSARL_v2","pSARL_v2cq5l33gx","5be084ec4c397b0001ec3567","infreq","img/green_2bandit_b2.png","70","68","test","0","58","58","3","",""
"null","207343","pSARL_v2","pSARL_v2cq5l33gx","5be084ec4c397b0001ec3567","infreq_resp","img/green_2bandit_b.png","70","68","test","","","","3","",""
"null","207498","pSARL_v2","pSARL_v2cq5l33gx","5be084ec4c397b0001ec3567","fixation","img/fixation.png","null","","test","","","","","",""
"390.80000000004657","207892","pSARL_v2","pSARL_v2cq5l33gx","5be084ec4c397b0001ec3567","freq","img/orange_2bandit_b2.png","70","70","test","1","59","59","3","",""
"null","208316","pSARL_v2","pSARL_v2cq5l33gx","5be084ec4c397b0001ec3567","freq_resp","img/orange_2bandit_b.png","70","70","test","","","","3","",""
"null","208485","pSARL_v2","pSARL_v2cq5l33gx","5be084ec4c397b0001ec3567","fixation","img/fixation.png","null","","test","","","","","",""
"344","208832","pSARL_v2","pSARL_v2cq5l33gx","5be084ec4c397b0001ec3567","freq","img/orange_2bandit_b2.png","70","70","test","1","60","60","3","",""
"null","209299","pSARL_v2","pSARL_v2cq5l33gx","5be084ec4c397b0001ec3567","freq_resp","img/orange_2bandit_b.png","70","70","test","","","","3","",""
"null","209454","pSARL_v2","pSARL_v2cq5l33gx","5be084ec4c397b0001ec3567","fixation","img/fixation.png","null","","test","","","","","",""
"342.39999999990687","209799","pSARL_v2","pSARL_v2cq5l33gx","5be084ec4c397b0001ec3567","freq","img/orange_2bandit_b2.png","70","70","test","1","61","61","3","",""
"null","210262","pSARL_v2","pSARL_v2cq5l33gx","5be084ec4c397b0001ec3567","freq_resp","img/orange_2bandit_b.png","70","70","test","","","","3","",""
"null","210417","pSARL_v2","pSARL_v2cq5l33gx","5be084ec4c397b0001ec3567","fixation","img/fixation.png","null","","test","","","","","",""
"400.39999999990687","210821","pSARL_v2","pSARL_v2cq5l33gx","5be084ec4c397b0001ec3567","freq","img/orange_2bandit_b2.png","70","70","test","1","62","62","3","",""
"null","211237","pSARL_v2","pSARL_v2cq5l33gx","5be084ec4c397b0001ec3567","freq_resp","img/orange_2bandit_b.png","70","70","test","","","","3","",""
"null","211391","pSARL_v2","pSARL_v2cq5l33gx","5be084ec4c397b0001ec3567","fixation","img/fixation.png","null","","test","","","","","",""
"561.5999999998603","211956","pSARL_v2","pSARL_v2cq5l33gx","5be084ec4c397b0001ec3567","reward","img/slot.png","74","","test","","","","","",""
"null","212722","pSARL_v2","pSARL_v2cq5l33gx","5be084ec4c397b0001ec3567","points","<div class=""verylowPoints""> -7 </div>","null","na","test","","","","3","-7","2"
"385.89999999990687","213112","pSARL_v2","pSARL_v2cq5l33gx","5be084ec4c397b0001ec3567","freq","img/orange_2bandit_b2.png","70","70","test","1","63","63","4","",""
"null","213542","pSARL_v2","pSARL_v2cq5l33gx","5be084ec4c397b0001ec3567","freq_resp","img/orange_2bandit_b.png","70","70","test","","","","4","",""
"null","213697","pSARL_v2","pSARL_v2cq5l33gx","5be084ec4c397b0001ec3567","fixation","img/fixation.png","null","","test","","","","","",""
"337.5999999998603","214038","pSARL_v2","pSARL_v2cq5l33gx","5be084ec4c397b0001ec3567","freq","img/orange_2bandit_b2.png","70","70","test","1","64","64","4","",""
"null","214505","pSARL_v2","pSARL_v2cq5l33gx","5be084ec4c397b0001ec3567","freq_resp","img/orange_2bandit_b.png","70","70","test","","","","4","",""
"null","214659","pSARL_v2","pSARL_v2cq5l33gx","5be084ec4c397b0001ec3567","fixation","img/fixation.png","null","","test","","","","","",""
"288.39999999990687","214951","pSARL_v2","pSARL_v2cq5l33gx","5be084ec4c397b0001ec3567","freq","img/orange_2bandit_b2.png","70","70","test","1","65","65","4","",""
"null","215480","pSARL_v2","pSARL_v2cq5l33gx","5be084ec4c397b0001ec3567","freq_resp","img/orange_2bandit_b.png","70","70","test","","","","4","",""
"null","215633","pSARL_v2","pSARL_v2cq5l33gx","5be084ec4c397b0001ec3567","fixation","img/fixation.png","null","","test","","","","","",""
"312.70000000018626","215949","pSARL_v2","pSARL_v2cq5l33gx","5be084ec4c397b0001ec3567","freq","img/orange_2bandit_b2.png","70","70","test","1","66","66","4","",""
"null","216451","pSARL_v2","pSARL_v2cq5l33gx","5be084ec4c397b0001ec3567","freq_resp","img/orange_2bandit_b.png","70","70","test","","","","4","",""
"null","216607","pSARL_v2","pSARL_v2cq5l33gx","5be084ec4c397b0001ec3567","fixation","img/fixation.png","null","","test","","","","","",""
"320.9000000001397","216931","pSARL_v2","pSARL_v2cq5l33gx","5be084ec4c397b0001ec3567","freq","img/orange_2bandit_b2.png","70","70","test","1","67","67","4","",""
"null","217428","pSARL_v2","pSARL_v2cq5l33gx","5be084ec4c397b0001ec3567","freq_resp","img/orange_2bandit_b.png","70","70","test","","","","4","",""
"null","217582","pSARL_v2","pSARL_v2cq5l33gx","5be084ec4c397b0001ec3567","fixation","img/fixation.png","null","","test","","","","","",""
"376.5","217962","pSARL_v2","pSARL_v2cq5l33gx","5be084ec4c397b0001ec3567","freq","img/orange_2bandit_b2.png","70","70","test","1","68","68","4","",""
"null","218392","pSARL_v2","pSARL_v2cq5l33gx","5be084ec4c397b0001ec3567","freq_resp","img/orange_2bandit_b.png","70","70","test","","","","4","",""
"null","218547","pSARL_v2","pSARL_v2cq5l33gx","5be084ec4c397b0001ec3567","fixation","img/fixation.png","null","","test","","","","","",""
"494.30000000004657","219044","pSARL_v2","pSARL_v2cq5l33gx","5be084ec4c397b0001ec3567","infreq","img/green_2bandit_b2.png","68","68","test","1","69","69","4","",""
"null","219367","pSARL_v2","pSARL_v2cq5l33gx","5be084ec4c397b0001ec3567","infreq_resp","img/green_2bandit_b.png","68","68","test","","","","4","",""
"null","219521","pSARL_v2","pSARL_v2cq5l33gx","5be084ec4c397b0001ec3567","fixation","img/fixation.png","null","","test","","","","","",""
"488.89999999990687","220013","pSARL_v2","pSARL_v2cq5l33gx","5be084ec4c397b0001ec3567","freq","img/orange_2bandit_b2.png","70","70","test","1","70","70","4","",""
"null","220337","pSARL_v2","pSARL_v2cq5l33gx","5be084ec4c397b0001ec3567","freq_resp","img/orange_2bandit_b.png","70","70","test","","","","4","",""
"null","220491","pSARL_v2","pSARL_v2cq5l33gx","5be084ec4c397b0001ec3567","fixation","img/fixation.png","null","","test","","","","","",""
"439.10000000009313","220933","pSARL_v2","pSARL_v2cq5l33gx","5be084ec4c397b0001ec3567","infreq","img/green_2bandit_b2.png","68","68","test","1","71","71","4","",""
"null","221301","pSARL_v2","pSARL_v2cq5l33gx","5be084ec4c397b0001ec3567","infreq_resp","img/green_2bandit_b.png","68","68","test","","","","4","",""
"null","221455","pSARL_v2","pSARL_v2cq5l33gx","5be084ec4c397b0001ec3567","fixation","img/fixation.png","null","","test","","","","","",""
"381","221839","pSARL_v2","pSARL_v2cq5l33gx","5be084ec4c397b0001ec3567","freq","img/orange_2bandit_b2.png","70","70","test","1","72","72","4","",""
"null","222263","pSARL_v2","pSARL_v2cq5l33gx","5be084ec4c397b0001ec3567","freq_resp","img/orange_2bandit_b.png","70","70","test","","","","4","",""
"null","222431","pSARL_v2","pSARL_v2cq5l33gx","5be084ec4c397b0001ec3567","fixation","img/fixation.png","null","","test","","","","","",""
"350.39999999990687","222784","pSARL_v2","pSARL_v2cq5l33gx","5be084ec4c397b0001ec3567","freq","img/orange_2bandit_b2.png","70","70","test","1","73","73","4","",""
"null","223248","pSARL_v2","pSARL_v2cq5l33gx","5be084ec4c397b0001ec3567","freq_resp","img/orange_2bandit_b.png","70","70","test","","","","4","",""
"null","223404","pSARL_v2","pSARL_v2cq5l33gx","5be084ec4c397b0001ec3567","fixation","img/fixation.png","null","","test","","","","","",""
"287.69999999995343","223695","pSARL_v2","pSARL_v2cq5l33gx","5be084ec4c397b0001ec3567","freq","img/orange_2bandit_b2.png","70","70","test","1","74","74","4","",""
"null","224222","pSARL_v2","pSARL_v2cq5l33gx","5be084ec4c397b0001ec3567","freq_resp","img/orange_2bandit_b.png","70","70","test","","","","4","",""
"null","224376","pSARL_v2","pSARL_v2cq5l33gx","5be084ec4c397b0001ec3567","fixation","img/fixation.png","null","","test","","","","","",""
"297.30000000004657","224676","pSARL_v2","pSARL_v2cq5l33gx","5be084ec4c397b0001ec3567","freq","img/orange_2bandit_b2.png","70","70","test","1","75","75","4","",""
"null","225184","pSARL_v2","pSARL_v2cq5l33gx","5be084ec4c397b0001ec3567","freq_resp","img/orange_2bandit_b.png","70","70","test","","","","4","",""
"null","225337","pSARL_v2","pSARL_v2cq5l33gx","5be084ec4c397b0001ec3567","fixation","img/fixation.png","null","","test","","","","","",""
"307.4000000001397","225647","pSARL_v2","pSARL_v2cq5l33gx","5be084ec4c397b0001ec3567","freq","img/orange_2bandit_b2.png","70","70","test","1","76","76","4","",""
"null","226147","pSARL_v2","pSARL_v2cq5l33gx","5be084ec4c397b0001ec3567","freq_resp","img/orange_2bandit_b.png","70","70","test","","","","4","",""
"null","226302","pSARL_v2","pSARL_v2cq5l33gx","5be084ec4c397b0001ec3567","fixation","img/fixation.png","null","","test","","","","","",""
"284.89999999990687","226590","pSARL_v2","pSARL_v2cq5l33gx","5be084ec4c397b0001ec3567","freq","img/orange_2bandit_b2.png","70","70","test","1","77","77","4","",""
"null","227120","pSARL_v2","pSARL_v2cq5l33gx","5be084ec4c397b0001ec3567","freq_resp","img/orange_2bandit_b.png","70","70","test","","","","4","",""
"null","227275","pSARL_v2","pSARL_v2cq5l33gx","5be084ec4c397b0001ec3567","fixation","img/fixation.png","null","","test","","","","","",""
"294.4000000001397","227573","pSARL_v2","pSARL_v2cq5l33gx","5be084ec4c397b0001ec3567","freq","img/orange_2bandit_b2.png","70","70","test","1","78","78","4","",""
"null","228081","pSARL_v2","pSARL_v2cq5l33gx","5be084ec4c397b0001ec3567","freq_resp","img/orange_2bandit_b.png","70","70","test","","","","4","",""
"null","228237","pSARL_v2","pSARL_v2cq5l33gx","5be084ec4c397b0001ec3567","fixation","img/fixation.png","null","","test","","","","","",""
"320","228559","pSARL_v2","pSARL_v2cq5l33gx","5be084ec4c397b0001ec3567","freq","img/orange_2bandit_b2.png","70","70","test","1","79","79","4","",""
"null","229057","pSARL_v2","pSARL_v2cq5l33gx","5be084ec4c397b0001ec3567","freq_resp","img/orange_2bandit_b.png","70","70","test","","","","4","",""
"null","229213","pSARL_v2","pSARL_v2cq5l33gx","5be084ec4c397b0001ec3567","fixation","img/fixation.png","null","","test","","","","","",""
"313.5","229529","pSARL_v2","pSARL_v2cq5l33gx","5be084ec4c397b0001ec3567","freq","img/orange_2bandit_b2.png","70","70","test","1","80","80","4","",""
"null","230033","pSARL_v2","pSARL_v2cq5l33gx","5be084ec4c397b0001ec3567","freq_resp","img/orange_2bandit_b.png","70","70","test","","","","4","",""
"null","230187","pSARL_v2","pSARL_v2cq5l33gx","5be084ec4c397b0001ec3567","fixation","img/fixation.png","null","","test","","","","","",""
"327.80000000004657","230518","pSARL_v2","pSARL_v2cq5l33gx","5be084ec4c397b0001ec3567","freq","img/orange_2bandit_b2.png","70","70","test","1","81","81","4","",""
"null","231008","pSARL_v2","pSARL_v2cq5l33gx","5be084ec4c397b0001ec3567","freq_resp","img/orange_2bandit_b.png","70","70","test","","","","4","",""
"null","231162","pSARL_v2","pSARL_v2cq5l33gx","5be084ec4c397b0001ec3567","fixation","img/fixation.png","null","","test","","","","","",""
"340.19999999995343","231505","pSARL_v2","pSARL_v2cq5l33gx","5be084ec4c397b0001ec3567","freq","img/orange_2bandit_b2.png","70","70","test","1","82","82","4","",""
"null","231969","pSARL_v2","pSARL_v2cq5l33gx","5be084ec4c397b0001ec3567","freq_resp","img/orange_2bandit_b.png","70","70","test","","","","4","",""
"null","232123","pSARL_v2","pSARL_v2cq5l33gx","5be084ec4c397b0001ec3567","fixation","img/fixation.png","null","","test","","","","","",""
"303.80000000004657","232430","pSARL_v2","pSARL_v2cq5l33gx","5be084ec4c397b0001ec3567","freq","img/orange_2bandit_b2.png","70","70","test","1","83","83","4","",""
"null","232930","pSARL_v2","pSARL_v2cq5l33gx","5be084ec4c397b0001ec3567","freq_resp","img/orange_2bandit_b.png","70","70","test","","","","4","",""
"null","233084","pSARL_v2","pSARL_v2cq5l33gx","5be084ec4c397b0001ec3567","fixation","img/fixation.png","null","","test","","","","","",""
"428.70000000018626","233516","pSARL_v2","pSARL_v2cq5l33gx","5be084ec4c397b0001ec3567","infreq","img/green_2bandit_b2.png","68","68","test","1","84","84","4","",""
"null","233906","pSARL_v2","pSARL_v2cq5l33gx","5be084ec4c397b0001ec3567","infreq_resp","img/green_2bandit_b.png","68","68","test","","","","4","",""
"null","234075","pSARL_v2","pSARL_v2cq5l33gx","5be084ec4c397b0001ec3567","fixation","img/fixation.png","null","","test","","","","","",""
"362.60000000009313","234440","pSARL_v2","pSARL_v2cq5l33gx","5be084ec4c397b0001ec3567","freq","img/orange_2bandit_b2.png","70","70","test","1","85","85","4","",""
"null","234896","pSARL_v2","pSARL_v2cq5l33gx","5be084ec4c397b0001ec3567","freq_resp","img/orange_2bandit_b.png","70","70","test","","","","4","",""
"null","235050","pSARL_v2","pSARL_v2cq5l33gx","5be084ec4c397b0001ec3567","fixation","img/fixation.png","null","","test","","","","","",""
"289","235342","pSARL_v2","pSARL_v2cq5l33gx","5be084ec4c397b0001ec3567","freq","img/orange_2bandit_b2.png","70","70","test","1","86","86","4","",""
"null","235871","pSARL_v2","pSARL_v2cq5l33gx","5be084ec4c397b0001ec3567","freq_resp","img/orange_2bandit_b.png","70","70","test","","","","4","",""
"null","236027","pSARL_v2","pSARL_v2cq5l33gx","5be084ec4c397b0001ec3567","fixation","img/fixation.png","null","","test","","","","","",""
"293.39999999990687","236323","pSARL_v2","pSARL_v2cq5l33gx","5be084ec4c397b0001ec3567","freq","img/orange_2bandit_b2.png","70","70","test","1","87","87","4","",""
"null","236846","pSARL_v2","pSARL_v2cq5l33gx","5be084ec4c397b0001ec3567","freq_resp","img/orange_2bandit_b.png","70","70","test","","","","4","",""
"null","237000","pSARL_v2","pSARL_v2cq5l33gx","5be084ec4c397b0001ec3567","fixation","img/fixation.png","null","","test","","","","","",""
"289.10000000009313","237293","pSARL_v2","pSARL_v2cq5l33gx","5be084ec4c397b0001ec3567","freq","img/orange_2bandit_b2.png","70","70","test","1","88","88","4","",""
"null","237819","pSARL_v2","pSARL_v2cq5l33gx","5be084ec4c397b0001ec3567","freq_resp","img/orange_2bandit_b.png","70","70","test","","","","4","",""
"null","237973","pSARL_v2","pSARL_v2cq5l33gx","5be084ec4c397b0001ec3567","fixation","img/fixation.png","null","","test","","","","","",""
"302.60000000009313","238278","pSARL_v2","pSARL_v2cq5l33gx","5be084ec4c397b0001ec3567","freq","img/orange_2bandit_b2.png","70","70","test","1","89","89","4","",""
"null","238793","pSARL_v2","pSARL_v2cq5l33gx","5be084ec4c397b0001ec3567","freq_resp","img/orange_2bandit_b.png","70","70","test","","","","4","",""
"null","238947","pSARL_v2","pSARL_v2cq5l33gx","5be084ec4c397b0001ec3567","fixation","img/fixation.png","null","","test","","","","","",""
"469","239419","pSARL_v2","pSARL_v2cq5l33gx","5be084ec4c397b0001ec3567","reward","img/slot.png","74","","test","","","","","",""
"null","240184","pSARL_v2","pSARL_v2cq5l33gx","5be084ec4c397b0001ec3567","points","<div class=""verylowPoints""> -3 </div>","null","na","test","","","","4","-3","3"
"393.39999999990687","240580","pSARL_v2","pSARL_v2cq5l33gx","5be084ec4c397b0001ec3567","freq","img/orange_2bandit_b2.png","70","70","test","1","90","90","5","",""
"null","241005","pSARL_v2","pSARL_v2cq5l33gx","5be084ec4c397b0001ec3567","freq_resp","img/orange_2bandit_b.png","70","70","test","","","","5","",""
"null","241162","pSARL_v2","pSARL_v2cq5l33gx","5be084ec4c397b0001ec3567","fixation","img/fixation.png","null","","test","","","","","",""
"287","241452","pSARL_v2","pSARL_v2cq5l33gx","5be084ec4c397b0001ec3567","freq","img/orange_2bandit_b2.png","70","70","test","1","91","91","5","",""
"null","241980","pSARL_v2","pSARL_v2cq5l33gx","5be084ec4c397b0001ec3567","freq_resp","img/orange_2bandit_b.png","70","70","test","","","","5","",""
"null","242133","pSARL_v2","pSARL_v2cq5l33gx","5be084ec4c397b0001ec3567","fixation","img/fixation.png","null","","test","","","","","",""
"278.19999999995343","242414","pSARL_v2","pSARL_v2cq5l33gx","5be084ec4c397b0001ec3567","freq","img/orange_2bandit_b2.png","70","70","test","1","92","92","5","",""
"null","242939","pSARL_v2","pSARL_v2cq5l33gx","5be084ec4c397b0001ec3567","freq_resp","img/orange_2bandit_b.png","70","70","test","","","","5","",""
"null","243096","pSARL_v2","pSARL_v2cq5l33gx","5be084ec4c397b0001ec3567","fixation","img/fixation.png","null","","test","","","","","",""
"301.5","243401","pSARL_v2","pSARL_v2cq5l33gx","5be084ec4c397b0001ec3567","freq","img/orange_2bandit_b2.png","70","70","test","1","93","93","5","",""
"null","243913","pSARL_v2","pSARL_v2cq5l33gx","5be084ec4c397b0001ec3567","freq_resp","img/orange_2bandit_b.png","70","70","test","","","","5","",""
"null","244067","pSARL_v2","pSARL_v2cq5l33gx","5be084ec4c397b0001ec3567","fixation","img/fixation.png","null","","test","","","","","",""
"313.5999999998603","244384","pSARL_v2","pSARL_v2cq5l33gx","5be084ec4c397b0001ec3567","freq","img/orange_2bandit_b2.png","70","70","test","1","94","94","5","",""
"null","244887","pSARL_v2","pSARL_v2cq5l33gx","5be084ec4c397b0001ec3567","freq_resp","img/orange_2bandit_b.png","70","70","test","","","","5","",""
"null","245043","pSARL_v2","pSARL_v2cq5l33gx","5be084ec4c397b0001ec3567","fixation","img/fixation.png","null","","test","","","","","",""
"501.39999999990687","245547","pSARL_v2","pSARL_v2cq5l33gx","5be084ec4c397b0001ec3567","infreq","img/green_2bandit_b2.png","68","68","test","1","95","95","5","",""
"null","245848","pSARL_v2","pSARL_v2cq5l33gx","5be084ec4c397b0001ec3567","infreq_resp","img/green_2bandit_b.png","68","68","test","","","","5","",""
"null","246001","pSARL_v2","pSARL_v2cq5l33gx","5be084ec4c397b0001ec3567","fixation","img/fixation.png","null","","test","","","","","",""
"406.30000000004657","246411","pSARL_v2","pSARL_v2cq5l33gx","5be084ec4c397b0001ec3567","freq","img/orange_2bandit_b2.png","70","70","test","1","96","96","5","",""
"null","246821","pSARL_v2","pSARL_v2cq5l33gx","5be084ec4c397b0001ec3567","freq_resp","img/orange_2bandit_b.png","70","70","test","","","","5","",""
"null","246976","pSARL_v2","pSARL_v2cq5l33gx","5be084ec4c397b0001ec3567","fixation","img/fixation.png","null","","test","","","","","",""
"324.4000000001397","247304","pSARL_v2","pSARL_v2cq5l33gx","5be084ec4c397b0001ec3567","freq","img/orange_2bandit_b2.png","70","70","test","1","97","97","5","",""
"null","247798","pSARL_v2","pSARL_v2cq5l33gx","5be084ec4c397b0001ec3567","freq_resp","img/orange_2bandit_b.png","70","70","test","","","","5","",""
"null","247951","pSARL_v2","pSARL_v2cq5l33gx","5be084ec4c397b0001ec3567","fixation","img/fixation.png","null","","test","","","","","",""
"345.5","248299","pSARL_v2","pSARL_v2cq5l33gx","5be084ec4c397b0001ec3567","freq","img/orange_2bandit_b2.png","70","70","test","1","98","98","5","",""
"null","248769","pSARL_v2","pSARL_v2cq5l33gx","5be084ec4c397b0001ec3567","freq_resp","img/orange_2bandit_b.png","70","70","test","","","","5","",""
"null","248924","pSARL_v2","pSARL_v2cq5l33gx","5be084ec4c397b0001ec3567","fixation","img/fixation.png","null","","test","","","","","",""
"301.80000000004657","249229","pSARL_v2","pSARL_v2cq5l33gx","5be084ec4c397b0001ec3567","freq","img/orange_2bandit_b2.png","70","70","test","1","99","99","5","",""
"null","249733","pSARL_v2","pSARL_v2cq5l33gx","5be084ec4c397b0001ec3567","freq_resp","img/orange_2bandit_b.png","70","70","test","","","","5","",""
"null","249887","pSARL_v2","pSARL_v2cq5l33gx","5be084ec4c397b0001ec3567","fixation","img/fixation.png","null","","test","","","","","",""
"288.19999999995343","250178","pSARL_v2","pSARL_v2cq5l33gx","5be084ec4c397b0001ec3567","freq","img/orange_2bandit_b2.png","70","70","test","1","100","100","5","",""
"null","250698","pSARL_v2","pSARL_v2cq5l33gx","5be084ec4c397b0001ec3567","freq_resp","img/orange_2bandit_b.png","70","70","test","","","","5","",""
"null","250867","pSARL_v2","pSARL_v2cq5l33gx","5be084ec4c397b0001ec3567","fixation","img/fixation.png","null","","test","","","","","",""
"304.5","251175","pSARL_v2","pSARL_v2cq5l33gx","5be084ec4c397b0001ec3567","freq","img/orange_2bandit_b2.png","70","70","test","1","101","101","5","",""
"null","251686","pSARL_v2","pSARL_v2cq5l33gx","5be084ec4c397b0001ec3567","freq_resp","img/orange_2bandit_b.png","70","70","test","","","","5","",""
"null","251839","pSARL_v2","pSARL_v2cq5l33gx","5be084ec4c397b0001ec3567","fixation","img/fixation.png","null","","test","","","","","",""
"330.60000000009313","252173","pSARL_v2","pSARL_v2cq5l33gx","5be084ec4c397b0001ec3567","freq","img/orange_2bandit_b2.png","70","70","test","1","102","102","5","",""
"null","252646","pSARL_v2","pSARL_v2cq5l33gx","5be084ec4c397b0001ec3567","freq_resp","img/orange_2bandit_b.png","70","70","test","","","","5","",""
"null","252802","pSARL_v2","pSARL_v2cq5l33gx","5be084ec4c397b0001ec3567","fixation","img/fixation.png","null","","test","","","","","",""
"460.5","253266","pSARL_v2","pSARL_v2cq5l33gx","5be084ec4c397b0001ec3567","infreq","img/green_2bandit_b2.png","68","68","test","1","103","103","5","",""
"null","253622","pSARL_v2","pSARL_v2cq5l33gx","5be084ec4c397b0001ec3567","infreq_resp","img/green_2bandit_b.png","68","68","test","","","","5","",""
"null","253776","pSARL_v2","pSARL_v2cq5l33gx","5be084ec4c397b0001ec3567","fixation","img/fixation.png","null","","test","","","","","",""
"392","254171","pSARL_v2","pSARL_v2cq5l33gx","5be084ec4c397b0001ec3567","freq","img/orange_2bandit_b2.png","70","70","test","1","104","104","5","",""
"null","254597","pSARL_v2","pSARL_v2cq5l33gx","5be084ec4c397b0001ec3567","freq_resp","img/orange_2bandit_b.png","70","70","test","","","","5","",""
"null","254752","pSARL_v2","pSARL_v2cq5l33gx","5be084ec4c397b0001ec3567","fixation","img/fixation.png","null","","test","","","","","",""
"296.69999999995343","255052","pSARL_v2","pSARL_v2cq5l33gx","5be084ec4c397b0001ec3567","freq","img/orange_2bandit_b2.png","70","70","test","1","105","105","5","",""
"null","255562","pSARL_v2","pSARL_v2cq5l33gx","5be084ec4c397b0001ec3567","freq_resp","img/orange_2bandit_b.png","70","70","test","","","","5","",""
"null","255716","pSARL_v2","pSARL_v2cq5l33gx","5be084ec4c397b0001ec3567","fixation","img/fixation.png","null","","test","","","","","",""
"297.19999999995343","256016","pSARL_v2","pSARL_v2cq5l33gx","5be084ec4c397b0001ec3567","freq","img/orange_2bandit_b2.png","70","70","test","1","106","106","5","",""
"null","256527","pSARL_v2","pSARL_v2cq5l33gx","5be084ec4c397b0001ec3567","freq_resp","img/orange_2bandit_b.png","70","70","test","","","","5","",""
"null","256680","pSARL_v2","pSARL_v2cq5l33gx","5be084ec4c397b0001ec3567","fixation","img/fixation.png","null","","test","","","","","",""
"296","256979","pSARL_v2","pSARL_v2cq5l33gx","5be084ec4c397b0001ec3567","freq","img/orange_2bandit_b2.png","70","70","test","1","107","107","5","",""
"null","257490","pSARL_v2","pSARL_v2cq5l33gx","5be084ec4c397b0001ec3567","freq_resp","img/orange_2bandit_b.png","70","70","test","","","","5","",""
"null","257643","pSARL_v2","pSARL_v2cq5l33gx","5be084ec4c397b0001ec3567","fixation","img/fixation.png","null","","test","","","","","",""
"308.5","257955","pSARL_v2","pSARL_v2cq5l33gx","5be084ec4c397b0001ec3567","freq","img/orange_2bandit_b2.png","70","70","test","1","108","108","5","",""
"null","258450","pSARL_v2","pSARL_v2cq5l33gx","5be084ec4c397b0001ec3567","freq_resp","img/orange_2bandit_b.png","70","70","test","","","","5","",""
"null","258604","pSARL_v2","pSARL_v2cq5l33gx","5be084ec4c397b0001ec3567","fixation","img/fixation.png","null","","test","","","","","",""
"330.60000000009313","258938","pSARL_v2","pSARL_v2cq5l33gx","5be084ec4c397b0001ec3567","freq","img/orange_2bandit_b2.png","70","70","test","1","109","109","5","",""
"null","259413","pSARL_v2","pSARL_v2cq5l33gx","5be084ec4c397b0001ec3567","freq_resp","img/orange_2bandit_b.png","70","70","test","","","","5","",""
"null","259568","pSARL_v2","pSARL_v2cq5l33gx","5be084ec4c397b0001ec3567","fixation","img/fixation.png","null","","test","","","","","",""
"328.19999999995343","259899","pSARL_v2","pSARL_v2cq5l33gx","5be084ec4c397b0001ec3567","freq","img/orange_2bandit_b2.png","70","70","test","1","110","110","5","",""
"null","260376","pSARL_v2","pSARL_v2cq5l33gx","5be084ec4c397b0001ec3567","freq_resp","img/orange_2bandit_b.png","70","70","test","","","","5","",""
"null","260530","pSARL_v2","pSARL_v2cq5l33gx","5be084ec4c397b0001ec3567","fixation","img/fixation.png","null","","test","","","","","",""
"774.8999999999069","261308","pSARL_v2","pSARL_v2cq5l33gx","5be084ec4c397b0001ec3567","freq","img/orange_2bandit_b2.png","70","70","test","1","111","111","5","",""
"null","261337","pSARL_v2","pSARL_v2cq5l33gx","5be084ec4c397b0001ec3567","freq_resp","img/orange_2bandit_b.png","70","70","test","","","","5","",""
"null","261498","pSARL_v2","pSARL_v2cq5l33gx","5be084ec4c397b0001ec3567","fixation","img/fixation.png","null","","test","","","","","",""
"644.1999999999534","262145","pSARL_v2","pSARL_v2cq5l33gx","5be084ec4c397b0001ec3567","freq","img/orange_2bandit_b2.png","70","70","test","1","112","112","5","",""
"null","262314","pSARL_v2","pSARL_v2cq5l33gx","5be084ec4c397b0001ec3567","freq_resp","img/orange_2bandit_b.png","70","70","test","","","","5","",""
"null","262470","pSARL_v2","pSARL_v2cq5l33gx","5be084ec4c397b0001ec3567","fixation","img/fixation.png","null","","test","","","","","",""
"380.19999999995343","262853","pSARL_v2","pSARL_v2cq5l33gx","5be084ec4c397b0001ec3567","freq","img/orange_2bandit_b2.png","70","70","test","1","113","113","5","",""
"null","263291","pSARL_v2","pSARL_v2cq5l33gx","5be084ec4c397b0001ec3567","freq_resp","img/orange_2bandit_b.png","70","70","test","","","","5","",""
"null","263445","pSARL_v2","pSARL_v2cq5l33gx","5be084ec4c397b0001ec3567","fixation","img/fixation.png","null","","test","","","","","",""
"304.69999999995343","263753","pSARL_v2","pSARL_v2cq5l33gx","5be084ec4c397b0001ec3567","freq","img/orange_2bandit_b2.png","70","70","test","1","114","114","5","",""
"null","264254","pSARL_v2","pSARL_v2cq5l33gx","5be084ec4c397b0001ec3567","freq_resp","img/orange_2bandit_b.png","70","70","test","","","","5","",""
"null","264411","pSARL_v2","pSARL_v2cq5l33gx","5be084ec4c397b0001ec3567","fixation","img/fixation.png","null","","test","","","","","",""
"318.30000000004657","264732","pSARL_v2","pSARL_v2cq5l33gx","5be084ec4c397b0001ec3567","freq","img/orange_2bandit_b2.png","70","70","test","1","115","115","5","",""
"null","265216","pSARL_v2","pSARL_v2cq5l33gx","5be084ec4c397b0001ec3567","freq_resp","img/orange_2bandit_b.png","70","70","test","","","","5","",""
"null","265371","pSARL_v2","pSARL_v2cq5l33gx","5be084ec4c397b0001ec3567","fixation","img/fixation.png","null","","test","","","","","",""
"504.5","265879","pSARL_v2","pSARL_v2cq5l33gx","5be084ec4c397b0001ec3567","reward","img/slot.png","74","","test","","","","","",""
"null","266645","pSARL_v2","pSARL_v2cq5l33gx","5be084ec4c397b0001ec3567","points","<div class=""veryhighPoints""> +1 </div>","null","na","test","","","","5","1","4"
"381","267029","pSARL_v2","pSARL_v2cq5l33gx","5be084ec4c397b0001ec3567","freq","img/orange_2bandit_b2.png","70","70","test","1","116","116","6","",""
"null","267464","pSARL_v2","pSARL_v2cq5l33gx","5be084ec4c397b0001ec3567","freq_resp","img/orange_2bandit_b.png","70","70","test","","","","6","",""
"null","267618","pSARL_v2","pSARL_v2cq5l33gx","5be084ec4c397b0001ec3567","fixation","img/fixation.png","null","","test","","","","","",""
"281.19999999995343","267902","pSARL_v2","pSARL_v2cq5l33gx","5be084ec4c397b0001ec3567","freq","img/orange_2bandit_b2.png","70","70","test","1","117","117","6","",""
"null","268425","pSARL_v2","pSARL_v2cq5l33gx","5be084ec4c397b0001ec3567","freq_resp","img/orange_2bandit_b.png","70","70","test","","","","6","",""
"null","268582","pSARL_v2","pSARL_v2cq5l33gx","5be084ec4c397b0001ec3567","fixation","img/fixation.png","null","","test","","","","","",""
"277.80000000004657","268863","pSARL_v2","pSARL_v2cq5l33gx","5be084ec4c397b0001ec3567","infreq","img/green_2bandit_b2.png","70","68","test","0","118","118","6","",""
"null","269393","pSARL_v2","pSARL_v2cq5l33gx","5be084ec4c397b0001ec3567","infreq_resp","img/green_2bandit_b.png","70","68","test","","","","6","",""
"null","269560","pSARL_v2","pSARL_v2cq5l33gx","5be084ec4c397b0001ec3567","fixation","img/fixation.png","null","","test","","","","","",""
"468.4000000001397","270031","pSARL_v2","pSARL_v2cq5l33gx","5be084ec4c397b0001ec3567","freq","img/orange_2bandit_b2.png","70","70","test","1","119","119","6","",""
"null","270366","pSARL_v2","pSARL_v2cq5l33gx","5be084ec4c397b0001ec3567","freq_resp","img/orange_2bandit_b.png","70","70","test","","","","6","",""
"null","270519","pSARL_v2","pSARL_v2cq5l33gx","5be084ec4c397b0001ec3567","fixation","img/fixation.png","null","","test","","","","","",""
"324.60000000009313","270847","pSARL_v2","pSARL_v2cq5l33gx","5be084ec4c397b0001ec3567","freq","img/orange_2bandit_b2.png","70","70","test","1","120","120","6","",""
"null","271329","pSARL_v2","pSARL_v2cq5l33gx","5be084ec4c397b0001ec3567","freq_resp","img/orange_2bandit_b.png","70","70","test","","","","6","",""
"null","271484","pSARL_v2","pSARL_v2cq5l33gx","5be084ec4c397b0001ec3567","fixation","img/fixation.png","null","","test","","","","","",""
"286.20000000018626","271773","pSARL_v2","pSARL_v2cq5l33gx","5be084ec4c397b0001ec3567","freq","img/orange_2bandit_b2.png","70","70","test","1","121","121","6","",""
"null","272304","pSARL_v2","pSARL_v2cq5l33gx","5be084ec4c397b0001ec3567","freq_resp","img/orange_2bandit_b.png","70","70","test","","","","6","",""
"null","272460","pSARL_v2","pSARL_v2cq5l33gx","5be084ec4c397b0001ec3567","fixation","img/fixation.png","null","","test","","","","","",""
"293","272756","pSARL_v2","pSARL_v2cq5l33gx","5be084ec4c397b0001ec3567","freq","img/orange_2bandit_b2.png","70","70","test","1","122","122","6","",""
"null","273268","pSARL_v2","pSARL_v2cq5l33gx","5be084ec4c397b0001ec3567","freq_resp","img/orange_2bandit_b.png","70","70","test","","","","6","",""
"null","273422","pSARL_v2","pSARL_v2cq5l33gx","5be084ec4c397b0001ec3567","fixation","img/fixation.png","null","","test","","","","","",""
"298.0999999998603","273723","pSARL_v2","pSARL_v2cq5l33gx","5be084ec4c397b0001ec3567","freq","img/orange_2bandit_b2.png","70","70","test","1","123","123","6","",""
"null","274231","pSARL_v2","pSARL_v2cq5l33gx","5be084ec4c397b0001ec3567","freq_resp","img/orange_2bandit_b.png","70","70","test","","","","6","",""
"null","274399","pSARL_v2","pSARL_v2cq5l33gx","5be084ec4c397b0001ec3567","fixation","img/fixation.png","null","","test","","","","","",""
"413.69999999995343","274816","pSARL_v2","pSARL_v2cq5l33gx","5be084ec4c397b0001ec3567","infreq","img/green_2bandit_b2.png","68","68","test","1","124","124","6","",""
"null","275217","pSARL_v2","pSARL_v2cq5l33gx","5be084ec4c397b0001ec3567","infreq_resp","img/green_2bandit_b.png","68","68","test","","","","6","",""
"null","275373","pSARL_v2","pSARL_v2cq5l33gx","5be084ec4c397b0001ec3567","fixation","img/fixation.png","null","","test","","","","","",""
"376.9000000001397","275753","pSARL_v2","pSARL_v2cq5l33gx","5be084ec4c397b0001ec3567","freq","img/orange_2bandit_b2.png","70","70","test","1","125","125","6","",""
"null","276181","pSARL_v2","pSARL_v2cq5l33gx","5be084ec4c397b0001ec3567","freq_resp","img/orange_2bandit_b.png","70","70","test","","","","6","",""
"null","276336","pSARL_v2","pSARL_v2cq5l33gx","5be084ec4c397b0001ec3567","fixation","img/fixation.png","null","","test","","","","","",""
"354.30000000004657","276693","pSARL_v2","pSARL_v2cq5l33gx","5be084ec4c397b0001ec3567","freq","img/orange_2bandit_b2.png","70","70","test","1","126","126","6","",""
"null","277157","pSARL_v2","pSARL_v2cq5l33gx","5be084ec4c397b0001ec3567","freq_resp","img/orange_2bandit_b.png","70","70","test","","","","6","",""
"null","277312","pSARL_v2","pSARL_v2cq5l33gx","5be084ec4c397b0001ec3567","fixation","img/fixation.png","null","","test","","","","","",""
"294.29999999981374","277609","pSARL_v2","pSARL_v2cq5l33gx","5be084ec4c397b0001ec3567","freq","img/orange_2bandit_b2.png","70","70","test","1","127","127","6","",""
"null","278119","pSARL_v2","pSARL_v2cq5l33gx","5be084ec4c397b0001ec3567","freq_resp","img/orange_2bandit_b.png","70","70","test","","","","6","",""
"null","278273","pSARL_v2","pSARL_v2cq5l33gx","5be084ec4c397b0001ec3567","fixation","img/fixation.png","null","","test","","","","","",""
"321.80000000004657","278598","pSARL_v2","pSARL_v2cq5l33gx","5be084ec4c397b0001ec3567","freq","img/orange_2bandit_b2.png","70","70","test","1","128","128","6","",""
"null","279081","pSARL_v2","pSARL_v2cq5l33gx","5be084ec4c397b0001ec3567","freq_resp","img/orange_2bandit_b.png","70","70","test","","","","6","",""
"null","279235","pSARL_v2","pSARL_v2cq5l33gx","5be084ec4c397b0001ec3567","fixation","img/fixation.png","null","","test","","","","","",""
"415.80000000004657","279654","pSARL_v2","pSARL_v2cq5l33gx","5be084ec4c397b0001ec3567","freq","img/orange_2bandit_b2.png","70","70","test","1","129","129","6","",""
"null","280048","pSARL_v2","pSARL_v2cq5l33gx","5be084ec4c397b0001ec3567","freq_resp","img/orange_2bandit_b.png","70","70","test","","","","6","",""
"null","280217","pSARL_v2","pSARL_v2cq5l33gx","5be084ec4c397b0001ec3567","fixation","img/fixation.png","null","","test","","","","","",""
"338.69999999995343","280559","pSARL_v2","pSARL_v2cq5l33gx","5be084ec4c397b0001ec3567","freq","img/orange_2bandit_b2.png","70","70","test","1","130","130","6","",""
"null","281034","pSARL_v2","pSARL_v2cq5l33gx","5be084ec4c397b0001ec3567","freq_resp","img/orange_2bandit_b.png","70","70","test","","","","6","",""
"null","281192","pSARL_v2","pSARL_v2cq5l33gx","5be084ec4c397b0001ec3567","fixation","img/fixation.png","null","","test","","","","","",""
"347","281542","pSARL_v2","pSARL_v2cq5l33gx","5be084ec4c397b0001ec3567","freq","img/orange_2bandit_b2.png","70","70","test","1","131","131","6","",""
"null","282009","pSARL_v2","pSARL_v2cq5l33gx","5be084ec4c397b0001ec3567","freq_resp","img/orange_2bandit_b.png","70","70","test","","","","6","",""
"null","282164","pSARL_v2","pSARL_v2cq5l33gx","5be084ec4c397b0001ec3567","fixation","img/fixation.png","null","","test","","","","","",""
"348.4000000001397","282515","pSARL_v2","pSARL_v2cq5l33gx","5be084ec4c397b0001ec3567","freq","img/orange_2bandit_b2.png","70","70","test","1","132","132","6","",""
"null","282971","pSARL_v2","pSARL_v2cq5l33gx","5be084ec4c397b0001ec3567","freq_resp","img/orange_2bandit_b.png","70","70","test","","","","6","",""
"null","283126","pSARL_v2","pSARL_v2cq5l33gx","5be084ec4c397b0001ec3567","fixation","img/fixation.png","null","","test","","","","","",""
"335.5","283465","pSARL_v2","pSARL_v2cq5l33gx","5be084ec4c397b0001ec3567","freq","img/orange_2bandit_b2.png","70","70","test","1","133","133","6","",""
"null","283933","pSARL_v2","pSARL_v2cq5l33gx","5be084ec4c397b0001ec3567","freq_resp","img/orange_2bandit_b.png","70","70","test","","","","6","",""
"null","284088","pSARL_v2","pSARL_v2cq5l33gx","5be084ec4c397b0001ec3567","fixation","img/fixation.png","null","","test","","","","","",""
"382.70000000018626","284474","pSARL_v2","pSARL_v2cq5l33gx","5be084ec4c397b0001ec3567","freq","img/orange_2bandit_b2.png","70","70","test","1","134","134","6","",""
"null","284895","pSARL_v2","pSARL_v2cq5l33gx","5be084ec4c397b0001ec3567","freq_resp","img/orange_2bandit_b.png","70","70","test","","","","6","",""
"null","285050","pSARL_v2","pSARL_v2cq5l33gx","5be084ec4c397b0001ec3567","fixation","img/fixation.png","null","","test","","","","","",""
"368","285421","pSARL_v2","pSARL_v2cq5l33gx","5be084ec4c397b0001ec3567","freq","img/orange_2bandit_b2.png","70","70","test","1","135","135","6","",""
"null","285870","pSARL_v2","pSARL_v2cq5l33gx","5be084ec4c397b0001ec3567","freq_resp","img/orange_2bandit_b.png","70","70","test","","","","6","",""
"null","286026","pSARL_v2","pSARL_v2cq5l33gx","5be084ec4c397b0001ec3567","fixation","img/fixation.png","null","","test","","","","","",""
"324.69999999995343","286354","pSARL_v2","pSARL_v2cq5l33gx","5be084ec4c397b0001ec3567","freq","img/orange_2bandit_b2.png","70","70","test","1","136","136","6","",""
"null","286843","pSARL_v2","pSARL_v2cq5l33gx","5be084ec4c397b0001ec3567","freq_resp","img/orange_2bandit_b.png","70","70","test","","","","6","",""
"null","286997","pSARL_v2","pSARL_v2cq5l33gx","5be084ec4c397b0001ec3567","fixation","img/fixation.png","null","","test","","","","","",""
"341.39999999990687","287342","pSARL_v2","pSARL_v2cq5l33gx","5be084ec4c397b0001ec3567","freq","img/orange_2bandit_b2.png","70","70","test","1","137","137","6","",""
"null","287815","pSARL_v2","pSARL_v2cq5l33gx","5be084ec4c397b0001ec3567","freq_resp","img/orange_2bandit_b.png","70","70","test","","","","6","",""
"null","287971","pSARL_v2","pSARL_v2cq5l33gx","5be084ec4c397b0001ec3567","fixation","img/fixation.png","null","","test","","","","","",""
"381.30000000004657","288355","pSARL_v2","pSARL_v2cq5l33gx","5be084ec4c397b0001ec3567","freq","img/orange_2bandit_b2.png","70","70","test","1","138","138","6","",""
"null","288777","pSARL_v2","pSARL_v2cq5l33gx","5be084ec4c397b0001ec3567","freq_resp","img/orange_2bandit_b.png","70","70","test","","","","6","",""
"null","288931","pSARL_v2","pSARL_v2cq5l33gx","5be084ec4c397b0001ec3567","fixation","img/fixation.png","null","","test","","","","","",""
"400.60000000009313","289335","pSARL_v2","pSARL_v2cq5l33gx","5be084ec4c397b0001ec3567","freq","img/orange_2bandit_b2.png","70","70","test","1","139","139","6","",""
"null","289753","pSARL_v2","pSARL_v2cq5l33gx","5be084ec4c397b0001ec3567","freq_resp","img/orange_2bandit_b.png","70","70","test","","","","6","",""
"null","289922","pSARL_v2","pSARL_v2cq5l33gx","5be084ec4c397b0001ec3567","fixation","img/fixation.png","null","","test","","","","","",""
"547.6000000000931","290473","pSARL_v2","pSARL_v2cq5l33gx","5be084ec4c397b0001ec3567","reward","img/slot.png","74","","test","","","","","",""
"null","291237","pSARL_v2","pSARL_v2cq5l33gx","5be084ec4c397b0001ec3567","points","<div class=""verylowPoints""> -7 </div>","null","na","test","","","","6","-7","5"
"527.0999999998603","291767","pSARL_v2","pSARL_v2cq5l33gx","5be084ec4c397b0001ec3567","freq","img/orange_2bandit_b2.png","70","70","test","1","140","140","7","",""
"null","292058","pSARL_v2","pSARL_v2cq5l33gx","5be084ec4c397b0001ec3567","freq_resp","img/orange_2bandit_b.png","70","70","test","","","","7","",""
"null","292211","pSARL_v2","pSARL_v2cq5l33gx","5be084ec4c397b0001ec3567","fixation","img/fixation.png","null","","test","","","","","",""
"353.60000000009313","292568","pSARL_v2","pSARL_v2cq5l33gx","5be084ec4c397b0001ec3567","freq","img/orange_2bandit_b2.png","70","70","test","1","141","141","7","",""
"null","293032","pSARL_v2","pSARL_v2cq5l33gx","5be084ec4c397b0001ec3567","freq_resp","img/orange_2bandit_b.png","70","70","test","","","","7","",""
"null","293187","pSARL_v2","pSARL_v2cq5l33gx","5be084ec4c397b0001ec3567","fixation","img/fixation.png","null","","test","","","","","",""
"343.10000000009313","293533","pSARL_v2","pSARL_v2cq5l33gx","5be084ec4c397b0001ec3567","freq","img/orange_2bandit_b2.png","70","70","test","1","142","142","7","",""
"null","293993","pSARL_v2","pSARL_v2cq5l33gx","5be084ec4c397b0001ec3567","freq_resp","img/orange_2bandit_b.png","70","70","test","","","","7","",""
"null","294150","pSARL_v2","pSARL_v2cq5l33gx","5be084ec4c397b0001ec3567","fixation","img/fixation.png","null","","test","","","","","",""
"412.70000000018626","294566","pSARL_v2","pSARL_v2cq5l33gx","5be084ec4c397b0001ec3567","infreq","img/green_2bandit_b2.png","68","68","test","1","143","143","7","",""
"null","294971","pSARL_v2","pSARL_v2cq5l33gx","5be084ec4c397b0001ec3567","infreq_resp","img/green_2bandit_b.png","68","68","test","","","","7","",""
"null","295125","pSARL_v2","pSARL_v2cq5l33gx","5be084ec4c397b0001ec3567","fixation","img/fixation.png","null","","test","","","","","",""
"347.9000000001397","295476","pSARL_v2","pSARL_v2cq5l33gx","5be084ec4c397b0001ec3567","freq","img/orange_2bandit_b2.png","70","70","test","1","144","144","7","",""
"null","295934","pSARL_v2","pSARL_v2cq5l33gx","5be084ec4c397b0001ec3567","freq_resp","img/orange_2bandit_b.png","70","70","test","","","","7","",""
"null","296090","pSARL_v2","pSARL_v2cq5l33gx","5be084ec4c397b0001ec3567","fixation","img/fixation.png","null","","test","","","","","",""
"342","296434","pSARL_v2","pSARL_v2cq5l33gx","5be084ec4c397b0001ec3567","freq","img/orange_2bandit_b2.png","70","70","test","1","145","145","7","",""
"null","296910","pSARL_v2","pSARL_v2cq5l33gx","5be084ec4c397b0001ec3567","freq_resp","img/orange_2bandit_b.png","70","70","test","","","","7","",""
"null","297065","pSARL_v2","pSARL_v2cq5l33gx","5be084ec4c397b0001ec3567","fixation","img/fixation.png","null","","test","","","","","",""
"388.0999999998603","297456","pSARL_v2","pSARL_v2cq5l33gx","5be084ec4c397b0001ec3567","freq","img/orange_2bandit_b2.png","70","70","test","1","146","146","7","",""
"null","297874","pSARL_v2","pSARL_v2cq5l33gx","5be084ec4c397b0001ec3567","freq_resp","img/orange_2bandit_b.png","70","70","test","","","","7","",""
"null","298030","pSARL_v2","pSARL_v2cq5l33gx","5be084ec4c397b0001ec3567","fixation","img/fixation.png","null","","test","","","","","",""
"400.39999999990687","298433","pSARL_v2","pSARL_v2cq5l33gx","5be084ec4c397b0001ec3567","infreq","img/green_2bandit_b2.png","68","68","test","1","147","147","7","",""
"null","298848","pSARL_v2","pSARL_v2cq5l33gx","5be084ec4c397b0001ec3567","infreq_resp","img/green_2bandit_b.png","68","68","test","","","","7","",""
"null","299004","pSARL_v2","pSARL_v2cq5l33gx","5be084ec4c397b0001ec3567","fixation","img/fixation.png","null","","test","","","","","",""
"393.9000000001397","299401","pSARL_v2","pSARL_v2cq5l33gx","5be084ec4c397b0001ec3567","freq","img/orange_2bandit_b2.png","70","70","test","1","148","148","7","",""
"null","299824","pSARL_v2","pSARL_v2cq5l33gx","5be084ec4c397b0001ec3567","freq_resp","img/orange_2bandit_b.png","70","70","test","","","","7","",""
"null","299979","pSARL_v2","pSARL_v2cq5l33gx","5be084ec4c397b0001ec3567","fixation","img/fixation.png","null","","test","","","","","",""
"354.0999999998603","300336","pSARL_v2","pSARL_v2cq5l33gx","5be084ec4c397b0001ec3567","freq","img/orange_2bandit_b2.png","70","70","test","1","149","149","7","",""
"null","300799","pSARL_v2","pSARL_v2cq5l33gx","5be084ec4c397b0001ec3567","freq_resp","img/orange_2bandit_b.png","70","70","test","","","","7","",""
"null","300955","pSARL_v2","pSARL_v2cq5l33gx","5be084ec4c397b0001ec3567","fixation","img/fixation.png","null","","test","","","","","",""
"248.5","301207","pSARL_v2","pSARL_v2cq5l33gx","5be084ec4c397b0001ec3567","freq","img/orange_2bandit_b2.png","70","70","test","1","150","150","7","",""
"null","301775","pSARL_v2","pSARL_v2cq5l33gx","5be084ec4c397b0001ec3567","freq_resp","img/orange_2bandit_b.png","70","70","test","","","","7","",""
"null","301942","pSARL_v2","pSARL_v2cq5l33gx","5be084ec4c397b0001ec3567","fixation","img/fixation.png","null","","test","","","","","",""
"275.4000000001397","302221","pSARL_v2","pSARL_v2cq5l33gx","5be084ec4c397b0001ec3567","freq","img/orange_2bandit_b2.png","70","70","test","1","151","151","7","",""
"null","302751","pSARL_v2","pSARL_v2cq5l33gx","5be084ec4c397b0001ec3567","freq_resp","img/orange_2bandit_b.png","70","70","test","","","","7","",""
"null","302904","pSARL_v2","pSARL_v2cq5l33gx","5be084ec4c397b0001ec3567","fixation","img/fixation.png","null","","test","","","","","",""
"374.5999999998603","303283","pSARL_v2","pSARL_v2cq5l33gx","5be084ec4c397b0001ec3567","freq","img/orange_2bandit_b2.png","70","70","test","1","152","152","7","",""
"null","303711","pSARL_v2","pSARL_v2cq5l33gx","5be084ec4c397b0001ec3567","freq_resp","img/orange_2bandit_b.png","70","70","test","","","","7","",""
"null","303867","pSARL_v2","pSARL_v2cq5l33gx","5be084ec4c397b0001ec3567","fixation","img/fixation.png","null","","test","","","","","",""
"580.5","304450","pSARL_v2","pSARL_v2cq5l33gx","5be084ec4c397b0001ec3567","freq","img/orange_2bandit_b2.png","70","70","test","1","153","153","7","",""
"null","304687","pSARL_v2","pSARL_v2cq5l33gx","5be084ec4c397b0001ec3567","freq_resp","img/orange_2bandit_b.png","70","70","test","","","","7","",""
"null","304842","pSARL_v2","pSARL_v2cq5l33gx","5be084ec4c397b0001ec3567","fixation","img/fixation.png","null","","test","","","","","",""
"524.1999999999534","305370","pSARL_v2","pSARL_v2cq5l33gx","5be084ec4c397b0001ec3567","freq","img/orange_2bandit_b2.png","70","70","test","1","154","154","7","",""
"null","305664","pSARL_v2","pSARL_v2cq5l33gx","5be084ec4c397b0001ec3567","freq_resp","img/orange_2bandit_b.png","70","70","test","","","","7","",""
"null","305817","pSARL_v2","pSARL_v2cq5l33gx","5be084ec4c397b0001ec3567","fixation","img/fixation.png","null","","test","","","","","",""
"305.89999999990687","306126","pSARL_v2","pSARL_v2cq5l33gx","5be084ec4c397b0001ec3567","freq","img/orange_2bandit_b2.png","70","70","test","1","155","155","7","",""
"null","306638","pSARL_v2","pSARL_v2cq5l33gx","5be084ec4c397b0001ec3567","freq_resp","img/orange_2bandit_b.png","70","70","test","","","","7","",""
"null","306793","pSARL_v2","pSARL_v2cq5l33gx","5be084ec4c397b0001ec3567","fixation","img/fixation.png","null","","test","","","","","",""
"342.89999999990687","307139","pSARL_v2","pSARL_v2cq5l33gx","5be084ec4c397b0001ec3567","freq","img/orange_2bandit_b2.png","70","70","test","1","156","156","7","",""
"null","307600","pSARL_v2","pSARL_v2cq5l33gx","5be084ec4c397b0001ec3567","freq_resp","img/orange_2bandit_b.png","70","70","test","","","","7","",""
"null","307754","pSARL_v2","pSARL_v2cq5l33gx","5be084ec4c397b0001ec3567","fixation","img/fixation.png","null","","test","","","","","",""
"432.89999999990687","308190","pSARL_v2","pSARL_v2cq5l33gx","5be084ec4c397b0001ec3567","freq","img/orange_2bandit_b2.png","70","70","test","1","157","157","7","",""
"null","308561","pSARL_v2","pSARL_v2cq5l33gx","5be084ec4c397b0001ec3567","freq_resp","img/orange_2bandit_b.png","70","70","test","","","","7","",""
"null","308717","pSARL_v2","pSARL_v2cq5l33gx","5be084ec4c397b0001ec3567","fixation","img/fixation.png","null","","test","","","","","",""
"529","309249","pSARL_v2","pSARL_v2cq5l33gx","5be084ec4c397b0001ec3567","infreq","img/green_2bandit_b2.png","68","68","test","1","158","158","7","",""
"null","309538","pSARL_v2","pSARL_v2cq5l33gx","5be084ec4c397b0001ec3567","infreq_resp","img/green_2bandit_b.png","68","68","test","","","","7","",""
"null","309692","pSARL_v2","pSARL_v2cq5l33gx","5be084ec4c397b0001ec3567","fixation","img/fixation.png","null","","test","","","","","",""
"356.9000000001397","310052","pSARL_v2","pSARL_v2cq5l33gx","5be084ec4c397b0001ec3567","freq","img/orange_2bandit_b2.png","70","70","test","1","159","159","7","",""
"null","310514","pSARL_v2","pSARL_v2cq5l33gx","5be084ec4c397b0001ec3567","freq_resp","img/orange_2bandit_b.png","70","70","test","","","","7","",""
"null","310669","pSARL_v2","pSARL_v2cq5l33gx","5be084ec4c397b0001ec3567","fixation","img/fixation.png","null","","test","","","","","",""
"295.5","310967","pSARL_v2","pSARL_v2cq5l33gx","5be084ec4c397b0001ec3567","freq","img/orange_2bandit_b2.png","70","70","test","1","160","160","7","",""
"null","311488","pSARL_v2","pSARL_v2cq5l33gx","5be084ec4c397b0001ec3567","freq_resp","img/orange_2bandit_b.png","70","70","test","","","","7","",""
"null","311645","pSARL_v2","pSARL_v2cq5l33gx","5be084ec4c397b0001ec3567","fixation","img/fixation.png","null","","test","","","","","",""
"321.69999999995343","311970","pSARL_v2","pSARL_v2cq5l33gx","5be084ec4c397b0001ec3567","freq","img/orange_2bandit_b2.png","70","70","test","1","161","161","7","",""
"null","312466","pSARL_v2","pSARL_v2cq5l33gx","5be084ec4c397b0001ec3567","freq_resp","img/orange_2bandit_b.png","70","70","test","","","","7","",""
"null","312620","pSARL_v2","pSARL_v2cq5l33gx","5be084ec4c397b0001ec3567","fixation","img/fixation.png","null","","test","","","","","",""
"321.69999999995343","312945","pSARL_v2","pSARL_v2cq5l33gx","5be084ec4c397b0001ec3567","freq","img/orange_2bandit_b2.png","70","70","test","1","162","162","7","",""
"null","313442","pSARL_v2","pSARL_v2cq5l33gx","5be084ec4c397b0001ec3567","freq_resp","img/orange_2bandit_b.png","70","70","test","","","","7","",""
"null","313600","pSARL_v2","pSARL_v2cq5l33gx","5be084ec4c397b0001ec3567","fixation","img/fixation.png","null","","test","","","","","",""
"522.9000000001397","314126","pSARL_v2","pSARL_v2cq5l33gx","5be084ec4c397b0001ec3567","reward","img/slot.png","74","","test","","","","","",""
"null","314887","pSARL_v2","pSARL_v2cq5l33gx","5be084ec4c397b0001ec3567","points","<div class=""verylowPoints""> -6 </div>","null","na","test","","","","7","-6","6"
"440.5","315331","pSARL_v2","pSARL_v2cq5l33gx","5be084ec4c397b0001ec3567","freq","img/orange_2bandit_b2.png","70","70","test","1","163","163","8","",""
"null","315694","pSARL_v2","pSARL_v2cq5l33gx","5be084ec4c397b0001ec3567","freq_resp","img/orange_2bandit_b.png","70","70","test","","","","8","",""
"null","315849","pSARL_v2","pSARL_v2cq5l33gx","5be084ec4c397b0001ec3567","fixation","img/fixation.png","null","","test","","","","","",""
"348.10000000009313","316199","pSARL_v2","pSARL_v2cq5l33gx","5be084ec4c397b0001ec3567","freq","img/orange_2bandit_b2.png","70","70","test","1","164","164","8","",""
"null","316656","pSARL_v2","pSARL_v2cq5l33gx","5be084ec4c397b0001ec3567","freq_resp","img/orange_2bandit_b.png","70","70","test","","","","8","",""
"null","316811","pSARL_v2","pSARL_v2cq5l33gx","5be084ec4c397b0001ec3567","fixation","img/fixation.png","null","","test","","","","","",""
"350.60000000009313","317164","pSARL_v2","pSARL_v2cq5l33gx","5be084ec4c397b0001ec3567","freq","img/orange_2bandit_b2.png","70","70","test","1","165","165","8","",""
"null","317618","pSARL_v2","pSARL_v2cq5l33gx","5be084ec4c397b0001ec3567","freq_resp","img/orange_2bandit_b.png","70","70","test","","","","8","",""
"null","317774","pSARL_v2","pSARL_v2cq5l33gx","5be084ec4c397b0001ec3567","fixation","img/fixation.png","null","","test","","","","","",""
"326.39999999990687","318103","pSARL_v2","pSARL_v2cq5l33gx","5be084ec4c397b0001ec3567","freq","img/orange_2bandit_b2.png","70","70","test","1","166","166","8","",""
"null","318592","pSARL_v2","pSARL_v2cq5l33gx","5be084ec4c397b0001ec3567","freq_resp","img/orange_2bandit_b.png","70","70","test","","","","8","",""
"null","318745","pSARL_v2","pSARL_v2cq5l33gx","5be084ec4c397b0001ec3567","fixation","img/fixation.png","null","","test","","","","","",""
"345.19999999995343","319094","pSARL_v2","pSARL_v2cq5l33gx","5be084ec4c397b0001ec3567","freq","img/orange_2bandit_b2.png","70","70","test","1","167","167","8","",""
"null","319551","pSARL_v2","pSARL_v2cq5l33gx","5be084ec4c397b0001ec3567","freq_resp","img/orange_2bandit_b.png","70","70","test","","","","8","",""
"null","319707","pSARL_v2","pSARL_v2cq5l33gx","5be084ec4c397b0001ec3567","fixation","img/fixation.png","null","","test","","","","","",""
"340","320049","pSARL_v2","pSARL_v2cq5l33gx","5be084ec4c397b0001ec3567","freq","img/orange_2bandit_b2.png","70","70","test","1","168","168","8","",""
"null","320526","pSARL_v2","pSARL_v2cq5l33gx","5be084ec4c397b0001ec3567","freq_resp","img/orange_2bandit_b.png","70","70","test","","","","8","",""
"null","320684","pSARL_v2","pSARL_v2cq5l33gx","5be084ec4c397b0001ec3567","fixation","img/fixation.png","null","","test","","","","","",""
"345.60000000009313","321032","pSARL_v2","pSARL_v2cq5l33gx","5be084ec4c397b0001ec3567","freq","img/orange_2bandit_b2.png","70","70","test","1","169","169","8","",""
"null","321492","pSARL_v2","pSARL_v2cq5l33gx","5be084ec4c397b0001ec3567","freq_resp","img/orange_2bandit_b.png","70","70","test","","","","8","",""
"null","321647","pSARL_v2","pSARL_v2cq5l33gx","5be084ec4c397b0001ec3567","fixation","img/fixation.png","null","","test","","","","","",""
"335.69999999995343","321985","pSARL_v2","pSARL_v2cq5l33gx","5be084ec4c397b0001ec3567","freq","img/orange_2bandit_b2.png","70","70","test","1","170","170","8","",""
"null","322453","pSARL_v2","pSARL_v2cq5l33gx","5be084ec4c397b0001ec3567","freq_resp","img/orange_2bandit_b.png","70","70","test","","","","8","",""
"null","322607","pSARL_v2","pSARL_v2cq5l33gx","5be084ec4c397b0001ec3567","fixation","img/fixation.png","null","","test","","","","","",""
"391.69999999995343","323002","pSARL_v2","pSARL_v2cq5l33gx","5be084ec4c397b0001ec3567","freq","img/orange_2bandit_b2.png","70","70","test","1","171","171","8","",""
"null","323428","pSARL_v2","pSARL_v2cq5l33gx","5be084ec4c397b0001ec3567","freq_resp","img/orange_2bandit_b.png","70","70","test","","","","8","",""
"null","323584","pSARL_v2","pSARL_v2cq5l33gx","5be084ec4c397b0001ec3567","fixation","img/fixation.png","null","","test","","","","","",""
"438","324025","pSARL_v2","pSARL_v2cq5l33gx","5be084ec4c397b0001ec3567","freq","img/orange_2bandit_b2.png","70","70","test","1","172","172","8","",""
"null","324403","pSARL_v2","pSARL_v2cq5l33gx","5be084ec4c397b0001ec3567","freq_resp","img/orange_2bandit_b.png","70","70","test","","","","8","",""
"null","324559","pSARL_v2","pSARL_v2cq5l33gx","5be084ec4c397b0001ec3567","fixation","img/fixation.png","null","","test","","","","","",""
"440.19999999995343","325002","pSARL_v2","pSARL_v2cq5l33gx","5be084ec4c397b0001ec3567","infreq","img/green_2bandit_b2.png","68","68","test","1","173","173","8","",""
"null","325365","pSARL_v2","pSARL_v2cq5l33gx","5be084ec4c397b0001ec3567","infreq_resp","img/green_2bandit_b.png","68","68","test","","","","8","",""
"null","325521","pSARL_v2","pSARL_v2cq5l33gx","5be084ec4c397b0001ec3567","fixation","img/fixation.png","null","","test","","","","","",""
"400.5","325925","pSARL_v2","pSARL_v2cq5l33gx","5be084ec4c397b0001ec3567","freq","img/orange_2bandit_b2.png","70","70","test","1","174","174","8","",""
"null","326327","pSARL_v2","pSARL_v2cq5l33gx","5be084ec4c397b0001ec3567","freq_resp","img/orange_2bandit_b.png","70","70","test","","","","8","",""
"null","326483","pSARL_v2","pSARL_v2cq5l33gx","5be084ec4c397b0001ec3567","fixation","img/fixation.png","null","","test","","","","","",""
"301.39999999990687","326787","pSARL_v2","pSARL_v2cq5l33gx","5be084ec4c397b0001ec3567","freq","img/orange_2bandit_b2.png","70","70","test","1","175","175","8","",""
"null","327290","pSARL_v2","pSARL_v2cq5l33gx","5be084ec4c397b0001ec3567","freq_resp","img/orange_2bandit_b.png","70","70","test","","","","8","",""
"null","327443","pSARL_v2","pSARL_v2cq5l33gx","5be084ec4c397b0001ec3567","fixation","img/fixation.png","null","","test","","","","","",""
"349.10000000009313","327794","pSARL_v2","pSARL_v2cq5l33gx","5be084ec4c397b0001ec3567","freq","img/orange_2bandit_b2.png","70","70","test","1","176","176","8","",""
"null","328250","pSARL_v2","pSARL_v2cq5l33gx","5be084ec4c397b0001ec3567","freq_resp","img/orange_2bandit_b.png","70","70","test","","","","8","",""
"null","328404","pSARL_v2","pSARL_v2cq5l33gx","5be084ec4c397b0001ec3567","fixation","img/fixation.png","null","","test","","","","","",""
"491.60000000009313","328899","pSARL_v2","pSARL_v2cq5l33gx","5be084ec4c397b0001ec3567","freq","img/orange_2bandit_b2.png","68","70","test","0","177","177","8","",""
"null","329224","pSARL_v2","pSARL_v2cq5l33gx","5be084ec4c397b0001ec3567","freq_resp","img/orange_2bandit_b.png","68","70","test","","","","8","",""
"null","329381","pSARL_v2","pSARL_v2cq5l33gx","5be084ec4c397b0001ec3567","fixation","img/fixation.png","null","","test","","","","","",""
"481","329865","pSARL_v2","pSARL_v2cq5l33gx","5be084ec4c397b0001ec3567","infreq","img/green_2bandit_b2.png","68","68","test","1","178","178","8","",""
"null","330189","pSARL_v2","pSARL_v2cq5l33gx","5be084ec4c397b0001ec3567","infreq_resp","img/green_2bandit_b.png","68","68","test","","","","8","",""
"null","330343","pSARL_v2","pSARL_v2cq5l33gx","5be084ec4c397b0001ec3567","fixation","img/fixation.png","null","","test","","","","","",""
"432.69999999995343","330779","pSARL_v2","pSARL_v2cq5l33gx","5be084ec4c397b0001ec3567","freq","img/orange_2bandit_b2.png","70","70","test","1","179","179","8","",""
"null","331151","pSARL_v2","pSARL_v2cq5l33gx","5be084ec4c397b0001ec3567","freq_resp","img/orange_2bandit_b.png","70","70","test","","","","8","",""
"null","331306","pSARL_v2","pSARL_v2cq5l33gx","5be084ec4c397b0001ec3567","fixation","img/fixation.png","null","","test","","","","","",""
"296.89999999990687","331605","pSARL_v2","pSARL_v2cq5l33gx","5be084ec4c397b0001ec3567","freq","img/orange_2bandit_b2.png","70","70","test","1","180","180","8","",""
"null","332126","pSARL_v2","pSARL_v2cq5l33gx","5be084ec4c397b0001ec3567","freq_resp","img/orange_2bandit_b.png","70","70","test","","","","8","",""
"null","332280","pSARL_v2","pSARL_v2cq5l33gx","5be084ec4c397b0001ec3567","fixation","img/fixation.png","null","","test","","","","","",""
"312.10000000009313","332595","pSARL_v2","pSARL_v2cq5l33gx","5be084ec4c397b0001ec3567","freq","img/orange_2bandit_b2.png","70","70","test","1","181","181","8","",""
"null","333089","pSARL_v2","pSARL_v2cq5l33gx","5be084ec4c397b0001ec3567","freq_resp","img/orange_2bandit_b.png","70","70","test","","","","8","",""
"null","333245","pSARL_v2","pSARL_v2cq5l33gx","5be084ec4c397b0001ec3567","fixation","img/fixation.png","null","","test","","","","","",""
"262.69999999995343","333510","pSARL_v2","pSARL_v2cq5l33gx","5be084ec4c397b0001ec3567","freq","img/orange_2bandit_b2.png","70","70","test","1","182","182","8","",""
"null","334064","pSARL_v2","pSARL_v2cq5l33gx","5be084ec4c397b0001ec3567","freq_resp","img/orange_2bandit_b.png","70","70","test","","","","8","",""
"null","334219","pSARL_v2","pSARL_v2cq5l33gx","5be084ec4c397b0001ec3567","fixation","img/fixation.png","null","","test","","","","","",""
"286.4000000001397","334508","pSARL_v2","pSARL_v2cq5l33gx","5be084ec4c397b0001ec3567","freq","img/orange_2bandit_b2.png","70","70","test","1","183","183","8","",""
"null","335038","pSARL_v2","pSARL_v2cq5l33gx","5be084ec4c397b0001ec3567","freq_resp","img/orange_2bandit_b.png","70","70","test","","","","8","",""
"null","335192","pSARL_v2","pSARL_v2cq5l33gx","5be084ec4c397b0001ec3567","fixation","img/fixation.png","null","","test","","","","","",""
"298.0999999998603","335494","pSARL_v2","pSARL_v2cq5l33gx","5be084ec4c397b0001ec3567","freq","img/orange_2bandit_b2.png","70","70","test","1","184","184","8","",""
"null","336012","pSARL_v2","pSARL_v2cq5l33gx","5be084ec4c397b0001ec3567","freq_resp","img/orange_2bandit_b.png","70","70","test","","","","8","",""
"null","336166","pSARL_v2","pSARL_v2cq5l33gx","5be084ec4c397b0001ec3567","fixation","img/fixation.png","null","","test","","","","","",""
"283.0999999998603","336452","pSARL_v2","pSARL_v2cq5l33gx","5be084ec4c397b0001ec3567","freq","img/orange_2bandit_b2.png","70","70","test","1","185","185","8","",""
"null","336977","pSARL_v2","pSARL_v2cq5l33gx","5be084ec4c397b0001ec3567","freq_resp","img/orange_2bandit_b.png","70","70","test","","","","8","",""
"null","337133","pSARL_v2","pSARL_v2cq5l33gx","5be084ec4c397b0001ec3567","fixation","img/fixation.png","null","","test","","","","","",""
"305.4000000001397","337441","pSARL_v2","pSARL_v2cq5l33gx","5be084ec4c397b0001ec3567","freq","img/orange_2bandit_b2.png","70","70","test","1","186","186","8","",""
"null","337952","pSARL_v2","pSARL_v2cq5l33gx","5be084ec4c397b0001ec3567","freq_resp","img/orange_2bandit_b.png","70","70","test","","","","8","",""
"null","338105","pSARL_v2","pSARL_v2cq5l33gx","5be084ec4c397b0001ec3567","fixation","img/fixation.png","null","","test","","","","","",""
"271.89999999990687","338380","pSARL_v2","pSARL_v2cq5l33gx","5be084ec4c397b0001ec3567","freq","img/orange_2bandit_b2.png","70","70","test","1","187","187","8","",""
"null","338924","pSARL_v2","pSARL_v2cq5l33gx","5be084ec4c397b0001ec3567","freq_resp","img/orange_2bandit_b.png","70","70","test","","","","8","",""
"null","339078","pSARL_v2","pSARL_v2cq5l33gx","5be084ec4c397b0001ec3567","fixation","img/fixation.png","null","","test","","","","","",""
"969.9000000001397","340051","pSARL_v2","pSARL_v2cq5l33gx","5be084ec4c397b0001ec3567","reward","img/slot.png","74","","test","","","","","",""
"null","340818","pSARL_v2","pSARL_v2cq5l33gx","5be084ec4c397b0001ec3567","points","<div class=""verylowPoints""> -4 </div>","null","na","test","","","","8","-4","7"
"418.9000000001397","341240","pSARL_v2","pSARL_v2cq5l33gx","5be084ec4c397b0001ec3567","freq","img/orange_2bandit_b2.png","70","70","test","1","188","188","9","",""
"null","341625","pSARL_v2","pSARL_v2cq5l33gx","5be084ec4c397b0001ec3567","freq_resp","img/orange_2bandit_b.png","70","70","test","","","","9","",""
"null","341782","pSARL_v2","pSARL_v2cq5l33gx","5be084ec4c397b0001ec3567","fixation","img/fixation.png","null","","test","","","","","",""
"280","342065","pSARL_v2","pSARL_v2cq5l33gx","5be084ec4c397b0001ec3567","freq","img/orange_2bandit_b2.png","70","70","test","1","189","189","9","",""
"null","342601","pSARL_v2","pSARL_v2cq5l33gx","5be084ec4c397b0001ec3567","freq_resp","img/orange_2bandit_b.png","70","70","test","","","","9","",""
"null","342756","pSARL_v2","pSARL_v2cq5l33gx","5be084ec4c397b0001ec3567","fixation","img/fixation.png","null","","test","","","","","",""
"257.69999999995343","343016","pSARL_v2","pSARL_v2cq5l33gx","5be084ec4c397b0001ec3567","freq","img/orange_2bandit_b2.png","70","70","test","1","190","190","9","",""
"null","343577","pSARL_v2","pSARL_v2cq5l33gx","5be084ec4c397b0001ec3567","freq_resp","img/orange_2bandit_b.png","70","70","test","","","","9","",""
"null","343731","pSARL_v2","pSARL_v2cq5l33gx","5be084ec4c397b0001ec3567","fixation","img/fixation.png","null","","test","","","","","",""
"279.5","344014","pSARL_v2","pSARL_v2cq5l33gx","5be084ec4c397b0001ec3567","freq","img/orange_2bandit_b2.png","70","70","test","1","191","191","9","",""
"null","344552","pSARL_v2","pSARL_v2cq5l33gx","5be084ec4c397b0001ec3567","freq_resp","img/orange_2bandit_b.png","70","70","test","","","","9","",""
"null","344706","pSARL_v2","pSARL_v2cq5l33gx","5be084ec4c397b0001ec3567","fixation","img/fixation.png","null","","test","","","","","",""
"278.10000000009313","344987","pSARL_v2","pSARL_v2cq5l33gx","5be084ec4c397b0001ec3567","freq","img/orange_2bandit_b2.png","70","70","test","1","192","192","9","",""
"null","345521","pSARL_v2","pSARL_v2cq5l33gx","5be084ec4c397b0001ec3567","freq_resp","img/orange_2bandit_b.png","70","70","test","","","","9","",""
"null","345675","pSARL_v2","pSARL_v2cq5l33gx","5be084ec4c397b0001ec3567","fixation","img/fixation.png","null","","test","","","","","",""
"295.30000000004657","345973","pSARL_v2","pSARL_v2cq5l33gx","5be084ec4c397b0001ec3567","freq","img/orange_2bandit_b2.png","70","70","test","1","193","193","9","",""
"null","346495","pSARL_v2","pSARL_v2cq5l33gx","5be084ec4c397b0001ec3567","freq_resp","img/orange_2bandit_b.png","70","70","test","","","","9","",""
"null","346649","pSARL_v2","pSARL_v2cq5l33gx","5be084ec4c397b0001ec3567","fixation","img/fixation.png","null","","test","","","","","",""
"275.69999999995343","346928","pSARL_v2","pSARL_v2cq5l33gx","5be084ec4c397b0001ec3567","freq","img/orange_2bandit_b2.png","70","70","test","1","194","194","9","",""
"null","347458","pSARL_v2","pSARL_v2cq5l33gx","5be084ec4c397b0001ec3567","freq_resp","img/orange_2bandit_b.png","70","70","test","","","","9","",""
"null","347612","pSARL_v2","pSARL_v2cq5l33gx","5be084ec4c397b0001ec3567","fixation","img/fixation.png","null","","test","","","","","",""
"273.69999999995343","347888","pSARL_v2","pSARL_v2cq5l33gx","5be084ec4c397b0001ec3567","freq","img/orange_2bandit_b2.png","70","70","test","1","195","195","9","",""
"null","348430","pSARL_v2","pSARL_v2cq5l33gx","5be084ec4c397b0001ec3567","freq_resp","img/orange_2bandit_b.png","70","70","test","","","","9","",""
"null","348584","pSARL_v2","pSARL_v2cq5l33gx","5be084ec4c397b0001ec3567","fixation","img/fixation.png","null","","test","","","","","",""
"224.79999999981374","348812","pSARL_v2","pSARL_v2cq5l33gx","5be084ec4c397b0001ec3567","freq","img/orange_2bandit_b2.png","70","70","test","1","196","196","9","",""
"null","349400","pSARL_v2","pSARL_v2cq5l33gx","5be084ec4c397b0001ec3567","freq_resp","img/orange_2bandit_b.png","70","70","test","","","","9","",""
"null","349555","pSARL_v2","pSARL_v2cq5l33gx","5be084ec4c397b0001ec3567","fixation","img/fixation.png","null","","test","","","","","",""
"294.30000000004657","349852","pSARL_v2","pSARL_v2cq5l33gx","5be084ec4c397b0001ec3567","freq","img/orange_2bandit_b2.png","70","70","test","1","197","197","9","",""
"null","350375","pSARL_v2","pSARL_v2cq5l33gx","5be084ec4c397b0001ec3567","freq_resp","img/orange_2bandit_b.png","70","70","test","","","","9","",""
"null","350527","pSARL_v2","pSARL_v2cq5l33gx","5be084ec4c397b0001ec3567","fixation","img/fixation.png","null","","test","","","","","",""
"288.29999999981374","350819","pSARL_v2","pSARL_v2cq5l33gx","5be084ec4c397b0001ec3567","freq","img/orange_2bandit_b2.png","70","70","test","1","198","198","9","",""
"null","351337","pSARL_v2","pSARL_v2cq5l33gx","5be084ec4c397b0001ec3567","freq_resp","img/orange_2bandit_b.png","70","70","test","","","","9","",""
"null","351492","pSARL_v2","pSARL_v2cq5l33gx","5be084ec4c397b0001ec3567","fixation","img/fixation.png","null","","test","","","","","",""
"414.80000000004657","351910","pSARL_v2","pSARL_v2cq5l33gx","5be084ec4c397b0001ec3567","infreq","img/green_2bandit_b2.png","68","68","test","1","199","199","9","",""
"null","352303","pSARL_v2","pSARL_v2cq5l33gx","5be084ec4c397b0001ec3567","infreq_resp","img/green_2bandit_b.png","68","68","test","","","","9","",""
"null","352457","pSARL_v2","pSARL_v2cq5l33gx","5be084ec4c397b0001ec3567","fixation","img/fixation.png","null","","test","","","","","",""
"356.30000000004657","352816","pSARL_v2","pSARL_v2cq5l33gx","5be084ec4c397b0001ec3567","freq","img/orange_2bandit_b2.png","70","70","test","1","200","200","9","",""
"null","353275","pSARL_v2","pSARL_v2cq5l33gx","5be084ec4c397b0001ec3567","freq_resp","img/orange_2bandit_b.png","70","70","test","","","","9","",""
"null","353431","pSARL_v2","pSARL_v2cq5l33gx","5be084ec4c397b0001ec3567","fixation","img/fixation.png","null","","test","","","","","",""
"345.69999999995343","353779","pSARL_v2","pSARL_v2cq5l33gx","5be084ec4c397b0001ec3567","freq","img/orange_2bandit_b2.png","70","70","test","1","201","201","9","",""
"null","354237","pSARL_v2","pSARL_v2cq5l33gx","5be084ec4c397b0001ec3567","freq_resp","img/orange_2bandit_b.png","70","70","test","","","","9","",""
"null","354392","pSARL_v2","pSARL_v2cq5l33gx","5be084ec4c397b0001ec3567","fixation","img/fixation.png","null","","test","","","","","",""
"313.5","354709","pSARL_v2","pSARL_v2cq5l33gx","5be084ec4c397b0001ec3567","freq","img/orange_2bandit_b2.png","70","70","test","1","202","202","9","",""
"null","355204","pSARL_v2","pSARL_v2cq5l33gx","5be084ec4c397b0001ec3567","freq_resp","img/orange_2bandit_b.png","70","70","test","","","","9","",""
"null","355360","pSARL_v2","pSARL_v2cq5l33gx","5be084ec4c397b0001ec3567","fixation","img/fixation.png","null","","test","","","","","",""
"323.20000000018626","355687","pSARL_v2","pSARL_v2cq5l33gx","5be084ec4c397b0001ec3567","freq","img/orange_2bandit_b2.png","70","70","test","1","203","203","9","",""
"null","356180","pSARL_v2","pSARL_v2cq5l33gx","5be084ec4c397b0001ec3567","freq_resp","img/orange_2bandit_b.png","70","70","test","","","","9","",""
"null","356334","pSARL_v2","pSARL_v2cq5l33gx","5be084ec4c397b0001ec3567","fixation","img/fixation.png","null","","test","","","","","",""
"356.4000000001397","356694","pSARL_v2","pSARL_v2cq5l33gx","5be084ec4c397b0001ec3567","freq","img/orange_2bandit_b2.png","70","70","test","1","204","204","9","",""
"null","357153","pSARL_v2","pSARL_v2cq5l33gx","5be084ec4c397b0001ec3567","freq_resp","img/orange_2bandit_b.png","70","70","test","","","","9","",""
"null","357308","pSARL_v2","pSARL_v2cq5l33gx","5be084ec4c397b0001ec3567","fixation","img/fixation.png","null","","test","","","","","",""
"456.4000000001397","357767","pSARL_v2","pSARL_v2cq5l33gx","5be084ec4c397b0001ec3567","infreq","img/green_2bandit_b2.png","68","68","test","1","205","205","9","",""
"null","358114","pSARL_v2","pSARL_v2cq5l33gx","5be084ec4c397b0001ec3567","infreq_resp","img/green_2bandit_b.png","68","68","test","","","","9","",""
"null","358268","pSARL_v2","pSARL_v2cq5l33gx","5be084ec4c397b0001ec3567","fixation","img/fixation.png","null","","test","","","","","",""
