"rt","time_elapsed","expId","subject","prolificID","trialType","stimulus","key_press","corrresp","phase","corr","trialNum","attentionRunNum","blockNum","points","rlNum"
"476894.7999999523","476904","pSARL_v2","pSARL_v2e0odpesq","63b6c0245a6de54b28e6ef89","","","","","","","","","","",""
"","479691","pSARL_v2","pSARL_v2e0odpesq","63b6c0245a6de54b28e6ef89","fullscreen","","","","","","","","","",""
"83887.70000004768","563584","pSARL_v2","pSARL_v2e0odpesq","63b6c0245a6de54b28e6ef89","","","","","","","","","","",""
"null","564395","pSARL_v2","pSARL_v2e0odpesq","63b6c0245a6de54b28e6ef89","freqPrac","img/green_2bandit_a2.png","null","70","prac","0","","","","",""
"null","565410","pSARL_v2","pSARL_v2e0odpesq","63b6c0245a6de54b28e6ef89","feedback","img/tooSlow.png","null","na","prac","","","","","",""
"null","565575","pSARL_v2","pSARL_v2e0odpesq","63b6c0245a6de54b28e6ef89","fixation","img/fixation.png","null","","prac","","","","","",""
"251.5","565831","pSARL_v2","pSARL_v2e0odpesq","63b6c0245a6de54b28e6ef89","infreqPrac","img/orange_2bandit_a2.png","70","68","prac","0","","","","",""
"251.5","566398","pSARL_v2","pSARL_v2e0odpesq","63b6c0245a6de54b28e6ef89","infreqPrac_resp","img/orange_2bandit_a.png","70","68","prac","","","","","",""
"null","567411","pSARL_v2","pSARL_v2e0odpesq","63b6c0245a6de54b28e6ef89","feedback","img/wrongKey.png","null","na","prac","","","","","",""
"null","567576","pSARL_v2","pSARL_v2e0odpesq","63b6c0245a6de54b28e6ef89","fixation","img/fixation.png","null","","prac","","","","","",""
"562.4000000953674","568143","pSARL_v2","pSARL_v2e0odpesq","63b6c0245a6de54b28e6ef89","freqPrac","img/green_2bandit_a2.png","68","70","prac","0","","","","",""
"562.4000000953674","568392","pSARL_v2","pSARL_v2e0odpesq","63b6c0245a6de54b28e6ef89","freqPrac_resp","img/green_2bandit_a.png","68","70","prac","","","","","",""
"null","569429","pSARL_v2","pSARL_v2e0odpesq","63b6c0245a6de54b28e6ef89","feedback","img/wrongKey.png","null","na","prac","","","","","",""
"null","569609","pSARL_v2","pSARL_v2e0odpesq","63b6c0245a6de54b28e6ef89","fixation","img/fixation.png","null","","prac","","","","","",""
"550.5999999046326","570164","pSARL_v2","pSARL_v2e0odpesq","63b6c0245a6de54b28e6ef89","infreqPrac","img/orange_2bandit_a2.png","68","68","prac","1","","","","",""
"550.5999999046326","570419","pSARL_v2","pSARL_v2e0odpesq","63b6c0245a6de54b28e6ef89","infreqPrac_resp","img/orange_2bandit_a.png","68","68","prac","","","","","",""
"null","570579","pSARL_v2","pSARL_v2e0odpesq","63b6c0245a6de54b28e6ef89","fixation","img/fixation.png","null","","prac","","","","","",""
"599.5999999046326","571183","pSARL_v2","pSARL_v2e0odpesq","63b6c0245a6de54b28e6ef89","infreqPrac","img/orange_2bandit_a2.png","68","68","prac","1","","","","",""
"599.5999999046326","571391","pSARL_v2","pSARL_v2e0odpesq","63b6c0245a6de54b28e6ef89","infreqPrac_resp","img/orange_2bandit_a.png","68","68","prac","","","","","",""
"null","571550","pSARL_v2","pSARL_v2e0odpesq","63b6c0245a6de54b28e6ef89","fixation","img/fixation.png","null","","prac","","","","","",""
"380.10000014305115","571935","pSARL_v2","pSARL_v2e0odpesq","63b6c0245a6de54b28e6ef89","infreqPrac","img/orange_2bandit_a2.png","68","68","prac","1","","","","",""
"380.10000014305115","572365","pSARL_v2","pSARL_v2e0odpesq","63b6c0245a6de54b28e6ef89","infreqPrac_resp","img/orange_2bandit_a.png","68","68","prac","","","","","",""
"null","572525","pSARL_v2","pSARL_v2e0odpesq","63b6c0245a6de54b28e6ef89","fixation","img/fixation.png","null","","prac","","","","","",""
"415.69999980926514","572945","pSARL_v2","pSARL_v2e0odpesq","63b6c0245a6de54b28e6ef89","freqPrac","img/green_2bandit_a2.png","70","70","prac","1","","","","",""
"415.69999980926514","573334","pSARL_v2","pSARL_v2e0odpesq","63b6c0245a6de54b28e6ef89","freqPrac_resp","img/green_2bandit_a.png","70","70","prac","","","","","",""
"null","573490","pSARL_v2","pSARL_v2e0odpesq","63b6c0245a6de54b28e6ef89","fixation","img/fixation.png","null","","prac","","","","","",""
"436","573930","pSARL_v2","pSARL_v2e0odpesq","63b6c0245a6de54b28e6ef89","infreqPrac","img/orange_2bandit_a2.png","68","68","prac","1","","","","",""
"436","574302","pSARL_v2","pSARL_v2e0odpesq","63b6c0245a6de54b28e6ef89","infreqPrac_resp","img/orange_2bandit_a.png","68","68","prac","","","","","",""
"null","574457","pSARL_v2","pSARL_v2e0odpesq","63b6c0245a6de54b28e6ef89","fixation","img/fixation.png","null","","prac","","","","","",""
"686.5","575148","pSARL_v2","pSARL_v2e0odpesq","63b6c0245a6de54b28e6ef89","freqPrac","img/green_2bandit_a2.png","70","70","prac","1","","","","",""
"686.5","575275","pSARL_v2","pSARL_v2e0odpesq","63b6c0245a6de54b28e6ef89","freqPrac_resp","img/green_2bandit_a.png","70","70","prac","","","","","",""
"null","575437","pSARL_v2","pSARL_v2e0odpesq","63b6c0245a6de54b28e6ef89","fixation","img/fixation.png","null","","prac","","","","","",""
"570.5","576012","pSARL_v2","pSARL_v2e0odpesq","63b6c0245a6de54b28e6ef89","freqPrac","img/green_2bandit_a2.png","70","70","prac","1","","","","",""
"570.5","576253","pSARL_v2","pSARL_v2e0odpesq","63b6c0245a6de54b28e6ef89","freqPrac_resp","img/green_2bandit_a.png","70","70","prac","","","","","",""
"null","576423","pSARL_v2","pSARL_v2e0odpesq","63b6c0245a6de54b28e6ef89","fixation","img/fixation.png","null","","prac","","","","","",""
"25355.200000047684","601782","pSARL_v2","pSARL_v2e0odpesq","63b6c0245a6de54b28e6ef89","","","","","prac","","","","","",""
"1264.2000000476837","603051","pSARL_v2","pSARL_v2e0odpesq","63b6c0245a6de54b28e6ef89","rewardPractice","img/slot.png","74","","prac","","","","","",""
"null","603811","pSARL_v2","pSARL_v2e0odpesq","63b6c0245a6de54b28e6ef89","feedback","<div class=""veryhighPoints""> +15 </div>","null","na","prac","","","","","",""
"null","603966","pSARL_v2","pSARL_v2e0odpesq","63b6c0245a6de54b28e6ef89","fixation","img/fixation.png","null","","prac","","","","","",""
"5816","609785","pSARL_v2","pSARL_v2e0odpesq","63b6c0245a6de54b28e6ef89","","","","","prac","","","","","",""
"557.2000000476837","610346","pSARL_v2","pSARL_v2e0odpesq","63b6c0245a6de54b28e6ef89","freq","img/green_2bandit_a2.png","70","70","test","1","1","1","1","",""
"null","610607","pSARL_v2","pSARL_v2e0odpesq","63b6c0245a6de54b28e6ef89","freq_resp","img/green_2bandit_a.png","70","70","test","","","","1","",""
"null","610771","pSARL_v2","pSARL_v2e0odpesq","63b6c0245a6de54b28e6ef89","fixation","img/fixation.png","null","","test","","","","","",""
"272.5","611049","pSARL_v2","pSARL_v2e0odpesq","63b6c0245a6de54b28e6ef89","freq","img/green_2bandit_a2.png","70","70","test","1","2","2","1","",""
"null","611591","pSARL_v2","pSARL_v2e0odpesq","63b6c0245a6de54b28e6ef89","freq_resp","img/green_2bandit_a.png","70","70","test","","","","1","",""
"null","611748","pSARL_v2","pSARL_v2e0odpesq","63b6c0245a6de54b28e6ef89","fixation","img/fixation.png","null","","test","","","","","",""
"308.7999999523163","612061","pSARL_v2","pSARL_v2e0odpesq","63b6c0245a6de54b28e6ef89","freq","img/green_2bandit_a2.png","70","70","test","1","3","3","1","",""
"null","612566","pSARL_v2","pSARL_v2e0odpesq","63b6c0245a6de54b28e6ef89","freq_resp","img/green_2bandit_a.png","70","70","test","","","","1","",""
"null","612721","pSARL_v2","pSARL_v2e0odpesq","63b6c0245a6de54b28e6ef89","fixation","img/fixation.png","null","","test","","","","","",""
"241","612967","pSARL_v2","pSARL_v2e0odpesq","63b6c0245a6de54b28e6ef89","freq","img/green_2bandit_a2.png","70","70","test","1","4","4","1","",""
"null","613531","pSARL_v2","pSARL_v2e0odpesq","63b6c0245a6de54b28e6ef89","freq_resp","img/green_2bandit_a.png","70","70","test","","","","1","",""
"null","613696","pSARL_v2","pSARL_v2e0odpesq","63b6c0245a6de54b28e6ef89","fixation","img/fixation.png","null","","test","","","","","",""
"254.89999985694885","613955","pSARL_v2","pSARL_v2e0odpesq","63b6c0245a6de54b28e6ef89","freq","img/green_2bandit_a2.png","70","70","test","1","5","5","1","",""
"null","614509","pSARL_v2","pSARL_v2e0odpesq","63b6c0245a6de54b28e6ef89","freq_resp","img/green_2bandit_a.png","70","70","test","","","","1","",""
"null","614679","pSARL_v2","pSARL_v2e0odpesq","63b6c0245a6de54b28e6ef89","fixation","img/fixation.png","null","","test","","","","","",""
"270.90000009536743","614954","pSARL_v2","pSARL_v2e0odpesq","63b6c0245a6de54b28e6ef89","freq","img/green_2bandit_a2.png","70","70","test","1","6","6","1","",""
"null","615488","pSARL_v2","pSARL_v2e0odpesq","63b6c0245a6de54b28e6ef89","freq_resp","img/green_2bandit_a.png","70","70","test","","","","1","",""
"null","615654","pSARL_v2","pSARL_v2e0odpesq","63b6c0245a6de54b28e6ef89","fixation","img/fixation.png","null","","test","","","","","",""
"265.09999990463257","615923","pSARL_v2","pSARL_v2e0odpesq","63b6c0245a6de54b28e6ef89","freq","img/green_2bandit_a2.png","70","70","test","1","7","7","1","",""
"null","616473","pSARL_v2","pSARL_v2e0odpesq","63b6c0245a6de54b28e6ef89","freq_resp","img/green_2bandit_a.png","70","70","test","","","","1","",""
"null","616628","pSARL_v2","pSARL_v2e0odpesq","63b6c0245a6de54b28e6ef89","fixation","img/fixation.png","null","","test","","","","","",""
"386","617019","pSARL_v2","pSARL_v2e0odpesq","63b6c0245a6de54b28e6ef89","infreq","img/orange_2bandit_a2.png","68","68","test","1","8","8","1","",""
"null","617444","pSARL_v2","pSARL_v2e0odpesq","63b6c0245a6de54b28e6ef89","infreq_resp","img/orange_2bandit_a.png","68","68","test","","","","1","",""
"null","617610","pSARL_v2","pSARL_v2e0odpesq","63b6c0245a6de54b28e6ef89","fixation","img/fixation.png","null","","test","","","","","",""
"350","617964","pSARL_v2","pSARL_v2e0odpesq","63b6c0245a6de54b28e6ef89","freq","img/green_2bandit_a2.png","70","70","test","1","9","9","1","",""
"null","618422","pSARL_v2","pSARL_v2e0odpesq","63b6c0245a6de54b28e6ef89","freq_resp","img/green_2bandit_a.png","70","70","test","","","","1","",""
"null","618578","pSARL_v2","pSARL_v2e0odpesq","63b6c0245a6de54b28e6ef89","fixation","img/fixation.png","null","","test","","","","","",""
"289","618872","pSARL_v2","pSARL_v2e0odpesq","63b6c0245a6de54b28e6ef89","freq","img/green_2bandit_a2.png","70","70","test","1","10","10","1","",""
"null","619401","pSARL_v2","pSARL_v2e0odpesq","63b6c0245a6de54b28e6ef89","freq_resp","img/green_2bandit_a.png","70","70","test","","","","1","",""
"null","619562","pSARL_v2","pSARL_v2e0odpesq","63b6c0245a6de54b28e6ef89","fixation","img/fixation.png","null","","test","","","","","",""
"297","619863","pSARL_v2","pSARL_v2e0odpesq","63b6c0245a6de54b28e6ef89","freq","img/green_2bandit_a2.png","70","70","test","1","11","11","1","",""
"null","620395","pSARL_v2","pSARL_v2e0odpesq","63b6c0245a6de54b28e6ef89","freq_resp","img/green_2bandit_a.png","70","70","test","","","","1","",""
"null","620572","pSARL_v2","pSARL_v2e0odpesq","63b6c0245a6de54b28e6ef89","fixation","img/fixation.png","null","","test","","","","","",""
"256.2999999523163","620833","pSARL_v2","pSARL_v2e0odpesq","63b6c0245a6de54b28e6ef89","freq","img/green_2bandit_a2.png","70","70","test","1","12","12","1","",""
"null","621382","pSARL_v2","pSARL_v2e0odpesq","63b6c0245a6de54b28e6ef89","freq_resp","img/green_2bandit_a.png","70","70","test","","","","1","",""
"null","621548","pSARL_v2","pSARL_v2e0odpesq","63b6c0245a6de54b28e6ef89","fixation","img/fixation.png","null","","test","","","","","",""
"255.29999995231628","621809","pSARL_v2","pSARL_v2e0odpesq","63b6c0245a6de54b28e6ef89","freq","img/green_2bandit_a2.png","70","70","test","1","13","13","1","",""
"null","622367","pSARL_v2","pSARL_v2e0odpesq","63b6c0245a6de54b28e6ef89","freq_resp","img/green_2bandit_a.png","70","70","test","","","","1","",""
"null","622526","pSARL_v2","pSARL_v2e0odpesq","63b6c0245a6de54b28e6ef89","fixation","img/fixation.png","null","","test","","","","","",""
"221.79999995231628","622753","pSARL_v2","pSARL_v2e0odpesq","63b6c0245a6de54b28e6ef89","freq","img/green_2bandit_a2.png","70","70","test","1","14","14","1","",""
"null","623336","pSARL_v2","pSARL_v2e0odpesq","63b6c0245a6de54b28e6ef89","freq_resp","img/green_2bandit_a.png","70","70","test","","","","1","",""
"null","623493","pSARL_v2","pSARL_v2e0odpesq","63b6c0245a6de54b28e6ef89","fixation","img/fixation.png","null","","test","","","","","",""
"245.29999995231628","623743","pSARL_v2","pSARL_v2e0odpesq","63b6c0245a6de54b28e6ef89","freq","img/green_2bandit_a2.png","70","70","test","1","15","15","1","",""
"null","624303","pSARL_v2","pSARL_v2e0odpesq","63b6c0245a6de54b28e6ef89","freq_resp","img/green_2bandit_a.png","70","70","test","","","","1","",""
"null","624460","pSARL_v2","pSARL_v2e0odpesq","63b6c0245a6de54b28e6ef89","fixation","img/fixation.png","null","","test","","","","","",""
"276.7000000476837","624742","pSARL_v2","pSARL_v2e0odpesq","63b6c0245a6de54b28e6ef89","freq","img/green_2bandit_a2.png","70","70","test","1","16","16","1","",""
"null","625283","pSARL_v2","pSARL_v2e0odpesq","63b6c0245a6de54b28e6ef89","freq_resp","img/green_2bandit_a.png","70","70","test","","","","1","",""
"null","625443","pSARL_v2","pSARL_v2e0odpesq","63b6c0245a6de54b28e6ef89","fixation","img/fixation.png","null","","test","","","","","",""
"175.40000009536743","625623","pSARL_v2","pSARL_v2e0odpesq","63b6c0245a6de54b28e6ef89","freq","img/green_2bandit_a2.png","70","70","test","1","17","17","1","",""
"null","626275","pSARL_v2","pSARL_v2e0odpesq","63b6c0245a6de54b28e6ef89","freq_resp","img/green_2bandit_a.png","70","70","test","","","","1","",""
"null","626453","pSARL_v2","pSARL_v2e0odpesq","63b6c0245a6de54b28e6ef89","fixation","img/fixation.png","null","","test","","","","","",""
"249.30000019073486","626706","pSARL_v2","pSARL_v2e0odpesq","63b6c0245a6de54b28e6ef89","freq","img/green_2bandit_a2.png","70","70","test","1","18","18","1","",""
"null","627275","pSARL_v2","pSARL_v2e0odpesq","63b6c0245a6de54b28e6ef89","freq_resp","img/green_2bandit_a.png","70","70","test","","","","1","",""
"null","627433","pSARL_v2","pSARL_v2e0odpesq","63b6c0245a6de54b28e6ef89","fixation","img/fixation.png","null","","test","","","","","",""
"248.20000004768372","627686","pSARL_v2","pSARL_v2e0odpesq","63b6c0245a6de54b28e6ef89","freq","img/green_2bandit_a2.png","70","70","test","1","19","19","1","",""
"null","628258","pSARL_v2","pSARL_v2e0odpesq","63b6c0245a6de54b28e6ef89","freq_resp","img/green_2bandit_a.png","70","70","test","","","","1","",""
"null","628417","pSARL_v2","pSARL_v2e0odpesq","63b6c0245a6de54b28e6ef89","fixation","img/fixation.png","null","","test","","","","","",""
"258.10000014305115","628680","pSARL_v2","pSARL_v2e0odpesq","63b6c0245a6de54b28e6ef89","freq","img/green_2bandit_a2.png","70","70","test","1","20","20","1","",""
"null","629235","pSARL_v2","pSARL_v2e0odpesq","63b6c0245a6de54b28e6ef89","freq_resp","img/green_2bandit_a.png","70","70","test","","","","1","",""
"null","629391","pSARL_v2","pSARL_v2e0odpesq","63b6c0245a6de54b28e6ef89","fixation","img/fixation.png","null","","test","","","","","",""
"242.90000009536743","629638","pSARL_v2","pSARL_v2e0odpesq","63b6c0245a6de54b28e6ef89","freq","img/green_2bandit_a2.png","70","70","test","1","21","21","1","",""
"null","630213","pSARL_v2","pSARL_v2e0odpesq","63b6c0245a6de54b28e6ef89","freq_resp","img/green_2bandit_a.png","70","70","test","","","","1","",""
"null","630372","pSARL_v2","pSARL_v2e0odpesq","63b6c0245a6de54b28e6ef89","fixation","img/fixation.png","null","","test","","","","","",""
"222.29999995231628","630598","pSARL_v2","pSARL_v2e0odpesq","63b6c0245a6de54b28e6ef89","freq","img/green_2bandit_a2.png","70","70","test","1","22","22","1","",""
"null","631195","pSARL_v2","pSARL_v2e0odpesq","63b6c0245a6de54b28e6ef89","freq_resp","img/green_2bandit_a.png","70","70","test","","","","1","",""
"null","631357","pSARL_v2","pSARL_v2e0odpesq","63b6c0245a6de54b28e6ef89","fixation","img/fixation.png","null","","test","","","","","",""
"377","631739","pSARL_v2","pSARL_v2e0odpesq","63b6c0245a6de54b28e6ef89","infreq","img/orange_2bandit_a2.png","68","68","test","1","23","23","1","",""
"null","632168","pSARL_v2","pSARL_v2e0odpesq","63b6c0245a6de54b28e6ef89","infreq_resp","img/orange_2bandit_a.png","68","68","test","","","","1","",""
"null","632327","pSARL_v2","pSARL_v2e0odpesq","63b6c0245a6de54b28e6ef89","fixation","img/fixation.png","null","","test","","","","","",""
"355.59999990463257","632687","pSARL_v2","pSARL_v2e0odpesq","63b6c0245a6de54b28e6ef89","freq","img/green_2bandit_a2.png","68","70","test","0","24","24","1","",""
"null","633139","pSARL_v2","pSARL_v2e0odpesq","63b6c0245a6de54b28e6ef89","freq_resp","img/green_2bandit_a.png","68","70","test","","","","1","",""
"null","633299","pSARL_v2","pSARL_v2e0odpesq","63b6c0245a6de54b28e6ef89","fixation","img/fixation.png","null","","test","","","","","",""
"424","633727","pSARL_v2","pSARL_v2e0odpesq","63b6c0245a6de54b28e6ef89","freq","img/green_2bandit_a2.png","70","70","test","1","25","25","1","",""
"null","634112","pSARL_v2","pSARL_v2e0odpesq","63b6c0245a6de54b28e6ef89","freq_resp","img/green_2bandit_a.png","70","70","test","","","","1","",""
"null","634274","pSARL_v2","pSARL_v2e0odpesq","63b6c0245a6de54b28e6ef89","fixation","img/fixation.png","null","","test","","","","","",""
"219.60000014305115","634498","pSARL_v2","pSARL_v2e0odpesq","63b6c0245a6de54b28e6ef89","freq","img/green_2bandit_a2.png","70","70","test","1","26","26","1","",""
"null","635095","pSARL_v2","pSARL_v2e0odpesq","63b6c0245a6de54b28e6ef89","freq_resp","img/green_2bandit_a.png","70","70","test","","","","1","",""
"null","635250","pSARL_v2","pSARL_v2e0odpesq","63b6c0245a6de54b28e6ef89","fixation","img/fixation.png","null","","test","","","","","",""
"679.6000001430511","635934","pSARL_v2","pSARL_v2e0odpesq","63b6c0245a6de54b28e6ef89","reward","img/slot.png","74","","test","","","","","",""
"null","636703","pSARL_v2","pSARL_v2e0odpesq","63b6c0245a6de54b28e6ef89","points","<div class=""verylowPoints""> -6 </div>","null","na","test","","","","1","-6","0"
"605.2999999523163","637313","pSARL_v2","pSARL_v2e0odpesq","63b6c0245a6de54b28e6ef89","freq","img/green_2bandit_a2.png","70","70","test","1","27","27","2","",""
"null","637519","pSARL_v2","pSARL_v2e0odpesq","63b6c0245a6de54b28e6ef89","freq_resp","img/green_2bandit_a.png","70","70","test","","","","2","",""
"null","637679","pSARL_v2","pSARL_v2e0odpesq","63b6c0245a6de54b28e6ef89","fixation","img/fixation.png","null","","test","","","","","",""
"335.90000009536743","638019","pSARL_v2","pSARL_v2e0odpesq","63b6c0245a6de54b28e6ef89","freq","img/green_2bandit_a2.png","70","70","test","1","28","28","2","",""
"null","638491","pSARL_v2","pSARL_v2e0odpesq","63b6c0245a6de54b28e6ef89","freq_resp","img/green_2bandit_a.png","70","70","test","","","","2","",""
"null","638652","pSARL_v2","pSARL_v2e0odpesq","63b6c0245a6de54b28e6ef89","fixation","img/fixation.png","null","","test","","","","","",""
"326.59999990463257","638983","pSARL_v2","pSARL_v2e0odpesq","63b6c0245a6de54b28e6ef89","freq","img/green_2bandit_a2.png","70","70","test","1","29","29","2","",""
"null","639475","pSARL_v2","pSARL_v2e0odpesq","63b6c0245a6de54b28e6ef89","freq_resp","img/green_2bandit_a.png","70","70","test","","","","2","",""
"null","639641","pSARL_v2","pSARL_v2e0odpesq","63b6c0245a6de54b28e6ef89","fixation","img/fixation.png","null","","test","","","","","",""
"489.09999990463257","640136","pSARL_v2","pSARL_v2e0odpesq","63b6c0245a6de54b28e6ef89","infreq","img/orange_2bandit_a2.png","68","68","test","1","30","30","2","",""
"null","640453","pSARL_v2","pSARL_v2e0odpesq","63b6c0245a6de54b28e6ef89","infreq_resp","img/orange_2bandit_a.png","68","68","test","","","","2","",""
"null","640622","pSARL_v2","pSARL_v2e0odpesq","63b6c0245a6de54b28e6ef89","fixation","img/fixation.png","null","","test","","","","","",""
"414.19999980926514","641040","pSARL_v2","pSARL_v2e0odpesq","63b6c0245a6de54b28e6ef89","freq","img/green_2bandit_a2.png","70","70","test","1","31","31","2","",""
"null","641431","pSARL_v2","pSARL_v2e0odpesq","63b6c0245a6de54b28e6ef89","freq_resp","img/green_2bandit_a.png","70","70","test","","","","2","",""
"null","641593","pSARL_v2","pSARL_v2e0odpesq","63b6c0245a6de54b28e6ef89","fixation","img/fixation.png","null","","test","","","","","",""
"308.5","641906","pSARL_v2","pSARL_v2e0odpesq","63b6c0245a6de54b28e6ef89","freq","img/green_2bandit_a2.png","70","70","test","1","32","32","2","",""
"null","642417","pSARL_v2","pSARL_v2e0odpesq","63b6c0245a6de54b28e6ef89","freq_resp","img/green_2bandit_a.png","70","70","test","","","","2","",""
"null","642602","pSARL_v2","pSARL_v2e0odpesq","63b6c0245a6de54b28e6ef89","fixation","img/fixation.png","null","","test","","","","","",""
"304.7000000476837","642912","pSARL_v2","pSARL_v2e0odpesq","63b6c0245a6de54b28e6ef89","freq","img/green_2bandit_a2.png","70","70","test","1","33","33","2","",""
"null","643416","pSARL_v2","pSARL_v2e0odpesq","63b6c0245a6de54b28e6ef89","freq_resp","img/green_2bandit_a.png","70","70","test","","","","2","",""
"null","643578","pSARL_v2","pSARL_v2e0odpesq","63b6c0245a6de54b28e6ef89","fixation","img/fixation.png","null","","test","","","","","",""
"385.7999999523163","643969","pSARL_v2","pSARL_v2e0odpesq","63b6c0245a6de54b28e6ef89","infreq","img/orange_2bandit_a2.png","68","68","test","1","34","34","2","",""
"null","644391","pSARL_v2","pSARL_v2e0odpesq","63b6c0245a6de54b28e6ef89","infreq_resp","img/orange_2bandit_a.png","68","68","test","","","","2","",""
"null","644555","pSARL_v2","pSARL_v2e0odpesq","63b6c0245a6de54b28e6ef89","fixation","img/fixation.png","null","","test","","","","","",""
"449","645009","pSARL_v2","pSARL_v2e0odpesq","63b6c0245a6de54b28e6ef89","freq","img/green_2bandit_a2.png","70","70","test","1","35","35","2","",""
"null","645376","pSARL_v2","pSARL_v2e0odpesq","63b6c0245a6de54b28e6ef89","freq_resp","img/green_2bandit_a.png","70","70","test","","","","2","",""
"null","645537","pSARL_v2","pSARL_v2e0odpesq","63b6c0245a6de54b28e6ef89","fixation","img/fixation.png","null","","test","","","","","",""
"373.2000000476837","645914","pSARL_v2","pSARL_v2e0odpesq","63b6c0245a6de54b28e6ef89","freq","img/green_2bandit_a2.png","70","70","test","1","36","36","2","",""
"null","646359","pSARL_v2","pSARL_v2e0odpesq","63b6c0245a6de54b28e6ef89","freq_resp","img/green_2bandit_a.png","70","70","test","","","","2","",""
"null","646519","pSARL_v2","pSARL_v2e0odpesq","63b6c0245a6de54b28e6ef89","fixation","img/fixation.png","null","","test","","","","","",""
"363.7000000476837","646887","pSARL_v2","pSARL_v2e0odpesq","63b6c0245a6de54b28e6ef89","freq","img/green_2bandit_a2.png","70","70","test","1","37","37","2","",""
"null","647333","pSARL_v2","pSARL_v2e0odpesq","63b6c0245a6de54b28e6ef89","freq_resp","img/green_2bandit_a.png","70","70","test","","","","2","",""
"null","647489","pSARL_v2","pSARL_v2e0odpesq","63b6c0245a6de54b28e6ef89","fixation","img/fixation.png","null","","test","","","","","",""
"374.7999999523163","647869","pSARL_v2","pSARL_v2e0odpesq","63b6c0245a6de54b28e6ef89","freq","img/green_2bandit_a2.png","70","70","test","1","38","38","2","",""
"null","648308","pSARL_v2","pSARL_v2e0odpesq","63b6c0245a6de54b28e6ef89","freq_resp","img/green_2bandit_a.png","70","70","test","","","","2","",""
"null","648469","pSARL_v2","pSARL_v2e0odpesq","63b6c0245a6de54b28e6ef89","fixation","img/fixation.png","null","","test","","","","","",""
"387.59999990463257","648861","pSARL_v2","pSARL_v2e0odpesq","63b6c0245a6de54b28e6ef89","freq","img/green_2bandit_a2.png","70","70","test","1","39","39","2","",""
"null","649294","pSARL_v2","pSARL_v2e0odpesq","63b6c0245a6de54b28e6ef89","freq_resp","img/green_2bandit_a.png","70","70","test","","","","2","",""
"null","649453","pSARL_v2","pSARL_v2e0odpesq","63b6c0245a6de54b28e6ef89","fixation","img/fixation.png","null","","test","","","","","",""
"363.7000000476837","649821","pSARL_v2","pSARL_v2e0odpesq","63b6c0245a6de54b28e6ef89","freq","img/green_2bandit_a2.png","70","70","test","1","40","40","2","",""
"null","650274","pSARL_v2","pSARL_v2e0odpesq","63b6c0245a6de54b28e6ef89","freq_resp","img/green_2bandit_a.png","70","70","test","","","","2","",""
"null","650443","pSARL_v2","pSARL_v2e0odpesq","63b6c0245a6de54b28e6ef89","fixation","img/fixation.png","null","","test","","","","","",""
"486.2000000476837","650933","pSARL_v2","pSARL_v2e0odpesq","63b6c0245a6de54b28e6ef89","freq","img/green_2bandit_a2.png","70","70","test","1","41","41","2","",""
"null","651254","pSARL_v2","pSARL_v2e0odpesq","63b6c0245a6de54b28e6ef89","freq_resp","img/green_2bandit_a.png","70","70","test","","","","2","",""
"null","651410","pSARL_v2","pSARL_v2e0odpesq","63b6c0245a6de54b28e6ef89","fixation","img/fixation.png","null","","test","","","","","",""
"529.0999999046326","651943","pSARL_v2","pSARL_v2e0odpesq","63b6c0245a6de54b28e6ef89","freq","img/green_2bandit_a2.png","70","70","test","1","42","42","2","",""
"null","652226","pSARL_v2","pSARL_v2e0odpesq","63b6c0245a6de54b28e6ef89","freq_resp","img/green_2bandit_a.png","70","70","test","","","","2","",""
"null","652383","pSARL_v2","pSARL_v2e0odpesq","63b6c0245a6de54b28e6ef89","fixation","img/fixation.png","null","","test","","","","","",""
"522.0999999046326","652910","pSARL_v2","pSARL_v2e0odpesq","63b6c0245a6de54b28e6ef89","freq","img/green_2bandit_a2.png","70","70","test","1","43","43","2","",""
"null","653193","pSARL_v2","pSARL_v2e0odpesq","63b6c0245a6de54b28e6ef89","freq_resp","img/green_2bandit_a.png","70","70","test","","","","2","",""
"null","653352","pSARL_v2","pSARL_v2e0odpesq","63b6c0245a6de54b28e6ef89","fixation","img/fixation.png","null","","test","","","","","",""
"499.7999999523163","653856","pSARL_v2","pSARL_v2e0odpesq","63b6c0245a6de54b28e6ef89","freq","img/green_2bandit_a2.png","70","70","test","1","44","44","2","",""
"null","654171","pSARL_v2","pSARL_v2e0odpesq","63b6c0245a6de54b28e6ef89","freq_resp","img/green_2bandit_a.png","70","70","test","","","","2","",""
"null","654340","pSARL_v2","pSARL_v2e0odpesq","63b6c0245a6de54b28e6ef89","fixation","img/fixation.png","null","","test","","","","","",""
"434.40000009536743","654779","pSARL_v2","pSARL_v2e0odpesq","63b6c0245a6de54b28e6ef89","freq","img/green_2bandit_a2.png","70","70","test","1","45","45","2","",""
"null","655157","pSARL_v2","pSARL_v2e0odpesq","63b6c0245a6de54b28e6ef89","freq_resp","img/green_2bandit_a.png","70","70","test","","","","2","",""
"null","655321","pSARL_v2","pSARL_v2e0odpesq","63b6c0245a6de54b28e6ef89","fixation","img/fixation.png","null","","test","","","","","",""
"500","655825","pSARL_v2","pSARL_v2e0odpesq","63b6c0245a6de54b28e6ef89","freq","img/green_2bandit_a2.png","70","70","test","1","46","46","2","",""
"null","656143","pSARL_v2","pSARL_v2e0odpesq","63b6c0245a6de54b28e6ef89","freq_resp","img/green_2bandit_a.png","70","70","test","","","","2","",""
"null","656298","pSARL_v2","pSARL_v2e0odpesq","63b6c0245a6de54b28e6ef89","fixation","img/fixation.png","null","","test","","","","","",""
"586.2000000476837","656889","pSARL_v2","pSARL_v2e0odpesq","63b6c0245a6de54b28e6ef89","freq","img/green_2bandit_a2.png","70","70","test","1","47","47","2","",""
"null","657118","pSARL_v2","pSARL_v2e0odpesq","63b6c0245a6de54b28e6ef89","freq_resp","img/green_2bandit_a.png","70","70","test","","","","2","",""
"null","657282","pSARL_v2","pSARL_v2e0odpesq","63b6c0245a6de54b28e6ef89","fixation","img/fixation.png","null","","test","","","","","",""
"491.39999985694885","657777","pSARL_v2","pSARL_v2e0odpesq","63b6c0245a6de54b28e6ef89","freq","img/green_2bandit_a2.png","70","70","test","1","48","48","2","",""
"null","658108","pSARL_v2","pSARL_v2e0odpesq","63b6c0245a6de54b28e6ef89","freq_resp","img/green_2bandit_a.png","70","70","test","","","","2","",""
"null","658281","pSARL_v2","pSARL_v2e0odpesq","63b6c0245a6de54b28e6ef89","fixation","img/fixation.png","null","","test","","","","","",""
"674.2000000476837","658960","pSARL_v2","pSARL_v2e0odpesq","63b6c0245a6de54b28e6ef89","reward","img/slot.png","74","","test","","","","","",""
"null","659720","pSARL_v2","pSARL_v2e0odpesq","63b6c0245a6de54b28e6ef89","points","<div class=""verylowPoints""> -11 </div>","null","na","test","","","","2","-11","1"
"497.7999999523163","660222","pSARL_v2","pSARL_v2e0odpesq","63b6c0245a6de54b28e6ef89","freq","img/green_2bandit_a2.png","70","70","test","1","49","49","3","",""
"null","660540","pSARL_v2","pSARL_v2e0odpesq","63b6c0245a6de54b28e6ef89","freq_resp","img/green_2bandit_a.png","70","70","test","","","","3","",""
"null","660709","pSARL_v2","pSARL_v2e0odpesq","63b6c0245a6de54b28e6ef89","fixation","img/fixation.png","null","","test","","","","","",""
"507","661221","pSARL_v2","pSARL_v2e0odpesq","63b6c0245a6de54b28e6ef89","freq","img/green_2bandit_a2.png","70","70","test","1","50","50","3","",""
"null","661532","pSARL_v2","pSARL_v2e0odpesq","63b6c0245a6de54b28e6ef89","freq_resp","img/green_2bandit_a.png","70","70","test","","","","3","",""
"null","661697","pSARL_v2","pSARL_v2e0odpesq","63b6c0245a6de54b28e6ef89","fixation","img/fixation.png","null","","test","","","","","",""
"565.2000000476837","662266","pSARL_v2","pSARL_v2e0odpesq","63b6c0245a6de54b28e6ef89","freq","img/green_2bandit_a2.png","70","70","test","1","51","51","3","",""
"null","662509","pSARL_v2","pSARL_v2e0odpesq","63b6c0245a6de54b28e6ef89","freq_resp","img/green_2bandit_a.png","70","70","test","","","","3","",""
"null","662668","pSARL_v2","pSARL_v2e0odpesq","63b6c0245a6de54b28e6ef89","fixation","img/fixation.png","null","","test","","","","","",""
"726.9000000953674","663400","pSARL_v2","pSARL_v2e0odpesq","63b6c0245a6de54b28e6ef89","freq","img/green_2bandit_a2.png","70","70","test","1","52","52","3","",""
"null","663480","pSARL_v2","pSARL_v2e0odpesq","63b6c0245a6de54b28e6ef89","freq_resp","img/green_2bandit_a.png","70","70","test","","","","3","",""
"null","663648","pSARL_v2","pSARL_v2e0odpesq","63b6c0245a6de54b28e6ef89","fixation","img/fixation.png","null","","test","","","","","",""
"608.2000000476837","664262","pSARL_v2","pSARL_v2e0odpesq","63b6c0245a6de54b28e6ef89","freq","img/green_2bandit_a2.png","70","70","test","1","53","53","3","",""
"null","664463","pSARL_v2","pSARL_v2e0odpesq","63b6c0245a6de54b28e6ef89","freq_resp","img/green_2bandit_a.png","70","70","test","","","","3","",""
"null","664629","pSARL_v2","pSARL_v2e0odpesq","63b6c0245a6de54b28e6ef89","fixation","img/fixation.png","null","","test","","","","","",""
"432.2000000476837","665066","pSARL_v2","pSARL_v2e0odpesq","63b6c0245a6de54b28e6ef89","freq","img/green_2bandit_a2.png","70","70","test","1","54","54","3","",""
"null","665452","pSARL_v2","pSARL_v2e0odpesq","63b6c0245a6de54b28e6ef89","freq_resp","img/green_2bandit_a.png","70","70","test","","","","3","",""
"null","665620","pSARL_v2","pSARL_v2e0odpesq","63b6c0245a6de54b28e6ef89","fixation","img/fixation.png","null","","test","","","","","",""
"576.5","666201","pSARL_v2","pSARL_v2e0odpesq","63b6c0245a6de54b28e6ef89","infreq","img/orange_2bandit_a2.png","68","68","test","1","55","55","3","",""
"null","666441","pSARL_v2","pSARL_v2e0odpesq","63b6c0245a6de54b28e6ef89","infreq_resp","img/orange_2bandit_a.png","68","68","test","","","","3","",""
"null","666603","pSARL_v2","pSARL_v2e0odpesq","63b6c0245a6de54b28e6ef89","fixation","img/fixation.png","null","","test","","","","","",""
"373.7000000476837","666981","pSARL_v2","pSARL_v2e0odpesq","63b6c0245a6de54b28e6ef89","freq","img/green_2bandit_a2.png","70","70","test","1","56","56","3","",""
"null","667423","pSARL_v2","pSARL_v2e0odpesq","63b6c0245a6de54b28e6ef89","freq_resp","img/green_2bandit_a.png","70","70","test","","","","3","",""
"null","667579","pSARL_v2","pSARL_v2e0odpesq","63b6c0245a6de54b28e6ef89","fixation","img/fixation.png","null","","test","","","","","",""
"666.0999999046326","668250","pSARL_v2","pSARL_v2e0odpesq","63b6c0245a6de54b28e6ef89","freq","img/green_2bandit_a2.png","70","70","test","1","57","57","3","",""
"null","668399","pSARL_v2","pSARL_v2e0odpesq","63b6c0245a6de54b28e6ef89","freq_resp","img/green_2bandit_a.png","70","70","test","","","","3","",""
"null","668563","pSARL_v2","pSARL_v2e0odpesq","63b6c0245a6de54b28e6ef89","fixation","img/fixation.png","null","","test","","","","","",""
"571.7999999523163","669139","pSARL_v2","pSARL_v2e0odpesq","63b6c0245a6de54b28e6ef89","freq","img/green_2bandit_a2.png","70","70","test","1","58","58","3","",""
"null","669392","pSARL_v2","pSARL_v2e0odpesq","63b6c0245a6de54b28e6ef89","freq_resp","img/green_2bandit_a.png","70","70","test","","","","3","",""
"null","669568","pSARL_v2","pSARL_v2e0odpesq","63b6c0245a6de54b28e6ef89","fixation","img/fixation.png","null","","test","","","","","",""
"530.8000001907349","670103","pSARL_v2","pSARL_v2e0odpesq","63b6c0245a6de54b28e6ef89","infreq","img/orange_2bandit_a2.png","68","68","test","1","59","59","3","",""
"null","670386","pSARL_v2","pSARL_v2e0odpesq","63b6c0245a6de54b28e6ef89","infreq_resp","img/orange_2bandit_a.png","68","68","test","","","","3","",""
"null","670544","pSARL_v2","pSARL_v2e0odpesq","63b6c0245a6de54b28e6ef89","fixation","img/fixation.png","null","","test","","","","","",""
"641.1999998092651","671190","pSARL_v2","pSARL_v2e0odpesq","63b6c0245a6de54b28e6ef89","freq","img/green_2bandit_a2.png","70","70","test","1","60","60","3","",""
"null","671353","pSARL_v2","pSARL_v2e0odpesq","63b6c0245a6de54b28e6ef89","freq_resp","img/green_2bandit_a.png","70","70","test","","","","3","",""
"null","671513","pSARL_v2","pSARL_v2e0odpesq","63b6c0245a6de54b28e6ef89","fixation","img/fixation.png","null","","test","","","","","",""
"725","672242","pSARL_v2","pSARL_v2e0odpesq","63b6c0245a6de54b28e6ef89","freq","img/green_2bandit_a2.png","70","70","test","1","61","61","3","",""
"null","672328","pSARL_v2","pSARL_v2e0odpesq","63b6c0245a6de54b28e6ef89","freq_resp","img/green_2bandit_a.png","70","70","test","","","","3","",""
"null","672494","pSARL_v2","pSARL_v2e0odpesq","63b6c0245a6de54b28e6ef89","fixation","img/fixation.png","null","","test","","","","","",""
"584.7000000476837","673082","pSARL_v2","pSARL_v2e0odpesq","63b6c0245a6de54b28e6ef89","freq","img/green_2bandit_a2.png","70","70","test","1","62","62","3","",""
"null","673307","pSARL_v2","pSARL_v2e0odpesq","63b6c0245a6de54b28e6ef89","freq_resp","img/green_2bandit_a.png","70","70","test","","","","3","",""
"null","673476","pSARL_v2","pSARL_v2e0odpesq","63b6c0245a6de54b28e6ef89","fixation","img/fixation.png","null","","test","","","","","",""
"562.5","674043","pSARL_v2","pSARL_v2e0odpesq","63b6c0245a6de54b28e6ef89","freq","img/green_2bandit_a2.png","70","70","test","1","63","63","3","",""
"null","674285","pSARL_v2","pSARL_v2e0odpesq","63b6c0245a6de54b28e6ef89","freq_resp","img/green_2bandit_a.png","70","70","test","","","","3","",""
"null","674449","pSARL_v2","pSARL_v2e0odpesq","63b6c0245a6de54b28e6ef89","fixation","img/fixation.png","null","","test","","","","","",""
"624.7999999523163","675079","pSARL_v2","pSARL_v2e0odpesq","63b6c0245a6de54b28e6ef89","freq","img/green_2bandit_a2.png","70","70","test","1","64","64","3","",""
"null","675260","pSARL_v2","pSARL_v2e0odpesq","63b6c0245a6de54b28e6ef89","freq_resp","img/green_2bandit_a.png","70","70","test","","","","3","",""
"null","675418","pSARL_v2","pSARL_v2e0odpesq","63b6c0245a6de54b28e6ef89","fixation","img/fixation.png","null","","test","","","","","",""
"625.8000001907349","676048","pSARL_v2","pSARL_v2e0odpesq","63b6c0245a6de54b28e6ef89","freq","img/green_2bandit_a2.png","70","70","test","1","65","65","3","",""
"null","676241","pSARL_v2","pSARL_v2e0odpesq","63b6c0245a6de54b28e6ef89","freq_resp","img/green_2bandit_a.png","70","70","test","","","","3","",""
"null","676410","pSARL_v2","pSARL_v2e0odpesq","63b6c0245a6de54b28e6ef89","fixation","img/fixation.png","null","","test","","","","","",""
"null","677219","pSARL_v2","pSARL_v2e0odpesq","63b6c0245a6de54b28e6ef89","freq","img/green_2bandit_a2.png","null","70","test","0","66","66","3","",""
"null","677376","pSARL_v2","pSARL_v2e0odpesq","63b6c0245a6de54b28e6ef89","fixation","img/fixation.png","null","","test","","","","","",""
"null","678192","pSARL_v2","pSARL_v2e0odpesq","63b6c0245a6de54b28e6ef89","freq","img/green_2bandit_a2.png","null","70","test","0","67","67","3","",""
"null","678360","pSARL_v2","pSARL_v2e0odpesq","63b6c0245a6de54b28e6ef89","fixation","img/fixation.png","null","","test","","","","","",""
"null","679171","pSARL_v2","pSARL_v2e0odpesq","63b6c0245a6de54b28e6ef89","freq","img/green_2bandit_a2.png","null","70","test","0","68","68","3","",""
"null","679326","pSARL_v2","pSARL_v2e0odpesq","63b6c0245a6de54b28e6ef89","fixation","img/fixation.png","null","","test","","","","","",""
"470.60000014305115","679801","pSARL_v2","pSARL_v2e0odpesq","63b6c0245a6de54b28e6ef89","freq","img/green_2bandit_a2.png","70","70","test","1","69","69","3","",""
"null","680138","pSARL_v2","pSARL_v2e0odpesq","63b6c0245a6de54b28e6ef89","freq_resp","img/green_2bandit_a.png","70","70","test","","","","3","",""
"null","680307","pSARL_v2","pSARL_v2e0odpesq","63b6c0245a6de54b28e6ef89","fixation","img/fixation.png","null","","test","","","","","",""
"295.7999999523163","680608","pSARL_v2","pSARL_v2e0odpesq","63b6c0245a6de54b28e6ef89","freq","img/green_2bandit_a2.png","70","70","test","1","70","70","3","",""
"null","681129","pSARL_v2","pSARL_v2e0odpesq","63b6c0245a6de54b28e6ef89","freq_resp","img/green_2bandit_a.png","70","70","test","","","","3","",""
"null","681293","pSARL_v2","pSARL_v2e0odpesq","63b6c0245a6de54b28e6ef89","fixation","img/fixation.png","null","","test","","","","","",""
"347.5","681645","pSARL_v2","pSARL_v2e0odpesq","63b6c0245a6de54b28e6ef89","freq","img/green_2bandit_a2.png","70","70","test","1","71","71","3","",""
"null","682112","pSARL_v2","pSARL_v2e0odpesq","63b6c0245a6de54b28e6ef89","freq_resp","img/green_2bandit_a.png","70","70","test","","","","3","",""
"null","682275","pSARL_v2","pSARL_v2e0odpesq","63b6c0245a6de54b28e6ef89","fixation","img/fixation.png","null","","test","","","","","",""
"582.2000000476837","682861","pSARL_v2","pSARL_v2e0odpesq","63b6c0245a6de54b28e6ef89","reward","img/slot.png","74","","test","","","","","",""
"null","683618","pSARL_v2","pSARL_v2e0odpesq","63b6c0245a6de54b28e6ef89","points","<div class=""verylowPoints""> -7 </div>","null","na","test","","","","3","-7","2"
"411.39999985694885","684034","pSARL_v2","pSARL_v2e0odpesq","63b6c0245a6de54b28e6ef89","freq","img/green_2bandit_a2.png","70","70","test","1","72","72","4","",""
"null","684443","pSARL_v2","pSARL_v2e0odpesq","63b6c0245a6de54b28e6ef89","freq_resp","img/green_2bandit_a.png","70","70","test","","","","4","",""
"null","684597","pSARL_v2","pSARL_v2e0odpesq","63b6c0245a6de54b28e6ef89","fixation","img/fixation.png","null","","test","","","","","",""
"512.2000000476837","685114","pSARL_v2","pSARL_v2e0odpesq","63b6c0245a6de54b28e6ef89","freq","img/green_2bandit_a2.png","70","70","test","1","73","73","4","",""
"null","685410","pSARL_v2","pSARL_v2e0odpesq","63b6c0245a6de54b28e6ef89","freq_resp","img/green_2bandit_a.png","70","70","test","","","","4","",""
"null","685565","pSARL_v2","pSARL_v2e0odpesq","63b6c0245a6de54b28e6ef89","fixation","img/fixation.png","null","","test","","","","","",""
"309","685878","pSARL_v2","pSARL_v2e0odpesq","63b6c0245a6de54b28e6ef89","freq","img/green_2bandit_a2.png","70","70","test","1","74","74","4","",""
"null","686378","pSARL_v2","pSARL_v2e0odpesq","63b6c0245a6de54b28e6ef89","freq_resp","img/green_2bandit_a.png","70","70","test","","","","4","",""
"null","686542","pSARL_v2","pSARL_v2e0odpesq","63b6c0245a6de54b28e6ef89","fixation","img/fixation.png","null","","test","","","","","",""
"299.5","686846","pSARL_v2","pSARL_v2e0odpesq","63b6c0245a6de54b28e6ef89","freq","img/green_2bandit_a2.png","70","70","test","1","75","75","4","",""
"null","687361","pSARL_v2","pSARL_v2e0odpesq","63b6c0245a6de54b28e6ef89","freq_resp","img/green_2bandit_a.png","70","70","test","","","","4","",""
"null","687523","pSARL_v2","pSARL_v2e0odpesq","63b6c0245a6de54b28e6ef89","fixation","img/fixation.png","null","","test","","","","","",""
"216.39999985694885","687744","pSARL_v2","pSARL_v2e0odpesq","63b6c0245a6de54b28e6ef89","freq","img/green_2bandit_a2.png","70","70","test","1","76","76","4","",""
"null","688334","pSARL_v2","pSARL_v2e0odpesq","63b6c0245a6de54b28e6ef89","freq_resp","img/green_2bandit_a.png","70","70","test","","","","4","",""
"null","688491","pSARL_v2","pSARL_v2e0odpesq","63b6c0245a6de54b28e6ef89","fixation","img/fixation.png","null","","test","","","","","",""
"238.79999995231628","688735","pSARL_v2","pSARL_v2e0odpesq","63b6c0245a6de54b28e6ef89","freq","img/green_2bandit_a2.png","70","70","test","1","77","77","4","",""
"null","689310","pSARL_v2","pSARL_v2e0odpesq","63b6c0245a6de54b28e6ef89","freq_resp","img/green_2bandit_a.png","70","70","test","","","","4","",""
"null","689480","pSARL_v2","pSARL_v2e0odpesq","63b6c0245a6de54b28e6ef89","fixation","img/fixation.png","null","","test","","","","","",""
"284","689768","pSARL_v2","pSARL_v2e0odpesq","63b6c0245a6de54b28e6ef89","freq","img/green_2bandit_a2.png","70","70","test","1","78","78","4","",""
"null","690291","pSARL_v2","pSARL_v2e0odpesq","63b6c0245a6de54b28e6ef89","freq_resp","img/green_2bandit_a.png","70","70","test","","","","4","",""
"null","690456","pSARL_v2","pSARL_v2e0odpesq","63b6c0245a6de54b28e6ef89","fixation","img/fixation.png","null","","test","","","","","",""
"243.09999990463257","690704","pSARL_v2","pSARL_v2e0odpesq","63b6c0245a6de54b28e6ef89","freq","img/green_2bandit_a2.png","70","70","test","1","79","79","4","",""
"null","691286","pSARL_v2","pSARL_v2e0odpesq","63b6c0245a6de54b28e6ef89","freq_resp","img/green_2bandit_a.png","70","70","test","","","","4","",""
"null","691455","pSARL_v2","pSARL_v2e0odpesq","63b6c0245a6de54b28e6ef89","fixation","img/fixation.png","null","","test","","","","","",""
"422.59999990463257","691882","pSARL_v2","pSARL_v2e0odpesq","63b6c0245a6de54b28e6ef89","infreq","img/orange_2bandit_a2.png","68","68","test","1","80","80","4","",""
"null","692279","pSARL_v2","pSARL_v2e0odpesq","63b6c0245a6de54b28e6ef89","infreq_resp","img/orange_2bandit_a.png","68","68","test","","","","4","",""
"null","692446","pSARL_v2","pSARL_v2e0odpesq","63b6c0245a6de54b28e6ef89","fixation","img/fixation.png","null","","test","","","","","",""
"411.40000009536743","692862","pSARL_v2","pSARL_v2e0odpesq","63b6c0245a6de54b28e6ef89","freq","img/green_2bandit_a2.png","70","70","test","1","81","81","4","",""
"null","693256","pSARL_v2","pSARL_v2e0odpesq","63b6c0245a6de54b28e6ef89","freq_resp","img/green_2bandit_a.png","70","70","test","","","","4","",""
"null","693423","pSARL_v2","pSARL_v2e0odpesq","63b6c0245a6de54b28e6ef89","fixation","img/fixation.png","null","","test","","","","","",""
"379","693806","pSARL_v2","pSARL_v2e0odpesq","63b6c0245a6de54b28e6ef89","freq","img/green_2bandit_a2.png","70","70","test","1","82","82","4","",""
"null","694238","pSARL_v2","pSARL_v2e0odpesq","63b6c0245a6de54b28e6ef89","freq_resp","img/green_2bandit_a.png","70","70","test","","","","4","",""
"null","694393","pSARL_v2","pSARL_v2e0odpesq","63b6c0245a6de54b28e6ef89","fixation","img/fixation.png","null","","test","","","","","",""
"356.09999990463257","694753","pSARL_v2","pSARL_v2e0odpesq","63b6c0245a6de54b28e6ef89","freq","img/green_2bandit_a2.png","70","70","test","1","83","83","4","",""
"null","695210","pSARL_v2","pSARL_v2e0odpesq","63b6c0245a6de54b28e6ef89","freq_resp","img/green_2bandit_a.png","70","70","test","","","","4","",""
"null","695374","pSARL_v2","pSARL_v2e0odpesq","63b6c0245a6de54b28e6ef89","fixation","img/fixation.png","null","","test","","","","","",""
"345.7000000476837","695724","pSARL_v2","pSARL_v2e0odpesq","63b6c0245a6de54b28e6ef89","freq","img/green_2bandit_a2.png","70","70","test","1","84","84","4","",""
"null","696194","pSARL_v2","pSARL_v2e0odpesq","63b6c0245a6de54b28e6ef89","freq_resp","img/green_2bandit_a.png","70","70","test","","","","4","",""
"null","696349","pSARL_v2","pSARL_v2e0odpesq","63b6c0245a6de54b28e6ef89","fixation","img/fixation.png","null","","test","","","","","",""
"418.2000000476837","696771","pSARL_v2","pSARL_v2e0odpesq","63b6c0245a6de54b28e6ef89","freq","img/green_2bandit_a2.png","70","70","test","1","85","85","4","",""
"null","697174","pSARL_v2","pSARL_v2e0odpesq","63b6c0245a6de54b28e6ef89","freq_resp","img/green_2bandit_a.png","70","70","test","","","","4","",""
"null","697353","pSARL_v2","pSARL_v2e0odpesq","63b6c0245a6de54b28e6ef89","fixation","img/fixation.png","null","","test","","","","","",""
"371","697729","pSARL_v2","pSARL_v2e0odpesq","63b6c0245a6de54b28e6ef89","freq","img/green_2bandit_a2.png","70","70","test","1","86","86","4","",""
"null","698172","pSARL_v2","pSARL_v2e0odpesq","63b6c0245a6de54b28e6ef89","freq_resp","img/green_2bandit_a.png","70","70","test","","","","4","",""
"null","698336","pSARL_v2","pSARL_v2e0odpesq","63b6c0245a6de54b28e6ef89","fixation","img/fixation.png","null","","test","","","","","",""
"366.2999999523163","698707","pSARL_v2","pSARL_v2e0odpesq","63b6c0245a6de54b28e6ef89","infreq","img/orange_2bandit_a2.png","68","68","test","1","87","87","4","",""
"null","699160","pSARL_v2","pSARL_v2e0odpesq","63b6c0245a6de54b28e6ef89","infreq_resp","img/orange_2bandit_a.png","68","68","test","","","","4","",""
"null","699321","pSARL_v2","pSARL_v2e0odpesq","63b6c0245a6de54b28e6ef89","fixation","img/fixation.png","null","","test","","","","","",""
"330","699656","pSARL_v2","pSARL_v2e0odpesq","63b6c0245a6de54b28e6ef89","freq","img/green_2bandit_a2.png","70","70","test","1","88","88","4","",""
"null","700143","pSARL_v2","pSARL_v2e0odpesq","63b6c0245a6de54b28e6ef89","freq_resp","img/green_2bandit_a.png","70","70","test","","","","4","",""
"null","700305","pSARL_v2","pSARL_v2e0odpesq","63b6c0245a6de54b28e6ef89","fixation","img/fixation.png","null","","test","","","","","",""
"331.7999999523163","700641","pSARL_v2","pSARL_v2e0odpesq","63b6c0245a6de54b28e6ef89","freq","img/green_2bandit_a2.png","70","70","test","1","89","89","4","",""
"null","701121","pSARL_v2","pSARL_v2e0odpesq","63b6c0245a6de54b28e6ef89","freq_resp","img/green_2bandit_a.png","70","70","test","","","","4","",""
"null","701288","pSARL_v2","pSARL_v2e0odpesq","63b6c0245a6de54b28e6ef89","fixation","img/fixation.png","null","","test","","","","","",""
"452.2999999523163","701744","pSARL_v2","pSARL_v2e0odpesq","63b6c0245a6de54b28e6ef89","freq","img/green_2bandit_a2.png","70","70","test","1","90","90","4","",""
"null","702106","pSARL_v2","pSARL_v2e0odpesq","63b6c0245a6de54b28e6ef89","freq_resp","img/green_2bandit_a.png","70","70","test","","","","4","",""
"null","702268","pSARL_v2","pSARL_v2e0odpesq","63b6c0245a6de54b28e6ef89","fixation","img/fixation.png","null","","test","","","","","",""
"481.40000009536743","702754","pSARL_v2","pSARL_v2e0odpesq","63b6c0245a6de54b28e6ef89","reward","img/slot.png","74","","test","","","","","",""
"null","703511","pSARL_v2","pSARL_v2e0odpesq","63b6c0245a6de54b28e6ef89","points","<div class=""verylowPoints""> -3 </div>","null","na","test","","","","4","-3","3"
"350","703865","pSARL_v2","pSARL_v2e0odpesq","63b6c0245a6de54b28e6ef89","freq","img/green_2bandit_a2.png","70","70","test","1","91","91","5","",""
"null","704321","pSARL_v2","pSARL_v2e0odpesq","63b6c0245a6de54b28e6ef89","freq_resp","img/green_2bandit_a.png","70","70","test","","","","5","",""
"null","704487","pSARL_v2","pSARL_v2e0odpesq","63b6c0245a6de54b28e6ef89","fixation","img/fixation.png","null","","test","","","","","",""
"365.2000000476837","704856","pSARL_v2","pSARL_v2e0odpesq","63b6c0245a6de54b28e6ef89","freq","img/green_2bandit_a2.png","70","70","test","1","92","92","5","",""
"null","705295","pSARL_v2","pSARL_v2e0odpesq","63b6c0245a6de54b28e6ef89","freq_resp","img/green_2bandit_a.png","70","70","test","","","","5","",""
"null","705453","pSARL_v2","pSARL_v2e0odpesq","63b6c0245a6de54b28e6ef89","fixation","img/fixation.png","null","","test","","","","","",""
"328.89999985694885","705786","pSARL_v2","pSARL_v2e0odpesq","63b6c0245a6de54b28e6ef89","freq","img/green_2bandit_a2.png","70","70","test","1","93","93","5","",""
"null","706272","pSARL_v2","pSARL_v2e0odpesq","63b6c0245a6de54b28e6ef89","freq_resp","img/green_2bandit_a.png","70","70","test","","","","5","",""
"null","706434","pSARL_v2","pSARL_v2e0odpesq","63b6c0245a6de54b28e6ef89","fixation","img/fixation.png","null","","test","","","","","",""
"290.40000009536743","706730","pSARL_v2","pSARL_v2e0odpesq","63b6c0245a6de54b28e6ef89","freq","img/green_2bandit_a2.png","70","70","test","1","94","94","5","",""
"null","707254","pSARL_v2","pSARL_v2e0odpesq","63b6c0245a6de54b28e6ef89","freq_resp","img/green_2bandit_a.png","70","70","test","","","","5","",""
"null","707416","pSARL_v2","pSARL_v2e0odpesq","63b6c0245a6de54b28e6ef89","fixation","img/fixation.png","null","","test","","","","","",""
"342.90000009536743","707764","pSARL_v2","pSARL_v2e0odpesq","63b6c0245a6de54b28e6ef89","freq","img/green_2bandit_a2.png","70","70","test","1","95","95","5","",""
"null","708226","pSARL_v2","pSARL_v2e0odpesq","63b6c0245a6de54b28e6ef89","freq_resp","img/green_2bandit_a.png","70","70","test","","","","5","",""
"null","708383","pSARL_v2","pSARL_v2e0odpesq","63b6c0245a6de54b28e6ef89","fixation","img/fixation.png","null","","test","","","","","",""
"337.2000000476837","708725","pSARL_v2","pSARL_v2e0odpesq","63b6c0245a6de54b28e6ef89","freq","img/green_2bandit_a2.png","70","70","test","1","96","96","5","",""
"null","709192","pSARL_v2","pSARL_v2e0odpesq","63b6c0245a6de54b28e6ef89","freq_resp","img/green_2bandit_a.png","70","70","test","","","","5","",""
"null","709350","pSARL_v2","pSARL_v2e0odpesq","63b6c0245a6de54b28e6ef89","fixation","img/fixation.png","null","","test","","","","","",""
"330.09999990463257","709684","pSARL_v2","pSARL_v2e0odpesq","63b6c0245a6de54b28e6ef89","freq","img/green_2bandit_a2.png","70","70","test","1","97","97","5","",""
"null","710172","pSARL_v2","pSARL_v2e0odpesq","63b6c0245a6de54b28e6ef89","freq_resp","img/green_2bandit_a.png","70","70","test","","","","5","",""
"null","710332","pSARL_v2","pSARL_v2e0odpesq","63b6c0245a6de54b28e6ef89","fixation","img/fixation.png","null","","test","","","","","",""
"322.39999985694885","710659","pSARL_v2","pSARL_v2e0odpesq","63b6c0245a6de54b28e6ef89","freq","img/green_2bandit_a2.png","70","70","test","1","98","98","5","",""
"null","711146","pSARL_v2","pSARL_v2e0odpesq","63b6c0245a6de54b28e6ef89","freq_resp","img/green_2bandit_a.png","70","70","test","","","","5","",""
"null","711317","pSARL_v2","pSARL_v2e0odpesq","63b6c0245a6de54b28e6ef89","fixation","img/fixation.png","null","","test","","","","","",""
"265.5","711587","pSARL_v2","pSARL_v2e0odpesq","63b6c0245a6de54b28e6ef89","freq","img/green_2bandit_a2.png","70","70","test","1","99","99","5","",""
"null","712138","pSARL_v2","pSARL_v2e0odpesq","63b6c0245a6de54b28e6ef89","freq_resp","img/green_2bandit_a.png","70","70","test","","","","5","",""
"null","712293","pSARL_v2","pSARL_v2e0odpesq","63b6c0245a6de54b28e6ef89","fixation","img/fixation.png","null","","test","","","","","",""
"290.2999999523163","712588","pSARL_v2","pSARL_v2e0odpesq","63b6c0245a6de54b28e6ef89","freq","img/green_2bandit_a2.png","70","70","test","1","100","100","5","",""
"null","713123","pSARL_v2","pSARL_v2e0odpesq","63b6c0245a6de54b28e6ef89","freq_resp","img/green_2bandit_a.png","70","70","test","","","","5","",""
"null","713298","pSARL_v2","pSARL_v2e0odpesq","63b6c0245a6de54b28e6ef89","fixation","img/fixation.png","null","","test","","","","","",""
"236.70000004768372","713539","pSARL_v2","pSARL_v2e0odpesq","63b6c0245a6de54b28e6ef89","freq","img/green_2bandit_a2.png","70","70","test","1","101","101","5","",""
"null","714110","pSARL_v2","pSARL_v2e0odpesq","63b6c0245a6de54b28e6ef89","freq_resp","img/green_2bandit_a.png","70","70","test","","","","5","",""
"null","714280","pSARL_v2","pSARL_v2e0odpesq","63b6c0245a6de54b28e6ef89","fixation","img/fixation.png","null","","test","","","","","",""
"262","714547","pSARL_v2","pSARL_v2e0odpesq","63b6c0245a6de54b28e6ef89","freq","img/green_2bandit_a2.png","70","70","test","1","102","102","5","",""
"null","715091","pSARL_v2","pSARL_v2e0odpesq","63b6c0245a6de54b28e6ef89","freq_resp","img/green_2bandit_a.png","70","70","test","","","","5","",""
"null","715252","pSARL_v2","pSARL_v2e0odpesq","63b6c0245a6de54b28e6ef89","fixation","img/fixation.png","null","","test","","","","","",""
"359.40000009536743","715615","pSARL_v2","pSARL_v2e0odpesq","63b6c0245a6de54b28e6ef89","infreq","img/orange_2bandit_a2.png","68","68","test","1","103","103","5","",""
"null","716060","pSARL_v2","pSARL_v2e0odpesq","63b6c0245a6de54b28e6ef89","infreq_resp","img/orange_2bandit_a.png","68","68","test","","","","5","",""
"null","716217","pSARL_v2","pSARL_v2e0odpesq","63b6c0245a6de54b28e6ef89","fixation","img/fixation.png","null","","test","","","","","",""
"210.29999995231628","716432","pSARL_v2","pSARL_v2e0odpesq","63b6c0245a6de54b28e6ef89","freq","img/green_2bandit_a2.png","70","70","test","1","104","104","5","",""
"null","717033","pSARL_v2","pSARL_v2e0odpesq","63b6c0245a6de54b28e6ef89","freq_resp","img/green_2bandit_a.png","70","70","test","","","","5","",""
"null","717196","pSARL_v2","pSARL_v2e0odpesq","63b6c0245a6de54b28e6ef89","fixation","img/fixation.png","null","","test","","","","","",""
"233","717434","pSARL_v2","pSARL_v2e0odpesq","63b6c0245a6de54b28e6ef89","freq","img/green_2bandit_a2.png","70","70","test","1","105","105","5","",""
"null","718012","pSARL_v2","pSARL_v2e0odpesq","63b6c0245a6de54b28e6ef89","freq_resp","img/green_2bandit_a.png","70","70","test","","","","5","",""
"null","718181","pSARL_v2","pSARL_v2e0odpesq","63b6c0245a6de54b28e6ef89","fixation","img/fixation.png","null","","test","","","","","",""
"146.09999990463257","718332","pSARL_v2","pSARL_v2e0odpesq","63b6c0245a6de54b28e6ef89","freq","img/green_2bandit_a2.png","70","70","test","1","106","106","5","",""
"null","719002","pSARL_v2","pSARL_v2e0odpesq","63b6c0245a6de54b28e6ef89","freq_resp","img/green_2bandit_a.png","70","70","test","","","","5","",""
"null","719180","pSARL_v2","pSARL_v2e0odpesq","63b6c0245a6de54b28e6ef89","fixation","img/fixation.png","null","","test","","","","","",""
"120.70000004768372","719305","pSARL_v2","pSARL_v2e0odpesq","63b6c0245a6de54b28e6ef89","freq","img/green_2bandit_a2.png","70","70","test","1","107","107","5","",""
"null","720001","pSARL_v2","pSARL_v2e0odpesq","63b6c0245a6de54b28e6ef89","freq_resp","img/green_2bandit_a.png","70","70","test","","","","5","",""
"null","720169","pSARL_v2","pSARL_v2e0odpesq","63b6c0245a6de54b28e6ef89","fixation","img/fixation.png","null","","test","","","","","",""
"220.90000009536743","720395","pSARL_v2","pSARL_v2e0odpesq","63b6c0245a6de54b28e6ef89","freq","img/green_2bandit_a2.png","70","70","test","1","108","108","5","",""
"null","720979","pSARL_v2","pSARL_v2e0odpesq","63b6c0245a6de54b28e6ef89","freq_resp","img/green_2bandit_a.png","70","70","test","","","","5","",""
"null","721138","pSARL_v2","pSARL_v2e0odpesq","63b6c0245a6de54b28e6ef89","fixation","img/fixation.png","null","","test","","","","","",""
"269.10000014305115","721412","pSARL_v2","pSARL_v2e0odpesq","63b6c0245a6de54b28e6ef89","freq","img/green_2bandit_a2.png","70","70","test","1","109","109","5","",""
"null","721953","pSARL_v2","pSARL_v2e0odpesq","63b6c0245a6de54b28e6ef89","freq_resp","img/green_2bandit_a.png","70","70","test","","","","5","",""
"null","722112","pSARL_v2","pSARL_v2e0odpesq","63b6c0245a6de54b28e6ef89","fixation","img/fixation.png","null","","test","","","","","",""
"236.59999990463257","722353","pSARL_v2","pSARL_v2e0odpesq","63b6c0245a6de54b28e6ef89","freq","img/green_2bandit_a2.png","70","70","test","1","110","110","5","",""
"null","722935","pSARL_v2","pSARL_v2e0odpesq","63b6c0245a6de54b28e6ef89","freq_resp","img/green_2bandit_a.png","70","70","test","","","","5","",""
"null","723095","pSARL_v2","pSARL_v2e0odpesq","63b6c0245a6de54b28e6ef89","fixation","img/fixation.png","null","","test","","","","","",""
"362.90000009536743","723463","pSARL_v2","pSARL_v2e0odpesq","63b6c0245a6de54b28e6ef89","infreq","img/orange_2bandit_a2.png","68","68","test","1","111","111","5","",""
"null","723905","pSARL_v2","pSARL_v2e0odpesq","63b6c0245a6de54b28e6ef89","infreq_resp","img/orange_2bandit_a.png","68","68","test","","","","5","",""
"null","724066","pSARL_v2","pSARL_v2e0odpesq","63b6c0245a6de54b28e6ef89","fixation","img/fixation.png","null","","test","","","","","",""
"205.10000014305115","724276","pSARL_v2","pSARL_v2e0odpesq","63b6c0245a6de54b28e6ef89","freq","img/green_2bandit_a2.png","70","70","test","1","112","112","5","",""
"null","724890","pSARL_v2","pSARL_v2e0odpesq","63b6c0245a6de54b28e6ef89","freq_resp","img/green_2bandit_a.png","70","70","test","","","","5","",""
"null","725052","pSARL_v2","pSARL_v2e0odpesq","63b6c0245a6de54b28e6ef89","fixation","img/fixation.png","null","","test","","","","","",""
"272.7000000476837","725330","pSARL_v2","pSARL_v2e0odpesq","63b6c0245a6de54b28e6ef89","freq","img/green_2bandit_a2.png","70","70","test","1","113","113","5","",""
"null","725867","pSARL_v2","pSARL_v2e0odpesq","63b6c0245a6de54b28e6ef89","freq_resp","img/green_2bandit_a.png","70","70","test","","","","5","",""
"null","726027","pSARL_v2","pSARL_v2e0odpesq","63b6c0245a6de54b28e6ef89","fixation","img/fixation.png","null","","test","","","","","",""
"356","726388","pSARL_v2","pSARL_v2e0odpesq","63b6c0245a6de54b28e6ef89","freq","img/green_2bandit_a2.png","70","70","test","1","114","114","5","",""
"null","726851","pSARL_v2","pSARL_v2e0odpesq","63b6c0245a6de54b28e6ef89","freq_resp","img/green_2bandit_a.png","70","70","test","","","","5","",""
"null","727010","pSARL_v2","pSARL_v2e0odpesq","63b6c0245a6de54b28e6ef89","fixation","img/fixation.png","null","","test","","","","","",""
"308.7000000476837","727323","pSARL_v2","pSARL_v2e0odpesq","63b6c0245a6de54b28e6ef89","freq","img/green_2bandit_a2.png","70","70","test","1","115","115","5","",""
"null","727819","pSARL_v2","pSARL_v2e0odpesq","63b6c0245a6de54b28e6ef89","freq_resp","img/green_2bandit_a.png","70","70","test","","","","5","",""
"null","727984","pSARL_v2","pSARL_v2e0odpesq","63b6c0245a6de54b28e6ef89","fixation","img/fixation.png","null","","test","","","","","",""
"384.7999999523163","728373","pSARL_v2","pSARL_v2e0odpesq","63b6c0245a6de54b28e6ef89","reward","img/slot.png","74","","test","","","","","",""
"null","729138","pSARL_v2","pSARL_v2e0odpesq","63b6c0245a6de54b28e6ef89","points","<div class=""veryhighPoints""> +1 </div>","null","na","test","","","","5","1","4"
"357.40000009536743","729500","pSARL_v2","pSARL_v2e0odpesq","63b6c0245a6de54b28e6ef89","freq","img/green_2bandit_a2.png","70","70","test","1","116","116","6","",""
"null","729948","pSARL_v2","pSARL_v2e0odpesq","63b6c0245a6de54b28e6ef89","freq_resp","img/green_2bandit_a.png","70","70","test","","","","6","",""
"null","730109","pSARL_v2","pSARL_v2e0odpesq","63b6c0245a6de54b28e6ef89","fixation","img/fixation.png","null","","test","","","","","",""
"323.80000019073486","730438","pSARL_v2","pSARL_v2e0odpesq","63b6c0245a6de54b28e6ef89","freq","img/green_2bandit_a2.png","70","70","test","1","117","117","6","",""
"null","730931","pSARL_v2","pSARL_v2e0odpesq","63b6c0245a6de54b28e6ef89","freq_resp","img/green_2bandit_a.png","70","70","test","","","","6","",""
"null","731100","pSARL_v2","pSARL_v2e0odpesq","63b6c0245a6de54b28e6ef89","fixation","img/fixation.png","null","","test","","","","","",""
"326.5","731430","pSARL_v2","pSARL_v2e0odpesq","63b6c0245a6de54b28e6ef89","freq","img/green_2bandit_a2.png","70","70","test","1","118","118","6","",""
"null","731920","pSARL_v2","pSARL_v2e0odpesq","63b6c0245a6de54b28e6ef89","freq_resp","img/green_2bandit_a.png","70","70","test","","","","6","",""
"null","732076","pSARL_v2","pSARL_v2e0odpesq","63b6c0245a6de54b28e6ef89","fixation","img/fixation.png","null","","test","","","","","",""
"363.5","732446","pSARL_v2","pSARL_v2e0odpesq","63b6c0245a6de54b28e6ef89","freq","img/green_2bandit_a2.png","70","70","test","1","119","119","6","",""
"null","732888","pSARL_v2","pSARL_v2e0odpesq","63b6c0245a6de54b28e6ef89","freq_resp","img/green_2bandit_a.png","70","70","test","","","","6","",""
"null","733043","pSARL_v2","pSARL_v2e0odpesq","63b6c0245a6de54b28e6ef89","fixation","img/fixation.png","null","","test","","","","","",""
"352.2000000476837","733400","pSARL_v2","pSARL_v2e0odpesq","63b6c0245a6de54b28e6ef89","freq","img/green_2bandit_a2.png","70","70","test","1","120","120","6","",""
"null","733865","pSARL_v2","pSARL_v2e0odpesq","63b6c0245a6de54b28e6ef89","freq_resp","img/green_2bandit_a.png","70","70","test","","","","6","",""
"null","734032","pSARL_v2","pSARL_v2e0odpesq","63b6c0245a6de54b28e6ef89","fixation","img/fixation.png","null","","test","","","","","",""
"326.2000000476837","734363","pSARL_v2","pSARL_v2e0odpesq","63b6c0245a6de54b28e6ef89","freq","img/green_2bandit_a2.png","70","70","test","1","121","121","6","",""
"null","734870","pSARL_v2","pSARL_v2e0odpesq","63b6c0245a6de54b28e6ef89","freq_resp","img/green_2bandit_a.png","70","70","test","","","","6","",""
"null","735055","pSARL_v2","pSARL_v2e0odpesq","63b6c0245a6de54b28e6ef89","fixation","img/fixation.png","null","","test","","","","","",""
"307.7000000476837","735368","pSARL_v2","pSARL_v2e0odpesq","63b6c0245a6de54b28e6ef89","freq","img/green_2bandit_a2.png","70","70","test","1","122","122","6","",""
"null","735877","pSARL_v2","pSARL_v2e0odpesq","63b6c0245a6de54b28e6ef89","freq_resp","img/green_2bandit_a.png","70","70","test","","","","6","",""
"null","736032","pSARL_v2","pSARL_v2e0odpesq","63b6c0245a6de54b28e6ef89","fixation","img/fixation.png","null","","test","","","","","",""
"335.2000000476837","736372","pSARL_v2","pSARL_v2e0odpesq","63b6c0245a6de54b28e6ef89","freq","img/green_2bandit_a2.png","70","70","test","1","123","123","6","",""
"null","736853","pSARL_v2","pSARL_v2e0odpesq","63b6c0245a6de54b28e6ef89","freq_resp","img/green_2bandit_a.png","70","70","test","","","","6","",""
"null","737016","pSARL_v2","pSARL_v2e0odpesq","63b6c0245a6de54b28e6ef89","fixation","img/fixation.png","null","","test","","","","","",""
"358.90000009536743","737379","pSARL_v2","pSARL_v2e0odpesq","63b6c0245a6de54b28e6ef89","freq","img/green_2bandit_a2.png","70","70","test","1","124","124","6","",""
"null","737830","pSARL_v2","pSARL_v2e0odpesq","63b6c0245a6de54b28e6ef89","freq_resp","img/green_2bandit_a.png","70","70","test","","","","6","",""
"null","737991","pSARL_v2","pSARL_v2e0odpesq","63b6c0245a6de54b28e6ef89","fixation","img/fixation.png","null","","test","","","","","",""
"322.5","738318","pSARL_v2","pSARL_v2e0odpesq","63b6c0245a6de54b28e6ef89","freq","img/green_2bandit_a2.png","70","70","test","1","125","125","6","",""
"null","738811","pSARL_v2","pSARL_v2e0odpesq","63b6c0245a6de54b28e6ef89","freq_resp","img/green_2bandit_a.png","70","70","test","","","","6","",""
"null","738977","pSARL_v2","pSARL_v2e0odpesq","63b6c0245a6de54b28e6ef89","fixation","img/fixation.png","null","","test","","","","","",""
"276.40000009536743","739258","pSARL_v2","pSARL_v2e0odpesq","63b6c0245a6de54b28e6ef89","freq","img/green_2bandit_a2.png","70","70","test","1","126","126","6","",""
"null","739793","pSARL_v2","pSARL_v2e0odpesq","63b6c0245a6de54b28e6ef89","freq_resp","img/green_2bandit_a.png","70","70","test","","","","6","",""
"null","739960","pSARL_v2","pSARL_v2e0odpesq","63b6c0245a6de54b28e6ef89","fixation","img/fixation.png","null","","test","","","","","",""
"303.09999990463257","740268","pSARL_v2","pSARL_v2e0odpesq","63b6c0245a6de54b28e6ef89","freq","img/green_2bandit_a2.png","70","70","test","1","127","127","6","",""
"null","740779","pSARL_v2","pSARL_v2e0odpesq","63b6c0245a6de54b28e6ef89","freq_resp","img/green_2bandit_a.png","70","70","test","","","","6","",""
"null","740949","pSARL_v2","pSARL_v2e0odpesq","63b6c0245a6de54b28e6ef89","fixation","img/fixation.png","null","","test","","","","","",""
"317.2999999523163","741271","pSARL_v2","pSARL_v2e0odpesq","63b6c0245a6de54b28e6ef89","freq","img/green_2bandit_a2.png","70","70","test","1","128","128","6","",""
"null","741770","pSARL_v2","pSARL_v2e0odpesq","63b6c0245a6de54b28e6ef89","freq_resp","img/green_2bandit_a.png","70","70","test","","","","6","",""
"null","741926","pSARL_v2","pSARL_v2e0odpesq","63b6c0245a6de54b28e6ef89","fixation","img/fixation.png","null","","test","","","","","",""
"220.20000004768372","742151","pSARL_v2","pSARL_v2e0odpesq","63b6c0245a6de54b28e6ef89","freq","img/green_2bandit_a2.png","70","70","test","1","129","129","6","",""
"null","742745","pSARL_v2","pSARL_v2e0odpesq","63b6c0245a6de54b28e6ef89","freq_resp","img/green_2bandit_a.png","70","70","test","","","","6","",""
"null","742911","pSARL_v2","pSARL_v2e0odpesq","63b6c0245a6de54b28e6ef89","fixation","img/fixation.png","null","","test","","","","","",""
"248","743164","pSARL_v2","pSARL_v2e0odpesq","63b6c0245a6de54b28e6ef89","infreq","img/orange_2bandit_a2.png","70","68","test","0","130","130","6","",""
"null","743726","pSARL_v2","pSARL_v2e0odpesq","63b6c0245a6de54b28e6ef89","infreq_resp","img/orange_2bandit_a.png","70","68","test","","","","6","",""
"null","743888","pSARL_v2","pSARL_v2e0odpesq","63b6c0245a6de54b28e6ef89","fixation","img/fixation.png","null","","test","","","","","",""
"356.2999999523163","744250","pSARL_v2","pSARL_v2e0odpesq","63b6c0245a6de54b28e6ef89","freq","img/green_2bandit_a2.png","70","70","test","1","131","131","6","",""
"null","744708","pSARL_v2","pSARL_v2e0odpesq","63b6c0245a6de54b28e6ef89","freq_resp","img/green_2bandit_a.png","70","70","test","","","","6","",""
"null","744873","pSARL_v2","pSARL_v2e0odpesq","63b6c0245a6de54b28e6ef89","fixation","img/fixation.png","null","","test","","","","","",""
"342.09999990463257","745220","pSARL_v2","pSARL_v2e0odpesq","63b6c0245a6de54b28e6ef89","freq","img/green_2bandit_a2.png","70","70","test","1","132","132","6","",""
"null","745688","pSARL_v2","pSARL_v2e0odpesq","63b6c0245a6de54b28e6ef89","freq_resp","img/green_2bandit_a.png","70","70","test","","","","6","",""
"null","745842","pSARL_v2","pSARL_v2e0odpesq","63b6c0245a6de54b28e6ef89","fixation","img/fixation.png","null","","test","","","","","",""
"379.2999999523163","746225","pSARL_v2","pSARL_v2e0odpesq","63b6c0245a6de54b28e6ef89","infreq","img/orange_2bandit_a2.png","68","68","test","1","133","133","6","",""
"null","746651","pSARL_v2","pSARL_v2e0odpesq","63b6c0245a6de54b28e6ef89","infreq_resp","img/orange_2bandit_a.png","68","68","test","","","","6","",""
"null","746807","pSARL_v2","pSARL_v2e0odpesq","63b6c0245a6de54b28e6ef89","fixation","img/fixation.png","null","","test","","","","","",""
"272.90000009536743","747085","pSARL_v2","pSARL_v2e0odpesq","63b6c0245a6de54b28e6ef89","freq","img/green_2bandit_a2.png","70","70","test","1","134","134","6","",""
"null","747619","pSARL_v2","pSARL_v2e0odpesq","63b6c0245a6de54b28e6ef89","freq_resp","img/green_2bandit_a.png","70","70","test","","","","6","",""
"null","747779","pSARL_v2","pSARL_v2e0odpesq","63b6c0245a6de54b28e6ef89","fixation","img/fixation.png","null","","test","","","","","",""
"355.5","748139","pSARL_v2","pSARL_v2e0odpesq","63b6c0245a6de54b28e6ef89","freq","img/green_2bandit_a2.png","70","70","test","1","135","135","6","",""
"null","748592","pSARL_v2","pSARL_v2e0odpesq","63b6c0245a6de54b28e6ef89","freq_resp","img/green_2bandit_a.png","70","70","test","","","","6","",""
"null","748755","pSARL_v2","pSARL_v2e0odpesq","63b6c0245a6de54b28e6ef89","fixation","img/fixation.png","null","","test","","","","","",""
"1031.0999999046326","749789","pSARL_v2","pSARL_v2e0odpesq","63b6c0245a6de54b28e6ef89","reward","img/slot.png","74","","test","","","","","",""
"null","750550","pSARL_v2","pSARL_v2e0odpesq","63b6c0245a6de54b28e6ef89","points","<div class=""verylowPoints""> -7 </div>","null","na","test","","","","6","-7","5"
"425.09999990463257","750978","pSARL_v2","pSARL_v2e0odpesq","63b6c0245a6de54b28e6ef89","freq","img/green_2bandit_a2.png","70","70","test","1","136","136","7","",""
"null","751379","pSARL_v2","pSARL_v2e0odpesq","63b6c0245a6de54b28e6ef89","freq_resp","img/green_2bandit_a.png","70","70","test","","","","7","",""
"null","751553","pSARL_v2","pSARL_v2e0odpesq","63b6c0245a6de54b28e6ef89","fixation","img/fixation.png","null","","test","","","","","",""
"375.60000014305115","751934","pSARL_v2","pSARL_v2e0odpesq","63b6c0245a6de54b28e6ef89","infreq","img/orange_2bandit_a2.png","70","68","test","0","137","137","7","",""
"null","752370","pSARL_v2","pSARL_v2e0odpesq","63b6c0245a6de54b28e6ef89","infreq_resp","img/orange_2bandit_a.png","70","68","test","","","","7","",""
"null","752537","pSARL_v2","pSARL_v2e0odpesq","63b6c0245a6de54b28e6ef89","fixation","img/fixation.png","null","","test","","","","","",""
"578.7000000476837","753119","pSARL_v2","pSARL_v2e0odpesq","63b6c0245a6de54b28e6ef89","freq","img/green_2bandit_a2.png","70","70","test","1","138","138","7","",""
"null","753351","pSARL_v2","pSARL_v2e0odpesq","63b6c0245a6de54b28e6ef89","freq_resp","img/green_2bandit_a.png","70","70","test","","","","7","",""
"null","753519","pSARL_v2","pSARL_v2e0odpesq","63b6c0245a6de54b28e6ef89","fixation","img/fixation.png","null","","test","","","","","",""
"443.30000019073486","753967","pSARL_v2","pSARL_v2e0odpesq","63b6c0245a6de54b28e6ef89","infreq","img/orange_2bandit_a2.png","68","68","test","1","139","139","7","",""
"null","754329","pSARL_v2","pSARL_v2e0odpesq","63b6c0245a6de54b28e6ef89","infreq_resp","img/orange_2bandit_a.png","68","68","test","","","","7","",""
"null","754492","pSARL_v2","pSARL_v2e0odpesq","63b6c0245a6de54b28e6ef89","fixation","img/fixation.png","null","","test","","","","","",""
"343.09999990463257","754840","pSARL_v2","pSARL_v2e0odpesq","63b6c0245a6de54b28e6ef89","freq","img/green_2bandit_a2.png","70","70","test","1","140","140","7","",""
"null","755314","pSARL_v2","pSARL_v2e0odpesq","63b6c0245a6de54b28e6ef89","freq_resp","img/green_2bandit_a.png","70","70","test","","","","7","",""
"null","755469","pSARL_v2","pSARL_v2e0odpesq","63b6c0245a6de54b28e6ef89","fixation","img/fixation.png","null","","test","","","","","",""
"474.39999985694885","755948","pSARL_v2","pSARL_v2e0odpesq","63b6c0245a6de54b28e6ef89","freq","img/green_2bandit_a2.png","70","70","test","1","141","141","7","",""
"null","756278","pSARL_v2","pSARL_v2e0odpesq","63b6c0245a6de54b28e6ef89","freq_resp","img/green_2bandit_a.png","70","70","test","","","","7","",""
"null","756435","pSARL_v2","pSARL_v2e0odpesq","63b6c0245a6de54b28e6ef89","fixation","img/fixation.png","null","","test","","","","","",""
"428.59999990463257","756868","pSARL_v2","pSARL_v2e0odpesq","63b6c0245a6de54b28e6ef89","freq","img/green_2bandit_a2.png","70","70","test","1","142","142","7","",""
"null","757255","pSARL_v2","pSARL_v2e0odpesq","63b6c0245a6de54b28e6ef89","freq_resp","img/green_2bandit_a.png","70","70","test","","","","7","",""
"null","757419","pSARL_v2","pSARL_v2e0odpesq","63b6c0245a6de54b28e6ef89","fixation","img/fixation.png","null","","test","","","","","",""
"441.7000000476837","757865","pSARL_v2","pSARL_v2e0odpesq","63b6c0245a6de54b28e6ef89","freq","img/green_2bandit_a2.png","70","70","test","1","143","143","7","",""
"null","758237","pSARL_v2","pSARL_v2e0odpesq","63b6c0245a6de54b28e6ef89","freq_resp","img/green_2bandit_a.png","70","70","test","","","","7","",""
"null","758402","pSARL_v2","pSARL_v2e0odpesq","63b6c0245a6de54b28e6ef89","fixation","img/fixation.png","null","","test","","","","","",""
"345","758751","pSARL_v2","pSARL_v2e0odpesq","63b6c0245a6de54b28e6ef89","freq","img/green_2bandit_a2.png","70","70","test","1","144","144","7","",""
"null","759222","pSARL_v2","pSARL_v2e0odpesq","63b6c0245a6de54b28e6ef89","freq_resp","img/green_2bandit_a.png","70","70","test","","","","7","",""
"null","759391","pSARL_v2","pSARL_v2e0odpesq","63b6c0245a6de54b28e6ef89","fixation","img/fixation.png","null","","test","","","","","",""
"318.89999985694885","759715","pSARL_v2","pSARL_v2e0odpesq","63b6c0245a6de54b28e6ef89","freq","img/green_2bandit_a2.png","70","70","test","1","145","145","7","",""
"null","760203","pSARL_v2","pSARL_v2e0odpesq","63b6c0245a6de54b28e6ef89","freq_resp","img/green_2bandit_a.png","70","70","test","","","","7","",""
"null","760368","pSARL_v2","pSARL_v2e0odpesq","63b6c0245a6de54b28e6ef89","fixation","img/fixation.png","null","","test","","","","","",""
"373","760746","pSARL_v2","pSARL_v2e0odpesq","63b6c0245a6de54b28e6ef89","freq","img/green_2bandit_a2.png","70","70","test","1","146","146","7","",""
"null","761181","pSARL_v2","pSARL_v2e0odpesq","63b6c0245a6de54b28e6ef89","freq_resp","img/green_2bandit_a.png","70","70","test","","","","7","",""
"null","761342","pSARL_v2","pSARL_v2e0odpesq","63b6c0245a6de54b28e6ef89","fixation","img/fixation.png","null","","test","","","","","",""
"354.7999999523163","761701","pSARL_v2","pSARL_v2e0odpesq","63b6c0245a6de54b28e6ef89","freq","img/green_2bandit_a2.png","70","70","test","1","147","147","7","",""
"null","762172","pSARL_v2","pSARL_v2e0odpesq","63b6c0245a6de54b28e6ef89","freq_resp","img/green_2bandit_a.png","70","70","test","","","","7","",""
"null","762351","pSARL_v2","pSARL_v2e0odpesq","63b6c0245a6de54b28e6ef89","fixation","img/fixation.png","null","","test","","","","","",""
"419.60000014305115","762774","pSARL_v2","pSARL_v2e0odpesq","63b6c0245a6de54b28e6ef89","freq","img/green_2bandit_a2.png","70","70","test","1","148","148","7","",""
"null","763166","pSARL_v2","pSARL_v2e0odpesq","63b6c0245a6de54b28e6ef89","freq_resp","img/green_2bandit_a.png","70","70","test","","","","7","",""
"null","763333","pSARL_v2","pSARL_v2e0odpesq","63b6c0245a6de54b28e6ef89","fixation","img/fixation.png","null","","test","","","","","",""
"358.59999990463257","763696","pSARL_v2","pSARL_v2e0odpesq","63b6c0245a6de54b28e6ef89","freq","img/green_2bandit_a2.png","70","70","test","1","149","149","7","",""
"null","764151","pSARL_v2","pSARL_v2e0odpesq","63b6c0245a6de54b28e6ef89","freq_resp","img/green_2bandit_a.png","70","70","test","","","","7","",""
"null","764308","pSARL_v2","pSARL_v2e0odpesq","63b6c0245a6de54b28e6ef89","fixation","img/fixation.png","null","","test","","","","","",""
"330.90000009536743","764643","pSARL_v2","pSARL_v2e0odpesq","63b6c0245a6de54b28e6ef89","freq","img/green_2bandit_a2.png","70","70","test","1","150","150","7","",""
"null","765132","pSARL_v2","pSARL_v2e0odpesq","63b6c0245a6de54b28e6ef89","freq_resp","img/green_2bandit_a.png","70","70","test","","","","7","",""
"null","765301","pSARL_v2","pSARL_v2e0odpesq","63b6c0245a6de54b28e6ef89","fixation","img/fixation.png","null","","test","","","","","",""
"295","765599","pSARL_v2","pSARL_v2e0odpesq","63b6c0245a6de54b28e6ef89","freq","img/green_2bandit_a2.png","70","70","test","1","151","151","7","",""
"null","766115","pSARL_v2","pSARL_v2e0odpesq","63b6c0245a6de54b28e6ef89","freq_resp","img/green_2bandit_a.png","70","70","test","","","","7","",""
"null","766283","pSARL_v2","pSARL_v2e0odpesq","63b6c0245a6de54b28e6ef89","fixation","img/fixation.png","null","","test","","","","","",""
"407.2000000476837","766695","pSARL_v2","pSARL_v2e0odpesq","63b6c0245a6de54b28e6ef89","freq","img/green_2bandit_a2.png","70","70","test","1","152","152","7","",""
"null","767095","pSARL_v2","pSARL_v2e0odpesq","63b6c0245a6de54b28e6ef89","freq_resp","img/green_2bandit_a.png","70","70","test","","","","7","",""
"null","767266","pSARL_v2","pSARL_v2e0odpesq","63b6c0245a6de54b28e6ef89","fixation","img/fixation.png","null","","test","","","","","",""
"361.5","767632","pSARL_v2","pSARL_v2e0odpesq","63b6c0245a6de54b28e6ef89","freq","img/green_2bandit_a2.png","70","70","test","1","153","153","7","",""
"null","768090","pSARL_v2","pSARL_v2e0odpesq","63b6c0245a6de54b28e6ef89","freq_resp","img/green_2bandit_a.png","70","70","test","","","","7","",""
"null","768270","pSARL_v2","pSARL_v2e0odpesq","63b6c0245a6de54b28e6ef89","fixation","img/fixation.png","null","","test","","","","","",""
"395.7000000476837","768670","pSARL_v2","pSARL_v2e0odpesq","63b6c0245a6de54b28e6ef89","freq","img/green_2bandit_a2.png","70","70","test","1","154","154","7","",""
"null","769093","pSARL_v2","pSARL_v2e0odpesq","63b6c0245a6de54b28e6ef89","freq_resp","img/green_2bandit_a.png","70","70","test","","","","7","",""
"null","769250","pSARL_v2","pSARL_v2e0odpesq","63b6c0245a6de54b28e6ef89","fixation","img/fixation.png","null","","test","","","","","",""
"325.69999980926514","769580","pSARL_v2","pSARL_v2e0odpesq","63b6c0245a6de54b28e6ef89","freq","img/green_2bandit_a2.png","70","70","test","1","155","155","7","",""
"null","770067","pSARL_v2","pSARL_v2e0odpesq","63b6c0245a6de54b28e6ef89","freq_resp","img/green_2bandit_a.png","70","70","test","","","","7","",""
"null","770232","pSARL_v2","pSARL_v2e0odpesq","63b6c0245a6de54b28e6ef89","fixation","img/fixation.png","null","","test","","","","","",""
"503.5","770740","pSARL_v2","pSARL_v2e0odpesq","63b6c0245a6de54b28e6ef89","reward","img/slot.png","74","","test","","","","","",""
"null","771510","pSARL_v2","pSARL_v2e0odpesq","63b6c0245a6de54b28e6ef89","points","<div class=""verylowPoints""> -6 </div>","null","na","test","","","","7","-6","6"
"394.39999985694885","771909","pSARL_v2","pSARL_v2e0odpesq","63b6c0245a6de54b28e6ef89","freq","img/green_2bandit_a2.png","70","70","test","1","156","156","8","",""
"null","772333","pSARL_v2","pSARL_v2e0odpesq","63b6c0245a6de54b28e6ef89","freq_resp","img/green_2bandit_a.png","70","70","test","","","","8","",""
"null","772501","pSARL_v2","pSARL_v2e0odpesq","63b6c0245a6de54b28e6ef89","fixation","img/fixation.png","null","","test","","","","","",""
"507.7999999523163","773014","pSARL_v2","pSARL_v2e0odpesq","63b6c0245a6de54b28e6ef89","freq","img/green_2bandit_a2.png","70","70","test","1","157","157","8","",""
"null","773312","pSARL_v2","pSARL_v2e0odpesq","63b6c0245a6de54b28e6ef89","freq_resp","img/green_2bandit_a.png","70","70","test","","","","8","",""
"null","773482","pSARL_v2","pSARL_v2e0odpesq","63b6c0245a6de54b28e6ef89","fixation","img/fixation.png","null","","test","","","","","",""
"429.5","773916","pSARL_v2","pSARL_v2e0odpesq","63b6c0245a6de54b28e6ef89","freq","img/green_2bandit_a2.png","70","70","test","1","158","158","8","",""
"null","774300","pSARL_v2","pSARL_v2e0odpesq","63b6c0245a6de54b28e6ef89","freq_resp","img/green_2bandit_a.png","70","70","test","","","","8","",""
"null","774470","pSARL_v2","pSARL_v2e0odpesq","63b6c0245a6de54b28e6ef89","fixation","img/fixation.png","null","","test","","","","","",""
"317.90000009536743","774793","pSARL_v2","pSARL_v2e0odpesq","63b6c0245a6de54b28e6ef89","freq","img/green_2bandit_a2.png","70","70","test","1","159","159","8","",""
"null","775287","pSARL_v2","pSARL_v2e0odpesq","63b6c0245a6de54b28e6ef89","freq_resp","img/green_2bandit_a.png","70","70","test","","","","8","",""
"null","775448","pSARL_v2","pSARL_v2e0odpesq","63b6c0245a6de54b28e6ef89","fixation","img/fixation.png","null","","test","","","","","",""
"313.7000000476837","775766","pSARL_v2","pSARL_v2e0odpesq","63b6c0245a6de54b28e6ef89","freq","img/green_2bandit_a2.png","70","70","test","1","160","160","8","",""
"null","776271","pSARL_v2","pSARL_v2e0odpesq","63b6c0245a6de54b28e6ef89","freq_resp","img/green_2bandit_a.png","70","70","test","","","","8","",""
"null","776429","pSARL_v2","pSARL_v2e0odpesq","63b6c0245a6de54b28e6ef89","fixation","img/fixation.png","null","","test","","","","","",""
"321.69999980926514","776755","pSARL_v2","pSARL_v2e0odpesq","63b6c0245a6de54b28e6ef89","freq","img/green_2bandit_a2.png","70","70","test","1","161","161","8","",""
"null","777239","pSARL_v2","pSARL_v2e0odpesq","63b6c0245a6de54b28e6ef89","freq_resp","img/green_2bandit_a.png","70","70","test","","","","8","",""
"null","777396","pSARL_v2","pSARL_v2e0odpesq","63b6c0245a6de54b28e6ef89","fixation","img/fixation.png","null","","test","","","","","",""
"406.90000009536743","777808","pSARL_v2","pSARL_v2e0odpesq","63b6c0245a6de54b28e6ef89","infreq","img/orange_2bandit_a2.png","68","68","test","1","162","162","8","",""
"null","778209","pSARL_v2","pSARL_v2e0odpesq","63b6c0245a6de54b28e6ef89","infreq_resp","img/orange_2bandit_a.png","68","68","test","","","","8","",""
"null","778378","pSARL_v2","pSARL_v2e0odpesq","63b6c0245a6de54b28e6ef89","fixation","img/fixation.png","null","","test","","","","","",""
"262.90000009536743","778645","pSARL_v2","pSARL_v2e0odpesq","63b6c0245a6de54b28e6ef89","freq","img/green_2bandit_a2.png","70","70","test","1","163","163","8","",""
"null","779216","pSARL_v2","pSARL_v2e0odpesq","63b6c0245a6de54b28e6ef89","freq_resp","img/green_2bandit_a.png","70","70","test","","","","8","",""
"null","779393","pSARL_v2","pSARL_v2e0odpesq","63b6c0245a6de54b28e6ef89","fixation","img/fixation.png","null","","test","","","","","",""
"324.2000000476837","779721","pSARL_v2","pSARL_v2e0odpesq","63b6c0245a6de54b28e6ef89","freq","img/green_2bandit_a2.png","70","70","test","1","164","164","8","",""
"null","780207","pSARL_v2","pSARL_v2e0odpesq","63b6c0245a6de54b28e6ef89","freq_resp","img/green_2bandit_a.png","70","70","test","","","","8","",""
"null","780378","pSARL_v2","pSARL_v2e0odpesq","63b6c0245a6de54b28e6ef89","fixation","img/fixation.png","null","","test","","","","","",""
"287.10000014305115","780670","pSARL_v2","pSARL_v2e0odpesq","63b6c0245a6de54b28e6ef89","freq","img/green_2bandit_a2.png","70","70","test","1","165","165","8","",""
"null","781197","pSARL_v2","pSARL_v2e0odpesq","63b6c0245a6de54b28e6ef89","freq_resp","img/green_2bandit_a.png","70","70","test","","","","8","",""
"null","781352","pSARL_v2","pSARL_v2e0odpesq","63b6c0245a6de54b28e6ef89","fixation","img/fixation.png","null","","test","","","","","",""
"243.89999985694885","781601","pSARL_v2","pSARL_v2e0odpesq","63b6c0245a6de54b28e6ef89","infreq","img/orange_2bandit_a2.png","70","68","test","0","166","166","8","",""
"null","782170","pSARL_v2","pSARL_v2e0odpesq","63b6c0245a6de54b28e6ef89","infreq_resp","img/orange_2bandit_a.png","70","68","test","","","","8","",""
"null","782336","pSARL_v2","pSARL_v2e0odpesq","63b6c0245a6de54b28e6ef89","fixation","img/fixation.png","null","","test","","","","","",""
"602.0999999046326","782943","pSARL_v2","pSARL_v2e0odpesq","63b6c0245a6de54b28e6ef89","freq","img/green_2bandit_a2.png","70","70","test","1","167","167","8","",""
"null","783156","pSARL_v2","pSARL_v2e0odpesq","63b6c0245a6de54b28e6ef89","freq_resp","img/green_2bandit_a.png","70","70","test","","","","8","",""
"null","783327","pSARL_v2","pSARL_v2e0odpesq","63b6c0245a6de54b28e6ef89","fixation","img/fixation.png","null","","test","","","","","",""
"455.7000000476837","783787","pSARL_v2","pSARL_v2e0odpesq","63b6c0245a6de54b28e6ef89","freq","img/green_2bandit_a2.png","70","70","test","1","168","168","8","",""
"null","784143","pSARL_v2","pSARL_v2e0odpesq","63b6c0245a6de54b28e6ef89","freq_resp","img/green_2bandit_a.png","70","70","test","","","","8","",""
"null","784310","pSARL_v2","pSARL_v2e0odpesq","63b6c0245a6de54b28e6ef89","fixation","img/fixation.png","null","","test","","","","","",""
"310.2000000476837","784626","pSARL_v2","pSARL_v2e0odpesq","63b6c0245a6de54b28e6ef89","freq","img/green_2bandit_a2.png","70","70","test","1","169","169","8","",""
"null","785133","pSARL_v2","pSARL_v2e0odpesq","63b6c0245a6de54b28e6ef89","freq_resp","img/green_2bandit_a.png","70","70","test","","","","8","",""
"null","785298","pSARL_v2","pSARL_v2e0odpesq","63b6c0245a6de54b28e6ef89","fixation","img/fixation.png","null","","test","","","","","",""
"357.60000014305115","785661","pSARL_v2","pSARL_v2e0odpesq","63b6c0245a6de54b28e6ef89","freq","img/green_2bandit_a2.png","70","70","test","1","170","170","8","",""
"null","786107","pSARL_v2","pSARL_v2e0odpesq","63b6c0245a6de54b28e6ef89","freq_resp","img/green_2bandit_a.png","70","70","test","","","","8","",""
"null","786267","pSARL_v2","pSARL_v2e0odpesq","63b6c0245a6de54b28e6ef89","fixation","img/fixation.png","null","","test","","","","","",""
"388.7999999523163","786661","pSARL_v2","pSARL_v2e0odpesq","63b6c0245a6de54b28e6ef89","freq","img/green_2bandit_a2.png","70","70","test","1","171","171","8","",""
"null","787083","pSARL_v2","pSARL_v2e0odpesq","63b6c0245a6de54b28e6ef89","freq_resp","img/green_2bandit_a.png","70","70","test","","","","8","",""
"null","787243","pSARL_v2","pSARL_v2e0odpesq","63b6c0245a6de54b28e6ef89","fixation","img/fixation.png","null","","test","","","","","",""
"357.59999990463257","787605","pSARL_v2","pSARL_v2e0odpesq","63b6c0245a6de54b28e6ef89","freq","img/green_2bandit_a2.png","70","70","test","1","172","172","8","",""
"null","788056","pSARL_v2","pSARL_v2e0odpesq","63b6c0245a6de54b28e6ef89","freq_resp","img/green_2bandit_a.png","70","70","test","","","","8","",""
"null","788216","pSARL_v2","pSARL_v2e0odpesq","63b6c0245a6de54b28e6ef89","fixation","img/fixation.png","null","","test","","","","","",""
"355.89999985694885","788577","pSARL_v2","pSARL_v2e0odpesq","63b6c0245a6de54b28e6ef89","freq","img/green_2bandit_a2.png","70","70","test","1","173","173","8","",""
"null","789039","pSARL_v2","pSARL_v2e0odpesq","63b6c0245a6de54b28e6ef89","freq_resp","img/green_2bandit_a.png","70","70","test","","","","8","",""
"null","789208","pSARL_v2","pSARL_v2e0odpesq","63b6c0245a6de54b28e6ef89","fixation","img/fixation.png","null","","test","","","","","",""
"371.89999985694885","789585","pSARL_v2","pSARL_v2e0odpesq","63b6c0245a6de54b28e6ef89","freq","img/green_2bandit_a2.png","70","70","test","1","174","174","8","",""
"null","790026","pSARL_v2","pSARL_v2e0odpesq","63b6c0245a6de54b28e6ef89","freq_resp","img/green_2bandit_a.png","70","70","test","","","","8","",""
"null","790191","pSARL_v2","pSARL_v2e0odpesq","63b6c0245a6de54b28e6ef89","fixation","img/fixation.png","null","","test","","","","","",""
"381.59999990463257","790577","pSARL_v2","pSARL_v2e0odpesq","63b6c0245a6de54b28e6ef89","reward","img/slot.png","74","","test","","","","","",""
"null","791332","pSARL_v2","pSARL_v2e0odpesq","63b6c0245a6de54b28e6ef89","points","<div class=""verylowPoints""> -4 </div>","null","na","test","","","","8","-4","7"
"274.7999999523163","791612","pSARL_v2","pSARL_v2e0odpesq","63b6c0245a6de54b28e6ef89","freq","img/green_2bandit_a2.png","70","70","test","1","175","175","9","",""
"null","792147","pSARL_v2","pSARL_v2e0odpesq","63b6c0245a6de54b28e6ef89","freq_resp","img/green_2bandit_a.png","70","70","test","","","","9","",""
"null","792308","pSARL_v2","pSARL_v2e0odpesq","63b6c0245a6de54b28e6ef89","fixation","img/fixation.png","null","","test","","","","","",""
"434.19999980926514","792747","pSARL_v2","pSARL_v2e0odpesq","63b6c0245a6de54b28e6ef89","infreq","img/orange_2bandit_a2.png","68","68","test","1","176","176","9","",""
"null","793127","pSARL_v2","pSARL_v2e0odpesq","63b6c0245a6de54b28e6ef89","infreq_resp","img/orange_2bandit_a.png","68","68","test","","","","9","",""
"null","793296","pSARL_v2","pSARL_v2e0odpesq","63b6c0245a6de54b28e6ef89","fixation","img/fixation.png","null","","test","","","","","",""
"203.69999980926514","793504","pSARL_v2","pSARL_v2e0odpesq","63b6c0245a6de54b28e6ef89","freq","img/green_2bandit_a2.png","70","70","test","1","177","177","9","",""
"null","794106","pSARL_v2","pSARL_v2e0odpesq","63b6c0245a6de54b28e6ef89","freq_resp","img/green_2bandit_a.png","70","70","test","","","","9","",""
"null","794275","pSARL_v2","pSARL_v2e0odpesq","63b6c0245a6de54b28e6ef89","fixation","img/fixation.png","null","","test","","","","","",""
"322.5","794602","pSARL_v2","pSARL_v2e0odpesq","63b6c0245a6de54b28e6ef89","freq","img/green_2bandit_a2.png","70","70","test","1","178","178","9","",""
"null","795094","pSARL_v2","pSARL_v2e0odpesq","63b6c0245a6de54b28e6ef89","freq_resp","img/green_2bandit_a.png","70","70","test","","","","9","",""
"null","795258","pSARL_v2","pSARL_v2e0odpesq","63b6c0245a6de54b28e6ef89","fixation","img/fixation.png","null","","test","","","","","",""
"320.2999999523163","795583","pSARL_v2","pSARL_v2e0odpesq","63b6c0245a6de54b28e6ef89","freq","img/green_2bandit_a2.png","70","70","test","1","179","179","9","",""
"null","796080","pSARL_v2","pSARL_v2e0odpesq","63b6c0245a6de54b28e6ef89","freq_resp","img/green_2bandit_a.png","70","70","test","","","","9","",""
"null","796241","pSARL_v2","pSARL_v2e0odpesq","63b6c0245a6de54b28e6ef89","fixation","img/fixation.png","null","","test","","","","","",""
"289.7000000476837","796535","pSARL_v2","pSARL_v2e0odpesq","63b6c0245a6de54b28e6ef89","freq","img/green_2bandit_a2.png","70","70","test","1","180","180","9","",""
"null","797050","pSARL_v2","pSARL_v2e0odpesq","63b6c0245a6de54b28e6ef89","freq_resp","img/green_2bandit_a.png","70","70","test","","","","9","",""
"null","797212","pSARL_v2","pSARL_v2e0odpesq","63b6c0245a6de54b28e6ef89","fixation","img/fixation.png","null","","test","","","","","",""
"279","797494","pSARL_v2","pSARL_v2e0odpesq","63b6c0245a6de54b28e6ef89","freq","img/green_2bandit_a2.png","70","70","test","1","181","181","9","",""
"null","798027","pSARL_v2","pSARL_v2e0odpesq","63b6c0245a6de54b28e6ef89","freq_resp","img/green_2bandit_a.png","70","70","test","","","","9","",""
"null","798196","pSARL_v2","pSARL_v2e0odpesq","63b6c0245a6de54b28e6ef89","fixation","img/fixation.png","null","","test","","","","","",""
"301.2999999523163","798502","pSARL_v2","pSARL_v2e0odpesq","63b6c0245a6de54b28e6ef89","freq","img/green_2bandit_a2.png","70","70","test","1","182","182","9","",""
"null","799006","pSARL_v2","pSARL_v2e0odpesq","63b6c0245a6de54b28e6ef89","freq_resp","img/green_2bandit_a.png","70","70","test","","","","9","",""
"null","799172","pSARL_v2","pSARL_v2e0odpesq","63b6c0245a6de54b28e6ef89","fixation","img/fixation.png","null","","test","","","","","",""
"311.69999980926514","799489","pSARL_v2","pSARL_v2e0odpesq","63b6c0245a6de54b28e6ef89","freq","img/green_2bandit_a2.png","70","70","test","1","183","183","9","",""
"null","799991","pSARL_v2","pSARL_v2e0odpesq","63b6c0245a6de54b28e6ef89","freq_resp","img/green_2bandit_a.png","70","70","test","","","","9","",""
"null","800155","pSARL_v2","pSARL_v2e0odpesq","63b6c0245a6de54b28e6ef89","fixation","img/fixation.png","null","","test","","","","","",""
"271.09999990463257","800431","pSARL_v2","pSARL_v2e0odpesq","63b6c0245a6de54b28e6ef89","freq","img/green_2bandit_a2.png","70","70","test","1","184","184","9","",""
"null","800973","pSARL_v2","pSARL_v2e0odpesq","63b6c0245a6de54b28e6ef89","freq_resp","img/green_2bandit_a.png","70","70","test","","","","9","",""
"null","801139","pSARL_v2","pSARL_v2e0odpesq","63b6c0245a6de54b28e6ef89","fixation","img/fixation.png","null","","test","","","","","",""
"337.2000000476837","801480","pSARL_v2","pSARL_v2e0odpesq","63b6c0245a6de54b28e6ef89","freq","img/green_2bandit_a2.png","70","70","test","1","185","185","9","",""
"null","801955","pSARL_v2","pSARL_v2e0odpesq","63b6c0245a6de54b28e6ef89","freq_resp","img/green_2bandit_a.png","70","70","test","","","","9","",""
"null","802134","pSARL_v2","pSARL_v2e0odpesq","63b6c0245a6de54b28e6ef89","fixation","img/fixation.png","null","","test","","","","","",""
"350.2999999523163","802488","pSARL_v2","pSARL_v2e0odpesq","63b6c0245a6de54b28e6ef89","freq","img/green_2bandit_a2.png","70","70","test","1","186","186","9","",""
"null","802944","pSARL_v2","pSARL_v2e0odpesq","63b6c0245a6de54b28e6ef89","freq_resp","img/green_2bandit_a.png","70","70","test","","","","9","",""
"null","803107","pSARL_v2","pSARL_v2e0odpesq","63b6c0245a6de54b28e6ef89","fixation","img/fixation.png","null","","test","","","","","",""
"328.7000000476837","803440","pSARL_v2","pSARL_v2e0odpesq","63b6c0245a6de54b28e6ef89","freq","img/green_2bandit_a2.png","70","70","test","1","187","187","9","",""
"null","803930","pSARL_v2","pSARL_v2e0odpesq","63b6c0245a6de54b28e6ef89","freq_resp","img/green_2bandit_a.png","70","70","test","","","","9","",""
"null","804088","pSARL_v2","pSARL_v2e0odpesq","63b6c0245a6de54b28e6ef89","fixation","img/fixation.png","null","","test","","","","","",""
"265.60000014305115","804359","pSARL_v2","pSARL_v2e0odpesq","63b6c0245a6de54b28e6ef89","freq","img/green_2bandit_a2.png","70","70","test","1","188","188","9","",""
"null","804908","pSARL_v2","pSARL_v2e0odpesq","63b6c0245a6de54b28e6ef89","freq_resp","img/green_2bandit_a.png","70","70","test","","","","9","",""
"null","805063","pSARL_v2","pSARL_v2e0odpesq","63b6c0245a6de54b28e6ef89","fixation","img/fixation.png","null","","test","","","","","",""
"355.89999985694885","805424","pSARL_v2","pSARL_v2e0odpesq","63b6c0245a6de54b28e6ef89","infreq","img/orange_2bandit_a2.png","68","68","test","1","189","189","9","",""
"null","805875","pSARL_v2","pSARL_v2e0odpesq","63b6c0245a6de54b28e6ef89","infreq_resp","img/orange_2bandit_a.png","68","68","test","","","","9","",""
"null","806044","pSARL_v2","pSARL_v2e0odpesq","63b6c0245a6de54b28e6ef89","fixation","img/fixation.png","null","","test","","","","","",""
"310.89999985694885","806360","pSARL_v2","pSARL_v2e0odpesq","63b6c0245a6de54b28e6ef89","freq","img/green_2bandit_a2.png","70","70","test","1","190","190","9","",""
"null","806866","pSARL_v2","pSARL_v2e0odpesq","63b6c0245a6de54b28e6ef89","freq_resp","img/green_2bandit_a.png","70","70","test","","","","9","",""
"null","807028","pSARL_v2","pSARL_v2e0odpesq","63b6c0245a6de54b28e6ef89","fixation","img/fixation.png","null","","test","","","","","",""
"279.7999999523163","807313","pSARL_v2","pSARL_v2e0odpesq","63b6c0245a6de54b28e6ef89","freq","img/green_2bandit_a2.png","70","70","test","1","191","191","9","",""
"null","807860","pSARL_v2","pSARL_v2e0odpesq","63b6c0245a6de54b28e6ef89","freq_resp","img/green_2bandit_a.png","70","70","test","","","","9","",""
"null","808039","pSARL_v2","pSARL_v2e0odpesq","63b6c0245a6de54b28e6ef89","fixation","img/fixation.png","null","","test","","","","","",""
"324.90000009536743","808369","pSARL_v2","pSARL_v2e0odpesq","63b6c0245a6de54b28e6ef89","freq","img/green_2bandit_a2.png","70","70","test","1","192","192","9","",""
"null","808857","pSARL_v2","pSARL_v2e0odpesq","63b6c0245a6de54b28e6ef89","freq_resp","img/green_2bandit_a.png","70","70","test","","","","9","",""
"null","809020","pSARL_v2","pSARL_v2e0odpesq","63b6c0245a6de54b28e6ef89","fixation","img/fixation.png","null","","test","","","","","",""
"281.40000009536743","809305","pSARL_v2","pSARL_v2e0odpesq","63b6c0245a6de54b28e6ef89","freq","img/green_2bandit_a2.png","70","70","test","1","193","193","9","",""
"null","809833","pSARL_v2","pSARL_v2e0odpesq","63b6c0245a6de54b28e6ef89","freq_resp","img/green_2bandit_a.png","70","70","test","","","","9","",""
"null","810001","pSARL_v2","pSARL_v2e0odpesq","63b6c0245a6de54b28e6ef89","fixation","img/fixation.png","null","","test","","","","","",""
"320.2999999523163","810327","pSARL_v2","pSARL_v2e0odpesq","63b6c0245a6de54b28e6ef89","freq","img/green_2bandit_a2.png","70","70","test","1","194","194","9","",""
"null","810814","pSARL_v2","pSARL_v2e0odpesq","63b6c0245a6de54b28e6ef89","freq_resp","img/green_2bandit_a.png","70","70","test","","","","9","",""
"null","810969","pSARL_v2","pSARL_v2e0odpesq","63b6c0245a6de54b28e6ef89","fixation","img/fixation.png","null","","test","","","","","",""
"323.09999990463257","811297","pSARL_v2","pSARL_v2e0odpesq","63b6c0245a6de54b28e6ef89","freq","img/green_2bandit_a2.png","70","70","test","1","195","195","9","",""
"null","811781","pSARL_v2","pSARL_v2e0odpesq","63b6c0245a6de54b28e6ef89","freq_resp","img/green_2bandit_a.png","70","70","test","","","","9","",""
"null","811944","pSARL_v2","pSARL_v2e0odpesq","63b6c0245a6de54b28e6ef89","fixation","img/fixation.png","null","","test","","","","","",""
"336","812284","pSARL_v2","pSARL_v2e0odpesq","63b6c0245a6de54b28e6ef89","freq","img/green_2bandit_a2.png","70","70","test","1","196","196","9","",""
"null","812763","pSARL_v2","pSARL_v2e0odpesq","63b6c0245a6de54b28e6ef89","freq_resp","img/green_2bandit_a.png","70","70","test","","","","9","",""
"null","812920","pSARL_v2","pSARL_v2e0odpesq","63b6c0245a6de54b28e6ef89","fixation","img/fixation.png","null","","test","","","","","",""
"275.40000009536743","813200","pSARL_v2","pSARL_v2e0odpesq","63b6c0245a6de54b28e6ef89","freq","img/green_2bandit_a2.png","70","70","test","1","197","197","9","",""
"null","813753","pSARL_v2","pSARL_v2e0odpesq","63b6c0245a6de54b28e6ef89","freq_resp","img/green_2bandit_a.png","70","70","test","","","","9","",""
"null","813919","pSARL_v2","pSARL_v2e0odpesq","63b6c0245a6de54b28e6ef89","fixation","img/fixation.png","null","","test","","","","","",""
"264.10000014305115","814188","pSARL_v2","pSARL_v2e0odpesq","63b6c0245a6de54b28e6ef89","freq","img/green_2bandit_a2.png","70","70","test","1","198","198","9","",""
"null","814743","pSARL_v2","pSARL_v2e0odpesq","63b6c0245a6de54b28e6ef89","freq_resp","img/green_2bandit_a.png","70","70","test","","","","9","",""
"null","814898","pSARL_v2","pSARL_v2e0odpesq","63b6c0245a6de54b28e6ef89","fixation","img/fixation.png","null","","test","","","","","",""
"299","815202","pSARL_v2","pSARL_v2e0odpesq","63b6c0245a6de54b28e6ef89","freq","img/green_2bandit_a2.png","70","70","test","1","199","199","9","",""
"null","815714","pSARL_v2","pSARL_v2e0odpesq","63b6c0245a6de54b28e6ef89","freq_resp","img/green_2bandit_a.png","70","70","test","","","","9","",""
"null","815869","pSARL_v2","pSARL_v2e0odpesq","63b6c0245a6de54b28e6ef89","fixation","img/fixation.png","null","","test","","","","","",""
"373.5","816247","pSARL_v2","pSARL_v2e0odpesq","63b6c0245a6de54b28e6ef89","reward","img/slot.png","74","","test","","","","","",""
"null","817014","pSARL_v2","pSARL_v2e0odpesq","63b6c0245a6de54b28e6ef89","points","<div class=""verylowPoints""> -3 </div>","null","na","test","","","","9","-3","8"
"256.7999999523163","817275","pSARL_v2","pSARL_v2e0odpesq","63b6c0245a6de54b28e6ef89","freq","img/green_2bandit_a2.png","70","70","test","1","200","200","10","",""
"null","817826","pSARL_v2","pSARL_v2e0odpesq","63b6c0245a6de54b28e6ef89","freq_resp","img/green_2bandit_a.png","70","70","test","","","","10","",""
"null","817983","pSARL_v2","pSARL_v2e0odpesq","63b6c0245a6de54b28e6ef89","fixation","img/fixation.png","null","","test","","","","","",""
"320.39999985694885","818309","pSARL_v2","pSARL_v2e0odpesq","63b6c0245a6de54b28e6ef89","infreq","img/orange_2bandit_a2.png","70","68","test","0","201","201","10","",""
"null","818794","pSARL_v2","pSARL_v2e0odpesq","63b6c0245a6de54b28e6ef89","infreq_resp","img/orange_2bandit_a.png","70","68","test","","","","10","",""
"null","818951","pSARL_v2","pSARL_v2e0odpesq","63b6c0245a6de54b28e6ef89","fixation","img/fixation.png","null","","test","","","","","",""
"250.10000014305115","819206","pSARL_v2","pSARL_v2e0odpesq","63b6c0245a6de54b28e6ef89","infreq","img/orange_2bandit_a2.png","70","68","test","0","202","202","10","",""
"null","819768","pSARL_v2","pSARL_v2e0odpesq","63b6c0245a6de54b28e6ef89","infreq_resp","img/orange_2bandit_a.png","70","68","test","","","","10","",""
"null","819933","pSARL_v2","pSARL_v2e0odpesq","63b6c0245a6de54b28e6ef89","fixation","img/fixation.png","null","","test","","","","","",""
"368.2999999523163","820306","pSARL_v2","pSARL_v2e0odpesq","63b6c0245a6de54b28e6ef89","freq","img/green_2bandit_a2.png","70","70","test","1","203","203","10","",""
"null","820745","pSARL_v2","pSARL_v2e0odpesq","63b6c0245a6de54b28e6ef89","freq_resp","img/green_2bandit_a.png","70","70","test","","","","10","",""
"null","820908","pSARL_v2","pSARL_v2e0odpesq","63b6c0245a6de54b28e6ef89","fixation","img/fixation.png","null","","test","","","","","",""
"301.5","821215","pSARL_v2","pSARL_v2e0odpesq","63b6c0245a6de54b28e6ef89","freq","img/green_2bandit_a2.png","70","70","test","1","204","204","10","",""
"null","821718","pSARL_v2","pSARL_v2e0odpesq","63b6c0245a6de54b28e6ef89","freq_resp","img/green_2bandit_a.png","70","70","test","","","","10","",""
"null","821883","pSARL_v2","pSARL_v2e0odpesq","63b6c0245a6de54b28e6ef89","fixation","img/fixation.png","null","","test","","","","","",""
"212.30000019073486","822100","pSARL_v2","pSARL_v2e0odpesq","63b6c0245a6de54b28e6ef89","freq","img/green_2bandit_a2.png","70","70","test","1","205","205","10","",""
"null","822695","pSARL_v2","pSARL_v2e0odpesq","63b6c0245a6de54b28e6ef89","freq_resp","img/green_2bandit_a.png","70","70","test","","","","10","",""
"null","822866","pSARL_v2","pSARL_v2e0odpesq","63b6c0245a6de54b28e6ef89","fixation","img/fixation.png","null","","test","","","","","",""
"360.40000009536743","823230","pSARL_v2","pSARL_v2e0odpesq","63b6c0245a6de54b28e6ef89","freq","img/green_2bandit_a2.png","70","70","test","1","206","206","10","",""
"null","823675","pSARL_v2","pSARL_v2e0odpesq","63b6c0245a6de54b28e6ef89","freq_resp","img/green_2bandit_a.png","70","70","test","","","","10","",""
