"rt","time_elapsed","expId","subject","prolificID","trialType","stimulus","key_press","corrresp","phase","corr","trialNum","attentionRunNum","blockNum","points","rlNum"
"10868","10875","pSARL_v2","pSARL_v2cbbbh6g9","65065544a284167f156a829e","","","","","","","","","","",""
"","14262","pSARL_v2","pSARL_v2cbbbh6g9","65065544a284167f156a829e","fullscreen","","","","","","","","","",""
"76992","91254","pSARL_v2","pSARL_v2cbbbh6g9","65065544a284167f156a829e","","","","","","","","","","",""
"null","92058","pSARL_v2","pSARL_v2cbbbh6g9","65065544a284167f156a829e","freqPrac","img/orange_2bandit_b2.png","null","70","prac","0","","","","",""
"null","93068","pSARL_v2","pSARL_v2cbbbh6g9","65065544a284167f156a829e","feedback","img/tooSlow.png","null","na","prac","","","","","",""
"null","93228","pSARL_v2","pSARL_v2cbbbh6g9","65065544a284167f156a829e","fixation","img/fixation.png","null","","prac","","","","","",""
"697.0000000000146","93932","pSARL_v2","pSARL_v2cbbbh6g9","65065544a284167f156a829e","infreqPrac","img/green_2bandit_b2.png","68","68","prac","1","","","","",""
"697.0000000000146","94038","pSARL_v2","pSARL_v2cbbbh6g9","65065544a284167f156a829e","infreqPrac_resp","img/green_2bandit_b.png","68","68","prac","","","","","",""
"null","94197","pSARL_v2","pSARL_v2cbbbh6g9","65065544a284167f156a829e","fixation","img/fixation.png","null","","prac","","","","","",""
"428","94632","pSARL_v2","pSARL_v2cbbbh6g9","65065544a284167f156a829e","freqPrac","img/orange_2bandit_b2.png","70","70","prac","1","","","","",""
"428","95015","pSARL_v2","pSARL_v2cbbbh6g9","65065544a284167f156a829e","freqPrac_resp","img/orange_2bandit_b.png","70","70","prac","","","","","",""
"null","95177","pSARL_v2","pSARL_v2cbbbh6g9","65065544a284167f156a829e","fixation","img/fixation.png","null","","prac","","","","","",""
"402","95592","pSARL_v2","pSARL_v2cbbbh6g9","65065544a284167f156a829e","infreqPrac","img/green_2bandit_b2.png","68","68","prac","1","","","","",""
"402","95998","pSARL_v2","pSARL_v2cbbbh6g9","65065544a284167f156a829e","infreqPrac_resp","img/green_2bandit_b.png","68","68","prac","","","","","",""
"null","96157","pSARL_v2","pSARL_v2cbbbh6g9","65065544a284167f156a829e","fixation","img/fixation.png","null","","prac","","","","","",""
"405","96573","pSARL_v2","pSARL_v2cbbbh6g9","65065544a284167f156a829e","infreqPrac","img/green_2bandit_b2.png","68","68","prac","1","","","","",""
"405","96977","pSARL_v2","pSARL_v2cbbbh6g9","65065544a284167f156a829e","infreqPrac_resp","img/green_2bandit_b.png","68","68","prac","","","","","",""
"null","97135","pSARL_v2","pSARL_v2cbbbh6g9","65065544a284167f156a829e","fixation","img/fixation.png","null","","prac","","","","","",""
"397","97540","pSARL_v2","pSARL_v2cbbbh6g9","65065544a284167f156a829e","infreqPrac","img/green_2bandit_b2.png","68","68","prac","1","","","","",""
"397","97955","pSARL_v2","pSARL_v2cbbbh6g9","65065544a284167f156a829e","infreqPrac_resp","img/green_2bandit_b.png","68","68","prac","","","","","",""
"null","98114","pSARL_v2","pSARL_v2cbbbh6g9","65065544a284167f156a829e","fixation","img/fixation.png","null","","prac","","","","","",""
"330","98454","pSARL_v2","pSARL_v2cbbbh6g9","65065544a284167f156a829e","freqPrac","img/orange_2bandit_b2.png","70","70","prac","1","","","","",""
"330","98934","pSARL_v2","pSARL_v2cbbbh6g9","65065544a284167f156a829e","freqPrac_resp","img/orange_2bandit_b.png","70","70","prac","","","","","",""
"null","99093","pSARL_v2","pSARL_v2cbbbh6g9","65065544a284167f156a829e","fixation","img/fixation.png","null","","prac","","","","","",""
"588","99689","pSARL_v2","pSARL_v2cbbbh6g9","65065544a284167f156a829e","infreqPrac","img/green_2bandit_b2.png","68","68","prac","1","","","","",""
"588","99913","pSARL_v2","pSARL_v2cbbbh6g9","65065544a284167f156a829e","infreqPrac_resp","img/green_2bandit_b.png","68","68","prac","","","","","",""
"null","100075","pSARL_v2","pSARL_v2cbbbh6g9","65065544a284167f156a829e","fixation","img/fixation.png","null","","prac","","","","","",""
"358","100443","pSARL_v2","pSARL_v2cbbbh6g9","65065544a284167f156a829e","freqPrac","img/orange_2bandit_b2.png","70","70","prac","1","","","","",""
"358","100897","pSARL_v2","pSARL_v2cbbbh6g9","65065544a284167f156a829e","freqPrac_resp","img/orange_2bandit_b.png","70","70","prac","","","","","",""
"null","101059","pSARL_v2","pSARL_v2cbbbh6g9","65065544a284167f156a829e","fixation","img/fixation.png","null","","prac","","","","","",""
"341","101408","pSARL_v2","pSARL_v2cbbbh6g9","65065544a284167f156a829e","freqPrac","img/orange_2bandit_b2.png","70","70","prac","1","","","","",""
"341","101876","pSARL_v2","pSARL_v2cbbbh6g9","65065544a284167f156a829e","freqPrac_resp","img/orange_2bandit_b.png","70","70","prac","","","","","",""
"null","102034","pSARL_v2","pSARL_v2cbbbh6g9","65065544a284167f156a829e","fixation","img/fixation.png","null","","prac","","","","","",""
"21955","123997","pSARL_v2","pSARL_v2cbbbh6g9","65065544a284167f156a829e","","","","","prac","","","","","",""
"779","124784","pSARL_v2","pSARL_v2cbbbh6g9","65065544a284167f156a829e","rewardPractice","img/slot.png","74","","prac","","","","","",""
"null","125546","pSARL_v2","pSARL_v2cbbbh6g9","65065544a284167f156a829e","feedback","<div class=""veryhighPoints""> +15 </div>","null","na","prac","","","","","",""
"null","125708","pSARL_v2","pSARL_v2cbbbh6g9","65065544a284167f156a829e","fixation","img/fixation.png","null","","prac","","","","","",""
"13083","138800","pSARL_v2","pSARL_v2cbbbh6g9","65065544a284167f156a829e","","","","","prac","","","","","",""
"562","139371","pSARL_v2","pSARL_v2cbbbh6g9","65065544a284167f156a829e","freq","img/orange_2bandit_b2.png","70","70","test","1","1","1","1","",""
"null","139620","pSARL_v2","pSARL_v2cbbbh6g9","65065544a284167f156a829e","freq_resp","img/orange_2bandit_b.png","70","70","test","","","","1","",""
"null","139781","pSARL_v2","pSARL_v2cbbbh6g9","65065544a284167f156a829e","fixation","img/fixation.png","null","","test","","","","","",""
"389","140179","pSARL_v2","pSARL_v2cbbbh6g9","65065544a284167f156a829e","infreq","img/green_2bandit_b2.png","68","68","test","1","2","2","1","",""
"null","140603","pSARL_v2","pSARL_v2cbbbh6g9","65065544a284167f156a829e","infreq_resp","img/green_2bandit_b.png","68","68","test","","","","1","",""
"null","140764","pSARL_v2","pSARL_v2cbbbh6g9","65065544a284167f156a829e","fixation","img/fixation.png","null","","test","","","","","",""
"346.9999999999709","141119","pSARL_v2","pSARL_v2cbbbh6g9","65065544a284167f156a829e","freq","img/orange_2bandit_b2.png","70","70","test","1","3","3","1","",""
"null","141581","pSARL_v2","pSARL_v2cbbbh6g9","65065544a284167f156a829e","freq_resp","img/orange_2bandit_b.png","70","70","test","","","","1","",""
"null","141744","pSARL_v2","pSARL_v2cbbbh6g9","65065544a284167f156a829e","fixation","img/fixation.png","null","","test","","","","","",""
"300","142054","pSARL_v2","pSARL_v2cbbbh6g9","65065544a284167f156a829e","freq","img/orange_2bandit_b2.png","70","70","test","1","4","4","1","",""
"null","142565","pSARL_v2","pSARL_v2cbbbh6g9","65065544a284167f156a829e","freq_resp","img/orange_2bandit_b.png","70","70","test","","","","1","",""
"null","142727","pSARL_v2","pSARL_v2cbbbh6g9","65065544a284167f156a829e","fixation","img/fixation.png","null","","test","","","","","",""
"296","143032","pSARL_v2","pSARL_v2cbbbh6g9","65065544a284167f156a829e","freq","img/orange_2bandit_b2.png","70","70","test","1","5","5","1","",""
"null","143547","pSARL_v2","pSARL_v2cbbbh6g9","65065544a284167f156a829e","freq_resp","img/orange_2bandit_b.png","70","70","test","","","","1","",""
"null","143709","pSARL_v2","pSARL_v2cbbbh6g9","65065544a284167f156a829e","fixation","img/fixation.png","null","","test","","","","","",""
"271","143988","pSARL_v2","pSARL_v2cbbbh6g9","65065544a284167f156a829e","freq","img/orange_2bandit_b2.png","70","70","test","1","6","6","1","",""
"null","144527","pSARL_v2","pSARL_v2cbbbh6g9","65065544a284167f156a829e","freq_resp","img/orange_2bandit_b.png","70","70","test","","","","1","",""
"null","144690","pSARL_v2","pSARL_v2cbbbh6g9","65065544a284167f156a829e","fixation","img/fixation.png","null","","test","","","","","",""
"261","144959","pSARL_v2","pSARL_v2cbbbh6g9","65065544a284167f156a829e","freq","img/orange_2bandit_b2.png","70","70","test","1","7","7","1","",""
"null","145511","pSARL_v2","pSARL_v2cbbbh6g9","65065544a284167f156a829e","freq_resp","img/orange_2bandit_b.png","70","70","test","","","","1","",""
"null","145673","pSARL_v2","pSARL_v2cbbbh6g9","65065544a284167f156a829e","fixation","img/fixation.png","null","","test","","","","","",""
"285","145967","pSARL_v2","pSARL_v2cbbbh6g9","65065544a284167f156a829e","freq","img/orange_2bandit_b2.png","70","70","test","1","8","8","1","",""
"null","146493","pSARL_v2","pSARL_v2cbbbh6g9","65065544a284167f156a829e","freq_resp","img/orange_2bandit_b.png","70","70","test","","","","1","",""
"null","146655","pSARL_v2","pSARL_v2cbbbh6g9","65065544a284167f156a829e","fixation","img/fixation.png","null","","test","","","","","",""
"305","146970","pSARL_v2","pSARL_v2cbbbh6g9","65065544a284167f156a829e","freq","img/orange_2bandit_b2.png","70","70","test","1","9","9","1","",""
"null","147475","pSARL_v2","pSARL_v2cbbbh6g9","65065544a284167f156a829e","freq_resp","img/orange_2bandit_b.png","70","70","test","","","","1","",""
"null","147633","pSARL_v2","pSARL_v2cbbbh6g9","65065544a284167f156a829e","fixation","img/fixation.png","null","","test","","","","","",""
"240.9999999999709","147881","pSARL_v2","pSARL_v2cbbbh6g9","65065544a284167f156a829e","freq","img/orange_2bandit_b2.png","70","70","test","1","10","10","1","",""
"null","148449","pSARL_v2","pSARL_v2cbbbh6g9","65065544a284167f156a829e","freq_resp","img/orange_2bandit_b.png","70","70","test","","","","1","",""
"null","148608","pSARL_v2","pSARL_v2cbbbh6g9","65065544a284167f156a829e","fixation","img/fixation.png","null","","test","","","","","",""
"309","148924","pSARL_v2","pSARL_v2cbbbh6g9","65065544a284167f156a829e","infreq","img/green_2bandit_b2.png","70","68","test","0","11","11","1","",""
"null","149426","pSARL_v2","pSARL_v2cbbbh6g9","65065544a284167f156a829e","infreq_resp","img/green_2bandit_b.png","70","68","test","","","","1","",""
"null","149589","pSARL_v2","pSARL_v2cbbbh6g9","65065544a284167f156a829e","fixation","img/fixation.png","null","","test","","","","","",""
"316","149910","pSARL_v2","pSARL_v2cbbbh6g9","65065544a284167f156a829e","freq","img/orange_2bandit_b2.png","70","70","test","1","12","12","1","",""
"null","150407","pSARL_v2","pSARL_v2cbbbh6g9","65065544a284167f156a829e","freq_resp","img/orange_2bandit_b.png","70","70","test","","","","1","",""
"null","150566","pSARL_v2","pSARL_v2cbbbh6g9","65065544a284167f156a829e","fixation","img/fixation.png","null","","test","","","","","",""
"292","150865","pSARL_v2","pSARL_v2cbbbh6g9","65065544a284167f156a829e","freq","img/orange_2bandit_b2.png","70","70","test","1","13","13","1","",""
"null","151382","pSARL_v2","pSARL_v2cbbbh6g9","65065544a284167f156a829e","freq_resp","img/orange_2bandit_b.png","70","70","test","","","","1","",""
"null","151542","pSARL_v2","pSARL_v2cbbbh6g9","65065544a284167f156a829e","fixation","img/fixation.png","null","","test","","","","","",""
"288","151837","pSARL_v2","pSARL_v2cbbbh6g9","65065544a284167f156a829e","freq","img/orange_2bandit_b2.png","70","70","test","1","14","14","1","",""
"null","152356","pSARL_v2","pSARL_v2cbbbh6g9","65065544a284167f156a829e","freq_resp","img/orange_2bandit_b.png","70","70","test","","","","1","",""
"null","152518","pSARL_v2","pSARL_v2cbbbh6g9","65065544a284167f156a829e","fixation","img/fixation.png","null","","test","","","","","",""
"376","152902","pSARL_v2","pSARL_v2cbbbh6g9","65065544a284167f156a829e","freq","img/orange_2bandit_b2.png","70","70","test","1","15","15","1","",""
"null","153334","pSARL_v2","pSARL_v2cbbbh6g9","65065544a284167f156a829e","freq_resp","img/orange_2bandit_b.png","70","70","test","","","","1","",""
"null","153495","pSARL_v2","pSARL_v2cbbbh6g9","65065544a284167f156a829e","fixation","img/fixation.png","null","","test","","","","","",""
"302","153804","pSARL_v2","pSARL_v2cbbbh6g9","65065544a284167f156a829e","freq","img/orange_2bandit_b2.png","70","70","test","1","16","16","1","",""
"null","154313","pSARL_v2","pSARL_v2cbbbh6g9","65065544a284167f156a829e","freq_resp","img/orange_2bandit_b.png","70","70","test","","","","1","",""
"null","154475","pSARL_v2","pSARL_v2cbbbh6g9","65065544a284167f156a829e","fixation","img/fixation.png","null","","test","","","","","",""
"257","154740","pSARL_v2","pSARL_v2cbbbh6g9","65065544a284167f156a829e","freq","img/orange_2bandit_b2.png","70","70","test","1","17","17","1","",""
"null","155293","pSARL_v2","pSARL_v2cbbbh6g9","65065544a284167f156a829e","freq_resp","img/orange_2bandit_b.png","70","70","test","","","","1","",""
"null","155452","pSARL_v2","pSARL_v2cbbbh6g9","65065544a284167f156a829e","fixation","img/fixation.png","null","","test","","","","","",""
"280","155740","pSARL_v2","pSARL_v2cbbbh6g9","65065544a284167f156a829e","freq","img/orange_2bandit_b2.png","70","70","test","1","18","18","1","",""
"null","156270","pSARL_v2","pSARL_v2cbbbh6g9","65065544a284167f156a829e","freq_resp","img/orange_2bandit_b.png","70","70","test","","","","1","",""
"null","156431","pSARL_v2","pSARL_v2cbbbh6g9","65065544a284167f156a829e","fixation","img/fixation.png","null","","test","","","","","",""
"276","156719","pSARL_v2","pSARL_v2cbbbh6g9","65065544a284167f156a829e","freq","img/orange_2bandit_b2.png","70","70","test","1","19","19","1","",""
"null","157252","pSARL_v2","pSARL_v2cbbbh6g9","65065544a284167f156a829e","freq_resp","img/orange_2bandit_b.png","70","70","test","","","","1","",""
"null","157410","pSARL_v2","pSARL_v2cbbbh6g9","65065544a284167f156a829e","fixation","img/fixation.png","null","","test","","","","","",""
"264.0000000000291","157683","pSARL_v2","pSARL_v2cbbbh6g9","65065544a284167f156a829e","freq","img/orange_2bandit_b2.png","70","70","test","1","20","20","1","",""
"null","158233","pSARL_v2","pSARL_v2cbbbh6g9","65065544a284167f156a829e","freq_resp","img/orange_2bandit_b.png","70","70","test","","","","1","",""
"null","158396","pSARL_v2","pSARL_v2cbbbh6g9","65065544a284167f156a829e","fixation","img/fixation.png","null","","test","","","","","",""
"290","158692","pSARL_v2","pSARL_v2cbbbh6g9","65065544a284167f156a829e","freq","img/orange_2bandit_b2.png","70","70","test","1","21","21","1","",""
"null","159212","pSARL_v2","pSARL_v2cbbbh6g9","65065544a284167f156a829e","freq_resp","img/orange_2bandit_b.png","70","70","test","","","","1","",""
"null","159373","pSARL_v2","pSARL_v2cbbbh6g9","65065544a284167f156a829e","fixation","img/fixation.png","null","","test","","","","","",""
"264","159645","pSARL_v2","pSARL_v2cbbbh6g9","65065544a284167f156a829e","freq","img/orange_2bandit_b2.png","70","70","test","1","22","22","1","",""
"null","160193","pSARL_v2","pSARL_v2cbbbh6g9","65065544a284167f156a829e","freq_resp","img/orange_2bandit_b.png","70","70","test","","","","1","",""
"null","160351","pSARL_v2","pSARL_v2cbbbh6g9","65065544a284167f156a829e","fixation","img/fixation.png","null","","test","","","","","",""
"224","160587","pSARL_v2","pSARL_v2cbbbh6g9","65065544a284167f156a829e","freq","img/orange_2bandit_b2.png","70","70","test","1","23","23","1","",""
"null","161172","pSARL_v2","pSARL_v2cbbbh6g9","65065544a284167f156a829e","freq_resp","img/orange_2bandit_b.png","70","70","test","","","","1","",""
"null","161332","pSARL_v2","pSARL_v2cbbbh6g9","65065544a284167f156a829e","fixation","img/fixation.png","null","","test","","","","","",""
"262","161602","pSARL_v2","pSARL_v2cbbbh6g9","65065544a284167f156a829e","freq","img/orange_2bandit_b2.png","70","70","test","1","24","24","1","",""
"null","162149","pSARL_v2","pSARL_v2cbbbh6g9","65065544a284167f156a829e","freq_resp","img/orange_2bandit_b.png","70","70","test","","","","1","",""
"null","162308","pSARL_v2","pSARL_v2cbbbh6g9","65065544a284167f156a829e","fixation","img/fixation.png","null","","test","","","","","",""
"271","162588","pSARL_v2","pSARL_v2cbbbh6g9","65065544a284167f156a829e","freq","img/orange_2bandit_b2.png","70","70","test","1","25","25","1","",""
"null","163128","pSARL_v2","pSARL_v2cbbbh6g9","65065544a284167f156a829e","freq_resp","img/orange_2bandit_b.png","70","70","test","","","","1","",""
"null","163287","pSARL_v2","pSARL_v2cbbbh6g9","65065544a284167f156a829e","fixation","img/fixation.png","null","","test","","","","","",""
"248","163542","pSARL_v2","pSARL_v2cbbbh6g9","65065544a284167f156a829e","freq","img/orange_2bandit_b2.png","70","70","test","1","26","26","1","",""
"null","164102","pSARL_v2","pSARL_v2cbbbh6g9","65065544a284167f156a829e","freq_resp","img/orange_2bandit_b.png","70","70","test","","","","1","",""
"null","164262","pSARL_v2","pSARL_v2cbbbh6g9","65065544a284167f156a829e","fixation","img/fixation.png","null","","test","","","","","",""
"541","164810","pSARL_v2","pSARL_v2cbbbh6g9","65065544a284167f156a829e","reward","img/slot.png","74","","test","","","","","",""
"null","165572","pSARL_v2","pSARL_v2cbbbh6g9","65065544a284167f156a829e","points","<div class=""verylowPoints""> -6 </div>","null","na","test","","","","1","-6","0"
"405","165989","pSARL_v2","pSARL_v2cbbbh6g9","65065544a284167f156a829e","freq","img/orange_2bandit_b2.png","70","70","test","1","27","27","2","",""
"null","166397","pSARL_v2","pSARL_v2cbbbh6g9","65065544a284167f156a829e","freq_resp","img/orange_2bandit_b.png","70","70","test","","","","2","",""
"null","166556","pSARL_v2","pSARL_v2cbbbh6g9","65065544a284167f156a829e","fixation","img/fixation.png","null","","test","","","","","",""
"259.9999999999709","166823","pSARL_v2","pSARL_v2cbbbh6g9","65065544a284167f156a829e","freq","img/orange_2bandit_b2.png","70","70","test","1","28","28","2","",""
"null","167372","pSARL_v2","pSARL_v2cbbbh6g9","65065544a284167f156a829e","freq_resp","img/orange_2bandit_b.png","70","70","test","","","","2","",""
"null","167534","pSARL_v2","pSARL_v2cbbbh6g9","65065544a284167f156a829e","fixation","img/fixation.png","null","","test","","","","","",""
"466","168010","pSARL_v2","pSARL_v2cbbbh6g9","65065544a284167f156a829e","infreq","img/green_2bandit_b2.png","68","68","test","1","29","29","2","",""
"null","168353","pSARL_v2","pSARL_v2cbbbh6g9","65065544a284167f156a829e","infreq_resp","img/green_2bandit_b.png","68","68","test","","","","2","",""
"null","168514","pSARL_v2","pSARL_v2cbbbh6g9","65065544a284167f156a829e","fixation","img/fixation.png","null","","test","","","","","",""
"315.9999999999709","168836","pSARL_v2","pSARL_v2cbbbh6g9","65065544a284167f156a829e","freq","img/orange_2bandit_b2.png","70","70","test","1","30","30","2","",""
"null","169329","pSARL_v2","pSARL_v2cbbbh6g9","65065544a284167f156a829e","freq_resp","img/orange_2bandit_b.png","70","70","test","","","","2","",""
"null","169492","pSARL_v2","pSARL_v2cbbbh6g9","65065544a284167f156a829e","fixation","img/fixation.png","null","","test","","","","","",""
"241","169740","pSARL_v2","pSARL_v2cbbbh6g9","65065544a284167f156a829e","freq","img/orange_2bandit_b2.png","70","70","test","1","31","31","2","",""
"null","170311","pSARL_v2","pSARL_v2cbbbh6g9","65065544a284167f156a829e","freq_resp","img/orange_2bandit_b.png","70","70","test","","","","2","",""
"null","170470","pSARL_v2","pSARL_v2cbbbh6g9","65065544a284167f156a829e","fixation","img/fixation.png","null","","test","","","","","",""
"354","170829","pSARL_v2","pSARL_v2cbbbh6g9","65065544a284167f156a829e","freq","img/orange_2bandit_b2.png","70","70","test","1","32","32","2","",""
"null","171283","pSARL_v2","pSARL_v2cbbbh6g9","65065544a284167f156a829e","freq_resp","img/orange_2bandit_b.png","70","70","test","","","","2","",""
"null","171443","pSARL_v2","pSARL_v2cbbbh6g9","65065544a284167f156a829e","fixation","img/fixation.png","null","","test","","","","","",""
"265","171715","pSARL_v2","pSARL_v2cbbbh6g9","65065544a284167f156a829e","freq","img/orange_2bandit_b2.png","70","70","test","1","33","33","2","",""
"null","172262","pSARL_v2","pSARL_v2cbbbh6g9","65065544a284167f156a829e","freq_resp","img/orange_2bandit_b.png","70","70","test","","","","2","",""
"null","172424","pSARL_v2","pSARL_v2cbbbh6g9","65065544a284167f156a829e","fixation","img/fixation.png","null","","test","","","","","",""
"274","172704","pSARL_v2","pSARL_v2cbbbh6g9","65065544a284167f156a829e","freq","img/orange_2bandit_b2.png","70","70","test","1","34","34","2","",""
"null","173243","pSARL_v2","pSARL_v2cbbbh6g9","65065544a284167f156a829e","freq_resp","img/orange_2bandit_b.png","70","70","test","","","","2","",""
"null","173405","pSARL_v2","pSARL_v2cbbbh6g9","65065544a284167f156a829e","fixation","img/fixation.png","null","","test","","","","","",""
"247","173658","pSARL_v2","pSARL_v2cbbbh6g9","65065544a284167f156a829e","freq","img/orange_2bandit_b2.png","70","70","test","1","35","35","2","",""
"null","174223","pSARL_v2","pSARL_v2cbbbh6g9","65065544a284167f156a829e","freq_resp","img/orange_2bandit_b.png","70","70","test","","","","2","",""
"null","174386","pSARL_v2","pSARL_v2cbbbh6g9","65065544a284167f156a829e","fixation","img/fixation.png","null","","test","","","","","",""
"253.0000000000291","174647","pSARL_v2","pSARL_v2cbbbh6g9","65065544a284167f156a829e","freq","img/orange_2bandit_b2.png","70","70","test","1","36","36","2","",""
"null","175201","pSARL_v2","pSARL_v2cbbbh6g9","65065544a284167f156a829e","freq_resp","img/orange_2bandit_b.png","70","70","test","","","","2","",""
"null","175362","pSARL_v2","pSARL_v2cbbbh6g9","65065544a284167f156a829e","fixation","img/fixation.png","null","","test","","","","","",""
"136","175509","pSARL_v2","pSARL_v2cbbbh6g9","65065544a284167f156a829e","freq","img/orange_2bandit_b2.png","70","70","test","1","37","37","2","",""
"null","176183","pSARL_v2","pSARL_v2cbbbh6g9","65065544a284167f156a829e","freq_resp","img/orange_2bandit_b.png","70","70","test","","","","2","",""
"null","176344","pSARL_v2","pSARL_v2cbbbh6g9","65065544a284167f156a829e","fixation","img/fixation.png","null","","test","","","","","",""
"224","176576","pSARL_v2","pSARL_v2cbbbh6g9","65065544a284167f156a829e","freq","img/orange_2bandit_b2.png","70","70","test","1","38","38","2","",""
"null","177161","pSARL_v2","pSARL_v2cbbbh6g9","65065544a284167f156a829e","freq_resp","img/orange_2bandit_b.png","70","70","test","","","","2","",""
"null","177319","pSARL_v2","pSARL_v2cbbbh6g9","65065544a284167f156a829e","fixation","img/fixation.png","null","","test","","","","","",""
"203","177530","pSARL_v2","pSARL_v2cbbbh6g9","65065544a284167f156a829e","infreq","img/green_2bandit_b2.png","70","68","test","0","39","39","2","",""
"null","178139","pSARL_v2","pSARL_v2cbbbh6g9","65065544a284167f156a829e","infreq_resp","img/green_2bandit_b.png","70","68","test","","","","2","",""
"null","178298","pSARL_v2","pSARL_v2cbbbh6g9","65065544a284167f156a829e","fixation","img/fixation.png","null","","test","","","","","",""
"284","178590","pSARL_v2","pSARL_v2cbbbh6g9","65065544a284167f156a829e","freq","img/orange_2bandit_b2.png","70","70","test","1","40","40","2","",""
"null","179115","pSARL_v2","pSARL_v2cbbbh6g9","65065544a284167f156a829e","freq_resp","img/orange_2bandit_b.png","70","70","test","","","","2","",""
"null","179274","pSARL_v2","pSARL_v2cbbbh6g9","65065544a284167f156a829e","fixation","img/fixation.png","null","","test","","","","","",""
"268","179548","pSARL_v2","pSARL_v2cbbbh6g9","65065544a284167f156a829e","freq","img/orange_2bandit_b2.png","70","70","test","1","41","41","2","",""
"null","180089","pSARL_v2","pSARL_v2cbbbh6g9","65065544a284167f156a829e","freq_resp","img/orange_2bandit_b.png","70","70","test","","","","2","",""
"null","180247","pSARL_v2","pSARL_v2cbbbh6g9","65065544a284167f156a829e","fixation","img/fixation.png","null","","test","","","","","",""
"298","180552","pSARL_v2","pSARL_v2cbbbh6g9","65065544a284167f156a829e","freq","img/orange_2bandit_b2.png","70","70","test","1","42","42","2","",""
"null","181064","pSARL_v2","pSARL_v2cbbbh6g9","65065544a284167f156a829e","freq_resp","img/orange_2bandit_b.png","70","70","test","","","","2","",""
"null","181224","pSARL_v2","pSARL_v2cbbbh6g9","65065544a284167f156a829e","fixation","img/fixation.png","null","","test","","","","","",""
"268","181500","pSARL_v2","pSARL_v2cbbbh6g9","65065544a284167f156a829e","freq","img/orange_2bandit_b2.png","70","70","test","1","43","43","2","",""
"null","182045","pSARL_v2","pSARL_v2cbbbh6g9","65065544a284167f156a829e","freq_resp","img/orange_2bandit_b.png","70","70","test","","","","2","",""
"null","182205","pSARL_v2","pSARL_v2cbbbh6g9","65065544a284167f156a829e","fixation","img/fixation.png","null","","test","","","","","",""
"281","182493","pSARL_v2","pSARL_v2cbbbh6g9","65065544a284167f156a829e","freq","img/orange_2bandit_b2.png","70","70","test","1","44","44","2","",""
"null","183023","pSARL_v2","pSARL_v2cbbbh6g9","65065544a284167f156a829e","freq_resp","img/orange_2bandit_b.png","70","70","test","","","","2","",""
"null","183181","pSARL_v2","pSARL_v2cbbbh6g9","65065544a284167f156a829e","fixation","img/fixation.png","null","","test","","","","","",""
"298","183487","pSARL_v2","pSARL_v2cbbbh6g9","65065544a284167f156a829e","freq","img/orange_2bandit_b2.png","70","70","test","1","45","45","2","",""
"null","184004","pSARL_v2","pSARL_v2cbbbh6g9","65065544a284167f156a829e","freq_resp","img/orange_2bandit_b.png","70","70","test","","","","2","",""
"null","184163","pSARL_v2","pSARL_v2cbbbh6g9","65065544a284167f156a829e","fixation","img/fixation.png","null","","test","","","","","",""
"458","184630","pSARL_v2","pSARL_v2cbbbh6g9","65065544a284167f156a829e","reward","img/slot.png","74","","test","","","","","",""
"null","185389","pSARL_v2","pSARL_v2cbbbh6g9","65065544a284167f156a829e","points","<div class=""verylowPoints""> -11 </div>","null","na","test","","","","2","-11","1"
"511.0000000000291","185911","pSARL_v2","pSARL_v2cbbbh6g9","65065544a284167f156a829e","freq","img/orange_2bandit_b2.png","70","70","test","1","46","46","3","",""
"null","186207","pSARL_v2","pSARL_v2cbbbh6g9","65065544a284167f156a829e","freq_resp","img/orange_2bandit_b.png","70","70","test","","","","3","",""
"null","186369","pSARL_v2","pSARL_v2cbbbh6g9","65065544a284167f156a829e","fixation","img/fixation.png","null","","test","","","","","",""
"365","186741","pSARL_v2","pSARL_v2cbbbh6g9","65065544a284167f156a829e","freq","img/orange_2bandit_b2.png","70","70","test","1","47","47","3","",""
"null","187185","pSARL_v2","pSARL_v2cbbbh6g9","65065544a284167f156a829e","freq_resp","img/orange_2bandit_b.png","70","70","test","","","","3","",""
"null","187344","pSARL_v2","pSARL_v2cbbbh6g9","65065544a284167f156a829e","fixation","img/fixation.png","null","","test","","","","","",""
"291","187641","pSARL_v2","pSARL_v2cbbbh6g9","65065544a284167f156a829e","freq","img/orange_2bandit_b2.png","70","70","test","1","48","48","3","",""
"null","188162","pSARL_v2","pSARL_v2cbbbh6g9","65065544a284167f156a829e","freq_resp","img/orange_2bandit_b.png","70","70","test","","","","3","",""
"null","188323","pSARL_v2","pSARL_v2cbbbh6g9","65065544a284167f156a829e","fixation","img/fixation.png","null","","test","","","","","",""
"264.9999999999709","188595","pSARL_v2","pSARL_v2cbbbh6g9","65065544a284167f156a829e","freq","img/orange_2bandit_b2.png","70","70","test","1","49","49","3","",""
"null","189145","pSARL_v2","pSARL_v2cbbbh6g9","65065544a284167f156a829e","freq_resp","img/orange_2bandit_b.png","70","70","test","","","","3","",""
"null","189308","pSARL_v2","pSARL_v2cbbbh6g9","65065544a284167f156a829e","fixation","img/fixation.png","null","","test","","","","","",""
"274","189590","pSARL_v2","pSARL_v2cbbbh6g9","65065544a284167f156a829e","freq","img/orange_2bandit_b2.png","70","70","test","1","50","50","3","",""
"null","190128","pSARL_v2","pSARL_v2cbbbh6g9","65065544a284167f156a829e","freq_resp","img/orange_2bandit_b.png","70","70","test","","","","3","",""
"null","190290","pSARL_v2","pSARL_v2cbbbh6g9","65065544a284167f156a829e","fixation","img/fixation.png","null","","test","","","","","",""
"250","190546","pSARL_v2","pSARL_v2cbbbh6g9","65065544a284167f156a829e","freq","img/orange_2bandit_b2.png","70","70","test","1","51","51","3","",""
"null","191106","pSARL_v2","pSARL_v2cbbbh6g9","65065544a284167f156a829e","freq_resp","img/orange_2bandit_b.png","70","70","test","","","","3","",""
"null","191264","pSARL_v2","pSARL_v2cbbbh6g9","65065544a284167f156a829e","fixation","img/fixation.png","null","","test","","","","","",""
"259","191533","pSARL_v2","pSARL_v2cbbbh6g9","65065544a284167f156a829e","freq","img/orange_2bandit_b2.png","70","70","test","1","52","52","3","",""
"null","192086","pSARL_v2","pSARL_v2cbbbh6g9","65065544a284167f156a829e","freq_resp","img/orange_2bandit_b.png","70","70","test","","","","3","",""
"null","192247","pSARL_v2","pSARL_v2cbbbh6g9","65065544a284167f156a829e","fixation","img/fixation.png","null","","test","","","","","",""
"268","192523","pSARL_v2","pSARL_v2cbbbh6g9","65065544a284167f156a829e","freq","img/orange_2bandit_b2.png","70","70","test","1","53","53","3","",""
"null","193065","pSARL_v2","pSARL_v2cbbbh6g9","65065544a284167f156a829e","freq_resp","img/orange_2bandit_b.png","70","70","test","","","","3","",""
"null","193224","pSARL_v2","pSARL_v2cbbbh6g9","65065544a284167f156a829e","fixation","img/fixation.png","null","","test","","","","","",""
"256","193488","pSARL_v2","pSARL_v2cbbbh6g9","65065544a284167f156a829e","freq","img/orange_2bandit_b2.png","70","70","test","1","54","54","3","",""
"null","194044","pSARL_v2","pSARL_v2cbbbh6g9","65065544a284167f156a829e","freq_resp","img/orange_2bandit_b.png","70","70","test","","","","3","",""
"null","194203","pSARL_v2","pSARL_v2cbbbh6g9","65065544a284167f156a829e","fixation","img/fixation.png","null","","test","","","","","",""
"263","194475","pSARL_v2","pSARL_v2cbbbh6g9","65065544a284167f156a829e","freq","img/orange_2bandit_b2.png","70","70","test","1","55","55","3","",""
"null","195020","pSARL_v2","pSARL_v2cbbbh6g9","65065544a284167f156a829e","freq_resp","img/orange_2bandit_b.png","70","70","test","","","","3","",""
"null","195180","pSARL_v2","pSARL_v2cbbbh6g9","65065544a284167f156a829e","fixation","img/fixation.png","null","","test","","","","","",""
"385","195573","pSARL_v2","pSARL_v2cbbbh6g9","65065544a284167f156a829e","infreq","img/green_2bandit_b2.png","68","68","test","1","56","56","3","",""
"null","195996","pSARL_v2","pSARL_v2cbbbh6g9","65065544a284167f156a829e","infreq_resp","img/green_2bandit_b.png","68","68","test","","","","3","",""
"null","196154","pSARL_v2","pSARL_v2cbbbh6g9","65065544a284167f156a829e","fixation","img/fixation.png","null","","test","","","","","",""
"297","196459","pSARL_v2","pSARL_v2cbbbh6g9","65065544a284167f156a829e","freq","img/orange_2bandit_b2.png","70","70","test","1","57","57","3","",""
"null","196973","pSARL_v2","pSARL_v2cbbbh6g9","65065544a284167f156a829e","freq_resp","img/orange_2bandit_b.png","70","70","test","","","","3","",""
"null","197134","pSARL_v2","pSARL_v2cbbbh6g9","65065544a284167f156a829e","fixation","img/fixation.png","null","","test","","","","","",""
"272.0000000000291","197413","pSARL_v2","pSARL_v2cbbbh6g9","65065544a284167f156a829e","freq","img/orange_2bandit_b2.png","70","70","test","1","58","58","3","",""
"null","197949","pSARL_v2","pSARL_v2cbbbh6g9","65065544a284167f156a829e","freq_resp","img/orange_2bandit_b.png","70","70","test","","","","3","",""
"null","198111","pSARL_v2","pSARL_v2cbbbh6g9","65065544a284167f156a829e","fixation","img/fixation.png","null","","test","","","","","",""
"284","198401","pSARL_v2","pSARL_v2cbbbh6g9","65065544a284167f156a829e","freq","img/orange_2bandit_b2.png","70","70","test","1","59","59","3","",""
"null","198927","pSARL_v2","pSARL_v2cbbbh6g9","65065544a284167f156a829e","freq_resp","img/orange_2bandit_b.png","70","70","test","","","","3","",""
"null","199085","pSARL_v2","pSARL_v2cbbbh6g9","65065544a284167f156a829e","fixation","img/fixation.png","null","","test","","","","","",""
"283","199375","pSARL_v2","pSARL_v2cbbbh6g9","65065544a284167f156a829e","freq","img/orange_2bandit_b2.png","70","70","test","1","60","60","3","",""
"null","199901","pSARL_v2","pSARL_v2cbbbh6g9","65065544a284167f156a829e","freq_resp","img/orange_2bandit_b.png","70","70","test","","","","3","",""
"null","200062","pSARL_v2","pSARL_v2cbbbh6g9","65065544a284167f156a829e","fixation","img/fixation.png","null","","test","","","","","",""
"324","200393","pSARL_v2","pSARL_v2cbbbh6g9","65065544a284167f156a829e","infreq","img/green_2bandit_b2.png","70","68","test","0","61","61","3","",""
"null","200881","pSARL_v2","pSARL_v2cbbbh6g9","65065544a284167f156a829e","infreq_resp","img/green_2bandit_b.png","70","68","test","","","","3","",""
"null","201043","pSARL_v2","pSARL_v2cbbbh6g9","65065544a284167f156a829e","fixation","img/fixation.png","null","","test","","","","","",""
"340.9999999999709","201391","pSARL_v2","pSARL_v2cbbbh6g9","65065544a284167f156a829e","freq","img/orange_2bandit_b2.png","70","70","test","1","62","62","3","",""
"null","201863","pSARL_v2","pSARL_v2cbbbh6g9","65065544a284167f156a829e","freq_resp","img/orange_2bandit_b.png","70","70","test","","","","3","",""
"null","202027","pSARL_v2","pSARL_v2cbbbh6g9","65065544a284167f156a829e","fixation","img/fixation.png","null","","test","","","","","",""
"328","202363","pSARL_v2","pSARL_v2cbbbh6g9","65065544a284167f156a829e","freq","img/orange_2bandit_b2.png","70","70","test","1","63","63","3","",""
"null","202845","pSARL_v2","pSARL_v2cbbbh6g9","65065544a284167f156a829e","freq_resp","img/orange_2bandit_b.png","70","70","test","","","","3","",""
"null","203007","pSARL_v2","pSARL_v2cbbbh6g9","65065544a284167f156a829e","fixation","img/fixation.png","null","","test","","","","","",""
"286","203302","pSARL_v2","pSARL_v2cbbbh6g9","65065544a284167f156a829e","freq","img/orange_2bandit_b2.png","70","70","test","1","64","64","3","",""
"null","203830","pSARL_v2","pSARL_v2cbbbh6g9","65065544a284167f156a829e","freq_resp","img/orange_2bandit_b.png","70","70","test","","","","3","",""
"null","203993","pSARL_v2","pSARL_v2cbbbh6g9","65065544a284167f156a829e","fixation","img/fixation.png","null","","test","","","","","",""
"304","204311","pSARL_v2","pSARL_v2cbbbh6g9","65065544a284167f156a829e","freq","img/orange_2bandit_b2.png","70","70","test","1","65","65","3","",""
"null","204815","pSARL_v2","pSARL_v2cbbbh6g9","65065544a284167f156a829e","freq_resp","img/orange_2bandit_b.png","70","70","test","","","","3","",""
"null","204975","pSARL_v2","pSARL_v2cbbbh6g9","65065544a284167f156a829e","fixation","img/fixation.png","null","","test","","","","","",""
"309","205291","pSARL_v2","pSARL_v2cbbbh6g9","65065544a284167f156a829e","freq","img/orange_2bandit_b2.png","70","70","test","1","66","66","3","",""
"null","205791","pSARL_v2","pSARL_v2cbbbh6g9","65065544a284167f156a829e","freq_resp","img/orange_2bandit_b.png","70","70","test","","","","3","",""
"null","205951","pSARL_v2","pSARL_v2cbbbh6g9","65065544a284167f156a829e","fixation","img/fixation.png","null","","test","","","","","",""
"296","206255","pSARL_v2","pSARL_v2cbbbh6g9","65065544a284167f156a829e","freq","img/orange_2bandit_b2.png","70","70","test","1","67","67","3","",""
"null","206768","pSARL_v2","pSARL_v2cbbbh6g9","65065544a284167f156a829e","freq_resp","img/orange_2bandit_b.png","70","70","test","","","","3","",""
"null","206929","pSARL_v2","pSARL_v2cbbbh6g9","65065544a284167f156a829e","fixation","img/fixation.png","null","","test","","","","","",""
"274","207214","pSARL_v2","pSARL_v2cbbbh6g9","65065544a284167f156a829e","freq","img/orange_2bandit_b2.png","70","70","test","1","68","68","3","",""
"null","207753","pSARL_v2","pSARL_v2cbbbh6g9","65065544a284167f156a829e","freq_resp","img/orange_2bandit_b.png","70","70","test","","","","3","",""
"null","207915","pSARL_v2","pSARL_v2cbbbh6g9","65065544a284167f156a829e","fixation","img/fixation.png","null","","test","","","","","",""
"402","208326","pSARL_v2","pSARL_v2cbbbh6g9","65065544a284167f156a829e","infreq","img/green_2bandit_b2.png","68","68","test","1","69","69","3","",""
"null","208737","pSARL_v2","pSARL_v2cbbbh6g9","65065544a284167f156a829e","infreq_resp","img/green_2bandit_b.png","68","68","test","","","","3","",""
"null","208898","pSARL_v2","pSARL_v2cbbbh6g9","65065544a284167f156a829e","fixation","img/fixation.png","null","","test","","","","","",""
"282","209189","pSARL_v2","pSARL_v2cbbbh6g9","65065544a284167f156a829e","freq","img/orange_2bandit_b2.png","70","70","test","1","70","70","3","",""
"null","209715","pSARL_v2","pSARL_v2cbbbh6g9","65065544a284167f156a829e","freq_resp","img/orange_2bandit_b.png","70","70","test","","","","3","",""
"null","209873","pSARL_v2","pSARL_v2cbbbh6g9","65065544a284167f156a829e","fixation","img/fixation.png","null","","test","","","","","",""
"382","210262","pSARL_v2","pSARL_v2cbbbh6g9","65065544a284167f156a829e","reward","img/slot.png","74","","test","","","","","",""
"null","211021","pSARL_v2","pSARL_v2cbbbh6g9","65065544a284167f156a829e","points","<div class=""verylowPoints""> -7 </div>","null","na","test","","","","3","-7","2"
"457","211486","pSARL_v2","pSARL_v2cbbbh6g9","65065544a284167f156a829e","freq","img/orange_2bandit_b2.png","70","70","test","1","71","71","4","",""
"null","211838","pSARL_v2","pSARL_v2cbbbh6g9","65065544a284167f156a829e","freq_resp","img/orange_2bandit_b.png","70","70","test","","","","4","",""
"null","211998","pSARL_v2","pSARL_v2cbbbh6g9","65065544a284167f156a829e","fixation","img/fixation.png","null","","test","","","","","",""
"273","212277","pSARL_v2","pSARL_v2cbbbh6g9","65065544a284167f156a829e","freq","img/orange_2bandit_b2.png","70","70","test","1","72","72","4","",""
"null","212813","pSARL_v2","pSARL_v2cbbbh6g9","65065544a284167f156a829e","freq_resp","img/orange_2bandit_b.png","70","70","test","","","","4","",""
"null","212973","pSARL_v2","pSARL_v2cbbbh6g9","65065544a284167f156a829e","fixation","img/fixation.png","null","","test","","","","","",""
"274","213253","pSARL_v2","pSARL_v2cbbbh6g9","65065544a284167f156a829e","freq","img/orange_2bandit_b2.png","70","70","test","1","73","73","4","",""
"null","213790","pSARL_v2","pSARL_v2cbbbh6g9","65065544a284167f156a829e","freq_resp","img/orange_2bandit_b.png","70","70","test","","","","4","",""
"null","213950","pSARL_v2","pSARL_v2cbbbh6g9","65065544a284167f156a829e","fixation","img/fixation.png","null","","test","","","","","",""
"289.0000000000291","214250","pSARL_v2","pSARL_v2cbbbh6g9","65065544a284167f156a829e","freq","img/orange_2bandit_b2.png","70","70","test","1","74","74","4","",""
"null","214775","pSARL_v2","pSARL_v2cbbbh6g9","65065544a284167f156a829e","freq_resp","img/orange_2bandit_b.png","70","70","test","","","","4","",""
"null","214935","pSARL_v2","pSARL_v2cbbbh6g9","65065544a284167f156a829e","fixation","img/fixation.png","null","","test","","","","","",""
"482.9999999999709","215425","pSARL_v2","pSARL_v2cbbbh6g9","65065544a284167f156a829e","freq","img/orange_2bandit_b2.png","70","70","test","1","75","75","4","",""
"null","215755","pSARL_v2","pSARL_v2cbbbh6g9","65065544a284167f156a829e","freq_resp","img/orange_2bandit_b.png","70","70","test","","","","4","",""
"null","215916","pSARL_v2","pSARL_v2cbbbh6g9","65065544a284167f156a829e","fixation","img/fixation.png","null","","test","","","","","",""
"279","216203","pSARL_v2","pSARL_v2cbbbh6g9","65065544a284167f156a829e","freq","img/orange_2bandit_b2.png","70","70","test","1","76","76","4","",""
"null","216736","pSARL_v2","pSARL_v2cbbbh6g9","65065544a284167f156a829e","freq_resp","img/orange_2bandit_b.png","70","70","test","","","","4","",""
"null","216895","pSARL_v2","pSARL_v2cbbbh6g9","65065544a284167f156a829e","fixation","img/fixation.png","null","","test","","","","","",""
"282","217185","pSARL_v2","pSARL_v2cbbbh6g9","65065544a284167f156a829e","freq","img/orange_2bandit_b2.png","70","70","test","1","77","77","4","",""
"null","217713","pSARL_v2","pSARL_v2cbbbh6g9","65065544a284167f156a829e","freq_resp","img/orange_2bandit_b.png","70","70","test","","","","4","",""
"null","217871","pSARL_v2","pSARL_v2cbbbh6g9","65065544a284167f156a829e","fixation","img/fixation.png","null","","test","","","","","",""
"199","218078","pSARL_v2","pSARL_v2cbbbh6g9","65065544a284167f156a829e","infreq","img/green_2bandit_b2.png","70","68","test","0","78","78","4","",""
"null","218690","pSARL_v2","pSARL_v2cbbbh6g9","65065544a284167f156a829e","infreq_resp","img/green_2bandit_b.png","70","68","test","","","","4","",""
"null","218849","pSARL_v2","pSARL_v2cbbbh6g9","65065544a284167f156a829e","fixation","img/fixation.png","null","","test","","","","","",""
"290","219146","pSARL_v2","pSARL_v2cbbbh6g9","65065544a284167f156a829e","freq","img/orange_2bandit_b2.png","70","70","test","1","79","79","4","",""
"null","219664","pSARL_v2","pSARL_v2cbbbh6g9","65065544a284167f156a829e","freq_resp","img/orange_2bandit_b.png","70","70","test","","","","4","",""
"null","219825","pSARL_v2","pSARL_v2cbbbh6g9","65065544a284167f156a829e","fixation","img/fixation.png","null","","test","","","","","",""
"170.0000000000291","220002","pSARL_v2","pSARL_v2cbbbh6g9","65065544a284167f156a829e","infreq","img/green_2bandit_b2.png","70","68","test","0","80","80","4","",""
"null","220640","pSARL_v2","pSARL_v2cbbbh6g9","65065544a284167f156a829e","infreq_resp","img/green_2bandit_b.png","70","68","test","","","","4","",""
"null","220799","pSARL_v2","pSARL_v2cbbbh6g9","65065544a284167f156a829e","fixation","img/fixation.png","null","","test","","","","","",""
"323.9999999999709","221129","pSARL_v2","pSARL_v2cbbbh6g9","65065544a284167f156a829e","freq","img/orange_2bandit_b2.png","70","70","test","1","81","81","4","",""
"null","221614","pSARL_v2","pSARL_v2cbbbh6g9","65065544a284167f156a829e","freq_resp","img/orange_2bandit_b.png","70","70","test","","","","4","",""
"null","221772","pSARL_v2","pSARL_v2cbbbh6g9","65065544a284167f156a829e","fixation","img/fixation.png","null","","test","","","","","",""
"273","222053","pSARL_v2","pSARL_v2cbbbh6g9","65065544a284167f156a829e","freq","img/orange_2bandit_b2.png","70","70","test","1","82","82","4","",""
"null","222595","pSARL_v2","pSARL_v2cbbbh6g9","65065544a284167f156a829e","freq_resp","img/orange_2bandit_b.png","70","70","test","","","","4","",""
"null","222756","pSARL_v2","pSARL_v2cbbbh6g9","65065544a284167f156a829e","fixation","img/fixation.png","null","","test","","","","","",""
"277.9999999999709","223043","pSARL_v2","pSARL_v2cbbbh6g9","65065544a284167f156a829e","freq","img/orange_2bandit_b2.png","70","70","test","1","83","83","4","",""
"null","223577","pSARL_v2","pSARL_v2cbbbh6g9","65065544a284167f156a829e","freq_resp","img/orange_2bandit_b.png","70","70","test","","","","4","",""
"null","223736","pSARL_v2","pSARL_v2cbbbh6g9","65065544a284167f156a829e","fixation","img/fixation.png","null","","test","","","","","",""
"286","224028","pSARL_v2","pSARL_v2cbbbh6g9","65065544a284167f156a829e","freq","img/orange_2bandit_b2.png","70","70","test","1","84","84","4","",""
"null","224557","pSARL_v2","pSARL_v2cbbbh6g9","65065544a284167f156a829e","freq_resp","img/orange_2bandit_b.png","70","70","test","","","","4","",""
"null","224717","pSARL_v2","pSARL_v2cbbbh6g9","65065544a284167f156a829e","fixation","img/fixation.png","null","","test","","","","","",""
"166","224890","pSARL_v2","pSARL_v2cbbbh6g9","65065544a284167f156a829e","freq","img/orange_2bandit_b2.png","70","70","test","1","85","85","4","",""
"null","225534","pSARL_v2","pSARL_v2cbbbh6g9","65065544a284167f156a829e","freq_resp","img/orange_2bandit_b.png","70","70","test","","","","4","",""
"null","225697","pSARL_v2","pSARL_v2cbbbh6g9","65065544a284167f156a829e","fixation","img/fixation.png","null","","test","","","","","",""
"289.9999999999709","225994","pSARL_v2","pSARL_v2cbbbh6g9","65065544a284167f156a829e","freq","img/orange_2bandit_b2.png","70","70","test","1","86","86","4","",""
"null","226513","pSARL_v2","pSARL_v2cbbbh6g9","65065544a284167f156a829e","freq_resp","img/orange_2bandit_b.png","70","70","test","","","","4","",""
"null","226675","pSARL_v2","pSARL_v2cbbbh6g9","65065544a284167f156a829e","fixation","img/fixation.png","null","","test","","","","","",""
"251","226935","pSARL_v2","pSARL_v2cbbbh6g9","65065544a284167f156a829e","freq","img/orange_2bandit_b2.png","70","70","test","1","87","87","4","",""
"null","227493","pSARL_v2","pSARL_v2cbbbh6g9","65065544a284167f156a829e","freq_resp","img/orange_2bandit_b.png","70","70","test","","","","4","",""
"null","227651","pSARL_v2","pSARL_v2cbbbh6g9","65065544a284167f156a829e","fixation","img/fixation.png","null","","test","","","","","",""
"283","227941","pSARL_v2","pSARL_v2cbbbh6g9","65065544a284167f156a829e","freq","img/orange_2bandit_b2.png","70","70","test","1","88","88","4","",""
"null","228469","pSARL_v2","pSARL_v2cbbbh6g9","65065544a284167f156a829e","freq_resp","img/orange_2bandit_b.png","70","70","test","","","","4","",""
"null","228628","pSARL_v2","pSARL_v2cbbbh6g9","65065544a284167f156a829e","fixation","img/fixation.png","null","","test","","","","","",""
"265.0000000000291","228900","pSARL_v2","pSARL_v2cbbbh6g9","65065544a284167f156a829e","freq","img/orange_2bandit_b2.png","70","70","test","1","89","89","4","",""
"null","229445","pSARL_v2","pSARL_v2cbbbh6g9","65065544a284167f156a829e","freq_resp","img/orange_2bandit_b.png","70","70","test","","","","4","",""
"null","229606","pSARL_v2","pSARL_v2cbbbh6g9","65065544a284167f156a829e","fixation","img/fixation.png","null","","test","","","","","",""
"467","230076","pSARL_v2","pSARL_v2cbbbh6g9","65065544a284167f156a829e","reward","img/slot.png","74","","test","","","","","",""
"null","230836","pSARL_v2","pSARL_v2cbbbh6g9","65065544a284167f156a829e","points","<div class=""verylowPoints""> -3 </div>","null","na","test","","","","4","-3","3"
"565","231413","pSARL_v2","pSARL_v2cbbbh6g9","65065544a284167f156a829e","freq","img/orange_2bandit_b2.png","70","70","test","1","90","90","5","",""
"null","231663","pSARL_v2","pSARL_v2cbbbh6g9","65065544a284167f156a829e","freq_resp","img/orange_2bandit_b.png","70","70","test","","","","5","",""
"null","231826","pSARL_v2","pSARL_v2cbbbh6g9","65065544a284167f156a829e","fixation","img/fixation.png","null","","test","","","","","",""
"409","232243","pSARL_v2","pSARL_v2cbbbh6g9","65065544a284167f156a829e","freq","img/orange_2bandit_b2.png","70","70","test","1","91","91","5","",""
"null","232648","pSARL_v2","pSARL_v2cbbbh6g9","65065544a284167f156a829e","freq_resp","img/orange_2bandit_b.png","70","70","test","","","","5","",""
"null","232808","pSARL_v2","pSARL_v2cbbbh6g9","65065544a284167f156a829e","fixation","img/fixation.png","null","","test","","","","","",""
"320","233135","pSARL_v2","pSARL_v2cbbbh6g9","65065544a284167f156a829e","freq","img/orange_2bandit_b2.png","70","70","test","1","92","92","5","",""
"null","233624","pSARL_v2","pSARL_v2cbbbh6g9","65065544a284167f156a829e","freq_resp","img/orange_2bandit_b.png","70","70","test","","","","5","",""
"null","233783","pSARL_v2","pSARL_v2cbbbh6g9","65065544a284167f156a829e","fixation","img/fixation.png","null","","test","","","","","",""
"473","234263","pSARL_v2","pSARL_v2cbbbh6g9","65065544a284167f156a829e","infreq","img/green_2bandit_b2.png","68","68","test","1","93","93","5","",""
"null","234599","pSARL_v2","pSARL_v2cbbbh6g9","65065544a284167f156a829e","infreq_resp","img/green_2bandit_b.png","68","68","test","","","","5","",""
"null","234756","pSARL_v2","pSARL_v2cbbbh6g9","65065544a284167f156a829e","fixation","img/fixation.png","null","","test","","","","","",""
"301","235065","pSARL_v2","pSARL_v2cbbbh6g9","65065544a284167f156a829e","freq","img/orange_2bandit_b2.png","70","70","test","1","94","94","5","",""
"null","235574","pSARL_v2","pSARL_v2cbbbh6g9","65065544a284167f156a829e","freq_resp","img/orange_2bandit_b.png","70","70","test","","","","5","",""
"null","235734","pSARL_v2","pSARL_v2cbbbh6g9","65065544a284167f156a829e","fixation","img/fixation.png","null","","test","","","","","",""
"304","236046","pSARL_v2","pSARL_v2cbbbh6g9","65065544a284167f156a829e","freq","img/orange_2bandit_b2.png","70","70","test","1","95","95","5","",""
"null","236550","pSARL_v2","pSARL_v2cbbbh6g9","65065544a284167f156a829e","freq_resp","img/orange_2bandit_b.png","70","70","test","","","","5","",""
"null","236709","pSARL_v2","pSARL_v2cbbbh6g9","65065544a284167f156a829e","fixation","img/fixation.png","null","","test","","","","","",""
"313.9999999999709","237033","pSARL_v2","pSARL_v2cbbbh6g9","65065544a284167f156a829e","freq","img/orange_2bandit_b2.png","70","70","test","1","96","96","5","",""
"null","237533","pSARL_v2","pSARL_v2cbbbh6g9","65065544a284167f156a829e","freq_resp","img/orange_2bandit_b.png","70","70","test","","","","5","",""
"null","237693","pSARL_v2","pSARL_v2cbbbh6g9","65065544a284167f156a829e","fixation","img/fixation.png","null","","test","","","","","",""
"290","237991","pSARL_v2","pSARL_v2cbbbh6g9","65065544a284167f156a829e","freq","img/orange_2bandit_b2.png","70","70","test","1","97","97","5","",""
"null","238512","pSARL_v2","pSARL_v2cbbbh6g9","65065544a284167f156a829e","freq_resp","img/orange_2bandit_b.png","70","70","test","","","","5","",""
"null","238671","pSARL_v2","pSARL_v2cbbbh6g9","65065544a284167f156a829e","fixation","img/fixation.png","null","","test","","","","","",""
"313","238991","pSARL_v2","pSARL_v2cbbbh6g9","65065544a284167f156a829e","freq","img/orange_2bandit_b2.png","70","70","test","1","98","98","5","",""
"null","239488","pSARL_v2","pSARL_v2cbbbh6g9","65065544a284167f156a829e","freq_resp","img/orange_2bandit_b.png","70","70","test","","","","5","",""
"null","239648","pSARL_v2","pSARL_v2cbbbh6g9","65065544a284167f156a829e","fixation","img/fixation.png","null","","test","","","","","",""
"258","239914","pSARL_v2","pSARL_v2cbbbh6g9","65065544a284167f156a829e","freq","img/orange_2bandit_b2.png","70","70","test","1","99","99","5","",""
"null","240464","pSARL_v2","pSARL_v2cbbbh6g9","65065544a284167f156a829e","freq_resp","img/orange_2bandit_b.png","70","70","test","","","","5","",""
"null","240623","pSARL_v2","pSARL_v2cbbbh6g9","65065544a284167f156a829e","fixation","img/fixation.png","null","","test","","","","","",""
"265","240896","pSARL_v2","pSARL_v2cbbbh6g9","65065544a284167f156a829e","freq","img/orange_2bandit_b2.png","70","70","test","1","100","100","5","",""
"null","241441","pSARL_v2","pSARL_v2cbbbh6g9","65065544a284167f156a829e","freq_resp","img/orange_2bandit_b.png","70","70","test","","","","5","",""
"null","241603","pSARL_v2","pSARL_v2cbbbh6g9","65065544a284167f156a829e","fixation","img/fixation.png","null","","test","","","","","",""
"227","241838","pSARL_v2","pSARL_v2cbbbh6g9","65065544a284167f156a829e","freq","img/orange_2bandit_b2.png","70","70","test","1","101","101","5","",""
"null","242424","pSARL_v2","pSARL_v2cbbbh6g9","65065544a284167f156a829e","freq_resp","img/orange_2bandit_b.png","70","70","test","","","","5","",""
"null","242584","pSARL_v2","pSARL_v2cbbbh6g9","65065544a284167f156a829e","fixation","img/fixation.png","null","","test","","","","","",""
"300.9999999999709","242893","pSARL_v2","pSARL_v2cbbbh6g9","65065544a284167f156a829e","freq","img/orange_2bandit_b2.png","70","70","test","1","102","102","5","",""
"null","243401","pSARL_v2","pSARL_v2cbbbh6g9","65065544a284167f156a829e","freq_resp","img/orange_2bandit_b.png","70","70","test","","","","5","",""
"null","243559","pSARL_v2","pSARL_v2cbbbh6g9","65065544a284167f156a829e","fixation","img/fixation.png","null","","test","","","","","",""
"306","243874","pSARL_v2","pSARL_v2cbbbh6g9","65065544a284167f156a829e","freq","img/orange_2bandit_b2.png","70","70","test","1","103","103","5","",""
"null","244379","pSARL_v2","pSARL_v2cbbbh6g9","65065544a284167f156a829e","freq_resp","img/orange_2bandit_b.png","70","70","test","","","","5","",""
"null","244541","pSARL_v2","pSARL_v2cbbbh6g9","65065544a284167f156a829e","fixation","img/fixation.png","null","","test","","","","","",""
"242","244791","pSARL_v2","pSARL_v2cbbbh6g9","65065544a284167f156a829e","freq","img/orange_2bandit_b2.png","70","70","test","1","104","104","5","",""
"null","245360","pSARL_v2","pSARL_v2cbbbh6g9","65065544a284167f156a829e","freq_resp","img/orange_2bandit_b.png","70","70","test","","","","5","",""
"null","245519","pSARL_v2","pSARL_v2cbbbh6g9","65065544a284167f156a829e","fixation","img/fixation.png","null","","test","","","","","",""
"263","245789","pSARL_v2","pSARL_v2cbbbh6g9","65065544a284167f156a829e","freq","img/orange_2bandit_b2.png","70","70","test","1","105","105","5","",""
"null","246338","pSARL_v2","pSARL_v2cbbbh6g9","65065544a284167f156a829e","freq_resp","img/orange_2bandit_b.png","70","70","test","","","","5","",""
"null","246497","pSARL_v2","pSARL_v2cbbbh6g9","65065544a284167f156a829e","fixation","img/fixation.png","null","","test","","","","","",""
"278","246783","pSARL_v2","pSARL_v2cbbbh6g9","65065544a284167f156a829e","freq","img/orange_2bandit_b2.png","70","70","test","1","106","106","5","",""
"null","247314","pSARL_v2","pSARL_v2cbbbh6g9","65065544a284167f156a829e","freq_resp","img/orange_2bandit_b.png","70","70","test","","","","5","",""
"null","247476","pSARL_v2","pSARL_v2cbbbh6g9","65065544a284167f156a829e","fixation","img/fixation.png","null","","test","","","","","",""
"267.9999999999709","247753","pSARL_v2","pSARL_v2cbbbh6g9","65065544a284167f156a829e","freq","img/orange_2bandit_b2.png","70","70","test","1","107","107","5","",""
"null","248293","pSARL_v2","pSARL_v2cbbbh6g9","65065544a284167f156a829e","freq_resp","img/orange_2bandit_b.png","70","70","test","","","","5","",""
"null","248451","pSARL_v2","pSARL_v2cbbbh6g9","65065544a284167f156a829e","fixation","img/fixation.png","null","","test","","","","","",""
"287.0000000000291","248745","pSARL_v2","pSARL_v2cbbbh6g9","65065544a284167f156a829e","freq","img/orange_2bandit_b2.png","70","70","test","1","108","108","5","",""
"null","249268","pSARL_v2","pSARL_v2cbbbh6g9","65065544a284167f156a829e","freq_resp","img/orange_2bandit_b.png","70","70","test","","","","5","",""
"null","249427","pSARL_v2","pSARL_v2cbbbh6g9","65065544a284167f156a829e","fixation","img/fixation.png","null","","test","","","","","",""
"244","249678","pSARL_v2","pSARL_v2cbbbh6g9","65065544a284167f156a829e","infreq","img/green_2bandit_b2.png","70","68","test","0","109","109","5","",""
"null","250249","pSARL_v2","pSARL_v2cbbbh6g9","65065544a284167f156a829e","infreq_resp","img/green_2bandit_b.png","70","68","test","","","","5","",""
"null","250408","pSARL_v2","pSARL_v2cbbbh6g9","65065544a284167f156a829e","fixation","img/fixation.png","null","","test","","","","","",""
"313.0000000000291","250728","pSARL_v2","pSARL_v2cbbbh6g9","65065544a284167f156a829e","freq","img/orange_2bandit_b2.png","70","70","test","1","110","110","5","",""
"null","251225","pSARL_v2","pSARL_v2cbbbh6g9","65065544a284167f156a829e","freq_resp","img/orange_2bandit_b.png","70","70","test","","","","5","",""
"null","251383","pSARL_v2","pSARL_v2cbbbh6g9","65065544a284167f156a829e","fixation","img/fixation.png","null","","test","","","","","",""
"272","251663","pSARL_v2","pSARL_v2cbbbh6g9","65065544a284167f156a829e","freq","img/orange_2bandit_b2.png","70","70","test","1","111","111","5","",""
"null","252200","pSARL_v2","pSARL_v2cbbbh6g9","65065544a284167f156a829e","freq_resp","img/orange_2bandit_b.png","70","70","test","","","","5","",""
"null","252359","pSARL_v2","pSARL_v2cbbbh6g9","65065544a284167f156a829e","fixation","img/fixation.png","null","","test","","","","","",""
"289.0000000000291","252656","pSARL_v2","pSARL_v2cbbbh6g9","65065544a284167f156a829e","freq","img/orange_2bandit_b2.png","70","70","test","1","112","112","5","",""
"null","253175","pSARL_v2","pSARL_v2cbbbh6g9","65065544a284167f156a829e","freq_resp","img/orange_2bandit_b.png","70","70","test","","","","5","",""
"null","253337","pSARL_v2","pSARL_v2cbbbh6g9","65065544a284167f156a829e","fixation","img/fixation.png","null","","test","","","","","",""
"320","253665","pSARL_v2","pSARL_v2cbbbh6g9","65065544a284167f156a829e","freq","img/orange_2bandit_b2.png","70","70","test","1","113","113","5","",""
"null","254154","pSARL_v2","pSARL_v2cbbbh6g9","65065544a284167f156a829e","freq_resp","img/orange_2bandit_b.png","70","70","test","","","","5","",""
"null","254314","pSARL_v2","pSARL_v2cbbbh6g9","65065544a284167f156a829e","fixation","img/fixation.png","null","","test","","","","","",""
"264.0000000000291","254586","pSARL_v2","pSARL_v2cbbbh6g9","65065544a284167f156a829e","freq","img/orange_2bandit_b2.png","70","70","test","1","114","114","5","",""
"null","255129","pSARL_v2","pSARL_v2cbbbh6g9","65065544a284167f156a829e","freq_resp","img/orange_2bandit_b.png","70","70","test","","","","5","",""
"null","255292","pSARL_v2","pSARL_v2cbbbh6g9","65065544a284167f156a829e","fixation","img/fixation.png","null","","test","","","","","",""
"157.0000000000291","255455","pSARL_v2","pSARL_v2cbbbh6g9","65065544a284167f156a829e","freq","img/orange_2bandit_b2.png","70","70","test","1","115","115","5","",""
"null","256107","pSARL_v2","pSARL_v2cbbbh6g9","65065544a284167f156a829e","freq_resp","img/orange_2bandit_b.png","70","70","test","","","","5","",""
"null","256269","pSARL_v2","pSARL_v2cbbbh6g9","65065544a284167f156a829e","fixation","img/fixation.png","null","","test","","","","","",""
"454.9999999999709","256732","pSARL_v2","pSARL_v2cbbbh6g9","65065544a284167f156a829e","reward","img/slot.png","74","","test","","","","","",""
"null","257494","pSARL_v2","pSARL_v2cbbbh6g9","65065544a284167f156a829e","points","<div class=""veryhighPoints""> +1 </div>","null","na","test","","","","5","1","4"
"552","258052","pSARL_v2","pSARL_v2cbbbh6g9","65065544a284167f156a829e","freq","img/orange_2bandit_b2.png","70","70","test","1","116","116","6","",""
"null","258314","pSARL_v2","pSARL_v2cbbbh6g9","65065544a284167f156a829e","freq_resp","img/orange_2bandit_b.png","70","70","test","","","","6","",""
"null","258473","pSARL_v2","pSARL_v2cbbbh6g9","65065544a284167f156a829e","fixation","img/fixation.png","null","","test","","","","","",""
"390.9999999999709","258872","pSARL_v2","pSARL_v2cbbbh6g9","65065544a284167f156a829e","freq","img/orange_2bandit_b2.png","70","70","test","1","117","117","6","",""
"null","259290","pSARL_v2","pSARL_v2cbbbh6g9","65065544a284167f156a829e","freq_resp","img/orange_2bandit_b.png","70","70","test","","","","6","",""
"null","259452","pSARL_v2","pSARL_v2cbbbh6g9","65065544a284167f156a829e","fixation","img/fixation.png","null","","test","","","","","",""
"298","259757","pSARL_v2","pSARL_v2cbbbh6g9","65065544a284167f156a829e","freq","img/orange_2bandit_b2.png","70","70","test","1","118","118","6","",""
"null","260271","pSARL_v2","pSARL_v2cbbbh6g9","65065544a284167f156a829e","freq_resp","img/orange_2bandit_b.png","70","70","test","","","","6","",""
"null","260431","pSARL_v2","pSARL_v2cbbbh6g9","65065544a284167f156a829e","fixation","img/fixation.png","null","","test","","","","","",""
"null","261245","pSARL_v2","pSARL_v2cbbbh6g9","65065544a284167f156a829e","infreq","img/green_2bandit_b2.png","null","68","test","0","119","119","6","",""
"null","261405","pSARL_v2","pSARL_v2cbbbh6g9","65065544a284167f156a829e","fixation","img/fixation.png","null","","test","","","","","",""
"400","261815","pSARL_v2","pSARL_v2cbbbh6g9","65065544a284167f156a829e","freq","img/orange_2bandit_b2.png","70","70","test","1","120","120","6","",""
"null","262230","pSARL_v2","pSARL_v2cbbbh6g9","65065544a284167f156a829e","freq_resp","img/orange_2bandit_b.png","70","70","test","","","","6","",""
"null","262392","pSARL_v2","pSARL_v2cbbbh6g9","65065544a284167f156a829e","fixation","img/fixation.png","null","","test","","","","","",""
"452","262850","pSARL_v2","pSARL_v2cbbbh6g9","65065544a284167f156a829e","freq","img/orange_2bandit_b2.png","70","70","test","1","121","121","6","",""
"null","263208","pSARL_v2","pSARL_v2cbbbh6g9","65065544a284167f156a829e","freq_resp","img/orange_2bandit_b.png","70","70","test","","","","6","",""
"null","263367","pSARL_v2","pSARL_v2cbbbh6g9","65065544a284167f156a829e","fixation","img/fixation.png","null","","test","","","","","",""
"308.0000000000582","263682","pSARL_v2","pSARL_v2cbbbh6g9","65065544a284167f156a829e","freq","img/orange_2bandit_b2.png","70","70","test","1","122","122","6","",""
"null","264182","pSARL_v2","pSARL_v2cbbbh6g9","65065544a284167f156a829e","freq_resp","img/orange_2bandit_b.png","70","70","test","","","","6","",""
"null","264341","pSARL_v2","pSARL_v2cbbbh6g9","65065544a284167f156a829e","fixation","img/fixation.png","null","","test","","","","","",""
"292","264640","pSARL_v2","pSARL_v2cbbbh6g9","65065544a284167f156a829e","freq","img/orange_2bandit_b2.png","70","70","test","1","123","123","6","",""
"null","265161","pSARL_v2","pSARL_v2cbbbh6g9","65065544a284167f156a829e","freq_resp","img/orange_2bandit_b.png","70","70","test","","","","6","",""
"null","265320","pSARL_v2","pSARL_v2cbbbh6g9","65065544a284167f156a829e","fixation","img/fixation.png","null","","test","","","","","",""
"314","265642","pSARL_v2","pSARL_v2cbbbh6g9","65065544a284167f156a829e","freq","img/orange_2bandit_b2.png","70","70","test","1","124","124","6","",""
"null","266143","pSARL_v2","pSARL_v2cbbbh6g9","65065544a284167f156a829e","freq_resp","img/orange_2bandit_b.png","70","70","test","","","","6","",""
"null","266304","pSARL_v2","pSARL_v2cbbbh6g9","65065544a284167f156a829e","fixation","img/fixation.png","null","","test","","","","","",""
"272","266586","pSARL_v2","pSARL_v2cbbbh6g9","65065544a284167f156a829e","freq","img/orange_2bandit_b2.png","70","70","test","1","125","125","6","",""
"null","267129","pSARL_v2","pSARL_v2cbbbh6g9","65065544a284167f156a829e","freq_resp","img/orange_2bandit_b.png","70","70","test","","","","6","",""
"null","267288","pSARL_v2","pSARL_v2cbbbh6g9","65065544a284167f156a829e","fixation","img/fixation.png","null","","test","","","","","",""
"328.9999999999418","267624","pSARL_v2","pSARL_v2cbbbh6g9","65065544a284167f156a829e","freq","img/orange_2bandit_b2.png","70","70","test","1","126","126","6","",""
"null","268104","pSARL_v2","pSARL_v2cbbbh6g9","65065544a284167f156a829e","freq_resp","img/orange_2bandit_b.png","70","70","test","","","","6","",""
"null","268264","pSARL_v2","pSARL_v2cbbbh6g9","65065544a284167f156a829e","fixation","img/fixation.png","null","","test","","","","","",""
"318.9999999999418","268593","pSARL_v2","pSARL_v2cbbbh6g9","65065544a284167f156a829e","freq","img/orange_2bandit_b2.png","70","70","test","1","127","127","6","",""
"null","269087","pSARL_v2","pSARL_v2cbbbh6g9","65065544a284167f156a829e","freq_resp","img/orange_2bandit_b.png","70","70","test","","","","6","",""
"null","269248","pSARL_v2","pSARL_v2cbbbh6g9","65065544a284167f156a829e","fixation","img/fixation.png","null","","test","","","","","",""
"268","269527","pSARL_v2","pSARL_v2cbbbh6g9","65065544a284167f156a829e","infreq","img/green_2bandit_b2.png","70","68","test","0","128","128","6","",""
"null","270069","pSARL_v2","pSARL_v2cbbbh6g9","65065544a284167f156a829e","infreq_resp","img/green_2bandit_b.png","70","68","test","","","","6","",""
"null","270232","pSARL_v2","pSARL_v2cbbbh6g9","65065544a284167f156a829e","fixation","img/fixation.png","null","","test","","","","","",""
"458","270699","pSARL_v2","pSARL_v2cbbbh6g9","65065544a284167f156a829e","freq","img/orange_2bandit_b2.png","70","70","test","1","129","129","6","",""
"null","271050","pSARL_v2","pSARL_v2cbbbh6g9","65065544a284167f156a829e","freq_resp","img/orange_2bandit_b.png","70","70","test","","","","6","",""
"null","271208","pSARL_v2","pSARL_v2cbbbh6g9","65065544a284167f156a829e","fixation","img/fixation.png","null","","test","","","","","",""
"287","271504","pSARL_v2","pSARL_v2cbbbh6g9","65065544a284167f156a829e","freq","img/orange_2bandit_b2.png","70","70","test","1","130","130","6","",""
"null","272025","pSARL_v2","pSARL_v2cbbbh6g9","65065544a284167f156a829e","freq_resp","img/orange_2bandit_b.png","70","70","test","","","","6","",""
"null","272186","pSARL_v2","pSARL_v2cbbbh6g9","65065544a284167f156a829e","fixation","img/fixation.png","null","","test","","","","","",""
"263.0000000000582","272456","pSARL_v2","pSARL_v2cbbbh6g9","65065544a284167f156a829e","freq","img/orange_2bandit_b2.png","70","70","test","1","131","131","6","",""
"null","273003","pSARL_v2","pSARL_v2cbbbh6g9","65065544a284167f156a829e","freq_resp","img/orange_2bandit_b.png","70","70","test","","","","6","",""
"null","273162","pSARL_v2","pSARL_v2cbbbh6g9","65065544a284167f156a829e","fixation","img/fixation.png","null","","test","","","","","",""
"322","273492","pSARL_v2","pSARL_v2cbbbh6g9","65065544a284167f156a829e","freq","img/orange_2bandit_b2.png","70","70","test","1","132","132","6","",""
"null","273979","pSARL_v2","pSARL_v2cbbbh6g9","65065544a284167f156a829e","freq_resp","img/orange_2bandit_b.png","70","70","test","","","","6","",""
"null","274140","pSARL_v2","pSARL_v2cbbbh6g9","65065544a284167f156a829e","fixation","img/fixation.png","null","","test","","","","","",""
"274","274421","pSARL_v2","pSARL_v2cbbbh6g9","65065544a284167f156a829e","freq","img/orange_2bandit_b2.png","70","70","test","1","133","133","6","",""
"null","274955","pSARL_v2","pSARL_v2cbbbh6g9","65065544a284167f156a829e","freq_resp","img/orange_2bandit_b.png","70","70","test","","","","6","",""
"null","275115","pSARL_v2","pSARL_v2cbbbh6g9","65065544a284167f156a829e","fixation","img/fixation.png","null","","test","","","","","",""
"304","275426","pSARL_v2","pSARL_v2cbbbh6g9","65065544a284167f156a829e","freq","img/orange_2bandit_b2.png","70","70","test","1","134","134","6","",""
"null","275931","pSARL_v2","pSARL_v2cbbbh6g9","65065544a284167f156a829e","freq_resp","img/orange_2bandit_b.png","70","70","test","","","","6","",""
"null","276094","pSARL_v2","pSARL_v2cbbbh6g9","65065544a284167f156a829e","fixation","img/fixation.png","null","","test","","","","","",""
"288","276391","pSARL_v2","pSARL_v2cbbbh6g9","65065544a284167f156a829e","freq","img/orange_2bandit_b2.png","70","70","test","1","135","135","6","",""
"null","276911","pSARL_v2","pSARL_v2cbbbh6g9","65065544a284167f156a829e","freq_resp","img/orange_2bandit_b.png","70","70","test","","","","6","",""
"null","277072","pSARL_v2","pSARL_v2cbbbh6g9","65065544a284167f156a829e","fixation","img/fixation.png","null","","test","","","","","",""
"483","277559","pSARL_v2","pSARL_v2cbbbh6g9","65065544a284167f156a829e","reward","img/slot.png","74","","test","","","","","",""
"null","278320","pSARL_v2","pSARL_v2cbbbh6g9","65065544a284167f156a829e","points","<div class=""verylowPoints""> -7 </div>","null","na","test","","","","6","-7","5"
"756","279081","pSARL_v2","pSARL_v2cbbbh6g9","65065544a284167f156a829e","freq","img/orange_2bandit_b2.png","70","70","test","1","136","136","7","",""
"null","279134","pSARL_v2","pSARL_v2cbbbh6g9","65065544a284167f156a829e","freq_resp","img/orange_2bandit_b.png","70","70","test","","","","7","",""
"null","279298","pSARL_v2","pSARL_v2cbbbh6g9","65065544a284167f156a829e","fixation","img/fixation.png","null","","test","","","","","",""
"466.9999999999418","279775","pSARL_v2","pSARL_v2cbbbh6g9","65065544a284167f156a829e","freq","img/orange_2bandit_b2.png","70","70","test","1","137","137","7","",""
"null","280120","pSARL_v2","pSARL_v2cbbbh6g9","65065544a284167f156a829e","freq_resp","img/orange_2bandit_b.png","70","70","test","","","","7","",""
"null","280280","pSARL_v2","pSARL_v2cbbbh6g9","65065544a284167f156a829e","fixation","img/fixation.png","null","","test","","","","","",""
"310","280602","pSARL_v2","pSARL_v2cbbbh6g9","65065544a284167f156a829e","freq","img/orange_2bandit_b2.png","70","70","test","1","138","138","7","",""
"null","281104","pSARL_v2","pSARL_v2cbbbh6g9","65065544a284167f156a829e","freq_resp","img/orange_2bandit_b.png","70","70","test","","","","7","",""
"null","281264","pSARL_v2","pSARL_v2cbbbh6g9","65065544a284167f156a829e","fixation","img/fixation.png","null","","test","","","","","",""
"135","281407","pSARL_v2","pSARL_v2cbbbh6g9","65065544a284167f156a829e","freq","img/orange_2bandit_b2.png","70","70","test","1","139","139","7","",""
"null","282081","pSARL_v2","pSARL_v2cbbbh6g9","65065544a284167f156a829e","freq_resp","img/orange_2bandit_b.png","70","70","test","","","","7","",""
"null","282244","pSARL_v2","pSARL_v2cbbbh6g9","65065544a284167f156a829e","fixation","img/fixation.png","null","","test","","","","","",""
"295","282548","pSARL_v2","pSARL_v2cbbbh6g9","65065544a284167f156a829e","freq","img/orange_2bandit_b2.png","70","70","test","1","140","140","7","",""
"null","283064","pSARL_v2","pSARL_v2cbbbh6g9","65065544a284167f156a829e","freq_resp","img/orange_2bandit_b.png","70","70","test","","","","7","",""
"null","283226","pSARL_v2","pSARL_v2cbbbh6g9","65065544a284167f156a829e","fixation","img/fixation.png","null","","test","","","","","",""
"241","283473","pSARL_v2","pSARL_v2cbbbh6g9","65065544a284167f156a829e","freq","img/orange_2bandit_b2.png","70","70","test","1","141","141","7","",""
"null","284039","pSARL_v2","pSARL_v2cbbbh6g9","65065544a284167f156a829e","freq_resp","img/orange_2bandit_b.png","70","70","test","","","","7","",""
"null","284198","pSARL_v2","pSARL_v2cbbbh6g9","65065544a284167f156a829e","fixation","img/fixation.png","null","","test","","","","","",""
"286.9999999999418","284492","pSARL_v2","pSARL_v2cbbbh6g9","65065544a284167f156a829e","freq","img/orange_2bandit_b2.png","70","70","test","1","142","142","7","",""
"null","285014","pSARL_v2","pSARL_v2cbbbh6g9","65065544a284167f156a829e","freq_resp","img/orange_2bandit_b.png","70","70","test","","","","7","",""
"null","285175","pSARL_v2","pSARL_v2cbbbh6g9","65065544a284167f156a829e","fixation","img/fixation.png","null","","test","","","","","",""
"312.9999999999418","285495","pSARL_v2","pSARL_v2cbbbh6g9","65065544a284167f156a829e","freq","img/orange_2bandit_b2.png","70","70","test","1","143","143","7","",""
"null","285994","pSARL_v2","pSARL_v2cbbbh6g9","65065544a284167f156a829e","freq_resp","img/orange_2bandit_b.png","70","70","test","","","","7","",""
"null","286153","pSARL_v2","pSARL_v2cbbbh6g9","65065544a284167f156a829e","fixation","img/fixation.png","null","","test","","","","","",""
"271","286429","pSARL_v2","pSARL_v2cbbbh6g9","65065544a284167f156a829e","freq","img/orange_2bandit_b2.png","70","70","test","1","144","144","7","",""
"null","286972","pSARL_v2","pSARL_v2cbbbh6g9","65065544a284167f156a829e","freq_resp","img/orange_2bandit_b.png","70","70","test","","","","7","",""
"null","287133","pSARL_v2","pSARL_v2cbbbh6g9","65065544a284167f156a829e","fixation","img/fixation.png","null","","test","","","","","",""
"302","287442","pSARL_v2","pSARL_v2cbbbh6g9","65065544a284167f156a829e","freq","img/orange_2bandit_b2.png","70","70","test","1","145","145","7","",""
"null","287948","pSARL_v2","pSARL_v2cbbbh6g9","65065544a284167f156a829e","freq_resp","img/orange_2bandit_b.png","70","70","test","","","","7","",""
"null","288107","pSARL_v2","pSARL_v2cbbbh6g9","65065544a284167f156a829e","fixation","img/fixation.png","null","","test","","","","","",""
"277","288393","pSARL_v2","pSARL_v2cbbbh6g9","65065544a284167f156a829e","freq","img/orange_2bandit_b2.png","70","70","test","1","146","146","7","",""
"null","288924","pSARL_v2","pSARL_v2cbbbh6g9","65065544a284167f156a829e","freq_resp","img/orange_2bandit_b.png","70","70","test","","","","7","",""
"null","289086","pSARL_v2","pSARL_v2cbbbh6g9","65065544a284167f156a829e","fixation","img/fixation.png","null","","test","","","","","",""
"277","289370","pSARL_v2","pSARL_v2cbbbh6g9","65065544a284167f156a829e","freq","img/orange_2bandit_b2.png","70","70","test","1","147","147","7","",""
"null","289905","pSARL_v2","pSARL_v2cbbbh6g9","65065544a284167f156a829e","freq_resp","img/orange_2bandit_b.png","70","70","test","","","","7","",""
"null","290064","pSARL_v2","pSARL_v2cbbbh6g9","65065544a284167f156a829e","fixation","img/fixation.png","null","","test","","","","","",""
"434","290508","pSARL_v2","pSARL_v2cbbbh6g9","65065544a284167f156a829e","freq","img/orange_2bandit_b2.png","70","70","test","1","148","148","7","",""
"null","290885","pSARL_v2","pSARL_v2cbbbh6g9","65065544a284167f156a829e","freq_resp","img/orange_2bandit_b.png","70","70","test","","","","7","",""
"null","291042","pSARL_v2","pSARL_v2cbbbh6g9","65065544a284167f156a829e","fixation","img/fixation.png","null","","test","","","","","",""
"283","291333","pSARL_v2","pSARL_v2cbbbh6g9","65065544a284167f156a829e","freq","img/orange_2bandit_b2.png","70","70","test","1","149","149","7","",""
"null","291862","pSARL_v2","pSARL_v2cbbbh6g9","65065544a284167f156a829e","freq_resp","img/orange_2bandit_b.png","70","70","test","","","","7","",""
"null","292024","pSARL_v2","pSARL_v2cbbbh6g9","65065544a284167f156a829e","fixation","img/fixation.png","null","","test","","","","","",""
"261","292293","pSARL_v2","pSARL_v2cbbbh6g9","65065544a284167f156a829e","infreq","img/green_2bandit_b2.png","70","68","test","0","150","150","7","",""
"null","292841","pSARL_v2","pSARL_v2cbbbh6g9","65065544a284167f156a829e","infreq_resp","img/green_2bandit_b.png","70","68","test","","","","7","",""
"null","293003","pSARL_v2","pSARL_v2cbbbh6g9","65065544a284167f156a829e","fixation","img/fixation.png","null","","test","","","","","",""
"238","293247","pSARL_v2","pSARL_v2cbbbh6g9","65065544a284167f156a829e","freq","img/orange_2bandit_b2.png","70","70","test","1","151","151","7","",""
"null","293819","pSARL_v2","pSARL_v2cbbbh6g9","65065544a284167f156a829e","freq_resp","img/orange_2bandit_b.png","70","70","test","","","","7","",""
"null","293978","pSARL_v2","pSARL_v2cbbbh6g9","65065544a284167f156a829e","fixation","img/fixation.png","null","","test","","","","","",""
"446","294432","pSARL_v2","pSARL_v2cbbbh6g9","65065544a284167f156a829e","freq","img/orange_2bandit_b2.png","70","70","test","1","152","152","7","",""
"null","294796","pSARL_v2","pSARL_v2cbbbh6g9","65065544a284167f156a829e","freq_resp","img/orange_2bandit_b.png","70","70","test","","","","7","",""
"null","294955","pSARL_v2","pSARL_v2cbbbh6g9","65065544a284167f156a829e","fixation","img/fixation.png","null","","test","","","","","",""
"323","295286","pSARL_v2","pSARL_v2cbbbh6g9","65065544a284167f156a829e","freq","img/orange_2bandit_b2.png","70","70","test","1","153","153","7","",""
"null","295772","pSARL_v2","pSARL_v2cbbbh6g9","65065544a284167f156a829e","freq_resp","img/orange_2bandit_b.png","70","70","test","","","","7","",""
"null","295931","pSARL_v2","pSARL_v2cbbbh6g9","65065544a284167f156a829e","fixation","img/fixation.png","null","","test","","","","","",""
"312","296251","pSARL_v2","pSARL_v2cbbbh6g9","65065544a284167f156a829e","freq","img/orange_2bandit_b2.png","70","70","test","1","154","154","7","",""
"null","296748","pSARL_v2","pSARL_v2cbbbh6g9","65065544a284167f156a829e","freq_resp","img/orange_2bandit_b.png","70","70","test","","","","7","",""
"null","296908","pSARL_v2","pSARL_v2cbbbh6g9","65065544a284167f156a829e","fixation","img/fixation.png","null","","test","","","","","",""
"272","297191","pSARL_v2","pSARL_v2cbbbh6g9","65065544a284167f156a829e","freq","img/orange_2bandit_b2.png","70","70","test","1","155","155","7","",""
"null","297729","pSARL_v2","pSARL_v2cbbbh6g9","65065544a284167f156a829e","freq_resp","img/orange_2bandit_b.png","70","70","test","","","","7","",""
"null","297889","pSARL_v2","pSARL_v2cbbbh6g9","65065544a284167f156a829e","fixation","img/fixation.png","null","","test","","","","","",""
"298","298195","pSARL_v2","pSARL_v2cbbbh6g9","65065544a284167f156a829e","freq","img/orange_2bandit_b2.png","70","70","test","1","156","156","7","",""
"null","298706","pSARL_v2","pSARL_v2cbbbh6g9","65065544a284167f156a829e","freq_resp","img/orange_2bandit_b.png","70","70","test","","","","7","",""
"null","298865","pSARL_v2","pSARL_v2cbbbh6g9","65065544a284167f156a829e","fixation","img/fixation.png","null","","test","","","","","",""
"450","299324","pSARL_v2","pSARL_v2cbbbh6g9","65065544a284167f156a829e","infreq","img/green_2bandit_b2.png","68","68","test","1","157","157","7","",""
"null","299683","pSARL_v2","pSARL_v2cbbbh6g9","65065544a284167f156a829e","infreq_resp","img/green_2bandit_b.png","68","68","test","","","","7","",""
"null","299841","pSARL_v2","pSARL_v2cbbbh6g9","65065544a284167f156a829e","fixation","img/fixation.png","null","","test","","","","","",""
"312","300161","pSARL_v2","pSARL_v2cbbbh6g9","65065544a284167f156a829e","freq","img/orange_2bandit_b2.png","70","70","test","1","158","158","7","",""
"null","300659","pSARL_v2","pSARL_v2cbbbh6g9","65065544a284167f156a829e","freq_resp","img/orange_2bandit_b.png","70","70","test","","","","7","",""
"null","300817","pSARL_v2","pSARL_v2cbbbh6g9","65065544a284167f156a829e","fixation","img/fixation.png","null","","test","","","","","",""
"389","301214","pSARL_v2","pSARL_v2cbbbh6g9","65065544a284167f156a829e","freq","img/orange_2bandit_b2.png","70","70","test","1","159","159","7","",""
"null","301637","pSARL_v2","pSARL_v2cbbbh6g9","65065544a284167f156a829e","freq_resp","img/orange_2bandit_b.png","70","70","test","","","","7","",""
"null","301796","pSARL_v2","pSARL_v2cbbbh6g9","65065544a284167f156a829e","fixation","img/fixation.png","null","","test","","","","","",""
"393","302198","pSARL_v2","pSARL_v2cbbbh6g9","65065544a284167f156a829e","reward","img/slot.png","74","","test","","","","","",""
"null","302958","pSARL_v2","pSARL_v2cbbbh6g9","65065544a284167f156a829e","points","<div class=""verylowPoints""> -6 </div>","null","na","test","","","","7","-6","6"
"479","303444","pSARL_v2","pSARL_v2cbbbh6g9","65065544a284167f156a829e","freq","img/orange_2bandit_b2.png","70","70","test","1","160","160","8","",""
"null","303774","pSARL_v2","pSARL_v2cbbbh6g9","65065544a284167f156a829e","freq_resp","img/orange_2bandit_b.png","70","70","test","","","","8","",""
"null","303933","pSARL_v2","pSARL_v2cbbbh6g9","65065544a284167f156a829e","fixation","img/fixation.png","null","","test","","","","","",""
"263","304202","pSARL_v2","pSARL_v2cbbbh6g9","65065544a284167f156a829e","freq","img/orange_2bandit_b2.png","70","70","test","1","161","161","8","",""
"null","304748","pSARL_v2","pSARL_v2cbbbh6g9","65065544a284167f156a829e","freq_resp","img/orange_2bandit_b.png","70","70","test","","","","8","",""
"null","304908","pSARL_v2","pSARL_v2cbbbh6g9","65065544a284167f156a829e","fixation","img/fixation.png","null","","test","","","","","",""
"520","305436","pSARL_v2","pSARL_v2cbbbh6g9","65065544a284167f156a829e","infreq","img/green_2bandit_b2.png","68","68","test","1","162","162","8","",""
"null","305730","pSARL_v2","pSARL_v2cbbbh6g9","65065544a284167f156a829e","infreq_resp","img/green_2bandit_b.png","68","68","test","","","","8","",""
"null","305890","pSARL_v2","pSARL_v2cbbbh6g9","65065544a284167f156a829e","fixation","img/fixation.png","null","","test","","","","","",""
"352","306253","pSARL_v2","pSARL_v2cbbbh6g9","65065544a284167f156a829e","freq","img/orange_2bandit_b2.png","70","70","test","1","163","163","8","",""
"null","306713","pSARL_v2","pSARL_v2cbbbh6g9","65065544a284167f156a829e","freq_resp","img/orange_2bandit_b.png","70","70","test","","","","8","",""
"null","306875","pSARL_v2","pSARL_v2cbbbh6g9","65065544a284167f156a829e","fixation","img/fixation.png","null","","test","","","","","",""
"290","307172","pSARL_v2","pSARL_v2cbbbh6g9","65065544a284167f156a829e","freq","img/orange_2bandit_b2.png","70","70","test","1","164","164","8","",""
"null","307696","pSARL_v2","pSARL_v2cbbbh6g9","65065544a284167f156a829e","freq_resp","img/orange_2bandit_b.png","70","70","test","","","","8","",""
"null","307855","pSARL_v2","pSARL_v2cbbbh6g9","65065544a284167f156a829e","fixation","img/fixation.png","null","","test","","","","","",""
"269","308131","pSARL_v2","pSARL_v2cbbbh6g9","65065544a284167f156a829e","freq","img/orange_2bandit_b2.png","70","70","test","1","165","165","8","",""
"null","308672","pSARL_v2","pSARL_v2cbbbh6g9","65065544a284167f156a829e","freq_resp","img/orange_2bandit_b.png","70","70","test","","","","8","",""
"null","308831","pSARL_v2","pSARL_v2cbbbh6g9","65065544a284167f156a829e","fixation","img/fixation.png","null","","test","","","","","",""
"285","309124","pSARL_v2","pSARL_v2cbbbh6g9","65065544a284167f156a829e","freq","img/orange_2bandit_b2.png","70","70","test","1","166","166","8","",""
"null","309648","pSARL_v2","pSARL_v2cbbbh6g9","65065544a284167f156a829e","freq_resp","img/orange_2bandit_b.png","70","70","test","","","","8","",""
"null","309809","pSARL_v2","pSARL_v2cbbbh6g9","65065544a284167f156a829e","fixation","img/fixation.png","null","","test","","","","","",""
"394","310210","pSARL_v2","pSARL_v2cbbbh6g9","65065544a284167f156a829e","infreq","img/green_2bandit_b2.png","68","68","test","1","167","167","8","",""
"null","310627","pSARL_v2","pSARL_v2cbbbh6g9","65065544a284167f156a829e","infreq_resp","img/green_2bandit_b.png","68","68","test","","","","8","",""
"null","310788","pSARL_v2","pSARL_v2cbbbh6g9","65065544a284167f156a829e","fixation","img/fixation.png","null","","test","","","","","",""
"454","311251","pSARL_v2","pSARL_v2cbbbh6g9","65065544a284167f156a829e","infreq","img/green_2bandit_b2.png","68","68","test","1","168","168","8","",""
"null","311612","pSARL_v2","pSARL_v2cbbbh6g9","65065544a284167f156a829e","infreq_resp","img/green_2bandit_b.png","68","68","test","","","","8","",""
"null","311773","pSARL_v2","pSARL_v2cbbbh6g9","65065544a284167f156a829e","fixation","img/fixation.png","null","","test","","","","","",""
"320","312098","pSARL_v2","pSARL_v2cbbbh6g9","65065544a284167f156a829e","freq","img/orange_2bandit_b2.png","70","70","test","1","169","169","8","",""
"null","312587","pSARL_v2","pSARL_v2cbbbh6g9","65065544a284167f156a829e","freq_resp","img/orange_2bandit_b.png","70","70","test","","","","8","",""
"null","312751","pSARL_v2","pSARL_v2cbbbh6g9","65065544a284167f156a829e","fixation","img/fixation.png","null","","test","","","","","",""
"294.9999999999418","313053","pSARL_v2","pSARL_v2cbbbh6g9","65065544a284167f156a829e","freq","img/orange_2bandit_b2.png","70","70","test","1","170","170","8","",""
"null","313569","pSARL_v2","pSARL_v2cbbbh6g9","65065544a284167f156a829e","freq_resp","img/orange_2bandit_b.png","70","70","test","","","","8","",""
"null","313731","pSARL_v2","pSARL_v2cbbbh6g9","65065544a284167f156a829e","fixation","img/fixation.png","null","","test","","","","","",""
"412","314151","pSARL_v2","pSARL_v2cbbbh6g9","65065544a284167f156a829e","freq","img/orange_2bandit_b2.png","70","70","test","1","171","171","8","",""
"null","314548","pSARL_v2","pSARL_v2cbbbh6g9","65065544a284167f156a829e","freq_resp","img/orange_2bandit_b.png","70","70","test","","","","8","",""
"null","314706","pSARL_v2","pSARL_v2cbbbh6g9","65065544a284167f156a829e","fixation","img/fixation.png","null","","test","","","","","",""
"309","315023","pSARL_v2","pSARL_v2cbbbh6g9","65065544a284167f156a829e","freq","img/orange_2bandit_b2.png","70","70","test","1","172","172","8","",""
"null","315524","pSARL_v2","pSARL_v2cbbbh6g9","65065544a284167f156a829e","freq_resp","img/orange_2bandit_b.png","70","70","test","","","","8","",""
"null","315682","pSARL_v2","pSARL_v2cbbbh6g9","65065544a284167f156a829e","fixation","img/fixation.png","null","","test","","","","","",""
"278.0000000000582","315968","pSARL_v2","pSARL_v2cbbbh6g9","65065544a284167f156a829e","freq","img/orange_2bandit_b2.png","70","70","test","1","173","173","8","",""
"null","316498","pSARL_v2","pSARL_v2cbbbh6g9","65065544a284167f156a829e","freq_resp","img/orange_2bandit_b.png","70","70","test","","","","8","",""
"null","316658","pSARL_v2","pSARL_v2cbbbh6g9","65065544a284167f156a829e","fixation","img/fixation.png","null","","test","","","","","",""
"298","316964","pSARL_v2","pSARL_v2cbbbh6g9","65065544a284167f156a829e","freq","img/orange_2bandit_b2.png","70","70","test","1","174","174","8","",""
"null","317478","pSARL_v2","pSARL_v2cbbbh6g9","65065544a284167f156a829e","freq_resp","img/orange_2bandit_b.png","70","70","test","","","","8","",""
"null","317639","pSARL_v2","pSARL_v2cbbbh6g9","65065544a284167f156a829e","fixation","img/fixation.png","null","","test","","","","","",""
"297","317943","pSARL_v2","pSARL_v2cbbbh6g9","65065544a284167f156a829e","freq","img/orange_2bandit_b2.png","70","70","test","1","175","175","8","",""
"null","318456","pSARL_v2","pSARL_v2cbbbh6g9","65065544a284167f156a829e","freq_resp","img/orange_2bandit_b.png","70","70","test","","","","8","",""
"null","318616","pSARL_v2","pSARL_v2cbbbh6g9","65065544a284167f156a829e","fixation","img/fixation.png","null","","test","","","","","",""
"250","318877","pSARL_v2","pSARL_v2cbbbh6g9","65065544a284167f156a829e","freq","img/orange_2bandit_b2.png","70","70","test","1","176","176","8","",""
"null","319440","pSARL_v2","pSARL_v2cbbbh6g9","65065544a284167f156a829e","freq_resp","img/orange_2bandit_b.png","70","70","test","","","","8","",""
"null","319597","pSARL_v2","pSARL_v2cbbbh6g9","65065544a284167f156a829e","fixation","img/fixation.png","null","","test","","","","","",""
"281","319885","pSARL_v2","pSARL_v2cbbbh6g9","65065544a284167f156a829e","freq","img/orange_2bandit_b2.png","70","70","test","1","177","177","8","",""
"null","320412","pSARL_v2","pSARL_v2cbbbh6g9","65065544a284167f156a829e","freq_resp","img/orange_2bandit_b.png","70","70","test","","","","8","",""
"null","320573","pSARL_v2","pSARL_v2cbbbh6g9","65065544a284167f156a829e","fixation","img/fixation.png","null","","test","","","","","",""
"271","320852","pSARL_v2","pSARL_v2cbbbh6g9","65065544a284167f156a829e","freq","img/orange_2bandit_b2.png","70","70","test","1","178","178","8","",""
"null","321391","pSARL_v2","pSARL_v2cbbbh6g9","65065544a284167f156a829e","freq_resp","img/orange_2bandit_b.png","70","70","test","","","","8","",""
"null","321550","pSARL_v2","pSARL_v2cbbbh6g9","65065544a284167f156a829e","fixation","img/fixation.png","null","","test","","","","","",""
"276","321835","pSARL_v2","pSARL_v2cbbbh6g9","65065544a284167f156a829e","freq","img/orange_2bandit_b2.png","70","70","test","1","179","179","8","",""
"null","322369","pSARL_v2","pSARL_v2cbbbh6g9","65065544a284167f156a829e","freq_resp","img/orange_2bandit_b.png","70","70","test","","","","8","",""
"null","322529","pSARL_v2","pSARL_v2cbbbh6g9","65065544a284167f156a829e","fixation","img/fixation.png","null","","test","","","","","",""
"307","322843","pSARL_v2","pSARL_v2cbbbh6g9","65065544a284167f156a829e","freq","img/orange_2bandit_b2.png","70","70","test","1","180","180","8","",""
"null","323346","pSARL_v2","pSARL_v2cbbbh6g9","65065544a284167f156a829e","freq_resp","img/orange_2bandit_b.png","70","70","test","","","","8","",""
"null","323508","pSARL_v2","pSARL_v2cbbbh6g9","65065544a284167f156a829e","fixation","img/fixation.png","null","","test","","","","","",""
"300.9999999999418","323815","pSARL_v2","pSARL_v2cbbbh6g9","65065544a284167f156a829e","freq","img/orange_2bandit_b2.png","70","70","test","1","181","181","8","",""
"null","324325","pSARL_v2","pSARL_v2cbbbh6g9","65065544a284167f156a829e","freq_resp","img/orange_2bandit_b.png","70","70","test","","","","8","",""
"null","324486","pSARL_v2","pSARL_v2cbbbh6g9","65065544a284167f156a829e","fixation","img/fixation.png","null","","test","","","","","",""
"285","324778","pSARL_v2","pSARL_v2cbbbh6g9","65065544a284167f156a829e","freq","img/orange_2bandit_b2.png","70","70","test","1","182","182","8","",""
"null","325301","pSARL_v2","pSARL_v2cbbbh6g9","65065544a284167f156a829e","freq_resp","img/orange_2bandit_b.png","70","70","test","","","","8","",""
"null","325460","pSARL_v2","pSARL_v2cbbbh6g9","65065544a284167f156a829e","fixation","img/fixation.png","null","","test","","","","","",""
"433","325901","pSARL_v2","pSARL_v2cbbbh6g9","65065544a284167f156a829e","reward","img/slot.png","74","","test","","","","","",""
"null","326661","pSARL_v2","pSARL_v2cbbbh6g9","65065544a284167f156a829e","points","<div class=""verylowPoints""> -4 </div>","null","na","test","","","","8","-4","7"
"327.9999999999418","326998","pSARL_v2","pSARL_v2cbbbh6g9","65065544a284167f156a829e","freq","img/orange_2bandit_b2.png","70","70","test","1","183","183","9","",""
"null","327477","pSARL_v2","pSARL_v2cbbbh6g9","65065544a284167f156a829e","freq_resp","img/orange_2bandit_b.png","70","70","test","","","","9","",""
"null","327639","pSARL_v2","pSARL_v2cbbbh6g9","65065544a284167f156a829e","fixation","img/fixation.png","null","","test","","","","","",""
"343","327990","pSARL_v2","pSARL_v2cbbbh6g9","65065544a284167f156a829e","freq","img/orange_2bandit_b2.png","70","70","test","1","184","184","9","",""
"null","328462","pSARL_v2","pSARL_v2cbbbh6g9","65065544a284167f156a829e","freq_resp","img/orange_2bandit_b.png","70","70","test","","","","9","",""
"null","328625","pSARL_v2","pSARL_v2cbbbh6g9","65065544a284167f156a829e","fixation","img/fixation.png","null","","test","","","","","",""
"122.99999999994179","328757","pSARL_v2","pSARL_v2cbbbh6g9","65065544a284167f156a829e","freq","img/orange_2bandit_b2.png","70","70","test","1","185","185","9","",""
"null","329446","pSARL_v2","pSARL_v2cbbbh6g9","65065544a284167f156a829e","freq_resp","img/orange_2bandit_b.png","70","70","test","","","","9","",""
"null","329607","pSARL_v2","pSARL_v2cbbbh6g9","65065544a284167f156a829e","fixation","img/fixation.png","null","","test","","","","","",""
"260","329874","pSARL_v2","pSARL_v2cbbbh6g9","65065544a284167f156a829e","freq","img/orange_2bandit_b2.png","70","70","test","1","186","186","9","",""
"null","330426","pSARL_v2","pSARL_v2cbbbh6g9","65065544a284167f156a829e","freq_resp","img/orange_2bandit_b.png","70","70","test","","","","9","",""
"null","330586","pSARL_v2","pSARL_v2cbbbh6g9","65065544a284167f156a829e","fixation","img/fixation.png","null","","test","","","","","",""
"218","330813","pSARL_v2","pSARL_v2cbbbh6g9","65065544a284167f156a829e","freq","img/orange_2bandit_b2.png","70","70","test","1","187","187","9","",""
"null","331404","pSARL_v2","pSARL_v2cbbbh6g9","65065544a284167f156a829e","freq_resp","img/orange_2bandit_b.png","70","70","test","","","","9","",""
"null","331564","pSARL_v2","pSARL_v2cbbbh6g9","65065544a284167f156a829e","fixation","img/fixation.png","null","","test","","","","","",""
"113","331684","pSARL_v2","pSARL_v2cbbbh6g9","65065544a284167f156a829e","infreq","img/green_2bandit_b2.png","70","68","test","0","188","188","9","",""
"null","332380","pSARL_v2","pSARL_v2cbbbh6g9","65065544a284167f156a829e","infreq_resp","img/green_2bandit_b.png","70","68","test","","","","9","",""
"null","332541","pSARL_v2","pSARL_v2cbbbh6g9","65065544a284167f156a829e","fixation","img/fixation.png","null","","test","","","","","",""
"89","332638","pSARL_v2","pSARL_v2cbbbh6g9","65065544a284167f156a829e","freq","img/orange_2bandit_b2.png","70","70","test","1","189","189","9","",""
"null","333362","pSARL_v2","pSARL_v2cbbbh6g9","65065544a284167f156a829e","freq_resp","img/orange_2bandit_b.png","70","70","test","","","","9","",""
"null","333522","pSARL_v2","pSARL_v2cbbbh6g9","65065544a284167f156a829e","fixation","img/fixation.png","null","","test","","","","","",""
"267","333797","pSARL_v2","pSARL_v2cbbbh6g9","65065544a284167f156a829e","freq","img/orange_2bandit_b2.png","70","70","test","1","190","190","9","",""
"null","334344","pSARL_v2","pSARL_v2cbbbh6g9","65065544a284167f156a829e","freq_resp","img/orange_2bandit_b.png","70","70","test","","","","9","",""
"null","334506","pSARL_v2","pSARL_v2cbbbh6g9","65065544a284167f156a829e","fixation","img/fixation.png","null","","test","","","","","",""
"241","334755","pSARL_v2","pSARL_v2cbbbh6g9","65065544a284167f156a829e","freq","img/orange_2bandit_b2.png","70","70","test","1","191","191","9","",""
"null","335328","pSARL_v2","pSARL_v2cbbbh6g9","65065544a284167f156a829e","freq_resp","img/orange_2bandit_b.png","70","70","test","","","","9","",""
"null","335489","pSARL_v2","pSARL_v2cbbbh6g9","65065544a284167f156a829e","fixation","img/fixation.png","null","","test","","","","","",""
"262","335759","pSARL_v2","pSARL_v2cbbbh6g9","65065544a284167f156a829e","freq","img/orange_2bandit_b2.png","70","70","test","1","192","192","9","",""
"null","336308","pSARL_v2","pSARL_v2cbbbh6g9","65065544a284167f156a829e","freq_resp","img/orange_2bandit_b.png","70","70","test","","","","9","",""
"null","336469","pSARL_v2","pSARL_v2cbbbh6g9","65065544a284167f156a829e","fixation","img/fixation.png","null","","test","","","","","",""
"265","336741","pSARL_v2","pSARL_v2cbbbh6g9","65065544a284167f156a829e","freq","img/orange_2bandit_b2.png","70","70","test","1","193","193","9","",""
"null","337286","pSARL_v2","pSARL_v2cbbbh6g9","65065544a284167f156a829e","freq_resp","img/orange_2bandit_b.png","70","70","test","","","","9","",""
"null","337446","pSARL_v2","pSARL_v2cbbbh6g9","65065544a284167f156a829e","fixation","img/fixation.png","null","","test","","","","","",""
"394","337849","pSARL_v2","pSARL_v2cbbbh6g9","65065544a284167f156a829e","freq","img/orange_2bandit_b2.png","70","70","test","1","194","194","9","",""
"null","338263","pSARL_v2","pSARL_v2cbbbh6g9","65065544a284167f156a829e","freq_resp","img/orange_2bandit_b.png","70","70","test","","","","9","",""
"null","338424","pSARL_v2","pSARL_v2cbbbh6g9","65065544a284167f156a829e","fixation","img/fixation.png","null","","test","","","","","",""
"273.0000000000582","338704","pSARL_v2","pSARL_v2cbbbh6g9","65065544a284167f156a829e","freq","img/orange_2bandit_b2.png","70","70","test","1","195","195","9","",""
"null","339241","pSARL_v2","pSARL_v2cbbbh6g9","65065544a284167f156a829e","freq_resp","img/orange_2bandit_b.png","70","70","test","","","","9","",""
"null","339400","pSARL_v2","pSARL_v2cbbbh6g9","65065544a284167f156a829e","fixation","img/fixation.png","null","","test","","","","","",""
"274","339682","pSARL_v2","pSARL_v2cbbbh6g9","65065544a284167f156a829e","freq","img/orange_2bandit_b2.png","70","70","test","1","196","196","9","",""
"null","340220","pSARL_v2","pSARL_v2cbbbh6g9","65065544a284167f156a829e","freq_resp","img/orange_2bandit_b.png","70","70","test","","","","9","",""
"null","340380","pSARL_v2","pSARL_v2cbbbh6g9","65065544a284167f156a829e","fixation","img/fixation.png","null","","test","","","","","",""
"291","340679","pSARL_v2","pSARL_v2cbbbh6g9","65065544a284167f156a829e","freq","img/orange_2bandit_b2.png","70","70","test","1","197","197","9","",""
"null","341199","pSARL_v2","pSARL_v2cbbbh6g9","65065544a284167f156a829e","freq_resp","img/orange_2bandit_b.png","70","70","test","","","","9","",""
"null","341357","pSARL_v2","pSARL_v2cbbbh6g9","65065544a284167f156a829e","fixation","img/fixation.png","null","","test","","","","","",""
"289","341655","pSARL_v2","pSARL_v2cbbbh6g9","65065544a284167f156a829e","freq","img/orange_2bandit_b2.png","70","70","test","1","198","198","9","",""
"null","342177","pSARL_v2","pSARL_v2cbbbh6g9","65065544a284167f156a829e","freq_resp","img/orange_2bandit_b.png","70","70","test","","","","9","",""
"null","342337","pSARL_v2","pSARL_v2cbbbh6g9","65065544a284167f156a829e","fixation","img/fixation.png","null","","test","","","","","",""
"254","342601","pSARL_v2","pSARL_v2cbbbh6g9","65065544a284167f156a829e","infreq","img/green_2bandit_b2.png","70","68","test","0","199","199","9","",""
"null","343158","pSARL_v2","pSARL_v2cbbbh6g9","65065544a284167f156a829e","infreq_resp","img/green_2bandit_b.png","70","68","test","","","","9","",""
"null","343317","pSARL_v2","pSARL_v2cbbbh6g9","65065544a284167f156a829e","fixation","img/fixation.png","null","","test","","","","","",""
"126","343454","pSARL_v2","pSARL_v2cbbbh6g9","65065544a284167f156a829e","freq","img/orange_2bandit_b2.png","70","70","test","1","200","200","9","",""
"null","344142","pSARL_v2","pSARL_v2cbbbh6g9","65065544a284167f156a829e","freq_resp","img/orange_2bandit_b.png","70","70","test","","","","9","",""
"null","344302","pSARL_v2","pSARL_v2cbbbh6g9","65065544a284167f156a829e","fixation","img/fixation.png","null","","test","","","","","",""
"331","344639","pSARL_v2","pSARL_v2cbbbh6g9","65065544a284167f156a829e","freq","img/orange_2bandit_b2.png","70","70","test","1","201","201","9","",""
"null","345118","pSARL_v2","pSARL_v2cbbbh6g9","65065544a284167f156a829e","freq_resp","img/orange_2bandit_b.png","70","70","test","","","","9","",""
"null","345277","pSARL_v2","pSARL_v2cbbbh6g9","65065544a284167f156a829e","fixation","img/fixation.png","null","","test","","","","","",""
"224","345508","pSARL_v2","pSARL_v2cbbbh6g9","65065544a284167f156a829e","freq","img/orange_2bandit_b2.png","70","70","test","1","202","202","9","",""
"null","346092","pSARL_v2","pSARL_v2cbbbh6g9","65065544a284167f156a829e","freq_resp","img/orange_2bandit_b.png","70","70","test","","","","9","",""
"null","346250","pSARL_v2","pSARL_v2cbbbh6g9","65065544a284167f156a829e","fixation","img/fixation.png","null","","test","","","","","",""
"604.9999999999418","346864","pSARL_v2","pSARL_v2cbbbh6g9","65065544a284167f156a829e","reward","img/slot.png","74","","test","","","","","",""
"null","347622","pSARL_v2","pSARL_v2cbbbh6g9","65065544a284167f156a829e","points","<div class=""verylowPoints""> -3 </div>","null","na","test","","","","9","-3","8"
"399","348030","pSARL_v2","pSARL_v2cbbbh6g9","65065544a284167f156a829e","freq","img/orange_2bandit_b2.png","70","70","test","1","203","203","10","",""
"null","348445","pSARL_v2","pSARL_v2cbbbh6g9","65065544a284167f156a829e","freq_resp","img/orange_2bandit_b.png","70","70","test","","","","10","",""
"null","348607","pSARL_v2","pSARL_v2cbbbh6g9","65065544a284167f156a829e","fixation","img/fixation.png","null","","test","","","","","",""
"325","348939","pSARL_v2","pSARL_v2cbbbh6g9","65065544a284167f156a829e","freq","img/orange_2bandit_b2.png","70","70","test","1","204","204","10","",""
"null","349425","pSARL_v2","pSARL_v2cbbbh6g9","65065544a284167f156a829e","freq_resp","img/orange_2bandit_b.png","70","70","test","","","","10","",""
"null","349584","pSARL_v2","pSARL_v2cbbbh6g9","65065544a284167f156a829e","fixation","img/fixation.png","null","","test","","","","","",""
"312.9999999999418","349906","pSARL_v2","pSARL_v2cbbbh6g9","65065544a284167f156a829e","freq","img/orange_2bandit_b2.png","70","70","test","1","205","205","10","",""
"null","350402","pSARL_v2","pSARL_v2cbbbh6g9","65065544a284167f156a829e","freq_resp","img/orange_2bandit_b.png","70","70","test","","","","10","",""
"null","350561","pSARL_v2","pSARL_v2cbbbh6g9","65065544a284167f156a829e","fixation","img/fixation.png","null","","test","","","","","",""
"null","351373","pSARL_v2","pSARL_v2cbbbh6g9","65065544a284167f156a829e","infreq","img/green_2bandit_b2.png","null","68","test","0","206","206","10","",""
"null","351532","pSARL_v2","pSARL_v2cbbbh6g9","65065544a284167f156a829e","fixation","img/fixation.png","null","","test","","","","","",""
"347","351887","pSARL_v2","pSARL_v2cbbbh6g9","65065544a284167f156a829e","freq","img/orange_2bandit_b2.png","70","70","test","1","207","207","10","",""
"null","352353","pSARL_v2","pSARL_v2cbbbh6g9","65065544a284167f156a829e","freq_resp","img/orange_2bandit_b.png","70","70","test","","","","10","",""
"null","352512","pSARL_v2","pSARL_v2cbbbh6g9","65065544a284167f156a829e","fixation","img/fixation.png","null","","test","","","","","",""
"299","352819","pSARL_v2","pSARL_v2cbbbh6g9","65065544a284167f156a829e","freq","img/orange_2bandit_b2.png","70","70","test","1","208","208","10","",""
"null","353331","pSARL_v2","pSARL_v2cbbbh6g9","65065544a284167f156a829e","freq_resp","img/orange_2bandit_b.png","70","70","test","","","","10","",""
"null","353494","pSARL_v2","pSARL_v2cbbbh6g9","65065544a284167f156a829e","fixation","img/fixation.png","null","","test","","","","","",""
"488","353990","pSARL_v2","pSARL_v2cbbbh6g9","65065544a284167f156a829e","freq","img/orange_2bandit_b2.png","70","70","test","1","209","209","10","",""
"null","354312","pSARL_v2","pSARL_v2cbbbh6g9","65065544a284167f156a829e","freq_resp","img/orange_2bandit_b.png","70","70","test","","","","10","",""
"null","354473","pSARL_v2","pSARL_v2cbbbh6g9","65065544a284167f156a829e","fixation","img/fixation.png","null","","test","","","","","",""
"268","354749","pSARL_v2","pSARL_v2cbbbh6g9","65065544a284167f156a829e","freq","img/orange_2bandit_b2.png","70","70","test","1","210","210","10","",""
"null","355292","pSARL_v2","pSARL_v2cbbbh6g9","65065544a284167f156a829e","freq_resp","img/orange_2bandit_b.png","70","70","test","","","","10","",""
"null","355453","pSARL_v2","pSARL_v2cbbbh6g9","65065544a284167f156a829e","fixation","img/fixation.png","null","","test","","","","","",""
