"rt","time_elapsed","expId","subject","prolificID","trialType","stimulus","key_press","corrresp","phase","corr","trialNum","attentionRunNum","blockNum","points","rlNum"
"269274","269281","pSARL_v2","pSARL_v2rt7u15o6","570fa921f895a7000f38ca6f","","","","","","","","","","",""
"","271473","pSARL_v2","pSARL_v2rt7u15o6","570fa921f895a7000f38ca6f","fullscreen","","","","","","","","","",""
"3446380","3717857","pSARL_v2","pSARL_v2rt7u15o6","570fa921f895a7000f38ca6f","","","","","","","","","","",""
"null","3718672","pSARL_v2","pSARL_v2rt7u15o6","570fa921f895a7000f38ca6f","freqPrac","img/green_2bandit_a2.png","null","70","prac","0","","","","",""
"null","3719692","pSARL_v2","pSARL_v2rt7u15o6","570fa921f895a7000f38ca6f","feedback","img/tooSlow.png","null","na","prac","","","","","",""
"null","3719844","pSARL_v2","pSARL_v2rt7u15o6","570fa921f895a7000f38ca6f","fixation","img/fixation.png","null","","prac","","","","","",""
"474","3720320","pSARL_v2","pSARL_v2rt7u15o6","570fa921f895a7000f38ca6f","infreqPrac","img/orange_2bandit_a2.png","70","68","prac","0","","","","",""
"474","3720689","pSARL_v2","pSARL_v2rt7u15o6","570fa921f895a7000f38ca6f","infreqPrac_resp","img/orange_2bandit_a.png","70","68","prac","","","","","",""
"null","3721696","pSARL_v2","pSARL_v2rt7u15o6","570fa921f895a7000f38ca6f","feedback","img/wrongKey.png","null","na","prac","","","","","",""
"null","3721863","pSARL_v2","pSARL_v2rt7u15o6","570fa921f895a7000f38ca6f","fixation","img/fixation.png","null","","prac","","","","","",""
"630","3722496","pSARL_v2","pSARL_v2rt7u15o6","570fa921f895a7000f38ca6f","freqPrac","img/green_2bandit_a2.png","70","70","prac","1","","","","",""
"630","3722675","pSARL_v2","pSARL_v2rt7u15o6","570fa921f895a7000f38ca6f","freqPrac_resp","img/green_2bandit_a.png","70","70","prac","","","","","",""
"null","3722832","pSARL_v2","pSARL_v2rt7u15o6","570fa921f895a7000f38ca6f","fixation","img/fixation.png","null","","prac","","","","","",""
"534","3723367","pSARL_v2","pSARL_v2rt7u15o6","570fa921f895a7000f38ca6f","infreqPrac","img/orange_2bandit_a2.png","68","68","prac","1","","","","",""
"534","3723652","pSARL_v2","pSARL_v2rt7u15o6","570fa921f895a7000f38ca6f","infreqPrac_resp","img/orange_2bandit_a.png","68","68","prac","","","","","",""
"null","3723823","pSARL_v2","pSARL_v2rt7u15o6","570fa921f895a7000f38ca6f","fixation","img/fixation.png","null","","prac","","","","","",""
"446","3724275","pSARL_v2","pSARL_v2rt7u15o6","570fa921f895a7000f38ca6f","infreqPrac","img/orange_2bandit_a2.png","68","68","prac","1","","","","",""
"446","3724646","pSARL_v2","pSARL_v2rt7u15o6","570fa921f895a7000f38ca6f","infreqPrac_resp","img/orange_2bandit_a.png","68","68","prac","","","","","",""
"null","3724816","pSARL_v2","pSARL_v2rt7u15o6","570fa921f895a7000f38ca6f","fixation","img/fixation.png","null","","prac","","","","","",""
"304","3725127","pSARL_v2","pSARL_v2rt7u15o6","570fa921f895a7000f38ca6f","infreqPrac","img/orange_2bandit_a2.png","68","68","prac","1","","","","",""
"304","3725637","pSARL_v2","pSARL_v2rt7u15o6","570fa921f895a7000f38ca6f","infreqPrac_resp","img/orange_2bandit_a.png","68","68","prac","","","","","",""
"null","3725803","pSARL_v2","pSARL_v2rt7u15o6","570fa921f895a7000f38ca6f","fixation","img/fixation.png","null","","prac","","","","","",""
"405","3726215","pSARL_v2","pSARL_v2rt7u15o6","570fa921f895a7000f38ca6f","freqPrac","img/green_2bandit_a2.png","70","70","prac","1","","","","",""
"405","3726624","pSARL_v2","pSARL_v2rt7u15o6","570fa921f895a7000f38ca6f","freqPrac_resp","img/green_2bandit_a.png","70","70","prac","","","","","",""
"null","3726792","pSARL_v2","pSARL_v2rt7u15o6","570fa921f895a7000f38ca6f","fixation","img/fixation.png","null","","prac","","","","","",""
"378","3727178","pSARL_v2","pSARL_v2rt7u15o6","570fa921f895a7000f38ca6f","infreqPrac","img/orange_2bandit_a2.png","68","68","prac","1","","","","",""
"378","3727616","pSARL_v2","pSARL_v2rt7u15o6","570fa921f895a7000f38ca6f","infreqPrac_resp","img/orange_2bandit_a.png","68","68","prac","","","","","",""
"null","3727786","pSARL_v2","pSARL_v2rt7u15o6","570fa921f895a7000f38ca6f","fixation","img/fixation.png","null","","prac","","","","","",""
"437","3728231","pSARL_v2","pSARL_v2rt7u15o6","570fa921f895a7000f38ca6f","freqPrac","img/green_2bandit_a2.png","70","70","prac","1","","","","",""
"437","3728604","pSARL_v2","pSARL_v2rt7u15o6","570fa921f895a7000f38ca6f","freqPrac_resp","img/green_2bandit_a.png","70","70","prac","","","","","",""
"null","3728774","pSARL_v2","pSARL_v2rt7u15o6","570fa921f895a7000f38ca6f","fixation","img/fixation.png","null","","prac","","","","","",""
"378","3729158","pSARL_v2","pSARL_v2rt7u15o6","570fa921f895a7000f38ca6f","freqPrac","img/green_2bandit_a2.png","70","70","prac","1","","","","",""
"378","3729641","pSARL_v2","pSARL_v2rt7u15o6","570fa921f895a7000f38ca6f","freqPrac_resp","img/green_2bandit_a.png","70","70","prac","","","","","",""
"null","3729809","pSARL_v2","pSARL_v2rt7u15o6","570fa921f895a7000f38ca6f","fixation","img/fixation.png","null","","prac","","","","","",""
"22277","3752091","pSARL_v2","pSARL_v2rt7u15o6","570fa921f895a7000f38ca6f","","","","","prac","","","","","",""
"1277","3753371","pSARL_v2","pSARL_v2rt7u15o6","570fa921f895a7000f38ca6f","rewardPractice","img/slot.png","74","","prac","","","","","",""
"null","3754134","pSARL_v2","pSARL_v2rt7u15o6","570fa921f895a7000f38ca6f","feedback","<div class=""veryhighPoints""> +15 </div>","null","na","prac","","","","","",""
"null","3754301","pSARL_v2","pSARL_v2rt7u15o6","570fa921f895a7000f38ca6f","fixation","img/fixation.png","null","","prac","","","","","",""
"12059","3766362","pSARL_v2","pSARL_v2rt7u15o6","570fa921f895a7000f38ca6f","","","","","prac","","","","","",""
"707","3767075","pSARL_v2","pSARL_v2rt7u15o6","570fa921f895a7000f38ca6f","freq","img/green_2bandit_a2.png","70","70","test","1","1","1","1","",""
"null","3767190","pSARL_v2","pSARL_v2rt7u15o6","570fa921f895a7000f38ca6f","freq_resp","img/green_2bandit_a.png","70","70","test","","","","1","",""
"null","3767360","pSARL_v2","pSARL_v2rt7u15o6","570fa921f895a7000f38ca6f","fixation","img/fixation.png","null","","test","","","","","",""
"348","3767714","pSARL_v2","pSARL_v2rt7u15o6","570fa921f895a7000f38ca6f","freq","img/green_2bandit_a2.png","70","70","test","1","2","2","1","",""
"null","3768176","pSARL_v2","pSARL_v2rt7u15o6","570fa921f895a7000f38ca6f","freq_resp","img/green_2bandit_a.png","70","70","test","","","","1","",""
"null","3768334","pSARL_v2","pSARL_v2rt7u15o6","570fa921f895a7000f38ca6f","fixation","img/fixation.png","null","","test","","","","","",""
"372","3768714","pSARL_v2","pSARL_v2rt7u15o6","570fa921f895a7000f38ca6f","freq","img/green_2bandit_a2.png","70","70","test","1","3","3","1","",""
"null","3769159","pSARL_v2","pSARL_v2rt7u15o6","570fa921f895a7000f38ca6f","freq_resp","img/green_2bandit_a.png","70","70","test","","","","1","",""
"null","3769328","pSARL_v2","pSARL_v2rt7u15o6","570fa921f895a7000f38ca6f","fixation","img/fixation.png","null","","test","","","","","",""
"263","3769595","pSARL_v2","pSARL_v2rt7u15o6","570fa921f895a7000f38ca6f","freq","img/green_2bandit_a2.png","70","70","test","1","4","4","1","",""
"null","3770147","pSARL_v2","pSARL_v2rt7u15o6","570fa921f895a7000f38ca6f","freq_resp","img/green_2bandit_a.png","70","70","test","","","","1","",""
"null","3770304","pSARL_v2","pSARL_v2rt7u15o6","570fa921f895a7000f38ca6f","fixation","img/fixation.png","null","","test","","","","","",""
"301","3770610","pSARL_v2","pSARL_v2rt7u15o6","570fa921f895a7000f38ca6f","freq","img/green_2bandit_a2.png","70","70","test","1","5","5","1","",""
"null","3771123","pSARL_v2","pSARL_v2rt7u15o6","570fa921f895a7000f38ca6f","freq_resp","img/green_2bandit_a.png","70","70","test","","","","1","",""
"null","3771282","pSARL_v2","pSARL_v2rt7u15o6","570fa921f895a7000f38ca6f","fixation","img/fixation.png","null","","test","","","","","",""
"264","3771553","pSARL_v2","pSARL_v2rt7u15o6","570fa921f895a7000f38ca6f","freq","img/green_2bandit_a2.png","70","70","test","1","6","6","1","",""
"null","3772101","pSARL_v2","pSARL_v2rt7u15o6","570fa921f895a7000f38ca6f","freq_resp","img/green_2bandit_a.png","70","70","test","","","","1","",""
"null","3772269","pSARL_v2","pSARL_v2rt7u15o6","570fa921f895a7000f38ca6f","fixation","img/fixation.png","null","","test","","","","","",""
"311","3772583","pSARL_v2","pSARL_v2rt7u15o6","570fa921f895a7000f38ca6f","freq","img/green_2bandit_a2.png","70","70","test","1","7","7","1","",""
"null","3773090","pSARL_v2","pSARL_v2rt7u15o6","570fa921f895a7000f38ca6f","freq_resp","img/green_2bandit_a.png","70","70","test","","","","1","",""
"null","3773262","pSARL_v2","pSARL_v2rt7u15o6","570fa921f895a7000f38ca6f","fixation","img/fixation.png","null","","test","","","","","",""
"459","3773726","pSARL_v2","pSARL_v2rt7u15o6","570fa921f895a7000f38ca6f","infreq","img/orange_2bandit_a2.png","68","68","test","1","8","8","1","",""
"null","3774083","pSARL_v2","pSARL_v2rt7u15o6","570fa921f895a7000f38ca6f","infreq_resp","img/orange_2bandit_a.png","68","68","test","","","","1","",""
"null","3774241","pSARL_v2","pSARL_v2rt7u15o6","570fa921f895a7000f38ca6f","fixation","img/fixation.png","null","","test","","","","","",""
"320","3774567","pSARL_v2","pSARL_v2rt7u15o6","570fa921f895a7000f38ca6f","freq","img/green_2bandit_a2.png","68","70","test","0","9","9","1","",""
"null","3775065","pSARL_v2","pSARL_v2rt7u15o6","570fa921f895a7000f38ca6f","freq_resp","img/green_2bandit_a.png","68","70","test","","","","1","",""
"null","3775236","pSARL_v2","pSARL_v2rt7u15o6","570fa921f895a7000f38ca6f","fixation","img/fixation.png","null","","test","","","","","",""
"533","3775776","pSARL_v2","pSARL_v2rt7u15o6","570fa921f895a7000f38ca6f","freq","img/green_2bandit_a2.png","70","70","test","1","10","10","1","",""
"null","3776052","pSARL_v2","pSARL_v2rt7u15o6","570fa921f895a7000f38ca6f","freq_resp","img/green_2bandit_a.png","70","70","test","","","","1","",""
"null","3776210","pSARL_v2","pSARL_v2rt7u15o6","570fa921f895a7000f38ca6f","fixation","img/fixation.png","null","","test","","","","","",""
"458","3776674","pSARL_v2","pSARL_v2rt7u15o6","570fa921f895a7000f38ca6f","freq","img/green_2bandit_a2.png","70","70","test","1","11","11","1","",""
"null","3777035","pSARL_v2","pSARL_v2rt7u15o6","570fa921f895a7000f38ca6f","freq_resp","img/green_2bandit_a.png","70","70","test","","","","1","",""
"null","3777202","pSARL_v2","pSARL_v2rt7u15o6","570fa921f895a7000f38ca6f","fixation","img/fixation.png","null","","test","","","","","",""
"649","3777858","pSARL_v2","pSARL_v2rt7u15o6","570fa921f895a7000f38ca6f","freq","img/green_2bandit_a2.png","70","70","test","1","12","12","1","",""
"null","3778018","pSARL_v2","pSARL_v2rt7u15o6","570fa921f895a7000f38ca6f","freq_resp","img/green_2bandit_a.png","70","70","test","","","","1","",""
"null","3778188","pSARL_v2","pSARL_v2rt7u15o6","570fa921f895a7000f38ca6f","fixation","img/fixation.png","null","","test","","","","","",""
"367","3778562","pSARL_v2","pSARL_v2rt7u15o6","570fa921f895a7000f38ca6f","freq","img/green_2bandit_a2.png","70","70","test","1","13","13","1","",""
"null","3779002","pSARL_v2","pSARL_v2rt7u15o6","570fa921f895a7000f38ca6f","freq_resp","img/green_2bandit_a.png","70","70","test","","","","1","",""
"null","3779173","pSARL_v2","pSARL_v2rt7u15o6","570fa921f895a7000f38ca6f","fixation","img/fixation.png","null","","test","","","","","",""
"311","3779489","pSARL_v2","pSARL_v2rt7u15o6","570fa921f895a7000f38ca6f","freq","img/green_2bandit_a2.png","70","70","test","1","14","14","1","",""
"null","3779988","pSARL_v2","pSARL_v2rt7u15o6","570fa921f895a7000f38ca6f","freq_resp","img/green_2bandit_a.png","70","70","test","","","","1","",""
"null","3780147","pSARL_v2","pSARL_v2rt7u15o6","570fa921f895a7000f38ca6f","fixation","img/fixation.png","null","","test","","","","","",""
"266","3780420","pSARL_v2","pSARL_v2rt7u15o6","570fa921f895a7000f38ca6f","freq","img/green_2bandit_a2.png","70","70","test","1","15","15","1","",""
"null","3780970","pSARL_v2","pSARL_v2rt7u15o6","570fa921f895a7000f38ca6f","freq_resp","img/green_2bandit_a.png","70","70","test","","","","1","",""
"null","3781139","pSARL_v2","pSARL_v2rt7u15o6","570fa921f895a7000f38ca6f","fixation","img/fixation.png","null","","test","","","","","",""
"328","3781472","pSARL_v2","pSARL_v2rt7u15o6","570fa921f895a7000f38ca6f","freq","img/green_2bandit_a2.png","70","70","test","1","16","16","1","",""
"null","3781962","pSARL_v2","pSARL_v2rt7u15o6","570fa921f895a7000f38ca6f","freq_resp","img/green_2bandit_a.png","70","70","test","","","","1","",""
"null","3782129","pSARL_v2","pSARL_v2rt7u15o6","570fa921f895a7000f38ca6f","fixation","img/fixation.png","null","","test","","","","","",""
"264","3782399","pSARL_v2","pSARL_v2rt7u15o6","570fa921f895a7000f38ca6f","freq","img/green_2bandit_a2.png","70","70","test","1","17","17","1","",""
"null","3782952","pSARL_v2","pSARL_v2rt7u15o6","570fa921f895a7000f38ca6f","freq_resp","img/green_2bandit_a.png","70","70","test","","","","1","",""
"null","3783110","pSARL_v2","pSARL_v2rt7u15o6","570fa921f895a7000f38ca6f","fixation","img/fixation.png","null","","test","","","","","",""
"277","3783392","pSARL_v2","pSARL_v2rt7u15o6","570fa921f895a7000f38ca6f","freq","img/green_2bandit_a2.png","70","70","test","1","18","18","1","",""
"null","3783928","pSARL_v2","pSARL_v2rt7u15o6","570fa921f895a7000f38ca6f","freq_resp","img/green_2bandit_a.png","70","70","test","","","","1","",""
"null","3784082","pSARL_v2","pSARL_v2rt7u15o6","570fa921f895a7000f38ca6f","fixation","img/fixation.png","null","","test","","","","","",""
"294","3784378","pSARL_v2","pSARL_v2rt7u15o6","570fa921f895a7000f38ca6f","freq","img/green_2bandit_a2.png","70","70","test","1","19","19","1","",""
"null","3784894","pSARL_v2","pSARL_v2rt7u15o6","570fa921f895a7000f38ca6f","freq_resp","img/green_2bandit_a.png","70","70","test","","","","1","",""
"null","3785054","pSARL_v2","pSARL_v2rt7u15o6","570fa921f895a7000f38ca6f","fixation","img/fixation.png","null","","test","","","","","",""
"283","3785339","pSARL_v2","pSARL_v2rt7u15o6","570fa921f895a7000f38ca6f","freq","img/green_2bandit_a2.png","70","70","test","1","20","20","1","",""
"null","3785907","pSARL_v2","pSARL_v2rt7u15o6","570fa921f895a7000f38ca6f","freq_resp","img/green_2bandit_a.png","70","70","test","","","","1","",""
"null","3786067","pSARL_v2","pSARL_v2rt7u15o6","570fa921f895a7000f38ca6f","fixation","img/fixation.png","null","","test","","","","","",""
"270","3786339","pSARL_v2","pSARL_v2rt7u15o6","570fa921f895a7000f38ca6f","freq","img/green_2bandit_a2.png","70","70","test","1","21","21","1","",""
"null","3786874","pSARL_v2","pSARL_v2rt7u15o6","570fa921f895a7000f38ca6f","freq_resp","img/green_2bandit_a.png","70","70","test","","","","1","",""
"null","3787030","pSARL_v2","pSARL_v2rt7u15o6","570fa921f895a7000f38ca6f","fixation","img/fixation.png","null","","test","","","","","",""
"354","3787387","pSARL_v2","pSARL_v2rt7u15o6","570fa921f895a7000f38ca6f","freq","img/green_2bandit_a2.png","70","70","test","1","22","22","1","",""
"null","3787848","pSARL_v2","pSARL_v2rt7u15o6","570fa921f895a7000f38ca6f","freq_resp","img/green_2bandit_a.png","70","70","test","","","","1","",""
"null","3788003","pSARL_v2","pSARL_v2rt7u15o6","570fa921f895a7000f38ca6f","fixation","img/fixation.png","null","","test","","","","","",""
"437","3788443","pSARL_v2","pSARL_v2rt7u15o6","570fa921f895a7000f38ca6f","infreq","img/orange_2bandit_a2.png","68","68","test","1","23","23","1","",""
"null","3788817","pSARL_v2","pSARL_v2rt7u15o6","570fa921f895a7000f38ca6f","infreq_resp","img/orange_2bandit_a.png","68","68","test","","","","1","",""
"null","3788976","pSARL_v2","pSARL_v2rt7u15o6","570fa921f895a7000f38ca6f","fixation","img/fixation.png","null","","test","","","","","",""
"297","3789275","pSARL_v2","pSARL_v2rt7u15o6","570fa921f895a7000f38ca6f","freq","img/green_2bandit_a2.png","68","70","test","0","24","24","1","",""
"null","3789796","pSARL_v2","pSARL_v2rt7u15o6","570fa921f895a7000f38ca6f","freq_resp","img/green_2bandit_a.png","68","70","test","","","","1","",""
"null","3789955","pSARL_v2","pSARL_v2rt7u15o6","570fa921f895a7000f38ca6f","fixation","img/fixation.png","null","","test","","","","","",""
"278","3790235","pSARL_v2","pSARL_v2rt7u15o6","570fa921f895a7000f38ca6f","freq","img/green_2bandit_a2.png","70","70","test","1","25","25","1","",""
"null","3790759","pSARL_v2","pSARL_v2rt7u15o6","570fa921f895a7000f38ca6f","freq_resp","img/green_2bandit_a.png","70","70","test","","","","1","",""
"null","3790917","pSARL_v2","pSARL_v2rt7u15o6","570fa921f895a7000f38ca6f","fixation","img/fixation.png","null","","test","","","","","",""
"245","3791164","pSARL_v2","pSARL_v2rt7u15o6","570fa921f895a7000f38ca6f","freq","img/green_2bandit_a2.png","70","70","test","1","26","26","1","",""
"null","3791738","pSARL_v2","pSARL_v2rt7u15o6","570fa921f895a7000f38ca6f","freq_resp","img/green_2bandit_a.png","70","70","test","","","","1","",""
"null","3791893","pSARL_v2","pSARL_v2rt7u15o6","570fa921f895a7000f38ca6f","fixation","img/fixation.png","null","","test","","","","","",""
"560","3792453","pSARL_v2","pSARL_v2rt7u15o6","570fa921f895a7000f38ca6f","reward","img/slot.png","74","","test","","","","","",""
"null","3793222","pSARL_v2","pSARL_v2rt7u15o6","570fa921f895a7000f38ca6f","points","<div class=""verylowPoints""> -6 </div>","null","na","test","","","","1","-6","0"
"null","3794071","pSARL_v2","pSARL_v2rt7u15o6","570fa921f895a7000f38ca6f","freq","img/green_2bandit_a2.png","null","70","test","0","27","27","2","",""
"null","3794226","pSARL_v2","pSARL_v2rt7u15o6","570fa921f895a7000f38ca6f","fixation","img/fixation.png","null","","test","","","","","",""
"null","3795044","pSARL_v2","pSARL_v2rt7u15o6","570fa921f895a7000f38ca6f","freq","img/green_2bandit_a2.png","null","70","test","0","28","28","2","",""
"null","3795201","pSARL_v2","pSARL_v2rt7u15o6","570fa921f895a7000f38ca6f","fixation","img/fixation.png","null","","test","","","","","",""
"804","3796008","pSARL_v2","pSARL_v2rt7u15o6","570fa921f895a7000f38ca6f","freq","img/green_2bandit_a2.png","70","70","test","1","29","29","2","",""
"null","3796163","pSARL_v2","pSARL_v2rt7u15o6","570fa921f895a7000f38ca6f","fixation","img/fixation.png","null","","test","","","","","",""
"692","3796858","pSARL_v2","pSARL_v2rt7u15o6","570fa921f895a7000f38ca6f","infreq","img/orange_2bandit_a2.png","68","68","test","1","30","30","2","",""
"null","3796983","pSARL_v2","pSARL_v2rt7u15o6","570fa921f895a7000f38ca6f","infreq_resp","img/orange_2bandit_a.png","68","68","test","","","","2","",""
"null","3797140","pSARL_v2","pSARL_v2rt7u15o6","570fa921f895a7000f38ca6f","fixation","img/fixation.png","null","","test","","","","","",""
"739","3797883","pSARL_v2","pSARL_v2rt7u15o6","570fa921f895a7000f38ca6f","freq","img/green_2bandit_a2.png","68","70","test","0","31","31","2","",""
"null","3797960","pSARL_v2","pSARL_v2rt7u15o6","570fa921f895a7000f38ca6f","freq_resp","img/green_2bandit_a.png","68","70","test","","","","2","",""
"null","3798130","pSARL_v2","pSARL_v2rt7u15o6","570fa921f895a7000f38ca6f","fixation","img/fixation.png","null","","test","","","","","",""
"null","3798942","pSARL_v2","pSARL_v2rt7u15o6","570fa921f895a7000f38ca6f","freq","img/green_2bandit_a2.png","null","70","test","0","32","32","2","",""
"null","3799098","pSARL_v2","pSARL_v2rt7u15o6","570fa921f895a7000f38ca6f","fixation","img/fixation.png","null","","test","","","","","",""
"null","3799906","pSARL_v2","pSARL_v2rt7u15o6","570fa921f895a7000f38ca6f","freq","img/green_2bandit_a2.png","null","70","test","0","33","33","2","",""
"null","3800064","pSARL_v2","pSARL_v2rt7u15o6","570fa921f895a7000f38ca6f","fixation","img/fixation.png","null","","test","","","","","",""
"246","3800314","pSARL_v2","pSARL_v2rt7u15o6","570fa921f895a7000f38ca6f","infreq","img/orange_2bandit_a2.png","70","68","test","0","34","34","2","",""
"null","3800884","pSARL_v2","pSARL_v2rt7u15o6","570fa921f895a7000f38ca6f","infreq_resp","img/orange_2bandit_a.png","70","68","test","","","","2","",""
"null","3801042","pSARL_v2","pSARL_v2rt7u15o6","570fa921f895a7000f38ca6f","fixation","img/fixation.png","null","","test","","","","","",""
"613","3801658","pSARL_v2","pSARL_v2rt7u15o6","570fa921f895a7000f38ca6f","freq","img/green_2bandit_a2.png","70","70","test","1","35","35","2","",""
"null","3801859","pSARL_v2","pSARL_v2rt7u15o6","570fa921f895a7000f38ca6f","freq_resp","img/green_2bandit_a.png","70","70","test","","","","2","",""
"null","3802018","pSARL_v2","pSARL_v2rt7u15o6","570fa921f895a7000f38ca6f","fixation","img/fixation.png","null","","test","","","","","",""
"null","3802824","pSARL_v2","pSARL_v2rt7u15o6","570fa921f895a7000f38ca6f","freq","img/green_2bandit_a2.png","null","70","test","0","36","36","2","",""
"null","3802979","pSARL_v2","pSARL_v2rt7u15o6","570fa921f895a7000f38ca6f","fixation","img/fixation.png","null","","test","","","","","",""
"null","3803798","pSARL_v2","pSARL_v2rt7u15o6","570fa921f895a7000f38ca6f","freq","img/green_2bandit_a2.png","null","70","test","0","37","37","2","",""
"null","3803967","pSARL_v2","pSARL_v2rt7u15o6","570fa921f895a7000f38ca6f","fixation","img/fixation.png","null","","test","","","","","",""
"null","3804776","pSARL_v2","pSARL_v2rt7u15o6","570fa921f895a7000f38ca6f","freq","img/green_2bandit_a2.png","null","70","test","0","38","38","2","",""
"null","3804932","pSARL_v2","pSARL_v2rt7u15o6","570fa921f895a7000f38ca6f","fixation","img/fixation.png","null","","test","","","","","",""
"757","3805691","pSARL_v2","pSARL_v2rt7u15o6","570fa921f895a7000f38ca6f","freq","img/green_2bandit_a2.png","70","70","test","1","39","39","2","",""
"null","3805737","pSARL_v2","pSARL_v2rt7u15o6","570fa921f895a7000f38ca6f","freq_resp","img/green_2bandit_a.png","70","70","test","","","","2","",""
"null","3805895","pSARL_v2","pSARL_v2rt7u15o6","570fa921f895a7000f38ca6f","fixation","img/fixation.png","null","","test","","","","","",""
"561","3806458","pSARL_v2","pSARL_v2rt7u15o6","570fa921f895a7000f38ca6f","freq","img/green_2bandit_a2.png","70","70","test","1","40","40","2","",""
"null","3806714","pSARL_v2","pSARL_v2rt7u15o6","570fa921f895a7000f38ca6f","freq_resp","img/green_2bandit_a.png","70","70","test","","","","2","",""
"null","3806867","pSARL_v2","pSARL_v2rt7u15o6","570fa921f895a7000f38ca6f","fixation","img/fixation.png","null","","test","","","","","",""
"390","3807259","pSARL_v2","pSARL_v2rt7u15o6","570fa921f895a7000f38ca6f","freq","img/green_2bandit_a2.png","70","70","test","1","41","41","2","",""
"null","3807682","pSARL_v2","pSARL_v2rt7u15o6","570fa921f895a7000f38ca6f","freq_resp","img/green_2bandit_a.png","70","70","test","","","","2","",""
"null","3807839","pSARL_v2","pSARL_v2rt7u15o6","570fa921f895a7000f38ca6f","fixation","img/fixation.png","null","","test","","","","","",""
"484","3808325","pSARL_v2","pSARL_v2rt7u15o6","570fa921f895a7000f38ca6f","freq","img/green_2bandit_a2.png","70","70","test","1","42","42","2","",""
"null","3808650","pSARL_v2","pSARL_v2rt7u15o6","570fa921f895a7000f38ca6f","freq_resp","img/green_2bandit_a.png","70","70","test","","","","2","",""
"null","3808810","pSARL_v2","pSARL_v2rt7u15o6","570fa921f895a7000f38ca6f","fixation","img/fixation.png","null","","test","","","","","",""
"626","3809436","pSARL_v2","pSARL_v2rt7u15o6","570fa921f895a7000f38ca6f","freq","img/green_2bandit_a2.png","70","70","test","1","43","43","2","",""
"null","3809619","pSARL_v2","pSARL_v2rt7u15o6","570fa921f895a7000f38ca6f","freq_resp","img/green_2bandit_a.png","70","70","test","","","","2","",""
"null","3809780","pSARL_v2","pSARL_v2rt7u15o6","570fa921f895a7000f38ca6f","fixation","img/fixation.png","null","","test","","","","","",""
"584","3810365","pSARL_v2","pSARL_v2rt7u15o6","570fa921f895a7000f38ca6f","freq","img/green_2bandit_a2.png","70","70","test","1","44","44","2","",""
"null","3810583","pSARL_v2","pSARL_v2rt7u15o6","570fa921f895a7000f38ca6f","freq_resp","img/green_2bandit_a.png","70","70","test","","","","2","",""
"null","3810738","pSARL_v2","pSARL_v2rt7u15o6","570fa921f895a7000f38ca6f","fixation","img/fixation.png","null","","test","","","","","",""
"365","3811106","pSARL_v2","pSARL_v2rt7u15o6","570fa921f895a7000f38ca6f","freq","img/green_2bandit_a2.png","70","70","test","1","45","45","2","",""
"null","3811550","pSARL_v2","pSARL_v2rt7u15o6","570fa921f895a7000f38ca6f","freq_resp","img/green_2bandit_a.png","70","70","test","","","","2","",""
"null","3811711","pSARL_v2","pSARL_v2rt7u15o6","570fa921f895a7000f38ca6f","fixation","img/fixation.png","null","","test","","","","","",""
"283","3811995","pSARL_v2","pSARL_v2rt7u15o6","570fa921f895a7000f38ca6f","freq","img/green_2bandit_a2.png","70","70","test","1","46","46","2","",""
"null","3812524","pSARL_v2","pSARL_v2rt7u15o6","570fa921f895a7000f38ca6f","freq_resp","img/green_2bandit_a.png","70","70","test","","","","2","",""
"null","3812682","pSARL_v2","pSARL_v2rt7u15o6","570fa921f895a7000f38ca6f","fixation","img/fixation.png","null","","test","","","","","",""
"116","3812801","pSARL_v2","pSARL_v2rt7u15o6","570fa921f895a7000f38ca6f","freq","img/green_2bandit_a2.png","70","70","test","1","47","47","2","",""
"null","3813489","pSARL_v2","pSARL_v2rt7u15o6","570fa921f895a7000f38ca6f","freq_resp","img/green_2bandit_a.png","70","70","test","","","","2","",""
"null","3813644","pSARL_v2","pSARL_v2rt7u15o6","570fa921f895a7000f38ca6f","fixation","img/fixation.png","null","","test","","","","","",""
"318","3813964","pSARL_v2","pSARL_v2rt7u15o6","570fa921f895a7000f38ca6f","freq","img/green_2bandit_a2.png","70","70","test","1","48","48","2","",""
"null","3814451","pSARL_v2","pSARL_v2rt7u15o6","570fa921f895a7000f38ca6f","freq_resp","img/green_2bandit_a.png","70","70","test","","","","2","",""
"null","3814608","pSARL_v2","pSARL_v2rt7u15o6","570fa921f895a7000f38ca6f","fixation","img/fixation.png","null","","test","","","","","",""
"1177","3815786","pSARL_v2","pSARL_v2rt7u15o6","570fa921f895a7000f38ca6f","reward","img/slot.png","74","","test","","","","","",""
"null","3816617","pSARL_v2","pSARL_v2rt7u15o6","570fa921f895a7000f38ca6f","points","<div class=""verylowPoints""> -11 </div>","null","na","test","","","","2","-11","1"
"687","3817306","pSARL_v2","pSARL_v2rt7u15o6","570fa921f895a7000f38ca6f","freq","img/green_2bandit_a2.png","68","70","test","0","49","49","3","",""
"null","3817436","pSARL_v2","pSARL_v2rt7u15o6","570fa921f895a7000f38ca6f","freq_resp","img/green_2bandit_a.png","68","70","test","","","","3","",""
"null","3817595","pSARL_v2","pSARL_v2rt7u15o6","570fa921f895a7000f38ca6f","fixation","img/fixation.png","null","","test","","","","","",""
"381","3817978","pSARL_v2","pSARL_v2rt7u15o6","570fa921f895a7000f38ca6f","freq","img/green_2bandit_a2.png","70","70","test","1","50","50","3","",""
"null","3818411","pSARL_v2","pSARL_v2rt7u15o6","570fa921f895a7000f38ca6f","freq_resp","img/green_2bandit_a.png","70","70","test","","","","3","",""
"null","3818567","pSARL_v2","pSARL_v2rt7u15o6","570fa921f895a7000f38ca6f","fixation","img/fixation.png","null","","test","","","","","",""
"318","3818886","pSARL_v2","pSARL_v2rt7u15o6","570fa921f895a7000f38ca6f","freq","img/green_2bandit_a2.png","70","70","test","1","51","51","3","",""
"null","3819377","pSARL_v2","pSARL_v2rt7u15o6","570fa921f895a7000f38ca6f","freq_resp","img/green_2bandit_a.png","70","70","test","","","","3","",""
"null","3819537","pSARL_v2","pSARL_v2rt7u15o6","570fa921f895a7000f38ca6f","fixation","img/fixation.png","null","","test","","","","","",""
"294","3819834","pSARL_v2","pSARL_v2rt7u15o6","570fa921f895a7000f38ca6f","freq","img/green_2bandit_a2.png","70","70","test","1","52","52","3","",""
"null","3820352","pSARL_v2","pSARL_v2rt7u15o6","570fa921f895a7000f38ca6f","freq_resp","img/green_2bandit_a.png","70","70","test","","","","3","",""
"null","3820505","pSARL_v2","pSARL_v2rt7u15o6","570fa921f895a7000f38ca6f","fixation","img/fixation.png","null","","test","","","","","",""
"264","3820771","pSARL_v2","pSARL_v2rt7u15o6","570fa921f895a7000f38ca6f","freq","img/green_2bandit_a2.png","70","70","test","1","53","53","3","",""
"null","3821315","pSARL_v2","pSARL_v2rt7u15o6","570fa921f895a7000f38ca6f","freq_resp","img/green_2bandit_a.png","70","70","test","","","","3","",""
"null","3821475","pSARL_v2","pSARL_v2rt7u15o6","570fa921f895a7000f38ca6f","fixation","img/fixation.png","null","","test","","","","","",""
"310","3821787","pSARL_v2","pSARL_v2rt7u15o6","570fa921f895a7000f38ca6f","freq","img/green_2bandit_a2.png","70","70","test","1","54","54","3","",""
"null","3822289","pSARL_v2","pSARL_v2rt7u15o6","570fa921f895a7000f38ca6f","freq_resp","img/green_2bandit_a.png","70","70","test","","","","3","",""
"null","3822460","pSARL_v2","pSARL_v2rt7u15o6","570fa921f895a7000f38ca6f","fixation","img/fixation.png","null","","test","","","","","",""
"414","3822876","pSARL_v2","pSARL_v2rt7u15o6","570fa921f895a7000f38ca6f","infreq","img/orange_2bandit_a2.png","68","68","test","1","55","55","3","",""
"null","3823283","pSARL_v2","pSARL_v2rt7u15o6","570fa921f895a7000f38ca6f","infreq_resp","img/orange_2bandit_a.png","68","68","test","","","","3","",""
"null","3823441","pSARL_v2","pSARL_v2rt7u15o6","570fa921f895a7000f38ca6f","fixation","img/fixation.png","null","","test","","","","","",""
"424","3823869","pSARL_v2","pSARL_v2rt7u15o6","570fa921f895a7000f38ca6f","freq","img/green_2bandit_a2.png","70","70","test","1","56","56","3","",""
"null","3824259","pSARL_v2","pSARL_v2rt7u15o6","570fa921f895a7000f38ca6f","freq_resp","img/green_2bandit_a.png","70","70","test","","","","3","",""
"null","3824431","pSARL_v2","pSARL_v2rt7u15o6","570fa921f895a7000f38ca6f","fixation","img/fixation.png","null","","test","","","","","",""
"332","3824769","pSARL_v2","pSARL_v2rt7u15o6","570fa921f895a7000f38ca6f","freq","img/green_2bandit_a2.png","70","70","test","1","57","57","3","",""
"null","3825253","pSARL_v2","pSARL_v2rt7u15o6","570fa921f895a7000f38ca6f","freq_resp","img/green_2bandit_a.png","70","70","test","","","","3","",""
"null","3825411","pSARL_v2","pSARL_v2rt7u15o6","570fa921f895a7000f38ca6f","fixation","img/fixation.png","null","","test","","","","","",""
"287","3825700","pSARL_v2","pSARL_v2rt7u15o6","570fa921f895a7000f38ca6f","freq","img/green_2bandit_a2.png","70","70","test","1","58","58","3","",""
"null","3826235","pSARL_v2","pSARL_v2rt7u15o6","570fa921f895a7000f38ca6f","freq_resp","img/green_2bandit_a.png","70","70","test","","","","3","",""
"null","3826388","pSARL_v2","pSARL_v2rt7u15o6","570fa921f895a7000f38ca6f","fixation","img/fixation.png","null","","test","","","","","",""
"404","3826800","pSARL_v2","pSARL_v2rt7u15o6","570fa921f895a7000f38ca6f","infreq","img/orange_2bandit_a2.png","68","68","test","1","59","59","3","",""
"null","3827238","pSARL_v2","pSARL_v2rt7u15o6","570fa921f895a7000f38ca6f","infreq_resp","img/orange_2bandit_a.png","68","68","test","","","","3","",""
"null","3827393","pSARL_v2","pSARL_v2rt7u15o6","570fa921f895a7000f38ca6f","fixation","img/fixation.png","null","","test","","","","","",""
"357","3827754","pSARL_v2","pSARL_v2rt7u15o6","570fa921f895a7000f38ca6f","freq","img/green_2bandit_a2.png","70","70","test","1","60","60","3","",""
"null","3828209","pSARL_v2","pSARL_v2rt7u15o6","570fa921f895a7000f38ca6f","freq_resp","img/green_2bandit_a.png","70","70","test","","","","3","",""
"null","3828365","pSARL_v2","pSARL_v2rt7u15o6","570fa921f895a7000f38ca6f","fixation","img/fixation.png","null","","test","","","","","",""
"331","3828698","pSARL_v2","pSARL_v2rt7u15o6","570fa921f895a7000f38ca6f","freq","img/green_2bandit_a2.png","70","70","test","1","61","61","3","",""
"null","3829175","pSARL_v2","pSARL_v2rt7u15o6","570fa921f895a7000f38ca6f","freq_resp","img/green_2bandit_a.png","70","70","test","","","","3","",""
"null","3829334","pSARL_v2","pSARL_v2rt7u15o6","570fa921f895a7000f38ca6f","fixation","img/fixation.png","null","","test","","","","","",""
"293","3829633","pSARL_v2","pSARL_v2rt7u15o6","570fa921f895a7000f38ca6f","freq","img/green_2bandit_a2.png","70","70","test","1","62","62","3","",""
"null","3830155","pSARL_v2","pSARL_v2rt7u15o6","570fa921f895a7000f38ca6f","freq_resp","img/green_2bandit_a.png","70","70","test","","","","3","",""
"null","3830323","pSARL_v2","pSARL_v2rt7u15o6","570fa921f895a7000f38ca6f","fixation","img/fixation.png","null","","test","","","","","",""
"399","3830729","pSARL_v2","pSARL_v2rt7u15o6","570fa921f895a7000f38ca6f","freq","img/green_2bandit_a2.png","70","70","test","1","63","63","3","",""
"null","3831148","pSARL_v2","pSARL_v2rt7u15o6","570fa921f895a7000f38ca6f","freq_resp","img/green_2bandit_a.png","70","70","test","","","","3","",""
"null","3831316","pSARL_v2","pSARL_v2rt7u15o6","570fa921f895a7000f38ca6f","fixation","img/fixation.png","null","","test","","","","","",""
"359","3831684","pSARL_v2","pSARL_v2rt7u15o6","570fa921f895a7000f38ca6f","freq","img/green_2bandit_a2.png","70","70","test","1","64","64","3","",""
"null","3832137","pSARL_v2","pSARL_v2rt7u15o6","570fa921f895a7000f38ca6f","freq_resp","img/green_2bandit_a.png","70","70","test","","","","3","",""
"null","3832306","pSARL_v2","pSARL_v2rt7u15o6","570fa921f895a7000f38ca6f","fixation","img/fixation.png","null","","test","","","","","",""
"360","3832669","pSARL_v2","pSARL_v2rt7u15o6","570fa921f895a7000f38ca6f","freq","img/green_2bandit_a2.png","70","70","test","1","65","65","3","",""
"null","3833118","pSARL_v2","pSARL_v2rt7u15o6","570fa921f895a7000f38ca6f","freq_resp","img/green_2bandit_a.png","70","70","test","","","","3","",""
"null","3833283","pSARL_v2","pSARL_v2rt7u15o6","570fa921f895a7000f38ca6f","fixation","img/fixation.png","null","","test","","","","","",""
"317","3833607","pSARL_v2","pSARL_v2rt7u15o6","570fa921f895a7000f38ca6f","freq","img/green_2bandit_a2.png","70","70","test","1","66","66","3","",""
"null","3834103","pSARL_v2","pSARL_v2rt7u15o6","570fa921f895a7000f38ca6f","freq_resp","img/green_2bandit_a.png","70","70","test","","","","3","",""
"null","3834257","pSARL_v2","pSARL_v2rt7u15o6","570fa921f895a7000f38ca6f","fixation","img/fixation.png","null","","test","","","","","",""
"300","3834560","pSARL_v2","pSARL_v2rt7u15o6","570fa921f895a7000f38ca6f","freq","img/green_2bandit_a2.png","70","70","test","1","67","67","3","",""
"null","3835077","pSARL_v2","pSARL_v2rt7u15o6","570fa921f895a7000f38ca6f","freq_resp","img/green_2bandit_a.png","70","70","test","","","","3","",""
"null","3835232","pSARL_v2","pSARL_v2rt7u15o6","570fa921f895a7000f38ca6f","fixation","img/fixation.png","null","","test","","","","","",""
"333","3835573","pSARL_v2","pSARL_v2rt7u15o6","570fa921f895a7000f38ca6f","freq","img/green_2bandit_a2.png","70","70","test","1","68","68","3","",""
"null","3836061","pSARL_v2","pSARL_v2rt7u15o6","570fa921f895a7000f38ca6f","freq_resp","img/green_2bandit_a.png","70","70","test","","","","3","",""
"null","3836214","pSARL_v2","pSARL_v2rt7u15o6","570fa921f895a7000f38ca6f","fixation","img/fixation.png","null","","test","","","","","",""
"323","3836540","pSARL_v2","pSARL_v2rt7u15o6","570fa921f895a7000f38ca6f","freq","img/green_2bandit_a2.png","70","70","test","1","69","69","3","",""
"null","3837021","pSARL_v2","pSARL_v2rt7u15o6","570fa921f895a7000f38ca6f","freq_resp","img/green_2bandit_a.png","70","70","test","","","","3","",""
"null","3837179","pSARL_v2","pSARL_v2rt7u15o6","570fa921f895a7000f38ca6f","fixation","img/fixation.png","null","","test","","","","","",""
"286","3837467","pSARL_v2","pSARL_v2rt7u15o6","570fa921f895a7000f38ca6f","freq","img/green_2bandit_a2.png","70","70","test","1","70","70","3","",""
"null","3838015","pSARL_v2","pSARL_v2rt7u15o6","570fa921f895a7000f38ca6f","freq_resp","img/green_2bandit_a.png","70","70","test","","","","3","",""
"null","3838170","pSARL_v2","pSARL_v2rt7u15o6","570fa921f895a7000f38ca6f","fixation","img/fixation.png","null","","test","","","","","",""
"257","3838432","pSARL_v2","pSARL_v2rt7u15o6","570fa921f895a7000f38ca6f","freq","img/green_2bandit_a2.png","70","70","test","1","71","71","3","",""
"null","3838996","pSARL_v2","pSARL_v2rt7u15o6","570fa921f895a7000f38ca6f","freq_resp","img/green_2bandit_a.png","70","70","test","","","","3","",""
"null","3839165","pSARL_v2","pSARL_v2rt7u15o6","570fa921f895a7000f38ca6f","fixation","img/fixation.png","null","","test","","","","","",""
"1213","3840381","pSARL_v2","pSARL_v2rt7u15o6","570fa921f895a7000f38ca6f","reward","img/slot.png","74","","test","","","","","",""
"null","3841153","pSARL_v2","pSARL_v2rt7u15o6","570fa921f895a7000f38ca6f","points","<div class=""verylowPoints""> -7 </div>","null","na","test","","","","3","-7","2"
"708","3841864","pSARL_v2","pSARL_v2rt7u15o6","570fa921f895a7000f38ca6f","freq","img/green_2bandit_a2.png","70","70","test","1","72","72","4","",""
"null","3841974","pSARL_v2","pSARL_v2rt7u15o6","570fa921f895a7000f38ca6f","freq_resp","img/green_2bandit_a.png","70","70","test","","","","4","",""
"null","3842143","pSARL_v2","pSARL_v2rt7u15o6","570fa921f895a7000f38ca6f","fixation","img/fixation.png","null","","test","","","","","",""
"null","3842954","pSARL_v2","pSARL_v2rt7u15o6","570fa921f895a7000f38ca6f","freq","img/green_2bandit_a2.png","null","70","test","0","73","73","4","",""
"null","3843124","pSARL_v2","pSARL_v2rt7u15o6","570fa921f895a7000f38ca6f","fixation","img/fixation.png","null","","test","","","","","",""
"425","3843555","pSARL_v2","pSARL_v2rt7u15o6","570fa921f895a7000f38ca6f","freq","img/green_2bandit_a2.png","70","70","test","1","74","74","4","",""
"null","3843945","pSARL_v2","pSARL_v2rt7u15o6","570fa921f895a7000f38ca6f","freq_resp","img/green_2bandit_a.png","70","70","test","","","","4","",""
"null","3844098","pSARL_v2","pSARL_v2rt7u15o6","570fa921f895a7000f38ca6f","fixation","img/fixation.png","null","","test","","","","","",""
"537","3844637","pSARL_v2","pSARL_v2rt7u15o6","570fa921f895a7000f38ca6f","freq","img/green_2bandit_a2.png","70","70","test","1","75","75","4","",""
"null","3844907","pSARL_v2","pSARL_v2rt7u15o6","570fa921f895a7000f38ca6f","freq_resp","img/green_2bandit_a.png","70","70","test","","","","4","",""
"null","3845072","pSARL_v2","pSARL_v2rt7u15o6","570fa921f895a7000f38ca6f","fixation","img/fixation.png","null","","test","","","","","",""
"271","3845350","pSARL_v2","pSARL_v2rt7u15o6","570fa921f895a7000f38ca6f","freq","img/green_2bandit_a2.png","70","70","test","1","76","76","4","",""
"null","3845892","pSARL_v2","pSARL_v2rt7u15o6","570fa921f895a7000f38ca6f","freq_resp","img/green_2bandit_a.png","70","70","test","","","","4","",""
"null","3846058","pSARL_v2","pSARL_v2rt7u15o6","570fa921f895a7000f38ca6f","fixation","img/fixation.png","null","","test","","","","","",""
"271","3846334","pSARL_v2","pSARL_v2rt7u15o6","570fa921f895a7000f38ca6f","freq","img/green_2bandit_a2.png","70","70","test","1","77","77","4","",""
"null","3846874","pSARL_v2","pSARL_v2rt7u15o6","570fa921f895a7000f38ca6f","freq_resp","img/green_2bandit_a.png","70","70","test","","","","4","",""
"null","3847032","pSARL_v2","pSARL_v2rt7u15o6","570fa921f895a7000f38ca6f","fixation","img/fixation.png","null","","test","","","","","",""
"261","3847297","pSARL_v2","pSARL_v2rt7u15o6","570fa921f895a7000f38ca6f","freq","img/green_2bandit_a2.png","70","70","test","1","78","78","4","",""
"null","3847847","pSARL_v2","pSARL_v2rt7u15o6","570fa921f895a7000f38ca6f","freq_resp","img/green_2bandit_a.png","70","70","test","","","","4","",""
"null","3848007","pSARL_v2","pSARL_v2rt7u15o6","570fa921f895a7000f38ca6f","fixation","img/fixation.png","null","","test","","","","","",""
"312","3848324","pSARL_v2","pSARL_v2rt7u15o6","570fa921f895a7000f38ca6f","freq","img/green_2bandit_a2.png","70","70","test","1","79","79","4","",""
"null","3848820","pSARL_v2","pSARL_v2rt7u15o6","570fa921f895a7000f38ca6f","freq_resp","img/green_2bandit_a.png","70","70","test","","","","4","",""
"null","3848991","pSARL_v2","pSARL_v2rt7u15o6","570fa921f895a7000f38ca6f","fixation","img/fixation.png","null","","test","","","","","",""
"451","3849449","pSARL_v2","pSARL_v2rt7u15o6","570fa921f895a7000f38ca6f","infreq","img/orange_2bandit_a2.png","68","68","test","1","80","80","4","",""
"null","3849808","pSARL_v2","pSARL_v2rt7u15o6","570fa921f895a7000f38ca6f","infreq_resp","img/orange_2bandit_a.png","68","68","test","","","","4","",""
"null","3849966","pSARL_v2","pSARL_v2rt7u15o6","570fa921f895a7000f38ca6f","fixation","img/fixation.png","null","","test","","","","","",""
"592","3850565","pSARL_v2","pSARL_v2rt7u15o6","570fa921f895a7000f38ca6f","freq","img/green_2bandit_a2.png","70","70","test","1","81","81","4","",""
"null","3850785","pSARL_v2","pSARL_v2rt7u15o6","570fa921f895a7000f38ca6f","freq_resp","img/green_2bandit_a.png","70","70","test","","","","4","",""
"null","3850955","pSARL_v2","pSARL_v2rt7u15o6","570fa921f895a7000f38ca6f","fixation","img/fixation.png","null","","test","","","","","",""
"306","3851266","pSARL_v2","pSARL_v2rt7u15o6","570fa921f895a7000f38ca6f","freq","img/green_2bandit_a2.png","70","70","test","1","82","82","4","",""
"null","3851777","pSARL_v2","pSARL_v2rt7u15o6","570fa921f895a7000f38ca6f","freq_resp","img/green_2bandit_a.png","70","70","test","","","","4","",""
"null","3851945","pSARL_v2","pSARL_v2rt7u15o6","570fa921f895a7000f38ca6f","fixation","img/fixation.png","null","","test","","","","","",""
"275","3852223","pSARL_v2","pSARL_v2rt7u15o6","570fa921f895a7000f38ca6f","freq","img/green_2bandit_a2.png","70","70","test","1","83","83","4","",""
"null","3852756","pSARL_v2","pSARL_v2rt7u15o6","570fa921f895a7000f38ca6f","freq_resp","img/green_2bandit_a.png","70","70","test","","","","4","",""
"null","3852912","pSARL_v2","pSARL_v2rt7u15o6","570fa921f895a7000f38ca6f","fixation","img/fixation.png","null","","test","","","","","",""
"142","3853061","pSARL_v2","pSARL_v2rt7u15o6","570fa921f895a7000f38ca6f","freq","img/green_2bandit_a2.png","70","70","test","1","84","84","4","",""
"null","3853734","pSARL_v2","pSARL_v2rt7u15o6","570fa921f895a7000f38ca6f","freq_resp","img/green_2bandit_a.png","70","70","test","","","","4","",""
"null","3853903","pSARL_v2","pSARL_v2rt7u15o6","570fa921f895a7000f38ca6f","fixation","img/fixation.png","null","","test","","","","","",""
"174","3854079","pSARL_v2","pSARL_v2rt7u15o6","570fa921f895a7000f38ca6f","freq","img/green_2bandit_a2.png","70","70","test","1","85","85","4","",""
"null","3854719","pSARL_v2","pSARL_v2rt7u15o6","570fa921f895a7000f38ca6f","freq_resp","img/green_2bandit_a.png","70","70","test","","","","4","",""
"null","3854873","pSARL_v2","pSARL_v2rt7u15o6","570fa921f895a7000f38ca6f","fixation","img/fixation.png","null","","test","","","","","",""
"302","3855181","pSARL_v2","pSARL_v2rt7u15o6","570fa921f895a7000f38ca6f","freq","img/green_2bandit_a2.png","70","70","test","1","86","86","4","",""
"null","3855737","pSARL_v2","pSARL_v2rt7u15o6","570fa921f895a7000f38ca6f","freq_resp","img/green_2bandit_a.png","70","70","test","","","","4","",""
"null","3855889","pSARL_v2","pSARL_v2rt7u15o6","570fa921f895a7000f38ca6f","fixation","img/fixation.png","null","","test","","","","","",""
"205","3856097","pSARL_v2","pSARL_v2rt7u15o6","570fa921f895a7000f38ca6f","infreq","img/orange_2bandit_a2.png","70","68","test","0","87","87","4","",""
"null","3856711","pSARL_v2","pSARL_v2rt7u15o6","570fa921f895a7000f38ca6f","infreq_resp","img/orange_2bandit_a.png","70","68","test","","","","4","",""
"null","3856881","pSARL_v2","pSARL_v2rt7u15o6","570fa921f895a7000f38ca6f","fixation","img/fixation.png","null","","test","","","","","",""
"461","3857347","pSARL_v2","pSARL_v2rt7u15o6","570fa921f895a7000f38ca6f","freq","img/green_2bandit_a2.png","70","70","test","1","88","88","4","",""
"null","3857697","pSARL_v2","pSARL_v2rt7u15o6","570fa921f895a7000f38ca6f","freq_resp","img/green_2bandit_a.png","70","70","test","","","","4","",""
"null","3857851","pSARL_v2","pSARL_v2rt7u15o6","570fa921f895a7000f38ca6f","fixation","img/fixation.png","null","","test","","","","","",""
"327","3858181","pSARL_v2","pSARL_v2rt7u15o6","570fa921f895a7000f38ca6f","freq","img/green_2bandit_a2.png","70","70","test","1","89","89","4","",""
"null","3858674","pSARL_v2","pSARL_v2rt7u15o6","570fa921f895a7000f38ca6f","freq_resp","img/green_2bandit_a.png","70","70","test","","","","4","",""
"null","3858831","pSARL_v2","pSARL_v2rt7u15o6","570fa921f895a7000f38ca6f","fixation","img/fixation.png","null","","test","","","","","",""
"302","3859143","pSARL_v2","pSARL_v2rt7u15o6","570fa921f895a7000f38ca6f","freq","img/green_2bandit_a2.png","70","70","test","1","90","90","4","",""
"null","3859649","pSARL_v2","pSARL_v2rt7u15o6","570fa921f895a7000f38ca6f","freq_resp","img/green_2bandit_a.png","70","70","test","","","","4","",""
"null","3859803","pSARL_v2","pSARL_v2rt7u15o6","570fa921f895a7000f38ca6f","fixation","img/fixation.png","null","","test","","","","","",""
"1070","3860876","pSARL_v2","pSARL_v2rt7u15o6","570fa921f895a7000f38ca6f","reward","img/slot.png","74","","test","","","","","",""
"null","3861647","pSARL_v2","pSARL_v2rt7u15o6","570fa921f895a7000f38ca6f","points","<div class=""verylowPoints""> -3 </div>","null","na","test","","","","4","-3","3"
"696","3862349","pSARL_v2","pSARL_v2rt7u15o6","570fa921f895a7000f38ca6f","freq","img/green_2bandit_a2.png","68","70","test","0","91","91","5","",""
"null","3862465","pSARL_v2","pSARL_v2rt7u15o6","570fa921f895a7000f38ca6f","freq_resp","img/green_2bandit_a.png","68","70","test","","","","5","",""
"null","3862632","pSARL_v2","pSARL_v2rt7u15o6","570fa921f895a7000f38ca6f","fixation","img/fixation.png","null","","test","","","","","",""
"344","3862981","pSARL_v2","pSARL_v2rt7u15o6","570fa921f895a7000f38ca6f","freq","img/green_2bandit_a2.png","70","70","test","1","92","92","5","",""
"null","3863444","pSARL_v2","pSARL_v2rt7u15o6","570fa921f895a7000f38ca6f","freq_resp","img/green_2bandit_a.png","70","70","test","","","","5","",""
"null","3863599","pSARL_v2","pSARL_v2rt7u15o6","570fa921f895a7000f38ca6f","fixation","img/fixation.png","null","","test","","","","","",""
"207","3863814","pSARL_v2","pSARL_v2rt7u15o6","570fa921f895a7000f38ca6f","freq","img/green_2bandit_a2.png","70","70","test","1","93","93","5","",""
"null","3864429","pSARL_v2","pSARL_v2rt7u15o6","570fa921f895a7000f38ca6f","freq_resp","img/green_2bandit_a.png","70","70","test","","","","5","",""
"null","3864598","pSARL_v2","pSARL_v2rt7u15o6","570fa921f895a7000f38ca6f","fixation","img/fixation.png","null","","test","","","","","",""
"269","3864875","pSARL_v2","pSARL_v2rt7u15o6","570fa921f895a7000f38ca6f","freq","img/green_2bandit_a2.png","70","70","test","1","94","94","5","",""
"null","3865416","pSARL_v2","pSARL_v2rt7u15o6","570fa921f895a7000f38ca6f","freq_resp","img/green_2bandit_a.png","70","70","test","","","","5","",""
"null","3865585","pSARL_v2","pSARL_v2rt7u15o6","570fa921f895a7000f38ca6f","fixation","img/fixation.png","null","","test","","","","","",""
"240","3865832","pSARL_v2","pSARL_v2rt7u15o6","570fa921f895a7000f38ca6f","freq","img/green_2bandit_a2.png","70","70","test","1","95","95","5","",""
"null","3866402","pSARL_v2","pSARL_v2rt7u15o6","570fa921f895a7000f38ca6f","freq_resp","img/green_2bandit_a.png","70","70","test","","","","5","",""
"null","3866559","pSARL_v2","pSARL_v2rt7u15o6","570fa921f895a7000f38ca6f","fixation","img/fixation.png","null","","test","","","","","",""
"235","3866797","pSARL_v2","pSARL_v2rt7u15o6","570fa921f895a7000f38ca6f","freq","img/green_2bandit_a2.png","70","70","test","1","96","96","5","",""
"null","3867371","pSARL_v2","pSARL_v2rt7u15o6","570fa921f895a7000f38ca6f","freq_resp","img/green_2bandit_a.png","70","70","test","","","","5","",""
"null","3867524","pSARL_v2","pSARL_v2rt7u15o6","570fa921f895a7000f38ca6f","fixation","img/fixation.png","null","","test","","","","","",""
"248","3867774","pSARL_v2","pSARL_v2rt7u15o6","570fa921f895a7000f38ca6f","freq","img/green_2bandit_a2.png","70","70","test","1","97","97","5","",""
"null","3868338","pSARL_v2","pSARL_v2rt7u15o6","570fa921f895a7000f38ca6f","freq_resp","img/green_2bandit_a.png","70","70","test","","","","5","",""
"null","3868493","pSARL_v2","pSARL_v2rt7u15o6","570fa921f895a7000f38ca6f","fixation","img/fixation.png","null","","test","","","","","",""
"272","3868767","pSARL_v2","pSARL_v2rt7u15o6","570fa921f895a7000f38ca6f","freq","img/green_2bandit_a2.png","70","70","test","1","98","98","5","",""
"null","3869311","pSARL_v2","pSARL_v2rt7u15o6","570fa921f895a7000f38ca6f","freq_resp","img/green_2bandit_a.png","70","70","test","","","","5","",""
"null","3869468","pSARL_v2","pSARL_v2rt7u15o6","570fa921f895a7000f38ca6f","fixation","img/fixation.png","null","","test","","","","","",""
"265","3869739","pSARL_v2","pSARL_v2rt7u15o6","570fa921f895a7000f38ca6f","freq","img/green_2bandit_a2.png","70","70","test","1","99","99","5","",""
"null","3870289","pSARL_v2","pSARL_v2rt7u15o6","570fa921f895a7000f38ca6f","freq_resp","img/green_2bandit_a.png","70","70","test","","","","5","",""
"null","3870457","pSARL_v2","pSARL_v2rt7u15o6","570fa921f895a7000f38ca6f","fixation","img/fixation.png","null","","test","","","","","",""
"263","3870723","pSARL_v2","pSARL_v2rt7u15o6","570fa921f895a7000f38ca6f","freq","img/green_2bandit_a2.png","70","70","test","1","100","100","5","",""
"null","3871275","pSARL_v2","pSARL_v2rt7u15o6","570fa921f895a7000f38ca6f","freq_resp","img/green_2bandit_a.png","70","70","test","","","","5","",""
"null","3871443","pSARL_v2","pSARL_v2rt7u15o6","570fa921f895a7000f38ca6f","fixation","img/fixation.png","null","","test","","","","","",""
"267","3871716","pSARL_v2","pSARL_v2rt7u15o6","570fa921f895a7000f38ca6f","freq","img/green_2bandit_a2.png","70","70","test","1","101","101","5","",""
"null","3872260","pSARL_v2","pSARL_v2rt7u15o6","570fa921f895a7000f38ca6f","freq_resp","img/green_2bandit_a.png","70","70","test","","","","5","",""
"null","3872430","pSARL_v2","pSARL_v2rt7u15o6","570fa921f895a7000f38ca6f","fixation","img/fixation.png","null","","test","","","","","",""
"241","3872676","pSARL_v2","pSARL_v2rt7u15o6","570fa921f895a7000f38ca6f","freq","img/green_2bandit_a2.png","70","70","test","1","102","102","5","",""
"null","3873257","pSARL_v2","pSARL_v2rt7u15o6","570fa921f895a7000f38ca6f","freq_resp","img/green_2bandit_a.png","70","70","test","","","","5","",""
"null","3873424","pSARL_v2","pSARL_v2rt7u15o6","570fa921f895a7000f38ca6f","fixation","img/fixation.png","null","","test","","","","","",""
"141","3873571","pSARL_v2","pSARL_v2rt7u15o6","570fa921f895a7000f38ca6f","infreq","img/orange_2bandit_a2.png","70","68","test","0","103","103","5","",""
"null","3874246","pSARL_v2","pSARL_v2rt7u15o6","570fa921f895a7000f38ca6f","infreq_resp","img/orange_2bandit_a.png","70","68","test","","","","5","",""
"null","3874400","pSARL_v2","pSARL_v2rt7u15o6","570fa921f895a7000f38ca6f","fixation","img/fixation.png","null","","test","","","","","",""
"418","3874824","pSARL_v2","pSARL_v2rt7u15o6","570fa921f895a7000f38ca6f","freq","img/green_2bandit_a2.png","70","70","test","1","104","104","5","",""
"null","3875222","pSARL_v2","pSARL_v2rt7u15o6","570fa921f895a7000f38ca6f","freq_resp","img/green_2bandit_a.png","70","70","test","","","","5","",""
"null","3875386","pSARL_v2","pSARL_v2rt7u15o6","570fa921f895a7000f38ca6f","fixation","img/fixation.png","null","","test","","","","","",""
"531","3875918","pSARL_v2","pSARL_v2rt7u15o6","570fa921f895a7000f38ca6f","freq","img/green_2bandit_a2.png","70","70","test","1","105","105","5","",""
"null","3876200","pSARL_v2","pSARL_v2rt7u15o6","570fa921f895a7000f38ca6f","freq_resp","img/green_2bandit_a.png","70","70","test","","","","5","",""
"null","3876373","pSARL_v2","pSARL_v2rt7u15o6","570fa921f895a7000f38ca6f","fixation","img/fixation.png","null","","test","","","","","",""
"437","3876814","pSARL_v2","pSARL_v2rt7u15o6","570fa921f895a7000f38ca6f","freq","img/green_2bandit_a2.png","70","70","test","1","106","106","5","",""
"null","3877193","pSARL_v2","pSARL_v2rt7u15o6","570fa921f895a7000f38ca6f","freq_resp","img/green_2bandit_a.png","70","70","test","","","","5","",""
"null","3877351","pSARL_v2","pSARL_v2rt7u15o6","570fa921f895a7000f38ca6f","fixation","img/fixation.png","null","","test","","","","","",""
"291","3877647","pSARL_v2","pSARL_v2rt7u15o6","570fa921f895a7000f38ca6f","freq","img/green_2bandit_a2.png","70","70","test","1","107","107","5","",""
"null","3878171","pSARL_v2","pSARL_v2rt7u15o6","570fa921f895a7000f38ca6f","freq_resp","img/green_2bandit_a.png","70","70","test","","","","5","",""
"null","3878339","pSARL_v2","pSARL_v2rt7u15o6","570fa921f895a7000f38ca6f","fixation","img/fixation.png","null","","test","","","","","",""
"286","3878632","pSARL_v2","pSARL_v2rt7u15o6","570fa921f895a7000f38ca6f","freq","img/green_2bandit_a2.png","70","70","test","1","108","108","5","",""
"null","3879157","pSARL_v2","pSARL_v2rt7u15o6","570fa921f895a7000f38ca6f","freq_resp","img/green_2bandit_a.png","70","70","test","","","","5","",""
"null","3879315","pSARL_v2","pSARL_v2rt7u15o6","570fa921f895a7000f38ca6f","fixation","img/fixation.png","null","","test","","","","","",""
"112","3879434","pSARL_v2","pSARL_v2rt7u15o6","570fa921f895a7000f38ca6f","freq","img/green_2bandit_a2.png","70","70","test","1","109","109","5","",""
"null","3880186","pSARL_v2","pSARL_v2rt7u15o6","570fa921f895a7000f38ca6f","freq_resp","img/green_2bandit_a.png","70","70","test","","","","5","",""
"null","3880357","pSARL_v2","pSARL_v2rt7u15o6","570fa921f895a7000f38ca6f","fixation","img/fixation.png","null","","test","","","","","",""
"292","3880653","pSARL_v2","pSARL_v2rt7u15o6","570fa921f895a7000f38ca6f","freq","img/green_2bandit_a2.png","70","70","test","1","110","110","5","",""
"null","3881175","pSARL_v2","pSARL_v2rt7u15o6","570fa921f895a7000f38ca6f","freq_resp","img/green_2bandit_a.png","70","70","test","","","","5","",""
"null","3881328","pSARL_v2","pSARL_v2rt7u15o6","570fa921f895a7000f38ca6f","fixation","img/fixation.png","null","","test","","","","","",""
"434","3881769","pSARL_v2","pSARL_v2rt7u15o6","570fa921f895a7000f38ca6f","infreq","img/orange_2bandit_a2.png","68","68","test","1","111","111","5","",""
"null","3882150","pSARL_v2","pSARL_v2rt7u15o6","570fa921f895a7000f38ca6f","infreq_resp","img/orange_2bandit_a.png","68","68","test","","","","5","",""
"null","3882319","pSARL_v2","pSARL_v2rt7u15o6","570fa921f895a7000f38ca6f","fixation","img/fixation.png","null","","test","","","","","",""
"374","3882696","pSARL_v2","pSARL_v2rt7u15o6","570fa921f895a7000f38ca6f","freq","img/green_2bandit_a2.png","70","70","test","1","112","112","5","",""
"null","3883141","pSARL_v2","pSARL_v2rt7u15o6","570fa921f895a7000f38ca6f","freq_resp","img/green_2bandit_a.png","70","70","test","","","","5","",""
"null","3883311","pSARL_v2","pSARL_v2rt7u15o6","570fa921f895a7000f38ca6f","fixation","img/fixation.png","null","","test","","","","","",""
"498","3883818","pSARL_v2","pSARL_v2rt7u15o6","570fa921f895a7000f38ca6f","freq","img/green_2bandit_a2.png","70","70","test","1","113","113","5","",""
"null","3884130","pSARL_v2","pSARL_v2rt7u15o6","570fa921f895a7000f38ca6f","freq_resp","img/green_2bandit_a.png","70","70","test","","","","5","",""
"null","3884289","pSARL_v2","pSARL_v2rt7u15o6","570fa921f895a7000f38ca6f","fixation","img/fixation.png","null","","test","","","","","",""
"293","3884591","pSARL_v2","pSARL_v2rt7u15o6","570fa921f895a7000f38ca6f","freq","img/green_2bandit_a2.png","70","70","test","1","114","114","5","",""
"null","3885170","pSARL_v2","pSARL_v2rt7u15o6","570fa921f895a7000f38ca6f","freq_resp","img/green_2bandit_a.png","70","70","test","","","","5","",""
"null","3885339","pSARL_v2","pSARL_v2rt7u15o6","570fa921f895a7000f38ca6f","fixation","img/fixation.png","null","","test","","","","","",""
"198","3885542","pSARL_v2","pSARL_v2rt7u15o6","570fa921f895a7000f38ca6f","freq","img/green_2bandit_a2.png","70","70","test","1","115","115","5","",""
"null","3886161","pSARL_v2","pSARL_v2rt7u15o6","570fa921f895a7000f38ca6f","freq_resp","img/green_2bandit_a.png","70","70","test","","","","5","",""
"null","3886328","pSARL_v2","pSARL_v2rt7u15o6","570fa921f895a7000f38ca6f","fixation","img/fixation.png","null","","test","","","","","",""
"522","3886857","pSARL_v2","pSARL_v2rt7u15o6","570fa921f895a7000f38ca6f","reward","img/slot.png","74","","test","","","","","",""
"null","3887611","pSARL_v2","pSARL_v2rt7u15o6","570fa921f895a7000f38ca6f","points","<div class=""veryhighPoints""> +1 </div>","null","na","test","","","","5","1","4"
"631","3888247","pSARL_v2","pSARL_v2rt7u15o6","570fa921f895a7000f38ca6f","freq","img/green_2bandit_a2.png","68","70","test","0","116","116","6","",""
"null","3888432","pSARL_v2","pSARL_v2rt7u15o6","570fa921f895a7000f38ca6f","freq_resp","img/green_2bandit_a.png","68","70","test","","","","6","",""
"null","3888599","pSARL_v2","pSARL_v2rt7u15o6","570fa921f895a7000f38ca6f","fixation","img/fixation.png","null","","test","","","","","",""
"304","3888910","pSARL_v2","pSARL_v2rt7u15o6","570fa921f895a7000f38ca6f","freq","img/green_2bandit_a2.png","70","70","test","1","117","117","6","",""
"null","3889423","pSARL_v2","pSARL_v2rt7u15o6","570fa921f895a7000f38ca6f","freq_resp","img/green_2bandit_a.png","70","70","test","","","","6","",""
"null","3889592","pSARL_v2","pSARL_v2rt7u15o6","570fa921f895a7000f38ca6f","fixation","img/fixation.png","null","","test","","","","","",""
"120","3889717","pSARL_v2","pSARL_v2rt7u15o6","570fa921f895a7000f38ca6f","freq","img/green_2bandit_a2.png","70","70","test","1","118","118","6","",""
"null","3890408","pSARL_v2","pSARL_v2rt7u15o6","570fa921f895a7000f38ca6f","freq_resp","img/green_2bandit_a.png","70","70","test","","","","6","",""
"null","3890573","pSARL_v2","pSARL_v2rt7u15o6","570fa921f895a7000f38ca6f","fixation","img/fixation.png","null","","test","","","","","",""
"66","3890642","pSARL_v2","pSARL_v2rt7u15o6","570fa921f895a7000f38ca6f","freq","img/green_2bandit_a2.png","70","70","test","1","119","119","6","",""
"null","3891399","pSARL_v2","pSARL_v2rt7u15o6","570fa921f895a7000f38ca6f","freq_resp","img/green_2bandit_a.png","70","70","test","","","","6","",""
"null","3891567","pSARL_v2","pSARL_v2rt7u15o6","570fa921f895a7000f38ca6f","fixation","img/fixation.png","null","","test","","","","","",""
"58","3891633","pSARL_v2","pSARL_v2rt7u15o6","570fa921f895a7000f38ca6f","freq","img/green_2bandit_a2.png","70","70","test","1","120","120","6","",""
"null","3892395","pSARL_v2","pSARL_v2rt7u15o6","570fa921f895a7000f38ca6f","freq_resp","img/green_2bandit_a.png","70","70","test","","","","6","",""
"null","3892566","pSARL_v2","pSARL_v2rt7u15o6","570fa921f895a7000f38ca6f","fixation","img/fixation.png","null","","test","","","","","",""
"45","3892618","pSARL_v2","pSARL_v2rt7u15o6","570fa921f895a7000f38ca6f","freq","img/green_2bandit_a2.png","70","70","test","1","121","121","6","",""
"null","3893440","pSARL_v2","pSARL_v2rt7u15o6","570fa921f895a7000f38ca6f","freq_resp","img/green_2bandit_a.png","70","70","test","","","","6","",""
"null","3893608","pSARL_v2","pSARL_v2rt7u15o6","570fa921f895a7000f38ca6f","fixation","img/fixation.png","null","","test","","","","","",""
"101","3893710","pSARL_v2","pSARL_v2rt7u15o6","570fa921f895a7000f38ca6f","freq","img/green_2bandit_a2.png","70","70","test","1","122","122","6","",""
"null","3894426","pSARL_v2","pSARL_v2rt7u15o6","570fa921f895a7000f38ca6f","freq_resp","img/green_2bandit_a.png","70","70","test","","","","6","",""
"null","3894587","pSARL_v2","pSARL_v2rt7u15o6","570fa921f895a7000f38ca6f","fixation","img/fixation.png","null","","test","","","","","",""
"101","3894689","pSARL_v2","pSARL_v2rt7u15o6","570fa921f895a7000f38ca6f","freq","img/green_2bandit_a2.png","70","70","test","1","123","123","6","",""
"null","3895391","pSARL_v2","pSARL_v2rt7u15o6","570fa921f895a7000f38ca6f","freq_resp","img/green_2bandit_a.png","70","70","test","","","","6","",""
"null","3895547","pSARL_v2","pSARL_v2rt7u15o6","570fa921f895a7000f38ca6f","fixation","img/fixation.png","null","","test","","","","","",""
"100","3895649","pSARL_v2","pSARL_v2rt7u15o6","570fa921f895a7000f38ca6f","freq","img/green_2bandit_a2.png","70","70","test","1","124","124","6","",""
"null","3896363","pSARL_v2","pSARL_v2rt7u15o6","570fa921f895a7000f38ca6f","freq_resp","img/green_2bandit_a.png","70","70","test","","","","6","",""
"null","3896519","pSARL_v2","pSARL_v2rt7u15o6","570fa921f895a7000f38ca6f","fixation","img/fixation.png","null","","test","","","","","",""
"88","3896609","pSARL_v2","pSARL_v2rt7u15o6","570fa921f895a7000f38ca6f","freq","img/green_2bandit_a2.png","70","70","test","1","125","125","6","",""
"null","3897331","pSARL_v2","pSARL_v2rt7u15o6","570fa921f895a7000f38ca6f","freq_resp","img/green_2bandit_a.png","70","70","test","","","","6","",""
"null","3897488","pSARL_v2","pSARL_v2rt7u15o6","570fa921f895a7000f38ca6f","fixation","img/fixation.png","null","","test","","","","","",""
"112","3897602","pSARL_v2","pSARL_v2rt7u15o6","570fa921f895a7000f38ca6f","freq","img/green_2bandit_a2.png","70","70","test","1","126","126","6","",""
"null","3898299","pSARL_v2","pSARL_v2rt7u15o6","570fa921f895a7000f38ca6f","freq_resp","img/green_2bandit_a.png","70","70","test","","","","6","",""
"null","3898453","pSARL_v2","pSARL_v2rt7u15o6","570fa921f895a7000f38ca6f","fixation","img/fixation.png","null","","test","","","","","",""
"298","3898754","pSARL_v2","pSARL_v2rt7u15o6","570fa921f895a7000f38ca6f","freq","img/green_2bandit_a2.png","70","70","test","1","127","127","6","",""
"null","3899267","pSARL_v2","pSARL_v2rt7u15o6","570fa921f895a7000f38ca6f","freq_resp","img/green_2bandit_a.png","70","70","test","","","","6","",""
"null","3899421","pSARL_v2","pSARL_v2rt7u15o6","570fa921f895a7000f38ca6f","fixation","img/fixation.png","null","","test","","","","","",""
"300","3899724","pSARL_v2","pSARL_v2rt7u15o6","570fa921f895a7000f38ca6f","freq","img/green_2bandit_a2.png","70","70","test","1","128","128","6","",""
"null","3900241","pSARL_v2","pSARL_v2rt7u15o6","570fa921f895a7000f38ca6f","freq_resp","img/green_2bandit_a.png","70","70","test","","","","6","",""
"null","3900396","pSARL_v2","pSARL_v2rt7u15o6","570fa921f895a7000f38ca6f","fixation","img/fixation.png","null","","test","","","","","",""
"308","3900706","pSARL_v2","pSARL_v2rt7u15o6","570fa921f895a7000f38ca6f","freq","img/green_2bandit_a2.png","70","70","test","1","129","129","6","",""
"null","3901210","pSARL_v2","pSARL_v2rt7u15o6","570fa921f895a7000f38ca6f","freq_resp","img/green_2bandit_a.png","70","70","test","","","","6","",""
"null","3901369","pSARL_v2","pSARL_v2rt7u15o6","570fa921f895a7000f38ca6f","fixation","img/fixation.png","null","","test","","","","","",""
"488","3901859","pSARL_v2","pSARL_v2rt7u15o6","570fa921f895a7000f38ca6f","infreq","img/orange_2bandit_a2.png","68","68","test","1","130","130","6","",""
"null","3902176","pSARL_v2","pSARL_v2rt7u15o6","570fa921f895a7000f38ca6f","infreq_resp","img/orange_2bandit_a.png","68","68","test","","","","6","",""
"null","3902337","pSARL_v2","pSARL_v2rt7u15o6","570fa921f895a7000f38ca6f","fixation","img/fixation.png","null","","test","","","","","",""
"383","3902723","pSARL_v2","pSARL_v2rt7u15o6","570fa921f895a7000f38ca6f","freq","img/green_2bandit_a2.png","70","70","test","1","131","131","6","",""
"null","3903141","pSARL_v2","pSARL_v2rt7u15o6","570fa921f895a7000f38ca6f","freq_resp","img/green_2bandit_a.png","70","70","test","","","","6","",""
"null","3903302","pSARL_v2","pSARL_v2rt7u15o6","570fa921f895a7000f38ca6f","fixation","img/fixation.png","null","","test","","","","","",""
"385","3903689","pSARL_v2","pSARL_v2rt7u15o6","570fa921f895a7000f38ca6f","freq","img/green_2bandit_a2.png","70","70","test","1","132","132","6","",""
"null","3904117","pSARL_v2","pSARL_v2rt7u15o6","570fa921f895a7000f38ca6f","freq_resp","img/green_2bandit_a.png","70","70","test","","","","6","",""
"null","3904276","pSARL_v2","pSARL_v2rt7u15o6","570fa921f895a7000f38ca6f","fixation","img/fixation.png","null","","test","","","","","",""
"524","3904802","pSARL_v2","pSARL_v2rt7u15o6","570fa921f895a7000f38ca6f","infreq","img/orange_2bandit_a2.png","68","68","test","1","133","133","6","",""
"null","3905082","pSARL_v2","pSARL_v2rt7u15o6","570fa921f895a7000f38ca6f","infreq_resp","img/orange_2bandit_a.png","68","68","test","","","","6","",""
"null","3905240","pSARL_v2","pSARL_v2rt7u15o6","570fa921f895a7000f38ca6f","fixation","img/fixation.png","null","","test","","","","","",""
"432","3905674","pSARL_v2","pSARL_v2rt7u15o6","570fa921f895a7000f38ca6f","freq","img/green_2bandit_a2.png","70","70","test","1","134","134","6","",""
"null","3906047","pSARL_v2","pSARL_v2rt7u15o6","570fa921f895a7000f38ca6f","freq_resp","img/green_2bandit_a.png","70","70","test","","","","6","",""
"null","3906206","pSARL_v2","pSARL_v2rt7u15o6","570fa921f895a7000f38ca6f","fixation","img/fixation.png","null","","test","","","","","",""
"323","3906531","pSARL_v2","pSARL_v2rt7u15o6","570fa921f895a7000f38ca6f","freq","img/green_2bandit_a2.png","70","70","test","1","135","135","6","",""
"null","3907012","pSARL_v2","pSARL_v2rt7u15o6","570fa921f895a7000f38ca6f","freq_resp","img/green_2bandit_a.png","70","70","test","","","","6","",""
"null","3907170","pSARL_v2","pSARL_v2rt7u15o6","570fa921f895a7000f38ca6f","fixation","img/fixation.png","null","","test","","","","","",""
"1006","3908178","pSARL_v2","pSARL_v2rt7u15o6","570fa921f895a7000f38ca6f","reward","img/slot.png","74","","test","","","","","",""
"null","3908942","pSARL_v2","pSARL_v2rt7u15o6","570fa921f895a7000f38ca6f","points","<div class=""verylowPoints""> -7 </div>","null","na","test","","","","6","-7","5"
"595","3909539","pSARL_v2","pSARL_v2rt7u15o6","570fa921f895a7000f38ca6f","freq","img/green_2bandit_a2.png","70","70","test","1","136","136","7","",""
"null","3909757","pSARL_v2","pSARL_v2rt7u15o6","570fa921f895a7000f38ca6f","freq_resp","img/green_2bandit_a.png","70","70","test","","","","7","",""
"null","3909909","pSARL_v2","pSARL_v2rt7u15o6","570fa921f895a7000f38ca6f","fixation","img/fixation.png","null","","test","","","","","",""
"300","3910212","pSARL_v2","pSARL_v2rt7u15o6","570fa921f895a7000f38ca6f","infreq","img/orange_2bandit_a2.png","70","68","test","0","137","137","7","",""
"null","3910724","pSARL_v2","pSARL_v2rt7u15o6","570fa921f895a7000f38ca6f","infreq_resp","img/orange_2bandit_a.png","70","68","test","","","","7","",""
"null","3910882","pSARL_v2","pSARL_v2rt7u15o6","570fa921f895a7000f38ca6f","fixation","img/fixation.png","null","","test","","","","","",""
"415","3911299","pSARL_v2","pSARL_v2rt7u15o6","570fa921f895a7000f38ca6f","freq","img/green_2bandit_a2.png","70","70","test","1","138","138","7","",""
"null","3911692","pSARL_v2","pSARL_v2rt7u15o6","570fa921f895a7000f38ca6f","freq_resp","img/green_2bandit_a.png","70","70","test","","","","7","",""
"null","3911849","pSARL_v2","pSARL_v2rt7u15o6","570fa921f895a7000f38ca6f","fixation","img/fixation.png","null","","test","","","","","",""
"518","3912369","pSARL_v2","pSARL_v2rt7u15o6","570fa921f895a7000f38ca6f","infreq","img/orange_2bandit_a2.png","68","68","test","1","139","139","7","",""
"null","3912666","pSARL_v2","pSARL_v2rt7u15o6","570fa921f895a7000f38ca6f","infreq_resp","img/orange_2bandit_a.png","68","68","test","","","","7","",""
"null","3912827","pSARL_v2","pSARL_v2rt7u15o6","570fa921f895a7000f38ca6f","fixation","img/fixation.png","null","","test","","","","","",""
"455","3913286","pSARL_v2","pSARL_v2rt7u15o6","570fa921f895a7000f38ca6f","freq","img/green_2bandit_a2.png","70","70","test","1","140","140","7","",""
"null","3913646","pSARL_v2","pSARL_v2rt7u15o6","570fa921f895a7000f38ca6f","freq_resp","img/green_2bandit_a.png","70","70","test","","","","7","",""
"null","3913806","pSARL_v2","pSARL_v2rt7u15o6","570fa921f895a7000f38ca6f","fixation","img/fixation.png","null","","test","","","","","",""
"340","3914148","pSARL_v2","pSARL_v2rt7u15o6","570fa921f895a7000f38ca6f","freq","img/green_2bandit_a2.png","70","70","test","1","141","141","7","",""
"null","3914628","pSARL_v2","pSARL_v2rt7u15o6","570fa921f895a7000f38ca6f","freq_resp","img/green_2bandit_a.png","70","70","test","","","","7","",""
"null","3914798","pSARL_v2","pSARL_v2rt7u15o6","570fa921f895a7000f38ca6f","fixation","img/fixation.png","null","","test","","","","","",""
"249","3915050","pSARL_v2","pSARL_v2rt7u15o6","570fa921f895a7000f38ca6f","freq","img/green_2bandit_a2.png","70","70","test","1","142","142","7","",""
"null","3915609","pSARL_v2","pSARL_v2rt7u15o6","570fa921f895a7000f38ca6f","freq_resp","img/green_2bandit_a.png","70","70","test","","","","7","",""
"null","3915763","pSARL_v2","pSARL_v2rt7u15o6","570fa921f895a7000f38ca6f","fixation","img/fixation.png","null","","test","","","","","",""
"305","3916074","pSARL_v2","pSARL_v2rt7u15o6","570fa921f895a7000f38ca6f","freq","img/green_2bandit_a2.png","70","70","test","1","143","143","7","",""
"null","3916644","pSARL_v2","pSARL_v2rt7u15o6","570fa921f895a7000f38ca6f","freq_resp","img/green_2bandit_a.png","70","70","test","","","","7","",""
"null","3916814","pSARL_v2","pSARL_v2rt7u15o6","570fa921f895a7000f38ca6f","fixation","img/fixation.png","null","","test","","","","","",""
"308","3917125","pSARL_v2","pSARL_v2rt7u15o6","570fa921f895a7000f38ca6f","freq","img/green_2bandit_a2.png","70","70","test","1","144","144","7","",""
"null","3917621","pSARL_v2","pSARL_v2rt7u15o6","570fa921f895a7000f38ca6f","freq_resp","img/green_2bandit_a.png","70","70","test","","","","7","",""
"null","3917777","pSARL_v2","pSARL_v2rt7u15o6","570fa921f895a7000f38ca6f","fixation","img/fixation.png","null","","test","","","","","",""
"279","3918061","pSARL_v2","pSARL_v2rt7u15o6","570fa921f895a7000f38ca6f","freq","img/green_2bandit_a2.png","70","70","test","1","145","145","7","",""
"null","3918657","pSARL_v2","pSARL_v2rt7u15o6","570fa921f895a7000f38ca6f","freq_resp","img/green_2bandit_a.png","70","70","test","","","","7","",""
"null","3918817","pSARL_v2","pSARL_v2rt7u15o6","570fa921f895a7000f38ca6f","fixation","img/fixation.png","null","","test","","","","","",""
"326","3919150","pSARL_v2","pSARL_v2rt7u15o6","570fa921f895a7000f38ca6f","freq","img/green_2bandit_a2.png","70","70","test","1","146","146","7","",""
"null","3919636","pSARL_v2","pSARL_v2rt7u15o6","570fa921f895a7000f38ca6f","freq_resp","img/green_2bandit_a.png","70","70","test","","","","7","",""
"null","3919802","pSARL_v2","pSARL_v2rt7u15o6","570fa921f895a7000f38ca6f","fixation","img/fixation.png","null","","test","","","","","",""
"391","3920196","pSARL_v2","pSARL_v2rt7u15o6","570fa921f895a7000f38ca6f","freq","img/green_2bandit_a2.png","70","70","test","1","147","147","7","",""
"null","3920620","pSARL_v2","pSARL_v2rt7u15o6","570fa921f895a7000f38ca6f","freq_resp","img/green_2bandit_a.png","70","70","test","","","","7","",""
"null","3920788","pSARL_v2","pSARL_v2rt7u15o6","570fa921f895a7000f38ca6f","fixation","img/fixation.png","null","","test","","","","","",""
"305","3921100","pSARL_v2","pSARL_v2rt7u15o6","570fa921f895a7000f38ca6f","freq","img/green_2bandit_a2.png","70","70","test","1","148","148","7","",""
"null","3921616","pSARL_v2","pSARL_v2rt7u15o6","570fa921f895a7000f38ca6f","freq_resp","img/green_2bandit_a.png","70","70","test","","","","7","",""
"null","3921786","pSARL_v2","pSARL_v2rt7u15o6","570fa921f895a7000f38ca6f","fixation","img/fixation.png","null","","test","","","","","",""
"329","3922117","pSARL_v2","pSARL_v2rt7u15o6","570fa921f895a7000f38ca6f","freq","img/green_2bandit_a2.png","70","70","test","1","149","149","7","",""
"null","3922594","pSARL_v2","pSARL_v2rt7u15o6","570fa921f895a7000f38ca6f","freq_resp","img/green_2bandit_a.png","70","70","test","","","","7","",""
"null","3922751","pSARL_v2","pSARL_v2rt7u15o6","570fa921f895a7000f38ca6f","fixation","img/fixation.png","null","","test","","","","","",""
"423","3923179","pSARL_v2","pSARL_v2rt7u15o6","570fa921f895a7000f38ca6f","freq","img/green_2bandit_a2.png","70","70","test","1","150","150","7","",""
"null","3923570","pSARL_v2","pSARL_v2rt7u15o6","570fa921f895a7000f38ca6f","freq_resp","img/green_2bandit_a.png","70","70","test","","","","7","",""
"null","3923727","pSARL_v2","pSARL_v2rt7u15o6","570fa921f895a7000f38ca6f","fixation","img/fixation.png","null","","test","","","","","",""
"565","3924296","pSARL_v2","pSARL_v2rt7u15o6","570fa921f895a7000f38ca6f","freq","img/green_2bandit_a2.png","70","70","test","1","151","151","7","",""
"null","3924550","pSARL_v2","pSARL_v2rt7u15o6","570fa921f895a7000f38ca6f","freq_resp","img/green_2bandit_a.png","70","70","test","","","","7","",""
"null","3924719","pSARL_v2","pSARL_v2rt7u15o6","570fa921f895a7000f38ca6f","fixation","img/fixation.png","null","","test","","","","","",""
"404","3925126","pSARL_v2","pSARL_v2rt7u15o6","570fa921f895a7000f38ca6f","freq","img/green_2bandit_a2.png","70","70","test","1","152","152","7","",""
"null","3925533","pSARL_v2","pSARL_v2rt7u15o6","570fa921f895a7000f38ca6f","freq_resp","img/green_2bandit_a.png","70","70","test","","","","7","",""
"null","3925698","pSARL_v2","pSARL_v2rt7u15o6","570fa921f895a7000f38ca6f","fixation","img/fixation.png","null","","test","","","","","",""
"351","3926051","pSARL_v2","pSARL_v2rt7u15o6","570fa921f895a7000f38ca6f","freq","img/green_2bandit_a2.png","70","70","test","1","153","153","7","",""
"null","3926515","pSARL_v2","pSARL_v2rt7u15o6","570fa921f895a7000f38ca6f","freq_resp","img/green_2bandit_a.png","70","70","test","","","","7","",""
"null","3926671","pSARL_v2","pSARL_v2rt7u15o6","570fa921f895a7000f38ca6f","fixation","img/fixation.png","null","","test","","","","","",""
"251","3926927","pSARL_v2","pSARL_v2rt7u15o6","570fa921f895a7000f38ca6f","freq","img/green_2bandit_a2.png","70","70","test","1","154","154","7","",""
"null","3927485","pSARL_v2","pSARL_v2rt7u15o6","570fa921f895a7000f38ca6f","freq_resp","img/green_2bandit_a.png","70","70","test","","","","7","",""
"null","3927644","pSARL_v2","pSARL_v2rt7u15o6","570fa921f895a7000f38ca6f","fixation","img/fixation.png","null","","test","","","","","",""
"324","3927971","pSARL_v2","pSARL_v2rt7u15o6","570fa921f895a7000f38ca6f","freq","img/green_2bandit_a2.png","70","70","test","1","155","155","7","",""
"null","3928464","pSARL_v2","pSARL_v2rt7u15o6","570fa921f895a7000f38ca6f","freq_resp","img/green_2bandit_a.png","70","70","test","","","","7","",""
"null","3928636","pSARL_v2","pSARL_v2rt7u15o6","570fa921f895a7000f38ca6f","fixation","img/fixation.png","null","","test","","","","","",""
"969","3929609","pSARL_v2","pSARL_v2rt7u15o6","570fa921f895a7000f38ca6f","reward","img/slot.png","74","","test","","","","","",""
"null","3930380","pSARL_v2","pSARL_v2rt7u15o6","570fa921f895a7000f38ca6f","points","<div class=""verylowPoints""> -6 </div>","null","na","test","","","","7","-6","6"
"639","3931021","pSARL_v2","pSARL_v2rt7u15o6","570fa921f895a7000f38ca6f","freq","img/green_2bandit_a2.png","70","70","test","1","156","156","8","",""
"null","3931185","pSARL_v2","pSARL_v2rt7u15o6","570fa921f895a7000f38ca6f","freq_resp","img/green_2bandit_a.png","70","70","test","","","","8","",""
"null","3931339","pSARL_v2","pSARL_v2rt7u15o6","570fa921f895a7000f38ca6f","fixation","img/fixation.png","null","","test","","","","","",""
"566","3931908","pSARL_v2","pSARL_v2rt7u15o6","570fa921f895a7000f38ca6f","freq","img/green_2bandit_a2.png","70","70","test","1","157","157","8","",""
"null","3932159","pSARL_v2","pSARL_v2rt7u15o6","570fa921f895a7000f38ca6f","freq_resp","img/green_2bandit_a.png","70","70","test","","","","8","",""
"null","3932319","pSARL_v2","pSARL_v2rt7u15o6","570fa921f895a7000f38ca6f","fixation","img/fixation.png","null","","test","","","","","",""
"287","3932611","pSARL_v2","pSARL_v2rt7u15o6","570fa921f895a7000f38ca6f","freq","img/green_2bandit_a2.png","70","70","test","1","158","158","8","",""
"null","3933140","pSARL_v2","pSARL_v2rt7u15o6","570fa921f895a7000f38ca6f","freq_resp","img/green_2bandit_a.png","70","70","test","","","","8","",""
"null","3933300","pSARL_v2","pSARL_v2rt7u15o6","570fa921f895a7000f38ca6f","fixation","img/fixation.png","null","","test","","","","","",""
"143","3933449","pSARL_v2","pSARL_v2rt7u15o6","570fa921f895a7000f38ca6f","freq","img/green_2bandit_a2.png","70","70","test","1","159","159","8","",""
"null","3934116","pSARL_v2","pSARL_v2rt7u15o6","570fa921f895a7000f38ca6f","freq_resp","img/green_2bandit_a.png","70","70","test","","","","8","",""
"null","3934289","pSARL_v2","pSARL_v2rt7u15o6","570fa921f895a7000f38ca6f","fixation","img/fixation.png","null","","test","","","","","",""
"257","3934552","pSARL_v2","pSARL_v2rt7u15o6","570fa921f895a7000f38ca6f","freq","img/green_2bandit_a2.png","70","70","test","1","160","160","8","",""
"null","3935115","pSARL_v2","pSARL_v2rt7u15o6","570fa921f895a7000f38ca6f","freq_resp","img/green_2bandit_a.png","70","70","test","","","","8","",""
"null","3935284","pSARL_v2","pSARL_v2rt7u15o6","570fa921f895a7000f38ca6f","fixation","img/fixation.png","null","","test","","","","","",""
"340","3935630","pSARL_v2","pSARL_v2rt7u15o6","570fa921f895a7000f38ca6f","freq","img/green_2bandit_a2.png","70","70","test","1","161","161","8","",""
"null","3936128","pSARL_v2","pSARL_v2rt7u15o6","570fa921f895a7000f38ca6f","freq_resp","img/green_2bandit_a.png","70","70","test","","","","8","",""
"null","3936297","pSARL_v2","pSARL_v2rt7u15o6","570fa921f895a7000f38ca6f","fixation","img/fixation.png","null","","test","","","","","",""
"164","3936467","pSARL_v2","pSARL_v2rt7u15o6","570fa921f895a7000f38ca6f","infreq","img/orange_2bandit_a2.png","70","68","test","0","162","162","8","",""
"null","3937115","pSARL_v2","pSARL_v2rt7u15o6","570fa921f895a7000f38ca6f","infreq_resp","img/orange_2bandit_a.png","70","68","test","","","","8","",""
"null","3937272","pSARL_v2","pSARL_v2rt7u15o6","570fa921f895a7000f38ca6f","fixation","img/fixation.png","null","","test","","","","","",""
"524","3937801","pSARL_v2","pSARL_v2rt7u15o6","570fa921f895a7000f38ca6f","freq","img/green_2bandit_a2.png","70","70","test","1","163","163","8","",""
"null","3938089","pSARL_v2","pSARL_v2rt7u15o6","570fa921f895a7000f38ca6f","freq_resp","img/green_2bandit_a.png","70","70","test","","","","8","",""
"null","3938259","pSARL_v2","pSARL_v2rt7u15o6","570fa921f895a7000f38ca6f","fixation","img/fixation.png","null","","test","","","","","",""
"404","3938666","pSARL_v2","pSARL_v2rt7u15o6","570fa921f895a7000f38ca6f","freq","img/green_2bandit_a2.png","70","70","test","1","164","164","8","",""
"null","3939068","pSARL_v2","pSARL_v2rt7u15o6","570fa921f895a7000f38ca6f","freq_resp","img/green_2bandit_a.png","70","70","test","","","","8","",""
"null","3939222","pSARL_v2","pSARL_v2rt7u15o6","570fa921f895a7000f38ca6f","fixation","img/fixation.png","null","","test","","","","","",""
"377","3939602","pSARL_v2","pSARL_v2rt7u15o6","570fa921f895a7000f38ca6f","freq","img/green_2bandit_a2.png","70","70","test","1","165","165","8","",""
"null","3940040","pSARL_v2","pSARL_v2rt7u15o6","570fa921f895a7000f38ca6f","freq_resp","img/green_2bandit_a.png","70","70","test","","","","8","",""
"null","3940200","pSARL_v2","pSARL_v2rt7u15o6","570fa921f895a7000f38ca6f","fixation","img/fixation.png","null","","test","","","","","",""
"null","3941005","pSARL_v2","pSARL_v2rt7u15o6","570fa921f895a7000f38ca6f","infreq","img/orange_2bandit_a2.png","null","68","test","0","166","166","8","",""
"null","3941165","pSARL_v2","pSARL_v2rt7u15o6","570fa921f895a7000f38ca6f","fixation","img/fixation.png","null","","test","","","","","",""
"532","3941699","pSARL_v2","pSARL_v2rt7u15o6","570fa921f895a7000f38ca6f","freq","img/green_2bandit_a2.png","70","70","test","1","167","167","8","",""
"null","3941973","pSARL_v2","pSARL_v2rt7u15o6","570fa921f895a7000f38ca6f","freq_resp","img/green_2bandit_a.png","70","70","test","","","","8","",""
"null","3942130","pSARL_v2","pSARL_v2rt7u15o6","570fa921f895a7000f38ca6f","fixation","img/fixation.png","null","","test","","","","","",""
"302","3942434","pSARL_v2","pSARL_v2rt7u15o6","570fa921f895a7000f38ca6f","freq","img/green_2bandit_a2.png","70","70","test","1","168","168","8","",""
"null","3942934","pSARL_v2","pSARL_v2rt7u15o6","570fa921f895a7000f38ca6f","freq_resp","img/green_2bandit_a.png","70","70","test","","","","8","",""
"null","3943092","pSARL_v2","pSARL_v2rt7u15o6","570fa921f895a7000f38ca6f","fixation","img/fixation.png","null","","test","","","","","",""
"188","3943282","pSARL_v2","pSARL_v2rt7u15o6","570fa921f895a7000f38ca6f","freq","img/green_2bandit_a2.png","70","70","test","1","169","169","8","",""
"null","3943897","pSARL_v2","pSARL_v2rt7u15o6","570fa921f895a7000f38ca6f","freq_resp","img/green_2bandit_a.png","70","70","test","","","","8","",""
"null","3944057","pSARL_v2","pSARL_v2rt7u15o6","570fa921f895a7000f38ca6f","fixation","img/fixation.png","null","","test","","","","","",""
"140","3944197","pSARL_v2","pSARL_v2rt7u15o6","570fa921f895a7000f38ca6f","freq","img/green_2bandit_a2.png","70","70","test","1","170","170","8","",""
"null","3944941","pSARL_v2","pSARL_v2rt7u15o6","570fa921f895a7000f38ca6f","freq_resp","img/green_2bandit_a.png","70","70","test","","","","8","",""
"null","3945095","pSARL_v2","pSARL_v2rt7u15o6","570fa921f895a7000f38ca6f","fixation","img/fixation.png","null","","test","","","","","",""
"58","3945154","pSARL_v2","pSARL_v2rt7u15o6","570fa921f895a7000f38ca6f","freq","img/green_2bandit_a2.png","70","70","test","1","171","171","8","",""
"null","3945904","pSARL_v2","pSARL_v2rt7u15o6","570fa921f895a7000f38ca6f","freq_resp","img/green_2bandit_a.png","70","70","test","","","","8","",""
"null","3946063","pSARL_v2","pSARL_v2rt7u15o6","570fa921f895a7000f38ca6f","fixation","img/fixation.png","null","","test","","","","","",""
"118","3946183","pSARL_v2","pSARL_v2rt7u15o6","570fa921f895a7000f38ca6f","freq","img/green_2bandit_a2.png","70","70","test","1","172","172","8","",""
"null","3946947","pSARL_v2","pSARL_v2rt7u15o6","570fa921f895a7000f38ca6f","freq_resp","img/green_2bandit_a.png","70","70","test","","","","8","",""
"null","3947105","pSARL_v2","pSARL_v2rt7u15o6","570fa921f895a7000f38ca6f","fixation","img/fixation.png","null","","test","","","","","",""
"416","3947523","pSARL_v2","pSARL_v2rt7u15o6","570fa921f895a7000f38ca6f","freq","img/green_2bandit_a2.png","70","70","test","1","173","173","8","",""
"null","3947911","pSARL_v2","pSARL_v2rt7u15o6","570fa921f895a7000f38ca6f","freq_resp","img/green_2bandit_a.png","70","70","test","","","","8","",""
"null","3948065","pSARL_v2","pSARL_v2rt7u15o6","570fa921f895a7000f38ca6f","fixation","img/fixation.png","null","","test","","","","","",""
"318","3948385","pSARL_v2","pSARL_v2rt7u15o6","570fa921f895a7000f38ca6f","freq","img/green_2bandit_a2.png","70","70","test","1","174","174","8","",""
"null","3948879","pSARL_v2","pSARL_v2rt7u15o6","570fa921f895a7000f38ca6f","freq_resp","img/green_2bandit_a.png","70","70","test","","","","8","",""
"null","3949033","pSARL_v2","pSARL_v2rt7u15o6","570fa921f895a7000f38ca6f","fixation","img/fixation.png","null","","test","","","","","",""
"998","3950034","pSARL_v2","pSARL_v2rt7u15o6","570fa921f895a7000f38ca6f","reward","img/slot.png","74","","test","","","","","",""
"null","3950793","pSARL_v2","pSARL_v2rt7u15o6","570fa921f895a7000f38ca6f","points","<div class=""verylowPoints""> -4 </div>","null","na","test","","","","8","-4","7"
"573","3951368","pSARL_v2","pSARL_v2rt7u15o6","570fa921f895a7000f38ca6f","freq","img/green_2bandit_a2.png","70","70","test","1","175","175","9","",""
"null","3951603","pSARL_v2","pSARL_v2rt7u15o6","570fa921f895a7000f38ca6f","freq_resp","img/green_2bandit_a.png","70","70","test","","","","9","",""
"null","3951757","pSARL_v2","pSARL_v2rt7u15o6","570fa921f895a7000f38ca6f","fixation","img/fixation.png","null","","test","","","","","",""
"530","3952288","pSARL_v2","pSARL_v2rt7u15o6","570fa921f895a7000f38ca6f","infreq","img/orange_2bandit_a2.png","68","68","test","1","176","176","9","",""
"null","3952566","pSARL_v2","pSARL_v2rt7u15o6","570fa921f895a7000f38ca6f","infreq_resp","img/orange_2bandit_a.png","68","68","test","","","","9","",""
"null","3952722","pSARL_v2","pSARL_v2rt7u15o6","570fa921f895a7000f38ca6f","fixation","img/fixation.png","null","","test","","","","","",""
"429","3953153","pSARL_v2","pSARL_v2rt7u15o6","570fa921f895a7000f38ca6f","freq","img/green_2bandit_a2.png","70","70","test","1","177","177","9","",""
"null","3953532","pSARL_v2","pSARL_v2rt7u15o6","570fa921f895a7000f38ca6f","freq_resp","img/green_2bandit_a.png","70","70","test","","","","9","",""
"null","3953686","pSARL_v2","pSARL_v2rt7u15o6","570fa921f895a7000f38ca6f","fixation","img/fixation.png","null","","test","","","","","",""
"267","3953957","pSARL_v2","pSARL_v2rt7u15o6","570fa921f895a7000f38ca6f","freq","img/green_2bandit_a2.png","70","70","test","1","178","178","9","",""
"null","3954506","pSARL_v2","pSARL_v2rt7u15o6","570fa921f895a7000f38ca6f","freq_resp","img/green_2bandit_a.png","70","70","test","","","","9","",""
"null","3954666","pSARL_v2","pSARL_v2rt7u15o6","570fa921f895a7000f38ca6f","fixation","img/fixation.png","null","","test","","","","","",""
"132","3954800","pSARL_v2","pSARL_v2rt7u15o6","570fa921f895a7000f38ca6f","freq","img/green_2bandit_a2.png","70","70","test","1","179","179","9","",""
"null","3955545","pSARL_v2","pSARL_v2rt7u15o6","570fa921f895a7000f38ca6f","freq_resp","img/green_2bandit_a.png","70","70","test","","","","9","",""
"null","3955704","pSARL_v2","pSARL_v2rt7u15o6","570fa921f895a7000f38ca6f","fixation","img/fixation.png","null","","test","","","","","",""
"143","3955849","pSARL_v2","pSARL_v2rt7u15o6","570fa921f895a7000f38ca6f","freq","img/green_2bandit_a2.png","70","70","test","1","180","180","9","",""
"null","3956519","pSARL_v2","pSARL_v2rt7u15o6","570fa921f895a7000f38ca6f","freq_resp","img/green_2bandit_a.png","70","70","test","","","","9","",""
"null","3956677","pSARL_v2","pSARL_v2rt7u15o6","570fa921f895a7000f38ca6f","fixation","img/fixation.png","null","","test","","","","","",""
"567","3957248","pSARL_v2","pSARL_v2rt7u15o6","570fa921f895a7000f38ca6f","freq","img/green_2bandit_a2.png","70","70","test","1","181","181","9","",""
"null","3957484","pSARL_v2","pSARL_v2rt7u15o6","570fa921f895a7000f38ca6f","freq_resp","img/green_2bandit_a.png","70","70","test","","","","9","",""
"null","3957641","pSARL_v2","pSARL_v2rt7u15o6","570fa921f895a7000f38ca6f","fixation","img/fixation.png","null","","test","","","","","",""
"312","3957956","pSARL_v2","pSARL_v2rt7u15o6","570fa921f895a7000f38ca6f","freq","img/green_2bandit_a2.png","70","70","test","1","182","182","9","",""
"null","3958459","pSARL_v2","pSARL_v2rt7u15o6","570fa921f895a7000f38ca6f","freq_resp","img/green_2bandit_a.png","70","70","test","","","","9","",""
"null","3958623","pSARL_v2","pSARL_v2rt7u15o6","570fa921f895a7000f38ca6f","fixation","img/fixation.png","null","","test","","","","","",""
"254","3958881","pSARL_v2","pSARL_v2rt7u15o6","570fa921f895a7000f38ca6f","freq","img/green_2bandit_a2.png","70","70","test","1","183","183","9","",""
"null","3959443","pSARL_v2","pSARL_v2rt7u15o6","570fa921f895a7000f38ca6f","freq_resp","img/green_2bandit_a.png","70","70","test","","","","9","",""
"null","3959610","pSARL_v2","pSARL_v2rt7u15o6","570fa921f895a7000f38ca6f","fixation","img/fixation.png","null","","test","","","","","",""
"258","3959871","pSARL_v2","pSARL_v2rt7u15o6","570fa921f895a7000f38ca6f","freq","img/green_2bandit_a2.png","70","70","test","1","184","184","9","",""
"null","3960425","pSARL_v2","pSARL_v2rt7u15o6","570fa921f895a7000f38ca6f","freq_resp","img/green_2bandit_a.png","70","70","test","","","","9","",""
"null","3960583","pSARL_v2","pSARL_v2rt7u15o6","570fa921f895a7000f38ca6f","fixation","img/fixation.png","null","","test","","","","","",""
"340","3960926","pSARL_v2","pSARL_v2rt7u15o6","570fa921f895a7000f38ca6f","freq","img/green_2bandit_a2.png","70","70","test","1","185","185","9","",""
"null","3961397","pSARL_v2","pSARL_v2rt7u15o6","570fa921f895a7000f38ca6f","freq_resp","img/green_2bandit_a.png","70","70","test","","","","9","",""
"null","3961550","pSARL_v2","pSARL_v2rt7u15o6","570fa921f895a7000f38ca6f","fixation","img/fixation.png","null","","test","","","","","",""
"303","3961854","pSARL_v2","pSARL_v2rt7u15o6","570fa921f895a7000f38ca6f","freq","img/green_2bandit_a2.png","70","70","test","1","186","186","9","",""
"null","3962354","pSARL_v2","pSARL_v2rt7u15o6","570fa921f895a7000f38ca6f","freq_resp","img/green_2bandit_a.png","70","70","test","","","","9","",""
"null","3962509","pSARL_v2","pSARL_v2rt7u15o6","570fa921f895a7000f38ca6f","fixation","img/fixation.png","null","","test","","","","","",""
"270","3962782","pSARL_v2","pSARL_v2rt7u15o6","570fa921f895a7000f38ca6f","freq","img/green_2bandit_a2.png","70","70","test","1","187","187","9","",""
"null","3963321","pSARL_v2","pSARL_v2rt7u15o6","570fa921f895a7000f38ca6f","freq_resp","img/green_2bandit_a.png","70","70","test","","","","9","",""
"null","3963491","pSARL_v2","pSARL_v2rt7u15o6","570fa921f895a7000f38ca6f","fixation","img/fixation.png","null","","test","","","","","",""
"257","3963756","pSARL_v2","pSARL_v2rt7u15o6","570fa921f895a7000f38ca6f","freq","img/green_2bandit_a2.png","70","70","test","1","188","188","9","",""
"null","3964311","pSARL_v2","pSARL_v2rt7u15o6","570fa921f895a7000f38ca6f","freq_resp","img/green_2bandit_a.png","70","70","test","","","","9","",""
"null","3964483","pSARL_v2","pSARL_v2rt7u15o6","570fa921f895a7000f38ca6f","fixation","img/fixation.png","null","","test","","","","","",""
"217","3964705","pSARL_v2","pSARL_v2rt7u15o6","570fa921f895a7000f38ca6f","infreq","img/orange_2bandit_a2.png","70","68","test","0","189","189","9","",""
"null","3965303","pSARL_v2","pSARL_v2rt7u15o6","570fa921f895a7000f38ca6f","infreq_resp","img/orange_2bandit_a.png","70","68","test","","","","9","",""
"null","3965473","pSARL_v2","pSARL_v2rt7u15o6","570fa921f895a7000f38ca6f","fixation","img/fixation.png","null","","test","","","","","",""
"389","3965868","pSARL_v2","pSARL_v2rt7u15o6","570fa921f895a7000f38ca6f","freq","img/green_2bandit_a2.png","70","70","test","1","190","190","9","",""
"null","3966327","pSARL_v2","pSARL_v2rt7u15o6","570fa921f895a7000f38ca6f","freq_resp","img/green_2bandit_a.png","70","70","test","","","","9","",""
"null","3966498","pSARL_v2","pSARL_v2rt7u15o6","570fa921f895a7000f38ca6f","fixation","img/fixation.png","null","","test","","","","","",""
"316","3966820","pSARL_v2","pSARL_v2rt7u15o6","570fa921f895a7000f38ca6f","freq","img/green_2bandit_a2.png","70","70","test","1","191","191","9","",""
"null","3967312","pSARL_v2","pSARL_v2rt7u15o6","570fa921f895a7000f38ca6f","freq_resp","img/green_2bandit_a.png","70","70","test","","","","9","",""
"null","3967471","pSARL_v2","pSARL_v2rt7u15o6","570fa921f895a7000f38ca6f","fixation","img/fixation.png","null","","test","","","","","",""
"303","3967781","pSARL_v2","pSARL_v2rt7u15o6","570fa921f895a7000f38ca6f","freq","img/green_2bandit_a2.png","70","70","test","1","192","192","9","",""
"null","3968337","pSARL_v2","pSARL_v2rt7u15o6","570fa921f895a7000f38ca6f","freq_resp","img/green_2bandit_a.png","70","70","test","","","","9","",""
"null","3968508","pSARL_v2","pSARL_v2rt7u15o6","570fa921f895a7000f38ca6f","fixation","img/fixation.png","null","","test","","","","","",""
"353","3968866","pSARL_v2","pSARL_v2rt7u15o6","570fa921f895a7000f38ca6f","freq","img/green_2bandit_a2.png","70","70","test","1","193","193","9","",""
"null","3969331","pSARL_v2","pSARL_v2rt7u15o6","570fa921f895a7000f38ca6f","freq_resp","img/green_2bandit_a.png","70","70","test","","","","9","",""
"null","3969503","pSARL_v2","pSARL_v2rt7u15o6","570fa921f895a7000f38ca6f","fixation","img/fixation.png","null","","test","","","","","",""
"452","3969961","pSARL_v2","pSARL_v2rt7u15o6","570fa921f895a7000f38ca6f","freq","img/green_2bandit_a2.png","70","70","test","1","194","194","9","",""
"null","3970357","pSARL_v2","pSARL_v2rt7u15o6","570fa921f895a7000f38ca6f","freq_resp","img/green_2bandit_a.png","70","70","test","","","","9","",""
"null","3970524","pSARL_v2","pSARL_v2rt7u15o6","570fa921f895a7000f38ca6f","fixation","img/fixation.png","null","","test","","","","","",""
"468","3970999","pSARL_v2","pSARL_v2rt7u15o6","570fa921f895a7000f38ca6f","freq","img/green_2bandit_a2.png","70","70","test","1","195","195","9","",""
"null","3971351","pSARL_v2","pSARL_v2rt7u15o6","570fa921f895a7000f38ca6f","freq_resp","img/green_2bandit_a.png","70","70","test","","","","9","",""
"null","3971523","pSARL_v2","pSARL_v2rt7u15o6","570fa921f895a7000f38ca6f","fixation","img/fixation.png","null","","test","","","","","",""
"378","3971903","pSARL_v2","pSARL_v2rt7u15o6","570fa921f895a7000f38ca6f","freq","img/green_2bandit_a2.png","70","70","test","1","196","196","9","",""
"null","3972342","pSARL_v2","pSARL_v2rt7u15o6","570fa921f895a7000f38ca6f","freq_resp","img/green_2bandit_a.png","70","70","test","","","","9","",""
"null","3972500","pSARL_v2","pSARL_v2rt7u15o6","570fa921f895a7000f38ca6f","fixation","img/fixation.png","null","","test","","","","","",""
"461","3972968","pSARL_v2","pSARL_v2rt7u15o6","570fa921f895a7000f38ca6f","freq","img/green_2bandit_a2.png","70","70","test","1","197","197","9","",""
"null","3973316","pSARL_v2","pSARL_v2rt7u15o6","570fa921f895a7000f38ca6f","freq_resp","img/green_2bandit_a.png","70","70","test","","","","9","",""
"null","3973474","pSARL_v2","pSARL_v2rt7u15o6","570fa921f895a7000f38ca6f","fixation","img/fixation.png","null","","test","","","","","",""
"425","3973906","pSARL_v2","pSARL_v2rt7u15o6","570fa921f895a7000f38ca6f","freq","img/green_2bandit_a2.png","70","70","test","1","198","198","9","",""
"null","3974292","pSARL_v2","pSARL_v2rt7u15o6","570fa921f895a7000f38ca6f","freq_resp","img/green_2bandit_a.png","70","70","test","","","","9","",""
"null","3974463","pSARL_v2","pSARL_v2rt7u15o6","570fa921f895a7000f38ca6f","fixation","img/fixation.png","null","","test","","","","","",""
"416","3974885","pSARL_v2","pSARL_v2rt7u15o6","570fa921f895a7000f38ca6f","freq","img/green_2bandit_a2.png","70","70","test","1","199","199","9","",""
"null","3975286","pSARL_v2","pSARL_v2rt7u15o6","570fa921f895a7000f38ca6f","freq_resp","img/green_2bandit_a.png","70","70","test","","","","9","",""
"null","3975456","pSARL_v2","pSARL_v2rt7u15o6","570fa921f895a7000f38ca6f","fixation","img/fixation.png","null","","test","","","","","",""
"512","3975973","pSARL_v2","pSARL_v2rt7u15o6","570fa921f895a7000f38ca6f","reward","img/slot.png","74","","test","","","","","",""
"null","3976732","pSARL_v2","pSARL_v2rt7u15o6","570fa921f895a7000f38ca6f","points","<div class=""verylowPoints""> -3 </div>","null","na","test","","","","9","-3","8"
"580","3977319","pSARL_v2","pSARL_v2rt7u15o6","570fa921f895a7000f38ca6f","freq","img/green_2bandit_a2.png","70","70","test","1","200","200","10","",""
"null","3977559","pSARL_v2","pSARL_v2rt7u15o6","570fa921f895a7000f38ca6f","freq_resp","img/green_2bandit_a.png","70","70","test","","","","10","",""
"null","3977723","pSARL_v2","pSARL_v2rt7u15o6","570fa921f895a7000f38ca6f","fixation","img/fixation.png","null","","test","","","","","",""
"257","3977983","pSARL_v2","pSARL_v2rt7u15o6","570fa921f895a7000f38ca6f","infreq","img/orange_2bandit_a2.png","70","68","test","0","201","201","10","",""
"null","3978534","pSARL_v2","pSARL_v2rt7u15o6","570fa921f895a7000f38ca6f","infreq_resp","img/orange_2bandit_a.png","70","68","test","","","","10","",""
"null","3978704","pSARL_v2","pSARL_v2rt7u15o6","570fa921f895a7000f38ca6f","fixation","img/fixation.png","null","","test","","","","","",""
"387","3979098","pSARL_v2","pSARL_v2rt7u15o6","570fa921f895a7000f38ca6f","infreq","img/orange_2bandit_a2.png","70","68","test","0","202","202","10","",""
"null","3979527","pSARL_v2","pSARL_v2rt7u15o6","570fa921f895a7000f38ca6f","infreq_resp","img/orange_2bandit_a.png","70","68","test","","","","10","",""
"null","3979684","pSARL_v2","pSARL_v2rt7u15o6","570fa921f895a7000f38ca6f","fixation","img/fixation.png","null","","test","","","","","",""
"479","3980167","pSARL_v2","pSARL_v2rt7u15o6","570fa921f895a7000f38ca6f","freq","img/green_2bandit_a2.png","70","70","test","1","203","203","10","",""
"null","3980508","pSARL_v2","pSARL_v2rt7u15o6","570fa921f895a7000f38ca6f","freq_resp","img/green_2bandit_a.png","70","70","test","","","","10","",""
"null","3980680","pSARL_v2","pSARL_v2rt7u15o6","570fa921f895a7000f38ca6f","fixation","img/fixation.png","null","","test","","","","","",""
"513","3981196","pSARL_v2","pSARL_v2rt7u15o6","570fa921f895a7000f38ca6f","freq","img/green_2bandit_a2.png","70","70","test","1","204","204","10","",""
"null","3981504","pSARL_v2","pSARL_v2rt7u15o6","570fa921f895a7000f38ca6f","freq_resp","img/green_2bandit_a.png","70","70","test","","","","10","",""
"null","3981676","pSARL_v2","pSARL_v2rt7u15o6","570fa921f895a7000f38ca6f","fixation","img/fixation.png","null","","test","","","","","",""
"541","3982223","pSARL_v2","pSARL_v2rt7u15o6","570fa921f895a7000f38ca6f","freq","img/green_2bandit_a2.png","70","70","test","1","205","205","10","",""
"null","3982493","pSARL_v2","pSARL_v2rt7u15o6","570fa921f895a7000f38ca6f","freq_resp","img/green_2bandit_a.png","70","70","test","","","","10","",""
"null","3982651","pSARL_v2","pSARL_v2rt7u15o6","570fa921f895a7000f38ca6f","fixation","img/fixation.png","null","","test","","","","","",""
"388","3983045","pSARL_v2","pSARL_v2rt7u15o6","570fa921f895a7000f38ca6f","freq","img/green_2bandit_a2.png","70","70","test","1","206","206","10","",""
"null","3983469","pSARL_v2","pSARL_v2rt7u15o6","570fa921f895a7000f38ca6f","freq_resp","img/green_2bandit_a.png","70","70","test","","","","10","",""
"null","3983637","pSARL_v2","pSARL_v2rt7u15o6","570fa921f895a7000f38ca6f","fixation","img/fixation.png","null","","test","","","","","",""
"316","3983956","pSARL_v2","pSARL_v2rt7u15o6","570fa921f895a7000f38ca6f","freq","img/green_2bandit_a2.png","70","70","test","1","207","207","10","",""
"null","3984456","pSARL_v2","pSARL_v2rt7u15o6","570fa921f895a7000f38ca6f","freq_resp","img/green_2bandit_a.png","70","70","test","","","","10","",""
"null","3984614","pSARL_v2","pSARL_v2rt7u15o6","570fa921f895a7000f38ca6f","fixation","img/fixation.png","null","","test","","","","","",""
"378","3984997","pSARL_v2","pSARL_v2rt7u15o6","570fa921f895a7000f38ca6f","freq","img/green_2bandit_a2.png","70","70","test","1","208","208","10","",""
"null","3985430","pSARL_v2","pSARL_v2rt7u15o6","570fa921f895a7000f38ca6f","freq_resp","img/green_2bandit_a.png","70","70","test","","","","10","",""
"null","3985599","pSARL_v2","pSARL_v2rt7u15o6","570fa921f895a7000f38ca6f","fixation","img/fixation.png","null","","test","","","","","",""
"293","3985899","pSARL_v2","pSARL_v2rt7u15o6","570fa921f895a7000f38ca6f","freq","img/green_2bandit_a2.png","70","70","test","1","209","209","10","",""
"null","3986412","pSARL_v2","pSARL_v2rt7u15o6","570fa921f895a7000f38ca6f","freq_resp","img/green_2bandit_a.png","70","70","test","","","","10","",""
"null","3986582","pSARL_v2","pSARL_v2rt7u15o6","570fa921f895a7000f38ca6f","fixation","img/fixation.png","null","","test","","","","","",""
"337","3986925","pSARL_v2","pSARL_v2rt7u15o6","570fa921f895a7000f38ca6f","freq","img/green_2bandit_a2.png","70","70","test","1","210","210","10","",""
"null","3987397","pSARL_v2","pSARL_v2rt7u15o6","570fa921f895a7000f38ca6f","freq_resp","img/green_2bandit_a.png","70","70","test","","","","10","",""
"null","3987566","pSARL_v2","pSARL_v2rt7u15o6","570fa921f895a7000f38ca6f","fixation","img/fixation.png","null","","test","","","","","",""
"341","3987912","pSARL_v2","pSARL_v2rt7u15o6","570fa921f895a7000f38ca6f","freq","img/green_2bandit_a2.png","70","70","test","1","211","211","10","",""
"null","3988384","pSARL_v2","pSARL_v2rt7u15o6","570fa921f895a7000f38ca6f","freq_resp","img/green_2bandit_a.png","70","70","test","","","","10","",""
"null","3988540","pSARL_v2","pSARL_v2rt7u15o6","570fa921f895a7000f38ca6f","fixation","img/fixation.png","null","","test","","","","","",""
"307","3988854","pSARL_v2","pSARL_v2rt7u15o6","570fa921f895a7000f38ca6f","freq","img/green_2bandit_a2.png","70","70","test","1","212","212","10","",""
"null","3989367","pSARL_v2","pSARL_v2rt7u15o6","570fa921f895a7000f38ca6f","freq_resp","img/green_2bandit_a.png","70","70","test","","","","10","",""
"null","3989537","pSARL_v2","pSARL_v2rt7u15o6","570fa921f895a7000f38ca6f","fixation","img/fixation.png","null","","test","","","","","",""
"320","3989866","pSARL_v2","pSARL_v2rt7u15o6","570fa921f895a7000f38ca6f","freq","img/green_2bandit_a2.png","70","70","test","1","213","213","10","",""
"null","3990405","pSARL_v2","pSARL_v2rt7u15o6","570fa921f895a7000f38ca6f","freq_resp","img/green_2bandit_a.png","70","70","test","","","","10","",""
"null","3990580","pSARL_v2","pSARL_v2rt7u15o6","570fa921f895a7000f38ca6f","fixation","img/fixation.png","null","","test","","","","","",""
