"rt","time_elapsed","expId","subject","prolificID","trialType","stimulus","key_press","corrresp","phase","corr","trialNum","attentionRunNum","blockNum","points","rlNum"
"9815.69999999972","9823","pSARL_v2","pSARL_v2fka192b4","6019bbb66e5c2815ba3728b6","","","","","","","","","","",""
"","12906","pSARL_v2","pSARL_v2fka192b4","6019bbb66e5c2815ba3728b6","fullscreen","","","","","","","","","",""
"79362.30000000028","92275","pSARL_v2","pSARL_v2fka192b4","6019bbb66e5c2815ba3728b6","","","","","","","","","","",""
"null","93082","pSARL_v2","pSARL_v2fka192b4","6019bbb66e5c2815ba3728b6","freqPrac","img/orange_2bandit_a2.png","null","70","prac","0","","","","",""
"null","94089","pSARL_v2","pSARL_v2fka192b4","6019bbb66e5c2815ba3728b6","feedback","img/tooSlow.png","null","na","prac","","","","","",""
"null","94245","pSARL_v2","pSARL_v2fka192b4","6019bbb66e5c2815ba3728b6","fixation","img/fixation.png","null","","prac","","","","","",""
"636.5999999996275","94886","pSARL_v2","pSARL_v2fka192b4","6019bbb66e5c2815ba3728b6","infreqPrac","img/green_2bandit_a2.png","68","68","prac","1","","","","",""
"636.5999999996275","95055","pSARL_v2","pSARL_v2fka192b4","6019bbb66e5c2815ba3728b6","infreqPrac_resp","img/green_2bandit_a.png","68","68","prac","","","","","",""
"null","95210","pSARL_v2","pSARL_v2fka192b4","6019bbb66e5c2815ba3728b6","fixation","img/fixation.png","null","","prac","","","","","",""
"599.2000000001863","95814","pSARL_v2","pSARL_v2fka192b4","6019bbb66e5c2815ba3728b6","freqPrac","img/orange_2bandit_a2.png","70","70","prac","1","","","","",""
"599.2000000001863","96024","pSARL_v2","pSARL_v2fka192b4","6019bbb66e5c2815ba3728b6","freqPrac_resp","img/orange_2bandit_a.png","70","70","prac","","","","","",""
"null","96182","pSARL_v2","pSARL_v2fka192b4","6019bbb66e5c2815ba3728b6","fixation","img/fixation.png","null","","prac","","","","","",""
"468.79999999981374","96654","pSARL_v2","pSARL_v2fka192b4","6019bbb66e5c2815ba3728b6","infreqPrac","img/green_2bandit_a2.png","68","68","prac","1","","","","",""
"468.79999999981374","96990","pSARL_v2","pSARL_v2fka192b4","6019bbb66e5c2815ba3728b6","infreqPrac_resp","img/green_2bandit_a.png","68","68","prac","","","","","",""
"null","97148","pSARL_v2","pSARL_v2fka192b4","6019bbb66e5c2815ba3728b6","fixation","img/fixation.png","null","","prac","","","","","",""
"423.5","97575","pSARL_v2","pSARL_v2fka192b4","6019bbb66e5c2815ba3728b6","infreqPrac","img/green_2bandit_a2.png","68","68","prac","1","","","","",""
"423.5","97960","pSARL_v2","pSARL_v2fka192b4","6019bbb66e5c2815ba3728b6","infreqPrac_resp","img/green_2bandit_a.png","68","68","prac","","","","","",""
"null","98120","pSARL_v2","pSARL_v2fka192b4","6019bbb66e5c2815ba3728b6","fixation","img/fixation.png","null","","prac","","","","","",""
"446.5","98571","pSARL_v2","pSARL_v2fka192b4","6019bbb66e5c2815ba3728b6","infreqPrac","img/green_2bandit_a2.png","68","68","prac","1","","","","",""
"446.5","98932","pSARL_v2","pSARL_v2fka192b4","6019bbb66e5c2815ba3728b6","infreqPrac_resp","img/green_2bandit_a.png","68","68","prac","","","","","",""
"null","99090","pSARL_v2","pSARL_v2fka192b4","6019bbb66e5c2815ba3728b6","fixation","img/fixation.png","null","","prac","","","","","",""
"530.8999999999069","99625","pSARL_v2","pSARL_v2fka192b4","6019bbb66e5c2815ba3728b6","freqPrac","img/orange_2bandit_a2.png","70","70","prac","1","","","","",""
"530.8999999999069","99901","pSARL_v2","pSARL_v2fka192b4","6019bbb66e5c2815ba3728b6","freqPrac_resp","img/orange_2bandit_a.png","70","70","prac","","","","","",""
"null","100061","pSARL_v2","pSARL_v2fka192b4","6019bbb66e5c2815ba3728b6","fixation","img/fixation.png","null","","prac","","","","","",""
"654","100719","pSARL_v2","pSARL_v2fka192b4","6019bbb66e5c2815ba3728b6","infreqPrac","img/green_2bandit_a2.png","68","68","prac","1","","","","",""
"654","100876","pSARL_v2","pSARL_v2fka192b4","6019bbb66e5c2815ba3728b6","infreqPrac_resp","img/green_2bandit_a.png","68","68","prac","","","","","",""
"null","101031","pSARL_v2","pSARL_v2fka192b4","6019bbb66e5c2815ba3728b6","fixation","img/fixation.png","null","","prac","","","","","",""
"469.89999999990687","101505","pSARL_v2","pSARL_v2fka192b4","6019bbb66e5c2815ba3728b6","freqPrac","img/orange_2bandit_a2.png","70","70","prac","1","","","","",""
"469.89999999990687","101841","pSARL_v2","pSARL_v2fka192b4","6019bbb66e5c2815ba3728b6","freqPrac_resp","img/orange_2bandit_a.png","70","70","prac","","","","","",""
"null","101997","pSARL_v2","pSARL_v2fka192b4","6019bbb66e5c2815ba3728b6","fixation","img/fixation.png","null","","prac","","","","","",""
"612.7999999998137","102614","pSARL_v2","pSARL_v2fka192b4","6019bbb66e5c2815ba3728b6","freqPrac","img/orange_2bandit_a2.png","70","70","prac","1","","","","",""
"612.7999999998137","102810","pSARL_v2","pSARL_v2fka192b4","6019bbb66e5c2815ba3728b6","freqPrac_resp","img/orange_2bandit_a.png","70","70","prac","","","","","",""
"null","102968","pSARL_v2","pSARL_v2fka192b4","6019bbb66e5c2815ba3728b6","fixation","img/fixation.png","null","","prac","","","","","",""
"21891.100000000093","124863","pSARL_v2","pSARL_v2fka192b4","6019bbb66e5c2815ba3728b6","","","","","prac","","","","","",""
"707.7000000001863","125574","pSARL_v2","pSARL_v2fka192b4","6019bbb66e5c2815ba3728b6","rewardPractice","img/slot.png","74","","prac","","","","","",""
"null","126335","pSARL_v2","pSARL_v2fka192b4","6019bbb66e5c2815ba3728b6","feedback","<div class=""veryhighPoints""> +15 </div>","null","na","prac","","","","","",""
"null","126497","pSARL_v2","pSARL_v2fka192b4","6019bbb66e5c2815ba3728b6","fixation","img/fixation.png","null","","prac","","","","","",""
"11762.5","138264","pSARL_v2","pSARL_v2fka192b4","6019bbb66e5c2815ba3728b6","","","","","prac","","","","","",""
"491.89999999990687","138759","pSARL_v2","pSARL_v2fka192b4","6019bbb66e5c2815ba3728b6","freq","img/orange_2bandit_a2.png","70","70","test","1","1","1","1","",""
"null","139079","pSARL_v2","pSARL_v2fka192b4","6019bbb66e5c2815ba3728b6","freq_resp","img/orange_2bandit_a.png","70","70","test","","","","1","",""
"null","139238","pSARL_v2","pSARL_v2fka192b4","6019bbb66e5c2815ba3728b6","fixation","img/fixation.png","null","","test","","","","","",""
"427.1999999997206","139669","pSARL_v2","pSARL_v2fka192b4","6019bbb66e5c2815ba3728b6","freq","img/orange_2bandit_a2.png","70","70","test","1","2","2","1","",""
"null","140048","pSARL_v2","pSARL_v2fka192b4","6019bbb66e5c2815ba3728b6","freq_resp","img/orange_2bandit_a.png","70","70","test","","","","1","",""
"null","140210","pSARL_v2","pSARL_v2fka192b4","6019bbb66e5c2815ba3728b6","fixation","img/fixation.png","null","","test","","","","","",""
"389.60000000009313","140603","pSARL_v2","pSARL_v2fka192b4","6019bbb66e5c2815ba3728b6","infreq","img/green_2bandit_a2.png","70","68","test","0","3","3","1","",""
"null","141023","pSARL_v2","pSARL_v2fka192b4","6019bbb66e5c2815ba3728b6","infreq_resp","img/green_2bandit_a.png","70","68","test","","","","1","",""
"null","141185","pSARL_v2","pSARL_v2fka192b4","6019bbb66e5c2815ba3728b6","fixation","img/fixation.png","null","","test","","","","","",""
"607.8999999999069","141797","pSARL_v2","pSARL_v2fka192b4","6019bbb66e5c2815ba3728b6","freq","img/orange_2bandit_a2.png","70","70","test","1","4","4","1","",""
"null","141997","pSARL_v2","pSARL_v2fka192b4","6019bbb66e5c2815ba3728b6","freq_resp","img/orange_2bandit_a.png","70","70","test","","","","1","",""
"null","142159","pSARL_v2","pSARL_v2fka192b4","6019bbb66e5c2815ba3728b6","fixation","img/fixation.png","null","","test","","","","","",""
"486.5","142650","pSARL_v2","pSARL_v2fka192b4","6019bbb66e5c2815ba3728b6","freq","img/orange_2bandit_a2.png","70","70","test","1","5","5","1","",""
"null","142970","pSARL_v2","pSARL_v2fka192b4","6019bbb66e5c2815ba3728b6","freq_resp","img/orange_2bandit_a.png","70","70","test","","","","1","",""
"null","143132","pSARL_v2","pSARL_v2fka192b4","6019bbb66e5c2815ba3728b6","fixation","img/fixation.png","null","","test","","","","","",""
"423","143560","pSARL_v2","pSARL_v2fka192b4","6019bbb66e5c2815ba3728b6","freq","img/orange_2bandit_a2.png","70","70","test","1","6","6","1","",""
"null","143942","pSARL_v2","pSARL_v2fka192b4","6019bbb66e5c2815ba3728b6","freq_resp","img/orange_2bandit_a.png","70","70","test","","","","1","",""
"null","144103","pSARL_v2","pSARL_v2fka192b4","6019bbb66e5c2815ba3728b6","fixation","img/fixation.png","null","","test","","","","","",""
"380","144487","pSARL_v2","pSARL_v2fka192b4","6019bbb66e5c2815ba3728b6","freq","img/orange_2bandit_a2.png","70","70","test","1","7","7","1","",""
"null","144918","pSARL_v2","pSARL_v2fka192b4","6019bbb66e5c2815ba3728b6","freq_resp","img/orange_2bandit_a.png","70","70","test","","","","1","",""
"null","145078","pSARL_v2","pSARL_v2fka192b4","6019bbb66e5c2815ba3728b6","fixation","img/fixation.png","null","","test","","","","","",""
"376.59999999962747","145459","pSARL_v2","pSARL_v2fka192b4","6019bbb66e5c2815ba3728b6","freq","img/orange_2bandit_a2.png","70","70","test","1","8","8","1","",""
"null","145892","pSARL_v2","pSARL_v2fka192b4","6019bbb66e5c2815ba3728b6","freq_resp","img/orange_2bandit_a.png","70","70","test","","","","1","",""
"null","146053","pSARL_v2","pSARL_v2fka192b4","6019bbb66e5c2815ba3728b6","fixation","img/fixation.png","null","","test","","","","","",""
"421.29999999981374","146478","pSARL_v2","pSARL_v2fka192b4","6019bbb66e5c2815ba3728b6","freq","img/orange_2bandit_a2.png","70","70","test","1","9","9","1","",""
"null","146863","pSARL_v2","pSARL_v2fka192b4","6019bbb66e5c2815ba3728b6","freq_resp","img/orange_2bandit_a.png","70","70","test","","","","1","",""
"null","147017","pSARL_v2","pSARL_v2fka192b4","6019bbb66e5c2815ba3728b6","fixation","img/fixation.png","null","","test","","","","","",""
"395.8000000002794","147417","pSARL_v2","pSARL_v2fka192b4","6019bbb66e5c2815ba3728b6","freq","img/orange_2bandit_a2.png","70","70","test","1","10","10","1","",""
"null","147826","pSARL_v2","pSARL_v2fka192b4","6019bbb66e5c2815ba3728b6","freq_resp","img/orange_2bandit_a.png","70","70","test","","","","1","",""
"null","147984","pSARL_v2","pSARL_v2fka192b4","6019bbb66e5c2815ba3728b6","fixation","img/fixation.png","null","","test","","","","","",""
"388.89999999990687","148377","pSARL_v2","pSARL_v2fka192b4","6019bbb66e5c2815ba3728b6","freq","img/orange_2bandit_a2.png","70","70","test","1","11","11","1","",""
"null","148794","pSARL_v2","pSARL_v2fka192b4","6019bbb66e5c2815ba3728b6","freq_resp","img/orange_2bandit_a.png","70","70","test","","","","1","",""
"null","148954","pSARL_v2","pSARL_v2fka192b4","6019bbb66e5c2815ba3728b6","fixation","img/fixation.png","null","","test","","","","","",""
"482.10000000009313","149439","pSARL_v2","pSARL_v2fka192b4","6019bbb66e5c2815ba3728b6","freq","img/orange_2bandit_a2.png","70","70","test","1","12","12","1","",""
"null","149765","pSARL_v2","pSARL_v2fka192b4","6019bbb66e5c2815ba3728b6","freq_resp","img/orange_2bandit_a.png","70","70","test","","","","1","",""
"null","149925","pSARL_v2","pSARL_v2fka192b4","6019bbb66e5c2815ba3728b6","fixation","img/fixation.png","null","","test","","","","","",""
"410","150338","pSARL_v2","pSARL_v2fka192b4","6019bbb66e5c2815ba3728b6","infreq","img/green_2bandit_a2.png","70","68","test","0","13","13","1","",""
"null","150739","pSARL_v2","pSARL_v2fka192b4","6019bbb66e5c2815ba3728b6","infreq_resp","img/green_2bandit_a.png","70","68","test","","","","1","",""
"null","150893","pSARL_v2","pSARL_v2fka192b4","6019bbb66e5c2815ba3728b6","fixation","img/fixation.png","null","","test","","","","","",""
"null","151702","pSARL_v2","pSARL_v2fka192b4","6019bbb66e5c2815ba3728b6","freq","img/orange_2bandit_a2.png","null","70","test","0","14","14","1","",""
"null","151862","pSARL_v2","pSARL_v2fka192b4","6019bbb66e5c2815ba3728b6","fixation","img/fixation.png","null","","test","","","","","",""
"null","152673","pSARL_v2","pSARL_v2fka192b4","6019bbb66e5c2815ba3728b6","freq","img/orange_2bandit_a2.png","null","70","test","0","15","15","1","",""
"null","152829","pSARL_v2","pSARL_v2fka192b4","6019bbb66e5c2815ba3728b6","fixation","img/fixation.png","null","","test","","","","","",""
"115.90000000037253","152948","pSARL_v2","pSARL_v2fka192b4","6019bbb66e5c2815ba3728b6","freq","img/orange_2bandit_a2.png","70","70","test","1","16","16","1","",""
"null","153638","pSARL_v2","pSARL_v2fka192b4","6019bbb66e5c2815ba3728b6","freq_resp","img/orange_2bandit_a.png","70","70","test","","","","1","",""
"null","153793","pSARL_v2","pSARL_v2fka192b4","6019bbb66e5c2815ba3728b6","fixation","img/fixation.png","null","","test","","","","","",""
"129.60000000009313","153926","pSARL_v2","pSARL_v2fka192b4","6019bbb66e5c2815ba3728b6","freq","img/orange_2bandit_a2.png","70","70","test","1","17","17","1","",""
"null","154607","pSARL_v2","pSARL_v2fka192b4","6019bbb66e5c2815ba3728b6","freq_resp","img/orange_2bandit_a.png","70","70","test","","","","1","",""
"null","154765","pSARL_v2","pSARL_v2fka192b4","6019bbb66e5c2815ba3728b6","fixation","img/fixation.png","null","","test","","","","","",""
"63.60000000009313","154832","pSARL_v2","pSARL_v2fka192b4","6019bbb66e5c2815ba3728b6","freq","img/orange_2bandit_a2.png","70","70","test","1","18","18","1","",""
"null","155575","pSARL_v2","pSARL_v2fka192b4","6019bbb66e5c2815ba3728b6","freq_resp","img/orange_2bandit_a.png","70","70","test","","","","1","",""
"null","155731","pSARL_v2","pSARL_v2fka192b4","6019bbb66e5c2815ba3728b6","fixation","img/fixation.png","null","","test","","","","","",""
"122.5","155857","pSARL_v2","pSARL_v2fka192b4","6019bbb66e5c2815ba3728b6","freq","img/orange_2bandit_a2.png","70","70","test","1","19","19","1","",""
"null","156544","pSARL_v2","pSARL_v2fka192b4","6019bbb66e5c2815ba3728b6","freq_resp","img/orange_2bandit_a.png","70","70","test","","","","1","",""
"null","156702","pSARL_v2","pSARL_v2fka192b4","6019bbb66e5c2815ba3728b6","fixation","img/fixation.png","null","","test","","","","","",""
"658.9000000003725","157365","pSARL_v2","pSARL_v2fka192b4","6019bbb66e5c2815ba3728b6","reward","img/slot.png","74","","test","","","","","",""
"null","158120","pSARL_v2","pSARL_v2fka192b4","6019bbb66e5c2815ba3728b6","points","<div class=""verylowPoints""> -6 </div>","null","na","test","","","","1","-6","0"
"681","158805","pSARL_v2","pSARL_v2fka192b4","6019bbb66e5c2815ba3728b6","freq","img/orange_2bandit_a2.png","70","70","test","1","20","20","2","",""
"null","158932","pSARL_v2","pSARL_v2fka192b4","6019bbb66e5c2815ba3728b6","freq_resp","img/orange_2bandit_a.png","70","70","test","","","","2","",""
"null","159093","pSARL_v2","pSARL_v2fka192b4","6019bbb66e5c2815ba3728b6","fixation","img/fixation.png","null","","test","","","","","",""
"525.1000000000931","159622","pSARL_v2","pSARL_v2fka192b4","6019bbb66e5c2815ba3728b6","freq","img/orange_2bandit_a2.png","70","70","test","1","21","21","2","",""
"null","159902","pSARL_v2","pSARL_v2fka192b4","6019bbb66e5c2815ba3728b6","freq_resp","img/orange_2bandit_a.png","70","70","test","","","","2","",""
"null","160061","pSARL_v2","pSARL_v2fka192b4","6019bbb66e5c2815ba3728b6","fixation","img/fixation.png","null","","test","","","","","",""
"423.5","160488","pSARL_v2","pSARL_v2fka192b4","6019bbb66e5c2815ba3728b6","freq","img/orange_2bandit_a2.png","70","70","test","1","22","22","2","",""
"null","160872","pSARL_v2","pSARL_v2fka192b4","6019bbb66e5c2815ba3728b6","freq_resp","img/orange_2bandit_a.png","70","70","test","","","","2","",""
"null","161031","pSARL_v2","pSARL_v2fka192b4","6019bbb66e5c2815ba3728b6","fixation","img/fixation.png","null","","test","","","","","",""
"403.3000000002794","161438","pSARL_v2","pSARL_v2fka192b4","6019bbb66e5c2815ba3728b6","freq","img/orange_2bandit_a2.png","70","70","test","1","23","23","2","",""
"null","161844","pSARL_v2","pSARL_v2fka192b4","6019bbb66e5c2815ba3728b6","freq_resp","img/orange_2bandit_a.png","70","70","test","","","","2","",""
"null","162002","pSARL_v2","pSARL_v2fka192b4","6019bbb66e5c2815ba3728b6","fixation","img/fixation.png","null","","test","","","","","",""
"417.90000000037253","162424","pSARL_v2","pSARL_v2fka192b4","6019bbb66e5c2815ba3728b6","freq","img/orange_2bandit_a2.png","70","70","test","1","24","24","2","",""
"null","162815","pSARL_v2","pSARL_v2fka192b4","6019bbb66e5c2815ba3728b6","freq_resp","img/orange_2bandit_a.png","70","70","test","","","","2","",""
"null","162971","pSARL_v2","pSARL_v2fka192b4","6019bbb66e5c2815ba3728b6","fixation","img/fixation.png","null","","test","","","","","",""
"437.89999999990687","163413","pSARL_v2","pSARL_v2fka192b4","6019bbb66e5c2815ba3728b6","freq","img/orange_2bandit_a2.png","70","70","test","1","25","25","2","",""
"null","163786","pSARL_v2","pSARL_v2fka192b4","6019bbb66e5c2815ba3728b6","freq_resp","img/orange_2bandit_a.png","70","70","test","","","","2","",""
"null","163944","pSARL_v2","pSARL_v2fka192b4","6019bbb66e5c2815ba3728b6","fixation","img/fixation.png","null","","test","","","","","",""
"405.40000000037253","164353","pSARL_v2","pSARL_v2fka192b4","6019bbb66e5c2815ba3728b6","freq","img/orange_2bandit_a2.png","70","70","test","1","26","26","2","",""
"null","164758","pSARL_v2","pSARL_v2fka192b4","6019bbb66e5c2815ba3728b6","freq_resp","img/orange_2bandit_a.png","70","70","test","","","","2","",""
"null","164915","pSARL_v2","pSARL_v2fka192b4","6019bbb66e5c2815ba3728b6","fixation","img/fixation.png","null","","test","","","","","",""
"399.89999999990687","165319","pSARL_v2","pSARL_v2fka192b4","6019bbb66e5c2815ba3728b6","freq","img/orange_2bandit_a2.png","70","70","test","1","27","27","2","",""
"null","165729","pSARL_v2","pSARL_v2fka192b4","6019bbb66e5c2815ba3728b6","freq_resp","img/orange_2bandit_a.png","70","70","test","","","","2","",""
"null","165888","pSARL_v2","pSARL_v2fka192b4","6019bbb66e5c2815ba3728b6","fixation","img/fixation.png","null","","test","","","","","",""
"438.5","166331","pSARL_v2","pSARL_v2fka192b4","6019bbb66e5c2815ba3728b6","freq","img/orange_2bandit_a2.png","70","70","test","1","28","28","2","",""
"null","166697","pSARL_v2","pSARL_v2fka192b4","6019bbb66e5c2815ba3728b6","freq_resp","img/orange_2bandit_a.png","70","70","test","","","","2","",""
"null","166854","pSARL_v2","pSARL_v2fka192b4","6019bbb66e5c2815ba3728b6","fixation","img/fixation.png","null","","test","","","","","",""
"528.1999999997206","167386","pSARL_v2","pSARL_v2fka192b4","6019bbb66e5c2815ba3728b6","freq","img/orange_2bandit_a2.png","70","70","test","1","29","29","2","",""
"null","167664","pSARL_v2","pSARL_v2fka192b4","6019bbb66e5c2815ba3728b6","freq_resp","img/orange_2bandit_a.png","70","70","test","","","","2","",""
"null","167825","pSARL_v2","pSARL_v2fka192b4","6019bbb66e5c2815ba3728b6","fixation","img/fixation.png","null","","test","","","","","",""
"496.79999999981374","168325","pSARL_v2","pSARL_v2fka192b4","6019bbb66e5c2815ba3728b6","freq","img/orange_2bandit_a2.png","70","70","test","1","30","30","2","",""
"null","168640","pSARL_v2","pSARL_v2fka192b4","6019bbb66e5c2815ba3728b6","freq_resp","img/orange_2bandit_a.png","70","70","test","","","","2","",""
"null","168800","pSARL_v2","pSARL_v2fka192b4","6019bbb66e5c2815ba3728b6","fixation","img/fixation.png","null","","test","","","","","",""
"475.70000000018626","169280","pSARL_v2","pSARL_v2fka192b4","6019bbb66e5c2815ba3728b6","freq","img/orange_2bandit_a2.png","70","70","test","1","31","31","2","",""
"null","169613","pSARL_v2","pSARL_v2fka192b4","6019bbb66e5c2815ba3728b6","freq_resp","img/orange_2bandit_a.png","70","70","test","","","","2","",""
"null","169772","pSARL_v2","pSARL_v2fka192b4","6019bbb66e5c2815ba3728b6","fixation","img/fixation.png","null","","test","","","","","",""
"394.5","170170","pSARL_v2","pSARL_v2fka192b4","6019bbb66e5c2815ba3728b6","freq","img/orange_2bandit_a2.png","70","70","test","1","32","32","2","",""
"null","170586","pSARL_v2","pSARL_v2fka192b4","6019bbb66e5c2815ba3728b6","freq_resp","img/orange_2bandit_a.png","70","70","test","","","","2","",""
"null","170744","pSARL_v2","pSARL_v2fka192b4","6019bbb66e5c2815ba3728b6","fixation","img/fixation.png","null","","test","","","","","",""
"472.3000000002794","171220","pSARL_v2","pSARL_v2fka192b4","6019bbb66e5c2815ba3728b6","infreq","img/green_2bandit_a2.png","68","68","test","1","33","33","2","",""
"null","171554","pSARL_v2","pSARL_v2fka192b4","6019bbb66e5c2815ba3728b6","infreq_resp","img/green_2bandit_a.png","68","68","test","","","","2","",""
"null","171710","pSARL_v2","pSARL_v2fka192b4","6019bbb66e5c2815ba3728b6","fixation","img/fixation.png","null","","test","","","","","",""
"431.5","172145","pSARL_v2","pSARL_v2fka192b4","6019bbb66e5c2815ba3728b6","freq","img/orange_2bandit_a2.png","70","70","test","1","34","34","2","",""
"null","172525","pSARL_v2","pSARL_v2fka192b4","6019bbb66e5c2815ba3728b6","freq_resp","img/orange_2bandit_a.png","70","70","test","","","","2","",""
"null","172686","pSARL_v2","pSARL_v2fka192b4","6019bbb66e5c2815ba3728b6","fixation","img/fixation.png","null","","test","","","","","",""
"396.39999999990687","173086","pSARL_v2","pSARL_v2fka192b4","6019bbb66e5c2815ba3728b6","freq","img/orange_2bandit_a2.png","70","70","test","1","35","35","2","",""
"null","173494","pSARL_v2","pSARL_v2fka192b4","6019bbb66e5c2815ba3728b6","freq_resp","img/orange_2bandit_a.png","70","70","test","","","","2","",""
"null","173652","pSARL_v2","pSARL_v2fka192b4","6019bbb66e5c2815ba3728b6","fixation","img/fixation.png","null","","test","","","","","",""
"597","174253","pSARL_v2","pSARL_v2fka192b4","6019bbb66e5c2815ba3728b6","freq","img/orange_2bandit_a2.png","70","70","test","1","36","36","2","",""
"null","174468","pSARL_v2","pSARL_v2fka192b4","6019bbb66e5c2815ba3728b6","freq_resp","img/orange_2bandit_a.png","70","70","test","","","","2","",""
"null","174627","pSARL_v2","pSARL_v2fka192b4","6019bbb66e5c2815ba3728b6","fixation","img/fixation.png","null","","test","","","","","",""
"622.5","175253","pSARL_v2","pSARL_v2fka192b4","6019bbb66e5c2815ba3728b6","freq","img/orange_2bandit_a2.png","70","70","test","1","37","37","2","",""
"null","175438","pSARL_v2","pSARL_v2fka192b4","6019bbb66e5c2815ba3728b6","freq_resp","img/orange_2bandit_a.png","70","70","test","","","","2","",""
"null","175600","pSARL_v2","pSARL_v2fka192b4","6019bbb66e5c2815ba3728b6","fixation","img/fixation.png","null","","test","","","","","",""
"640.3999999999069","176244","pSARL_v2","pSARL_v2fka192b4","6019bbb66e5c2815ba3728b6","infreq","img/green_2bandit_a2.png","68","68","test","1","38","38","2","",""
"null","176410","pSARL_v2","pSARL_v2fka192b4","6019bbb66e5c2815ba3728b6","infreq_resp","img/green_2bandit_a.png","68","68","test","","","","2","",""
"null","176570","pSARL_v2","pSARL_v2fka192b4","6019bbb66e5c2815ba3728b6","fixation","img/fixation.png","null","","test","","","","","",""
"497.09999999962747","177071","pSARL_v2","pSARL_v2fka192b4","6019bbb66e5c2815ba3728b6","freq","img/orange_2bandit_a2.png","70","70","test","1","39","39","2","",""
"null","177380","pSARL_v2","pSARL_v2fka192b4","6019bbb66e5c2815ba3728b6","freq_resp","img/orange_2bandit_a.png","70","70","test","","","","2","",""
"null","177537","pSARL_v2","pSARL_v2fka192b4","6019bbb66e5c2815ba3728b6","fixation","img/fixation.png","null","","test","","","","","",""
"492.89999999990687","178034","pSARL_v2","pSARL_v2fka192b4","6019bbb66e5c2815ba3728b6","freq","img/orange_2bandit_a2.png","70","70","test","1","40","40","2","",""
"null","178347","pSARL_v2","pSARL_v2fka192b4","6019bbb66e5c2815ba3728b6","freq_resp","img/orange_2bandit_a.png","70","70","test","","","","2","",""
"null","178508","pSARL_v2","pSARL_v2fka192b4","6019bbb66e5c2815ba3728b6","fixation","img/fixation.png","null","","test","","","","","",""
"433.5","178945","pSARL_v2","pSARL_v2fka192b4","6019bbb66e5c2815ba3728b6","freq","img/orange_2bandit_a2.png","70","70","test","1","41","41","2","",""
"null","179322","pSARL_v2","pSARL_v2fka192b4","6019bbb66e5c2815ba3728b6","freq_resp","img/orange_2bandit_a.png","70","70","test","","","","2","",""
"null","179480","pSARL_v2","pSARL_v2fka192b4","6019bbb66e5c2815ba3728b6","fixation","img/fixation.png","null","","test","","","","","",""
"488.10000000009313","179971","pSARL_v2","pSARL_v2fka192b4","6019bbb66e5c2815ba3728b6","freq","img/orange_2bandit_a2.png","70","70","test","1","42","42","2","",""
"null","180293","pSARL_v2","pSARL_v2fka192b4","6019bbb66e5c2815ba3728b6","freq_resp","img/orange_2bandit_a.png","70","70","test","","","","2","",""
"null","180451","pSARL_v2","pSARL_v2fka192b4","6019bbb66e5c2815ba3728b6","fixation","img/fixation.png","null","","test","","","","","",""
"438.20000000018626","180893","pSARL_v2","pSARL_v2fka192b4","6019bbb66e5c2815ba3728b6","freq","img/orange_2bandit_a2.png","70","70","test","1","43","43","2","",""
"null","181265","pSARL_v2","pSARL_v2fka192b4","6019bbb66e5c2815ba3728b6","freq_resp","img/orange_2bandit_a.png","70","70","test","","","","2","",""
"null","181423","pSARL_v2","pSARL_v2fka192b4","6019bbb66e5c2815ba3728b6","fixation","img/fixation.png","null","","test","","","","","",""
"401.8000000002794","181829","pSARL_v2","pSARL_v2fka192b4","6019bbb66e5c2815ba3728b6","freq","img/orange_2bandit_a2.png","70","70","test","1","44","44","2","",""
"null","182234","pSARL_v2","pSARL_v2fka192b4","6019bbb66e5c2815ba3728b6","freq_resp","img/orange_2bandit_a.png","70","70","test","","","","2","",""
"null","182393","pSARL_v2","pSARL_v2fka192b4","6019bbb66e5c2815ba3728b6","fixation","img/fixation.png","null","","test","","","","","",""
"417.79999999981374","182815","pSARL_v2","pSARL_v2fka192b4","6019bbb66e5c2815ba3728b6","freq","img/orange_2bandit_a2.png","70","70","test","1","45","45","2","",""
"null","183205","pSARL_v2","pSARL_v2fka192b4","6019bbb66e5c2815ba3728b6","freq_resp","img/orange_2bandit_a.png","70","70","test","","","","2","",""
"null","183363","pSARL_v2","pSARL_v2fka192b4","6019bbb66e5c2815ba3728b6","fixation","img/fixation.png","null","","test","","","","","",""
"502.3000000002794","183869","pSARL_v2","pSARL_v2fka192b4","6019bbb66e5c2815ba3728b6","reward","img/slot.png","74","","test","","","","","",""
"null","184627","pSARL_v2","pSARL_v2fka192b4","6019bbb66e5c2815ba3728b6","points","<div class=""verylowPoints""> -11 </div>","null","na","test","","","","2","-11","1"
"669.2999999998137","185300","pSARL_v2","pSARL_v2fka192b4","6019bbb66e5c2815ba3728b6","freq","img/orange_2bandit_a2.png","70","70","test","1","46","46","3","",""
"null","185436","pSARL_v2","pSARL_v2fka192b4","6019bbb66e5c2815ba3728b6","freq_resp","img/orange_2bandit_a.png","70","70","test","","","","3","",""
"null","185592","pSARL_v2","pSARL_v2fka192b4","6019bbb66e5c2815ba3728b6","fixation","img/fixation.png","null","","test","","","","","",""
"742.6000000000931","186338","pSARL_v2","pSARL_v2fka192b4","6019bbb66e5c2815ba3728b6","freq","img/orange_2bandit_a2.png","70","70","test","1","47","47","3","",""
"null","186401","pSARL_v2","pSARL_v2fka192b4","6019bbb66e5c2815ba3728b6","freq_resp","img/orange_2bandit_a.png","70","70","test","","","","3","",""
"null","186559","pSARL_v2","pSARL_v2fka192b4","6019bbb66e5c2815ba3728b6","fixation","img/fixation.png","null","","test","","","","","",""
"null","187369","pSARL_v2","pSARL_v2fka192b4","6019bbb66e5c2815ba3728b6","freq","img/orange_2bandit_a2.png","null","70","test","0","48","48","3","",""
"null","187527","pSARL_v2","pSARL_v2fka192b4","6019bbb66e5c2815ba3728b6","fixation","img/fixation.png","null","","test","","","","","",""
"null","188338","pSARL_v2","pSARL_v2fka192b4","6019bbb66e5c2815ba3728b6","freq","img/orange_2bandit_a2.png","null","70","test","0","49","49","3","",""
"null","188498","pSARL_v2","pSARL_v2fka192b4","6019bbb66e5c2815ba3728b6","fixation","img/fixation.png","null","","test","","","","","",""
"47.90000000037253","188549","pSARL_v2","pSARL_v2fka192b4","6019bbb66e5c2815ba3728b6","freq","img/orange_2bandit_a2.png","70","70","test","1","50","50","3","",""
"null","189310","pSARL_v2","pSARL_v2fka192b4","6019bbb66e5c2815ba3728b6","freq_resp","img/orange_2bandit_a.png","70","70","test","","","","3","",""
"null","189470","pSARL_v2","pSARL_v2fka192b4","6019bbb66e5c2815ba3728b6","fixation","img/fixation.png","null","","test","","","","","",""
"683.5999999996275","190157","pSARL_v2","pSARL_v2fka192b4","6019bbb66e5c2815ba3728b6","infreq","img/green_2bandit_a2.png","68","68","test","1","51","51","3","",""
"null","190281","pSARL_v2","pSARL_v2fka192b4","6019bbb66e5c2815ba3728b6","infreq_resp","img/green_2bandit_a.png","68","68","test","","","","3","",""
"null","190437","pSARL_v2","pSARL_v2fka192b4","6019bbb66e5c2815ba3728b6","fixation","img/fixation.png","null","","test","","","","","",""
"543.2999999998137","190984","pSARL_v2","pSARL_v2fka192b4","6019bbb66e5c2815ba3728b6","freq","img/orange_2bandit_a2.png","70","70","test","1","52","52","3","",""
"null","191249","pSARL_v2","pSARL_v2fka192b4","6019bbb66e5c2815ba3728b6","freq_resp","img/orange_2bandit_a.png","70","70","test","","","","3","",""
"null","191410","pSARL_v2","pSARL_v2fka192b4","6019bbb66e5c2815ba3728b6","fixation","img/fixation.png","null","","test","","","","","",""
"513.5","191927","pSARL_v2","pSARL_v2fka192b4","6019bbb66e5c2815ba3728b6","freq","img/orange_2bandit_a2.png","70","70","test","1","53","53","3","",""
"null","192224","pSARL_v2","pSARL_v2fka192b4","6019bbb66e5c2815ba3728b6","freq_resp","img/orange_2bandit_a.png","70","70","test","","","","3","",""
"null","192381","pSARL_v2","pSARL_v2fka192b4","6019bbb66e5c2815ba3728b6","fixation","img/fixation.png","null","","test","","","","","",""
"436.6999999997206","192821","pSARL_v2","pSARL_v2fka192b4","6019bbb66e5c2815ba3728b6","freq","img/orange_2bandit_a2.png","70","70","test","1","54","54","3","",""
"null","193196","pSARL_v2","pSARL_v2fka192b4","6019bbb66e5c2815ba3728b6","freq_resp","img/orange_2bandit_a.png","70","70","test","","","","3","",""
"null","193354","pSARL_v2","pSARL_v2fka192b4","6019bbb66e5c2815ba3728b6","fixation","img/fixation.png","null","","test","","","","","",""
"484.29999999981374","193842","pSARL_v2","pSARL_v2fka192b4","6019bbb66e5c2815ba3728b6","freq","img/orange_2bandit_a2.png","70","70","test","1","55","55","3","",""
"null","194169","pSARL_v2","pSARL_v2fka192b4","6019bbb66e5c2815ba3728b6","freq_resp","img/orange_2bandit_a.png","70","70","test","","","","3","",""
"null","194330","pSARL_v2","pSARL_v2fka192b4","6019bbb66e5c2815ba3728b6","fixation","img/fixation.png","null","","test","","","","","",""
"470.40000000037253","194804","pSARL_v2","pSARL_v2fka192b4","6019bbb66e5c2815ba3728b6","freq","img/orange_2bandit_a2.png","70","70","test","1","56","56","3","",""
"null","195141","pSARL_v2","pSARL_v2fka192b4","6019bbb66e5c2815ba3728b6","freq_resp","img/orange_2bandit_a.png","70","70","test","","","","3","",""
"null","195296","pSARL_v2","pSARL_v2fka192b4","6019bbb66e5c2815ba3728b6","fixation","img/fixation.png","null","","test","","","","","",""
"437.5","195738","pSARL_v2","pSARL_v2fka192b4","6019bbb66e5c2815ba3728b6","freq","img/orange_2bandit_a2.png","70","70","test","1","57","57","3","",""
"null","196111","pSARL_v2","pSARL_v2fka192b4","6019bbb66e5c2815ba3728b6","freq_resp","img/orange_2bandit_a.png","70","70","test","","","","3","",""
"null","196267","pSARL_v2","pSARL_v2fka192b4","6019bbb66e5c2815ba3728b6","fixation","img/fixation.png","null","","test","","","","","",""
"484.10000000009313","196755","pSARL_v2","pSARL_v2fka192b4","6019bbb66e5c2815ba3728b6","freq","img/orange_2bandit_a2.png","70","70","test","1","58","58","3","",""
"null","197076","pSARL_v2","pSARL_v2fka192b4","6019bbb66e5c2815ba3728b6","freq_resp","img/orange_2bandit_a.png","70","70","test","","","","3","",""
"null","197238","pSARL_v2","pSARL_v2fka192b4","6019bbb66e5c2815ba3728b6","fixation","img/fixation.png","null","","test","","","","","",""
"524.3999999999069","197766","pSARL_v2","pSARL_v2fka192b4","6019bbb66e5c2815ba3728b6","freq","img/orange_2bandit_a2.png","70","70","test","1","59","59","3","",""
"null","198051","pSARL_v2","pSARL_v2fka192b4","6019bbb66e5c2815ba3728b6","freq_resp","img/orange_2bandit_a.png","70","70","test","","","","3","",""
"null","198211","pSARL_v2","pSARL_v2fka192b4","6019bbb66e5c2815ba3728b6","fixation","img/fixation.png","null","","test","","","","","",""
"552.6999999997206","198768","pSARL_v2","pSARL_v2fka192b4","6019bbb66e5c2815ba3728b6","freq","img/orange_2bandit_a2.png","70","70","test","1","60","60","3","",""
"null","199020","pSARL_v2","pSARL_v2fka192b4","6019bbb66e5c2815ba3728b6","freq_resp","img/orange_2bandit_a.png","70","70","test","","","","3","",""
"null","199182","pSARL_v2","pSARL_v2fka192b4","6019bbb66e5c2815ba3728b6","fixation","img/fixation.png","null","","test","","","","","",""
"555.1000000000931","199741","pSARL_v2","pSARL_v2fka192b4","6019bbb66e5c2815ba3728b6","infreq","img/green_2bandit_a2.png","68","68","test","1","61","61","3","",""
"null","199996","pSARL_v2","pSARL_v2fka192b4","6019bbb66e5c2815ba3728b6","infreq_resp","img/green_2bandit_a.png","68","68","test","","","","3","",""
"null","200156","pSARL_v2","pSARL_v2fka192b4","6019bbb66e5c2815ba3728b6","fixation","img/fixation.png","null","","test","","","","","",""
"470.1999999997206","200630","pSARL_v2","pSARL_v2fka192b4","6019bbb66e5c2815ba3728b6","freq","img/orange_2bandit_a2.png","70","70","test","1","62","62","3","",""
"null","200968","pSARL_v2","pSARL_v2fka192b4","6019bbb66e5c2815ba3728b6","freq_resp","img/orange_2bandit_a.png","70","70","test","","","","3","",""
"null","201129","pSARL_v2","pSARL_v2fka192b4","6019bbb66e5c2815ba3728b6","fixation","img/fixation.png","null","","test","","","","","",""
"464.60000000009313","201598","pSARL_v2","pSARL_v2fka192b4","6019bbb66e5c2815ba3728b6","freq","img/orange_2bandit_a2.png","70","70","test","1","63","63","3","",""
"null","201943","pSARL_v2","pSARL_v2fka192b4","6019bbb66e5c2815ba3728b6","freq_resp","img/orange_2bandit_a.png","70","70","test","","","","3","",""
"null","202104","pSARL_v2","pSARL_v2fka192b4","6019bbb66e5c2815ba3728b6","fixation","img/fixation.png","null","","test","","","","","",""
"484.20000000018626","202592","pSARL_v2","pSARL_v2fka192b4","6019bbb66e5c2815ba3728b6","freq","img/orange_2bandit_a2.png","70","70","test","1","64","64","3","",""
"null","202918","pSARL_v2","pSARL_v2fka192b4","6019bbb66e5c2815ba3728b6","freq_resp","img/orange_2bandit_a.png","70","70","test","","","","3","",""
"null","203077","pSARL_v2","pSARL_v2fka192b4","6019bbb66e5c2815ba3728b6","fixation","img/fixation.png","null","","test","","","","","",""
"467","203548","pSARL_v2","pSARL_v2fka192b4","6019bbb66e5c2815ba3728b6","freq","img/orange_2bandit_a2.png","70","70","test","1","65","65","3","",""
"null","203892","pSARL_v2","pSARL_v2fka192b4","6019bbb66e5c2815ba3728b6","freq_resp","img/orange_2bandit_a.png","70","70","test","","","","3","",""
"null","204048","pSARL_v2","pSARL_v2fka192b4","6019bbb66e5c2815ba3728b6","fixation","img/fixation.png","null","","test","","","","","",""
"531.7999999998137","204584","pSARL_v2","pSARL_v2fka192b4","6019bbb66e5c2815ba3728b6","freq","img/orange_2bandit_a2.png","70","70","test","1","66","66","3","",""
"null","204858","pSARL_v2","pSARL_v2fka192b4","6019bbb66e5c2815ba3728b6","freq_resp","img/orange_2bandit_a.png","70","70","test","","","","3","",""
"null","205019","pSARL_v2","pSARL_v2fka192b4","6019bbb66e5c2815ba3728b6","fixation","img/fixation.png","null","","test","","","","","",""
"571","205593","pSARL_v2","pSARL_v2fka192b4","6019bbb66e5c2815ba3728b6","reward","img/slot.png","74","","test","","","","","",""
"null","206350","pSARL_v2","pSARL_v2fka192b4","6019bbb66e5c2815ba3728b6","points","<div class=""verylowPoints""> -7 </div>","null","na","test","","","","3","-7","2"
"null","207162","pSARL_v2","pSARL_v2fka192b4","6019bbb66e5c2815ba3728b6","freq","img/orange_2bandit_a2.png","null","70","test","0","67","67","4","",""
"null","207322","pSARL_v2","pSARL_v2fka192b4","6019bbb66e5c2815ba3728b6","fixation","img/fixation.png","null","","test","","","","","",""
"null","208134","pSARL_v2","pSARL_v2fka192b4","6019bbb66e5c2815ba3728b6","freq","img/orange_2bandit_a2.png","null","70","test","0","68","68","4","",""
"null","208289","pSARL_v2","pSARL_v2fka192b4","6019bbb66e5c2815ba3728b6","fixation","img/fixation.png","null","","test","","","","","",""
"null","209100","pSARL_v2","pSARL_v2fka192b4","6019bbb66e5c2815ba3728b6","freq","img/orange_2bandit_a2.png","null","70","test","0","69","69","4","",""
"null","209263","pSARL_v2","pSARL_v2fka192b4","6019bbb66e5c2815ba3728b6","fixation","img/fixation.png","null","","test","","","","","",""
"280","209546","pSARL_v2","pSARL_v2fka192b4","6019bbb66e5c2815ba3728b6","freq","img/orange_2bandit_a2.png","70","70","test","1","70","70","4","",""
"null","210079","pSARL_v2","pSARL_v2fka192b4","6019bbb66e5c2815ba3728b6","freq_resp","img/orange_2bandit_a.png","70","70","test","","","","4","",""
"null","210238","pSARL_v2","pSARL_v2fka192b4","6019bbb66e5c2815ba3728b6","fixation","img/fixation.png","null","","test","","","","","",""
"514","210756","pSARL_v2","pSARL_v2fka192b4","6019bbb66e5c2815ba3728b6","freq","img/orange_2bandit_a2.png","70","70","test","1","71","71","4","",""
"null","211053","pSARL_v2","pSARL_v2fka192b4","6019bbb66e5c2815ba3728b6","freq_resp","img/orange_2bandit_a.png","70","70","test","","","","4","",""
"null","211214","pSARL_v2","pSARL_v2fka192b4","6019bbb66e5c2815ba3728b6","fixation","img/fixation.png","null","","test","","","","","",""
"439.79999999981374","211658","pSARL_v2","pSARL_v2fka192b4","6019bbb66e5c2815ba3728b6","freq","img/orange_2bandit_a2.png","70","70","test","1","72","72","4","",""
"null","212029","pSARL_v2","pSARL_v2fka192b4","6019bbb66e5c2815ba3728b6","freq_resp","img/orange_2bandit_a.png","70","70","test","","","","4","",""
"null","212191","pSARL_v2","pSARL_v2fka192b4","6019bbb66e5c2815ba3728b6","fixation","img/fixation.png","null","","test","","","","","",""
"521.8000000002794","212716","pSARL_v2","pSARL_v2fka192b4","6019bbb66e5c2815ba3728b6","freq","img/orange_2bandit_a2.png","70","70","test","1","73","73","4","",""
"null","213005","pSARL_v2","pSARL_v2fka192b4","6019bbb66e5c2815ba3728b6","freq_resp","img/orange_2bandit_a.png","70","70","test","","","","4","",""
"null","213167","pSARL_v2","pSARL_v2fka192b4","6019bbb66e5c2815ba3728b6","fixation","img/fixation.png","null","","test","","","","","",""
"606.2000000001863","213777","pSARL_v2","pSARL_v2fka192b4","6019bbb66e5c2815ba3728b6","freq","img/orange_2bandit_a2.png","70","70","test","1","74","74","4","",""
"null","213981","pSARL_v2","pSARL_v2fka192b4","6019bbb66e5c2815ba3728b6","freq_resp","img/orange_2bandit_a.png","70","70","test","","","","4","",""
"null","214137","pSARL_v2","pSARL_v2fka192b4","6019bbb66e5c2815ba3728b6","fixation","img/fixation.png","null","","test","","","","","",""
"632","214773","pSARL_v2","pSARL_v2fka192b4","6019bbb66e5c2815ba3728b6","freq","img/orange_2bandit_a2.png","70","70","test","1","75","75","4","",""
"null","214948","pSARL_v2","pSARL_v2fka192b4","6019bbb66e5c2815ba3728b6","freq_resp","img/orange_2bandit_a.png","70","70","test","","","","4","",""
"null","215110","pSARL_v2","pSARL_v2fka192b4","6019bbb66e5c2815ba3728b6","fixation","img/fixation.png","null","","test","","","","","",""
"672.5","215786","pSARL_v2","pSARL_v2fka192b4","6019bbb66e5c2815ba3728b6","infreq","img/green_2bandit_a2.png","68","68","test","1","76","76","4","",""
"null","215925","pSARL_v2","pSARL_v2fka192b4","6019bbb66e5c2815ba3728b6","infreq_resp","img/green_2bandit_a.png","68","68","test","","","","4","",""
"null","216084","pSARL_v2","pSARL_v2fka192b4","6019bbb66e5c2815ba3728b6","fixation","img/fixation.png","null","","test","","","","","",""
"579.7000000001863","216668","pSARL_v2","pSARL_v2fka192b4","6019bbb66e5c2815ba3728b6","freq","img/orange_2bandit_a2.png","70","70","test","1","77","77","4","",""
"null","216895","pSARL_v2","pSARL_v2fka192b4","6019bbb66e5c2815ba3728b6","freq_resp","img/orange_2bandit_a.png","70","70","test","","","","4","",""
"null","217055","pSARL_v2","pSARL_v2fka192b4","6019bbb66e5c2815ba3728b6","fixation","img/fixation.png","null","","test","","","","","",""
"681.8000000002794","217741","pSARL_v2","pSARL_v2fka192b4","6019bbb66e5c2815ba3728b6","infreq","img/green_2bandit_a2.png","68","68","test","1","78","78","4","",""
"null","217868","pSARL_v2","pSARL_v2fka192b4","6019bbb66e5c2815ba3728b6","infreq_resp","img/green_2bandit_a.png","68","68","test","","","","4","",""
"null","218029","pSARL_v2","pSARL_v2fka192b4","6019bbb66e5c2815ba3728b6","fixation","img/fixation.png","null","","test","","","","","",""
"513.3999999999069","218546","pSARL_v2","pSARL_v2fka192b4","6019bbb66e5c2815ba3728b6","freq","img/orange_2bandit_a2.png","70","70","test","1","79","79","4","",""
"null","218843","pSARL_v2","pSARL_v2fka192b4","6019bbb66e5c2815ba3728b6","freq_resp","img/orange_2bandit_a.png","70","70","test","","","","4","",""
"null","219005","pSARL_v2","pSARL_v2fka192b4","6019bbb66e5c2815ba3728b6","fixation","img/fixation.png","null","","test","","","","","",""
"370.89999999990687","219379","pSARL_v2","pSARL_v2fka192b4","6019bbb66e5c2815ba3728b6","freq","img/orange_2bandit_a2.png","70","70","test","1","80","80","4","",""
"null","219817","pSARL_v2","pSARL_v2fka192b4","6019bbb66e5c2815ba3728b6","freq_resp","img/orange_2bandit_a.png","70","70","test","","","","4","",""
"null","219977","pSARL_v2","pSARL_v2fka192b4","6019bbb66e5c2815ba3728b6","fixation","img/fixation.png","null","","test","","","","","",""
"398.10000000009313","220380","pSARL_v2","pSARL_v2fka192b4","6019bbb66e5c2815ba3728b6","freq","img/orange_2bandit_a2.png","70","70","test","1","81","81","4","",""
"null","220792","pSARL_v2","pSARL_v2fka192b4","6019bbb66e5c2815ba3728b6","freq_resp","img/orange_2bandit_a.png","70","70","test","","","","4","",""
"null","220949","pSARL_v2","pSARL_v2fka192b4","6019bbb66e5c2815ba3728b6","fixation","img/fixation.png","null","","test","","","","","",""
"450.90000000037253","221404","pSARL_v2","pSARL_v2fka192b4","6019bbb66e5c2815ba3728b6","freq","img/orange_2bandit_a2.png","70","70","test","1","82","82","4","",""
"null","221763","pSARL_v2","pSARL_v2fka192b4","6019bbb66e5c2815ba3728b6","freq_resp","img/orange_2bandit_a.png","70","70","test","","","","4","",""
"null","221920","pSARL_v2","pSARL_v2fka192b4","6019bbb66e5c2815ba3728b6","fixation","img/fixation.png","null","","test","","","","","",""
"560.1999999997206","222484","pSARL_v2","pSARL_v2fka192b4","6019bbb66e5c2815ba3728b6","freq","img/orange_2bandit_a2.png","70","70","test","1","83","83","4","",""
"null","222731","pSARL_v2","pSARL_v2fka192b4","6019bbb66e5c2815ba3728b6","freq_resp","img/orange_2bandit_a.png","70","70","test","","","","4","",""
"null","222887","pSARL_v2","pSARL_v2fka192b4","6019bbb66e5c2815ba3728b6","fixation","img/fixation.png","null","","test","","","","","",""
"557.6000000000931","223448","pSARL_v2","pSARL_v2fka192b4","6019bbb66e5c2815ba3728b6","freq","img/orange_2bandit_a2.png","70","70","test","1","84","84","4","",""
"null","223695","pSARL_v2","pSARL_v2fka192b4","6019bbb66e5c2815ba3728b6","freq_resp","img/orange_2bandit_a.png","70","70","test","","","","4","",""
"null","223857","pSARL_v2","pSARL_v2fka192b4","6019bbb66e5c2815ba3728b6","fixation","img/fixation.png","null","","test","","","","","",""
"512.3000000002794","224373","pSARL_v2","pSARL_v2fka192b4","6019bbb66e5c2815ba3728b6","freq","img/orange_2bandit_a2.png","70","70","test","1","85","85","4","",""
"null","224667","pSARL_v2","pSARL_v2fka192b4","6019bbb66e5c2815ba3728b6","freq_resp","img/orange_2bandit_a.png","70","70","test","","","","4","",""
"null","224828","pSARL_v2","pSARL_v2fka192b4","6019bbb66e5c2815ba3728b6","fixation","img/fixation.png","null","","test","","","","","",""
"599.3999999999069","225432","pSARL_v2","pSARL_v2fka192b4","6019bbb66e5c2815ba3728b6","freq","img/orange_2bandit_a2.png","70","70","test","1","86","86","4","",""
"null","225643","pSARL_v2","pSARL_v2fka192b4","6019bbb66e5c2815ba3728b6","freq_resp","img/orange_2bandit_a.png","70","70","test","","","","4","",""
"null","225803","pSARL_v2","pSARL_v2fka192b4","6019bbb66e5c2815ba3728b6","fixation","img/fixation.png","null","","test","","","","","",""
"578.0999999996275","226385","pSARL_v2","pSARL_v2fka192b4","6019bbb66e5c2815ba3728b6","infreq","img/green_2bandit_a2.png","68","68","test","1","87","87","4","",""
"null","226611","pSARL_v2","pSARL_v2fka192b4","6019bbb66e5c2815ba3728b6","infreq_resp","img/green_2bandit_a.png","68","68","test","","","","4","",""
"null","226774","pSARL_v2","pSARL_v2fka192b4","6019bbb66e5c2815ba3728b6","fixation","img/fixation.png","null","","test","","","","","",""
"458.5","227236","pSARL_v2","pSARL_v2fka192b4","6019bbb66e5c2815ba3728b6","freq","img/orange_2bandit_a2.png","70","70","test","1","88","88","4","",""
"null","227586","pSARL_v2","pSARL_v2fka192b4","6019bbb66e5c2815ba3728b6","freq_resp","img/orange_2bandit_a.png","70","70","test","","","","4","",""
"null","227742","pSARL_v2","pSARL_v2fka192b4","6019bbb66e5c2815ba3728b6","fixation","img/fixation.png","null","","test","","","","","",""
"505.1999999997206","228252","pSARL_v2","pSARL_v2fka192b4","6019bbb66e5c2815ba3728b6","freq","img/orange_2bandit_a2.png","70","70","test","1","89","89","4","",""
"null","228555","pSARL_v2","pSARL_v2fka192b4","6019bbb66e5c2815ba3728b6","freq_resp","img/orange_2bandit_a.png","70","70","test","","","","4","",""
"null","228716","pSARL_v2","pSARL_v2fka192b4","6019bbb66e5c2815ba3728b6","fixation","img/fixation.png","null","","test","","","","","",""
"517.5","229238","pSARL_v2","pSARL_v2fka192b4","6019bbb66e5c2815ba3728b6","reward","img/slot.png","74","","test","","","","","",""
"null","229999","pSARL_v2","pSARL_v2fka192b4","6019bbb66e5c2815ba3728b6","points","<div class=""verylowPoints""> -3 </div>","null","na","test","","","","4","-3","3"
"480.5","230483","pSARL_v2","pSARL_v2fka192b4","6019bbb66e5c2815ba3728b6","freq","img/orange_2bandit_a2.png","70","70","test","1","90","90","5","",""
"null","230809","pSARL_v2","pSARL_v2fka192b4","6019bbb66e5c2815ba3728b6","freq_resp","img/orange_2bandit_a.png","70","70","test","","","","5","",""
"null","230970","pSARL_v2","pSARL_v2fka192b4","6019bbb66e5c2815ba3728b6","fixation","img/fixation.png","null","","test","","","","","",""
"676.8000000002794","231651","pSARL_v2","pSARL_v2fka192b4","6019bbb66e5c2815ba3728b6","freq","img/orange_2bandit_a2.png","70","70","test","1","91","91","5","",""
"null","231784","pSARL_v2","pSARL_v2fka192b4","6019bbb66e5c2815ba3728b6","freq_resp","img/orange_2bandit_a.png","70","70","test","","","","5","",""
"null","231943","pSARL_v2","pSARL_v2fka192b4","6019bbb66e5c2815ba3728b6","fixation","img/fixation.png","null","","test","","","","","",""
"null","232753","pSARL_v2","pSARL_v2fka192b4","6019bbb66e5c2815ba3728b6","freq","img/orange_2bandit_a2.png","null","70","test","0","92","92","5","",""
"null","232912","pSARL_v2","pSARL_v2fka192b4","6019bbb66e5c2815ba3728b6","fixation","img/fixation.png","null","","test","","","","","",""
"0.20000000018626451","232916","pSARL_v2","pSARL_v2fka192b4","6019bbb66e5c2815ba3728b6","freq","img/orange_2bandit_a2.png","70","70","test","1","93","93","5","",""
"null","233725","pSARL_v2","pSARL_v2fka192b4","6019bbb66e5c2815ba3728b6","freq_resp","img/orange_2bandit_a.png","70","70","test","","","","5","",""
"null","233883","pSARL_v2","pSARL_v2fka192b4","6019bbb66e5c2815ba3728b6","fixation","img/fixation.png","null","","test","","","","","",""
"388.39999999990687","234276","pSARL_v2","pSARL_v2fka192b4","6019bbb66e5c2815ba3728b6","freq","img/orange_2bandit_a2.png","70","70","test","1","94","94","5","",""
"null","234697","pSARL_v2","pSARL_v2fka192b4","6019bbb66e5c2815ba3728b6","freq_resp","img/orange_2bandit_a.png","70","70","test","","","","5","",""
"null","234857","pSARL_v2","pSARL_v2fka192b4","6019bbb66e5c2815ba3728b6","fixation","img/fixation.png","null","","test","","","","","",""
"444.10000000009313","235305","pSARL_v2","pSARL_v2fka192b4","6019bbb66e5c2815ba3728b6","freq","img/orange_2bandit_a2.png","70","70","test","1","95","95","5","",""
"null","235672","pSARL_v2","pSARL_v2fka192b4","6019bbb66e5c2815ba3728b6","freq_resp","img/orange_2bandit_a.png","70","70","test","","","","5","",""
"null","235834","pSARL_v2","pSARL_v2fka192b4","6019bbb66e5c2815ba3728b6","fixation","img/fixation.png","null","","test","","","","","",""
"419.89999999990687","236258","pSARL_v2","pSARL_v2fka192b4","6019bbb66e5c2815ba3728b6","freq","img/orange_2bandit_a2.png","70","70","test","1","96","96","5","",""
"null","236646","pSARL_v2","pSARL_v2fka192b4","6019bbb66e5c2815ba3728b6","freq_resp","img/orange_2bandit_a.png","70","70","test","","","","5","",""
"null","236803","pSARL_v2","pSARL_v2fka192b4","6019bbb66e5c2815ba3728b6","fixation","img/fixation.png","null","","test","","","","","",""
"469.10000000009313","237276","pSARL_v2","pSARL_v2fka192b4","6019bbb66e5c2815ba3728b6","freq","img/orange_2bandit_a2.png","70","70","test","1","97","97","5","",""
"null","237615","pSARL_v2","pSARL_v2fka192b4","6019bbb66e5c2815ba3728b6","freq_resp","img/orange_2bandit_a.png","70","70","test","","","","5","",""
"null","237776","pSARL_v2","pSARL_v2fka192b4","6019bbb66e5c2815ba3728b6","fixation","img/fixation.png","null","","test","","","","","",""
"544.3000000002794","238324","pSARL_v2","pSARL_v2fka192b4","6019bbb66e5c2815ba3728b6","freq","img/orange_2bandit_a2.png","70","70","test","1","98","98","5","",""
"null","238589","pSARL_v2","pSARL_v2fka192b4","6019bbb66e5c2815ba3728b6","freq_resp","img/orange_2bandit_a.png","70","70","test","","","","5","",""
"null","238746","pSARL_v2","pSARL_v2fka192b4","6019bbb66e5c2815ba3728b6","fixation","img/fixation.png","null","","test","","","","","",""
"558.4000000003725","239309","pSARL_v2","pSARL_v2fka192b4","6019bbb66e5c2815ba3728b6","freq","img/orange_2bandit_a2.png","70","70","test","1","99","99","5","",""
"null","239558","pSARL_v2","pSARL_v2fka192b4","6019bbb66e5c2815ba3728b6","freq_resp","img/orange_2bandit_a.png","70","70","test","","","","5","",""
"null","239717","pSARL_v2","pSARL_v2fka192b4","6019bbb66e5c2815ba3728b6","fixation","img/fixation.png","null","","test","","","","","",""
"654.6000000000931","240375","pSARL_v2","pSARL_v2fka192b4","6019bbb66e5c2815ba3728b6","freq","img/orange_2bandit_a2.png","70","70","test","1","100","100","5","",""
"null","240528","pSARL_v2","pSARL_v2fka192b4","6019bbb66e5c2815ba3728b6","freq_resp","img/orange_2bandit_a.png","70","70","test","","","","5","",""
"null","240690","pSARL_v2","pSARL_v2fka192b4","6019bbb66e5c2815ba3728b6","fixation","img/fixation.png","null","","test","","","","","",""
"687.5999999996275","241381","pSARL_v2","pSARL_v2fka192b4","6019bbb66e5c2815ba3728b6","freq","img/orange_2bandit_a2.png","70","70","test","1","101","101","5","",""
"null","241502","pSARL_v2","pSARL_v2fka192b4","6019bbb66e5c2815ba3728b6","freq_resp","img/orange_2bandit_a.png","70","70","test","","","","5","",""
"null","241663","pSARL_v2","pSARL_v2fka192b4","6019bbb66e5c2815ba3728b6","fixation","img/fixation.png","null","","test","","","","","",""
"583.6000000000931","242251","pSARL_v2","pSARL_v2fka192b4","6019bbb66e5c2815ba3728b6","infreq","img/green_2bandit_a2.png","68","68","test","1","102","102","5","",""
"null","242473","pSARL_v2","pSARL_v2fka192b4","6019bbb66e5c2815ba3728b6","infreq_resp","img/green_2bandit_a.png","68","68","test","","","","5","",""
"null","242633","pSARL_v2","pSARL_v2fka192b4","6019bbb66e5c2815ba3728b6","fixation","img/fixation.png","null","","test","","","","","",""
"512","243149","pSARL_v2","pSARL_v2fka192b4","6019bbb66e5c2815ba3728b6","freq","img/orange_2bandit_a2.png","70","70","test","1","103","103","5","",""
"null","243448","pSARL_v2","pSARL_v2fka192b4","6019bbb66e5c2815ba3728b6","freq_resp","img/orange_2bandit_a.png","70","70","test","","","","5","",""
"null","243608","pSARL_v2","pSARL_v2fka192b4","6019bbb66e5c2815ba3728b6","fixation","img/fixation.png","null","","test","","","","","",""
"534.3999999999069","244147","pSARL_v2","pSARL_v2fka192b4","6019bbb66e5c2815ba3728b6","freq","img/orange_2bandit_a2.png","70","70","test","1","104","104","5","",""
"null","244421","pSARL_v2","pSARL_v2fka192b4","6019bbb66e5c2815ba3728b6","freq_resp","img/orange_2bandit_a.png","70","70","test","","","","5","",""
"null","244575","pSARL_v2","pSARL_v2fka192b4","6019bbb66e5c2815ba3728b6","fixation","img/fixation.png","null","","test","","","","","",""
"519.1000000000931","245098","pSARL_v2","pSARL_v2fka192b4","6019bbb66e5c2815ba3728b6","freq","img/orange_2bandit_a2.png","70","70","test","1","105","105","5","",""
"null","245386","pSARL_v2","pSARL_v2fka192b4","6019bbb66e5c2815ba3728b6","freq_resp","img/orange_2bandit_a.png","70","70","test","","","","5","",""
"null","245548","pSARL_v2","pSARL_v2fka192b4","6019bbb66e5c2815ba3728b6","fixation","img/fixation.png","null","","test","","","","","",""
"520.6999999997206","246073","pSARL_v2","pSARL_v2fka192b4","6019bbb66e5c2815ba3728b6","freq","img/orange_2bandit_a2.png","70","70","test","1","106","106","5","",""
"null","246362","pSARL_v2","pSARL_v2fka192b4","6019bbb66e5c2815ba3728b6","freq_resp","img/orange_2bandit_a.png","70","70","test","","","","5","",""
"null","246524","pSARL_v2","pSARL_v2fka192b4","6019bbb66e5c2815ba3728b6","fixation","img/fixation.png","null","","test","","","","","",""
"475.1999999997206","247003","pSARL_v2","pSARL_v2fka192b4","6019bbb66e5c2815ba3728b6","freq","img/orange_2bandit_a2.png","70","70","test","1","107","107","5","",""
"null","247335","pSARL_v2","pSARL_v2fka192b4","6019bbb66e5c2815ba3728b6","freq_resp","img/orange_2bandit_a.png","70","70","test","","","","5","",""
"null","247496","pSARL_v2","pSARL_v2fka192b4","6019bbb66e5c2815ba3728b6","fixation","img/fixation.png","null","","test","","","","","",""
"543.6000000000931","248043","pSARL_v2","pSARL_v2fka192b4","6019bbb66e5c2815ba3728b6","freq","img/orange_2bandit_a2.png","70","70","test","1","108","108","5","",""
"null","248308","pSARL_v2","pSARL_v2fka192b4","6019bbb66e5c2815ba3728b6","freq_resp","img/orange_2bandit_a.png","70","70","test","","","","5","",""
"null","248468","pSARL_v2","pSARL_v2fka192b4","6019bbb66e5c2815ba3728b6","fixation","img/fixation.png","null","","test","","","","","",""
"533.6000000000931","249005","pSARL_v2","pSARL_v2fka192b4","6019bbb66e5c2815ba3728b6","freq","img/orange_2bandit_a2.png","70","70","test","1","109","109","5","",""
"null","249279","pSARL_v2","pSARL_v2fka192b4","6019bbb66e5c2815ba3728b6","freq_resp","img/orange_2bandit_a.png","70","70","test","","","","5","",""
"null","249441","pSARL_v2","pSARL_v2fka192b4","6019bbb66e5c2815ba3728b6","fixation","img/fixation.png","null","","test","","","","","",""
"466","249911","pSARL_v2","pSARL_v2fka192b4","6019bbb66e5c2815ba3728b6","freq","img/orange_2bandit_a2.png","70","70","test","1","110","110","5","",""
"null","250256","pSARL_v2","pSARL_v2fka192b4","6019bbb66e5c2815ba3728b6","freq_resp","img/orange_2bandit_a.png","70","70","test","","","","5","",""
"null","250416","pSARL_v2","pSARL_v2fka192b4","6019bbb66e5c2815ba3728b6","fixation","img/fixation.png","null","","test","","","","","",""
"521.2000000001863","250941","pSARL_v2","pSARL_v2fka192b4","6019bbb66e5c2815ba3728b6","freq","img/orange_2bandit_a2.png","70","70","test","1","111","111","5","",""
"null","251229","pSARL_v2","pSARL_v2fka192b4","6019bbb66e5c2815ba3728b6","freq_resp","img/orange_2bandit_a.png","70","70","test","","","","5","",""
"null","251389","pSARL_v2","pSARL_v2fka192b4","6019bbb66e5c2815ba3728b6","fixation","img/fixation.png","null","","test","","","","","",""
"496.39999999990687","251889","pSARL_v2","pSARL_v2fka192b4","6019bbb66e5c2815ba3728b6","freq","img/orange_2bandit_a2.png","70","70","test","1","112","112","5","",""
"null","252203","pSARL_v2","pSARL_v2fka192b4","6019bbb66e5c2815ba3728b6","freq_resp","img/orange_2bandit_a.png","70","70","test","","","","5","",""
"null","252365","pSARL_v2","pSARL_v2fka192b4","6019bbb66e5c2815ba3728b6","fixation","img/fixation.png","null","","test","","","","","",""
"517.5","252887","pSARL_v2","pSARL_v2fka192b4","6019bbb66e5c2815ba3728b6","infreq","img/green_2bandit_a2.png","68","68","test","1","113","113","5","",""
"null","253177","pSARL_v2","pSARL_v2fka192b4","6019bbb66e5c2815ba3728b6","infreq_resp","img/green_2bandit_a.png","68","68","test","","","","5","",""
"null","253332","pSARL_v2","pSARL_v2fka192b4","6019bbb66e5c2815ba3728b6","fixation","img/fixation.png","null","","test","","","","","",""
"459.40000000037253","253795","pSARL_v2","pSARL_v2fka192b4","6019bbb66e5c2815ba3728b6","freq","img/orange_2bandit_a2.png","70","70","test","1","114","114","5","",""
"null","254145","pSARL_v2","pSARL_v2fka192b4","6019bbb66e5c2815ba3728b6","freq_resp","img/orange_2bandit_a.png","70","70","test","","","","5","",""
"null","254302","pSARL_v2","pSARL_v2fka192b4","6019bbb66e5c2815ba3728b6","fixation","img/fixation.png","null","","test","","","","","",""
"540.6000000000931","254846","pSARL_v2","pSARL_v2fka192b4","6019bbb66e5c2815ba3728b6","reward","img/slot.png","74","","test","","","","","",""
"null","255608","pSARL_v2","pSARL_v2fka192b4","6019bbb66e5c2815ba3728b6","points","<div class=""veryhighPoints""> +1 </div>","null","na","test","","","","5","1","4"
"532","256144","pSARL_v2","pSARL_v2fka192b4","6019bbb66e5c2815ba3728b6","freq","img/orange_2bandit_a2.png","70","70","test","1","115","115","6","",""
"null","256421","pSARL_v2","pSARL_v2fka192b4","6019bbb66e5c2815ba3728b6","freq_resp","img/orange_2bandit_a.png","70","70","test","","","","6","",""
"null","256577","pSARL_v2","pSARL_v2fka192b4","6019bbb66e5c2815ba3728b6","fixation","img/fixation.png","null","","test","","","","","",""
"776.8999999999069","257358","pSARL_v2","pSARL_v2fka192b4","6019bbb66e5c2815ba3728b6","infreq","img/green_2bandit_a2.png","68","68","test","1","116","116","6","",""
"null","257388","pSARL_v2","pSARL_v2fka192b4","6019bbb66e5c2815ba3728b6","infreq_resp","img/green_2bandit_a.png","68","68","test","","","","6","",""
"null","257548","pSARL_v2","pSARL_v2fka192b4","6019bbb66e5c2815ba3728b6","fixation","img/fixation.png","null","","test","","","","","",""
"531.8999999999069","258083","pSARL_v2","pSARL_v2fka192b4","6019bbb66e5c2815ba3728b6","freq","img/orange_2bandit_a2.png","70","70","test","1","117","117","6","",""
"null","258358","pSARL_v2","pSARL_v2fka192b4","6019bbb66e5c2815ba3728b6","freq_resp","img/orange_2bandit_a.png","70","70","test","","","","6","",""
"null","258520","pSARL_v2","pSARL_v2fka192b4","6019bbb66e5c2815ba3728b6","fixation","img/fixation.png","null","","test","","","","","",""
"459.10000000009313","258984","pSARL_v2","pSARL_v2fka192b4","6019bbb66e5c2815ba3728b6","freq","img/orange_2bandit_a2.png","70","70","test","1","118","118","6","",""
"null","259329","pSARL_v2","pSARL_v2fka192b4","6019bbb66e5c2815ba3728b6","freq_resp","img/orange_2bandit_a.png","70","70","test","","","","6","",""
"null","259489","pSARL_v2","pSARL_v2fka192b4","6019bbb66e5c2815ba3728b6","fixation","img/fixation.png","null","","test","","","","","",""
"394.10000000009313","259888","pSARL_v2","pSARL_v2fka192b4","6019bbb66e5c2815ba3728b6","freq","img/orange_2bandit_a2.png","70","70","test","1","119","119","6","",""
"null","260303","pSARL_v2","pSARL_v2fka192b4","6019bbb66e5c2815ba3728b6","freq_resp","img/orange_2bandit_a.png","70","70","test","","","","6","",""
"null","260461","pSARL_v2","pSARL_v2fka192b4","6019bbb66e5c2815ba3728b6","fixation","img/fixation.png","null","","test","","","","","",""
"418.3000000002794","260883","pSARL_v2","pSARL_v2fka192b4","6019bbb66e5c2815ba3728b6","freq","img/orange_2bandit_a2.png","70","70","test","1","120","120","6","",""
"null","261273","pSARL_v2","pSARL_v2fka192b4","6019bbb66e5c2815ba3728b6","freq_resp","img/orange_2bandit_a.png","70","70","test","","","","6","",""
"null","261433","pSARL_v2","pSARL_v2fka192b4","6019bbb66e5c2815ba3728b6","fixation","img/fixation.png","null","","test","","","","","",""
"462.29999999981374","261900","pSARL_v2","pSARL_v2fka192b4","6019bbb66e5c2815ba3728b6","freq","img/orange_2bandit_a2.png","70","70","test","1","121","121","6","",""
"null","262248","pSARL_v2","pSARL_v2fka192b4","6019bbb66e5c2815ba3728b6","freq_resp","img/orange_2bandit_a.png","70","70","test","","","","6","",""
"null","262404","pSARL_v2","pSARL_v2fka192b4","6019bbb66e5c2815ba3728b6","fixation","img/fixation.png","null","","test","","","","","",""
"396.90000000037253","262804","pSARL_v2","pSARL_v2fka192b4","6019bbb66e5c2815ba3728b6","freq","img/orange_2bandit_a2.png","70","70","test","1","122","122","6","",""
"null","263216","pSARL_v2","pSARL_v2fka192b4","6019bbb66e5c2815ba3728b6","freq_resp","img/orange_2bandit_a.png","70","70","test","","","","6","",""
"null","263377","pSARL_v2","pSARL_v2fka192b4","6019bbb66e5c2815ba3728b6","fixation","img/fixation.png","null","","test","","","","","",""
"399.60000000009313","263780","pSARL_v2","pSARL_v2fka192b4","6019bbb66e5c2815ba3728b6","freq","img/orange_2bandit_a2.png","70","70","test","1","123","123","6","",""
"null","264189","pSARL_v2","pSARL_v2fka192b4","6019bbb66e5c2815ba3728b6","freq_resp","img/orange_2bandit_a.png","70","70","test","","","","6","",""
"null","264346","pSARL_v2","pSARL_v2fka192b4","6019bbb66e5c2815ba3728b6","fixation","img/fixation.png","null","","test","","","","","",""
"377.59999999962747","264728","pSARL_v2","pSARL_v2fka192b4","6019bbb66e5c2815ba3728b6","freq","img/orange_2bandit_a2.png","70","70","test","1","124","124","6","",""
"null","265156","pSARL_v2","pSARL_v2fka192b4","6019bbb66e5c2815ba3728b6","freq_resp","img/orange_2bandit_a.png","70","70","test","","","","6","",""
"null","265312","pSARL_v2","pSARL_v2fka192b4","6019bbb66e5c2815ba3728b6","fixation","img/fixation.png","null","","test","","","","","",""
"616.2999999998137","265932","pSARL_v2","pSARL_v2fka192b4","6019bbb66e5c2815ba3728b6","infreq","img/green_2bandit_a2.png","68","68","test","1","125","125","6","",""
"null","266127","pSARL_v2","pSARL_v2fka192b4","6019bbb66e5c2815ba3728b6","infreq_resp","img/green_2bandit_a.png","68","68","test","","","","6","",""
"null","266288","pSARL_v2","pSARL_v2fka192b4","6019bbb66e5c2815ba3728b6","fixation","img/fixation.png","null","","test","","","","","",""
"464.20000000018626","266758","pSARL_v2","pSARL_v2fka192b4","6019bbb66e5c2815ba3728b6","freq","img/orange_2bandit_a2.png","70","70","test","1","126","126","6","",""
"null","267103","pSARL_v2","pSARL_v2fka192b4","6019bbb66e5c2815ba3728b6","freq_resp","img/orange_2bandit_a.png","70","70","test","","","","6","",""
"null","267264","pSARL_v2","pSARL_v2fka192b4","6019bbb66e5c2815ba3728b6","fixation","img/fixation.png","null","","test","","","","","",""
"588.7999999998137","267857","pSARL_v2","pSARL_v2fka192b4","6019bbb66e5c2815ba3728b6","infreq","img/green_2bandit_a2.png","68","68","test","1","127","127","6","",""
"null","268074","pSARL_v2","pSARL_v2fka192b4","6019bbb66e5c2815ba3728b6","infreq_resp","img/green_2bandit_a.png","68","68","test","","","","6","",""
"null","268236","pSARL_v2","pSARL_v2fka192b4","6019bbb66e5c2815ba3728b6","fixation","img/fixation.png","null","","test","","","","","",""
"411","268651","pSARL_v2","pSARL_v2fka192b4","6019bbb66e5c2815ba3728b6","freq","img/orange_2bandit_a2.png","70","70","test","1","128","128","6","",""
"null","269048","pSARL_v2","pSARL_v2fka192b4","6019bbb66e5c2815ba3728b6","freq_resp","img/orange_2bandit_a.png","70","70","test","","","","6","",""
"null","269210","pSARL_v2","pSARL_v2fka192b4","6019bbb66e5c2815ba3728b6","fixation","img/fixation.png","null","","test","","","","","",""
"418.5","269632","pSARL_v2","pSARL_v2fka192b4","6019bbb66e5c2815ba3728b6","freq","img/orange_2bandit_a2.png","70","70","test","1","129","129","6","",""
"null","270019","pSARL_v2","pSARL_v2fka192b4","6019bbb66e5c2815ba3728b6","freq_resp","img/orange_2bandit_a.png","70","70","test","","","","6","",""
"null","270180","pSARL_v2","pSARL_v2fka192b4","6019bbb66e5c2815ba3728b6","fixation","img/fixation.png","null","","test","","","","","",""
"393.70000000018626","270578","pSARL_v2","pSARL_v2fka192b4","6019bbb66e5c2815ba3728b6","freq","img/orange_2bandit_a2.png","70","70","test","1","130","130","6","",""
"null","270989","pSARL_v2","pSARL_v2fka192b4","6019bbb66e5c2815ba3728b6","freq_resp","img/orange_2bandit_a.png","70","70","test","","","","6","",""
"null","271151","pSARL_v2","pSARL_v2fka192b4","6019bbb66e5c2815ba3728b6","fixation","img/fixation.png","null","","test","","","","","",""
"452.1999999997206","271607","pSARL_v2","pSARL_v2fka192b4","6019bbb66e5c2815ba3728b6","freq","img/orange_2bandit_a2.png","70","70","test","1","131","131","6","",""
"null","271965","pSARL_v2","pSARL_v2fka192b4","6019bbb66e5c2815ba3728b6","freq_resp","img/orange_2bandit_a.png","70","70","test","","","","6","",""
"null","272123","pSARL_v2","pSARL_v2fka192b4","6019bbb66e5c2815ba3728b6","fixation","img/fixation.png","null","","test","","","","","",""
"449.39999999990687","272577","pSARL_v2","pSARL_v2fka192b4","6019bbb66e5c2815ba3728b6","freq","img/orange_2bandit_a2.png","70","70","test","1","132","132","6","",""
"null","272938","pSARL_v2","pSARL_v2fka192b4","6019bbb66e5c2815ba3728b6","freq_resp","img/orange_2bandit_a.png","70","70","test","","","","6","",""
"null","273096","pSARL_v2","pSARL_v2fka192b4","6019bbb66e5c2815ba3728b6","fixation","img/fixation.png","null","","test","","","","","",""
"479.70000000018626","273580","pSARL_v2","pSARL_v2fka192b4","6019bbb66e5c2815ba3728b6","freq","img/orange_2bandit_a2.png","70","70","test","1","133","133","6","",""
"null","273906","pSARL_v2","pSARL_v2fka192b4","6019bbb66e5c2815ba3728b6","freq_resp","img/orange_2bandit_a.png","70","70","test","","","","6","",""
"null","274063","pSARL_v2","pSARL_v2fka192b4","6019bbb66e5c2815ba3728b6","fixation","img/fixation.png","null","","test","","","","","",""
"590","274657","pSARL_v2","pSARL_v2fka192b4","6019bbb66e5c2815ba3728b6","freq","img/orange_2bandit_a2.png","70","70","test","1","134","134","6","",""
"null","274878","pSARL_v2","pSARL_v2fka192b4","6019bbb66e5c2815ba3728b6","freq_resp","img/orange_2bandit_a.png","70","70","test","","","","6","",""
"null","275040","pSARL_v2","pSARL_v2fka192b4","6019bbb66e5c2815ba3728b6","fixation","img/fixation.png","null","","test","","","","","",""
"685.1000000000931","275728","pSARL_v2","pSARL_v2fka192b4","6019bbb66e5c2815ba3728b6","freq","img/orange_2bandit_a2.png","70","70","test","1","135","135","6","",""
"null","275852","pSARL_v2","pSARL_v2fka192b4","6019bbb66e5c2815ba3728b6","freq_resp","img/orange_2bandit_a.png","70","70","test","","","","6","",""
"null","276012","pSARL_v2","pSARL_v2fka192b4","6019bbb66e5c2815ba3728b6","fixation","img/fixation.png","null","","test","","","","","",""
"750.6000000000931","276766","pSARL_v2","pSARL_v2fka192b4","6019bbb66e5c2815ba3728b6","freq","img/orange_2bandit_a2.png","70","70","test","1","136","136","6","",""
"null","276824","pSARL_v2","pSARL_v2fka192b4","6019bbb66e5c2815ba3728b6","freq_resp","img/orange_2bandit_a.png","70","70","test","","","","6","",""
"null","276986","pSARL_v2","pSARL_v2fka192b4","6019bbb66e5c2815ba3728b6","fixation","img/fixation.png","null","","test","","","","","",""
"null","277798","pSARL_v2","pSARL_v2fka192b4","6019bbb66e5c2815ba3728b6","freq","img/orange_2bandit_a2.png","null","70","test","0","137","137","6","",""
"null","277956","pSARL_v2","pSARL_v2fka192b4","6019bbb66e5c2815ba3728b6","fixation","img/fixation.png","null","","test","","","","","",""
"85.09999999962747","278045","pSARL_v2","pSARL_v2fka192b4","6019bbb66e5c2815ba3728b6","freq","img/orange_2bandit_a2.png","70","70","test","1","138","138","6","",""
"null","278770","pSARL_v2","pSARL_v2fka192b4","6019bbb66e5c2815ba3728b6","freq_resp","img/orange_2bandit_a.png","70","70","test","","","","6","",""
"null","278925","pSARL_v2","pSARL_v2fka192b4","6019bbb66e5c2815ba3728b6","fixation","img/fixation.png","null","","test","","","","","",""
"566.3999999999069","279495","pSARL_v2","pSARL_v2fka192b4","6019bbb66e5c2815ba3728b6","reward","img/slot.png","74","","test","","","","","",""
"null","280256","pSARL_v2","pSARL_v2fka192b4","6019bbb66e5c2815ba3728b6","points","<div class=""verylowPoints""> -7 </div>","null","na","test","","","","6","-7","5"
"599","280859","pSARL_v2","pSARL_v2fka192b4","6019bbb66e5c2815ba3728b6","freq","img/orange_2bandit_a2.png","70","70","test","1","139","139","7","",""
"null","281072","pSARL_v2","pSARL_v2fka192b4","6019bbb66e5c2815ba3728b6","freq_resp","img/orange_2bandit_a.png","70","70","test","","","","7","",""
"null","281234","pSARL_v2","pSARL_v2fka192b4","6019bbb66e5c2815ba3728b6","fixation","img/fixation.png","null","","test","","","","","",""
"685","281922","pSARL_v2","pSARL_v2fka192b4","6019bbb66e5c2815ba3728b6","freq","img/orange_2bandit_a2.png","70","70","test","1","140","140","7","",""
"null","282045","pSARL_v2","pSARL_v2fka192b4","6019bbb66e5c2815ba3728b6","freq_resp","img/orange_2bandit_a.png","70","70","test","","","","7","",""
"null","282206","pSARL_v2","pSARL_v2fka192b4","6019bbb66e5c2815ba3728b6","fixation","img/fixation.png","null","","test","","","","","",""
"635.8000000002794","282846","pSARL_v2","pSARL_v2fka192b4","6019bbb66e5c2815ba3728b6","infreq","img/green_2bandit_a2.png","68","68","test","1","141","141","7","",""
"null","283017","pSARL_v2","pSARL_v2fka192b4","6019bbb66e5c2815ba3728b6","infreq_resp","img/green_2bandit_a.png","68","68","test","","","","7","",""
"null","283179","pSARL_v2","pSARL_v2fka192b4","6019bbb66e5c2815ba3728b6","fixation","img/fixation.png","null","","test","","","","","",""
"548.6000000000931","283731","pSARL_v2","pSARL_v2fka192b4","6019bbb66e5c2815ba3728b6","freq","img/orange_2bandit_a2.png","70","70","test","1","142","142","7","",""
"null","283989","pSARL_v2","pSARL_v2fka192b4","6019bbb66e5c2815ba3728b6","freq_resp","img/orange_2bandit_a.png","70","70","test","","","","7","",""
"null","284150","pSARL_v2","pSARL_v2fka192b4","6019bbb66e5c2815ba3728b6","fixation","img/fixation.png","null","","test","","","","","",""
"524.2999999998137","284679","pSARL_v2","pSARL_v2fka192b4","6019bbb66e5c2815ba3728b6","freq","img/orange_2bandit_a2.png","70","70","test","1","143","143","7","",""
"null","284962","pSARL_v2","pSARL_v2fka192b4","6019bbb66e5c2815ba3728b6","freq_resp","img/orange_2bandit_a.png","70","70","test","","","","7","",""
"null","285123","pSARL_v2","pSARL_v2fka192b4","6019bbb66e5c2815ba3728b6","fixation","img/fixation.png","null","","test","","","","","",""
"567","285694","pSARL_v2","pSARL_v2fka192b4","6019bbb66e5c2815ba3728b6","freq","img/orange_2bandit_a2.png","70","70","test","1","144","144","7","",""
"null","285938","pSARL_v2","pSARL_v2fka192b4","6019bbb66e5c2815ba3728b6","freq_resp","img/orange_2bandit_a.png","70","70","test","","","","7","",""
"null","286100","pSARL_v2","pSARL_v2fka192b4","6019bbb66e5c2815ba3728b6","fixation","img/fixation.png","null","","test","","","","","",""
"702.6000000000931","286806","pSARL_v2","pSARL_v2fka192b4","6019bbb66e5c2815ba3728b6","freq","img/orange_2bandit_a2.png","70","70","test","1","145","145","7","",""
"null","286913","pSARL_v2","pSARL_v2fka192b4","6019bbb66e5c2815ba3728b6","freq_resp","img/orange_2bandit_a.png","70","70","test","","","","7","",""
"null","287074","pSARL_v2","pSARL_v2fka192b4","6019bbb66e5c2815ba3728b6","fixation","img/fixation.png","null","","test","","","","","",""
"671.2000000001863","287749","pSARL_v2","pSARL_v2fka192b4","6019bbb66e5c2815ba3728b6","freq","img/orange_2bandit_a2.png","70","70","test","1","146","146","7","",""
"null","287884","pSARL_v2","pSARL_v2fka192b4","6019bbb66e5c2815ba3728b6","freq_resp","img/orange_2bandit_a.png","70","70","test","","","","7","",""
"null","288039","pSARL_v2","pSARL_v2fka192b4","6019bbb66e5c2815ba3728b6","fixation","img/fixation.png","null","","test","","","","","",""
"542.8000000002794","288586","pSARL_v2","pSARL_v2fka192b4","6019bbb66e5c2815ba3728b6","freq","img/orange_2bandit_a2.png","70","70","test","1","147","147","7","",""
"null","288851","pSARL_v2","pSARL_v2fka192b4","6019bbb66e5c2815ba3728b6","freq_resp","img/orange_2bandit_a.png","70","70","test","","","","7","",""
"null","289012","pSARL_v2","pSARL_v2fka192b4","6019bbb66e5c2815ba3728b6","fixation","img/fixation.png","null","","test","","","","","",""
"494.89999999990687","289511","pSARL_v2","pSARL_v2fka192b4","6019bbb66e5c2815ba3728b6","freq","img/orange_2bandit_a2.png","70","70","test","1","148","148","7","",""
"null","289828","pSARL_v2","pSARL_v2fka192b4","6019bbb66e5c2815ba3728b6","freq_resp","img/orange_2bandit_a.png","70","70","test","","","","7","",""
"null","289987","pSARL_v2","pSARL_v2fka192b4","6019bbb66e5c2815ba3728b6","fixation","img/fixation.png","null","","test","","","","","",""
"432.90000000037253","290424","pSARL_v2","pSARL_v2fka192b4","6019bbb66e5c2815ba3728b6","freq","img/orange_2bandit_a2.png","70","70","test","1","149","149","7","",""
"null","290801","pSARL_v2","pSARL_v2fka192b4","6019bbb66e5c2815ba3728b6","freq_resp","img/orange_2bandit_a.png","70","70","test","","","","7","",""
"null","290962","pSARL_v2","pSARL_v2fka192b4","6019bbb66e5c2815ba3728b6","fixation","img/fixation.png","null","","test","","","","","",""
"626.8999999999069","291593","pSARL_v2","pSARL_v2fka192b4","6019bbb66e5c2815ba3728b6","infreq","img/green_2bandit_a2.png","68","68","test","1","150","150","7","",""
"null","291774","pSARL_v2","pSARL_v2fka192b4","6019bbb66e5c2815ba3728b6","infreq_resp","img/green_2bandit_a.png","68","68","test","","","","7","",""
"null","291932","pSARL_v2","pSARL_v2fka192b4","6019bbb66e5c2815ba3728b6","fixation","img/fixation.png","null","","test","","","","","",""
"660.5999999996275","292597","pSARL_v2","pSARL_v2fka192b4","6019bbb66e5c2815ba3728b6","freq","img/orange_2bandit_a2.png","70","70","test","1","151","151","7","",""
"null","292744","pSARL_v2","pSARL_v2fka192b4","6019bbb66e5c2815ba3728b6","freq_resp","img/orange_2bandit_a.png","70","70","test","","","","7","",""
"null","292900","pSARL_v2","pSARL_v2fka192b4","6019bbb66e5c2815ba3728b6","fixation","img/fixation.png","null","","test","","","","","",""
"648.2999999998137","293552","pSARL_v2","pSARL_v2fka192b4","6019bbb66e5c2815ba3728b6","freq","img/orange_2bandit_a2.png","70","70","test","1","152","152","7","",""
"null","293708","pSARL_v2","pSARL_v2fka192b4","6019bbb66e5c2815ba3728b6","freq_resp","img/orange_2bandit_a.png","70","70","test","","","","7","",""
"null","293865","pSARL_v2","pSARL_v2fka192b4","6019bbb66e5c2815ba3728b6","fixation","img/fixation.png","null","","test","","","","","",""
"null","294676","pSARL_v2","pSARL_v2fka192b4","6019bbb66e5c2815ba3728b6","freq","img/orange_2bandit_a2.png","null","70","test","0","153","153","7","",""
"null","294838","pSARL_v2","pSARL_v2fka192b4","6019bbb66e5c2815ba3728b6","fixation","img/fixation.png","null","","test","","","","","",""
"null","295650","pSARL_v2","pSARL_v2fka192b4","6019bbb66e5c2815ba3728b6","freq","img/orange_2bandit_a2.png","null","70","test","0","154","154","7","",""
"null","295805","pSARL_v2","pSARL_v2fka192b4","6019bbb66e5c2815ba3728b6","fixation","img/fixation.png","null","","test","","","","","",""
"64.60000000009313","295874","pSARL_v2","pSARL_v2fka192b4","6019bbb66e5c2815ba3728b6","freq","img/orange_2bandit_a2.png","70","70","test","1","155","155","7","",""
"null","296616","pSARL_v2","pSARL_v2fka192b4","6019bbb66e5c2815ba3728b6","freq_resp","img/orange_2bandit_a.png","70","70","test","","","","7","",""
"null","296778","pSARL_v2","pSARL_v2fka192b4","6019bbb66e5c2815ba3728b6","fixation","img/fixation.png","null","","test","","","","","",""
"377","297159","pSARL_v2","pSARL_v2fka192b4","6019bbb66e5c2815ba3728b6","freq","img/orange_2bandit_a2.png","70","70","test","1","156","156","7","",""
"null","297592","pSARL_v2","pSARL_v2fka192b4","6019bbb66e5c2815ba3728b6","freq_resp","img/orange_2bandit_a.png","70","70","test","","","","7","",""
"null","297754","pSARL_v2","pSARL_v2fka192b4","6019bbb66e5c2815ba3728b6","fixation","img/fixation.png","null","","test","","","","","",""
"423.8000000002794","298182","pSARL_v2","pSARL_v2fka192b4","6019bbb66e5c2815ba3728b6","freq","img/orange_2bandit_a2.png","70","70","test","1","157","157","7","",""
"null","298565","pSARL_v2","pSARL_v2fka192b4","6019bbb66e5c2815ba3728b6","freq_resp","img/orange_2bandit_a.png","70","70","test","","","","7","",""
"null","298727","pSARL_v2","pSARL_v2fka192b4","6019bbb66e5c2815ba3728b6","fixation","img/fixation.png","null","","test","","","","","",""
"544","299275","pSARL_v2","pSARL_v2fka192b4","6019bbb66e5c2815ba3728b6","freq","img/orange_2bandit_a2.png","70","70","test","1","158","158","7","",""
"null","299540","pSARL_v2","pSARL_v2fka192b4","6019bbb66e5c2815ba3728b6","freq_resp","img/orange_2bandit_a.png","70","70","test","","","","7","",""
"null","299701","pSARL_v2","pSARL_v2fka192b4","6019bbb66e5c2815ba3728b6","fixation","img/fixation.png","null","","test","","","","","",""
"591.7999999998137","300297","pSARL_v2","pSARL_v2fka192b4","6019bbb66e5c2815ba3728b6","freq","img/orange_2bandit_a2.png","70","70","test","1","159","159","7","",""
"null","300511","pSARL_v2","pSARL_v2fka192b4","6019bbb66e5c2815ba3728b6","freq_resp","img/orange_2bandit_a.png","70","70","test","","","","7","",""
"null","300672","pSARL_v2","pSARL_v2fka192b4","6019bbb66e5c2815ba3728b6","fixation","img/fixation.png","null","","test","","","","","",""
"634.1999999997206","301310","pSARL_v2","pSARL_v2fka192b4","6019bbb66e5c2815ba3728b6","freq","img/orange_2bandit_a2.png","70","70","test","1","160","160","7","",""
"null","301483","pSARL_v2","pSARL_v2fka192b4","6019bbb66e5c2815ba3728b6","freq_resp","img/orange_2bandit_a.png","70","70","test","","","","7","",""
"null","301645","pSARL_v2","pSARL_v2fka192b4","6019bbb66e5c2815ba3728b6","fixation","img/fixation.png","null","","test","","","","","",""
"719.6999999997206","302368","pSARL_v2","pSARL_v2fka192b4","6019bbb66e5c2815ba3728b6","freq","img/orange_2bandit_a2.png","70","70","test","1","161","161","7","",""
"null","302459","pSARL_v2","pSARL_v2fka192b4","6019bbb66e5c2815ba3728b6","freq_resp","img/orange_2bandit_a.png","70","70","test","","","","7","",""
"null","302614","pSARL_v2","pSARL_v2fka192b4","6019bbb66e5c2815ba3728b6","fixation","img/fixation.png","null","","test","","","","","",""
"766.1999999997206","303385","pSARL_v2","pSARL_v2fka192b4","6019bbb66e5c2815ba3728b6","freq","img/orange_2bandit_a2.png","70","70","test","1","162","162","7","",""
"null","303423","pSARL_v2","pSARL_v2fka192b4","6019bbb66e5c2815ba3728b6","freq_resp","img/orange_2bandit_a.png","70","70","test","","","","7","",""
"null","303585","pSARL_v2","pSARL_v2fka192b4","6019bbb66e5c2815ba3728b6","fixation","img/fixation.png","null","","test","","","","","",""
"null","304394","pSARL_v2","pSARL_v2fka192b4","6019bbb66e5c2815ba3728b6","freq","img/orange_2bandit_a2.png","null","70","test","0","163","163","7","",""
"null","304555","pSARL_v2","pSARL_v2fka192b4","6019bbb66e5c2815ba3728b6","fixation","img/fixation.png","null","","test","","","","","",""
"568.6999999997206","305129","pSARL_v2","pSARL_v2fka192b4","6019bbb66e5c2815ba3728b6","reward","img/slot.png","74","","test","","","","","",""
"null","305891","pSARL_v2","pSARL_v2fka192b4","6019bbb66e5c2815ba3728b6","points","<div class=""verylowPoints""> -6 </div>","null","na","test","","","","7","-6","6"
"603.3999999999069","306498","pSARL_v2","pSARL_v2fka192b4","6019bbb66e5c2815ba3728b6","freq","img/orange_2bandit_a2.png","70","70","test","1","164","164","8","",""
"null","306700","pSARL_v2","pSARL_v2fka192b4","6019bbb66e5c2815ba3728b6","freq_resp","img/orange_2bandit_a.png","70","70","test","","","","8","",""
"null","306858","pSARL_v2","pSARL_v2fka192b4","6019bbb66e5c2815ba3728b6","fixation","img/fixation.png","null","","test","","","","","",""
"752.8999999999069","307615","pSARL_v2","pSARL_v2fka192b4","6019bbb66e5c2815ba3728b6","freq","img/orange_2bandit_a2.png","70","70","test","1","165","165","8","",""
"null","307673","pSARL_v2","pSARL_v2fka192b4","6019bbb66e5c2815ba3728b6","freq_resp","img/orange_2bandit_a.png","70","70","test","","","","8","",""
"null","307834","pSARL_v2","pSARL_v2fka192b4","6019bbb66e5c2815ba3728b6","fixation","img/fixation.png","null","","test","","","","","",""
"null","308646","pSARL_v2","pSARL_v2fka192b4","6019bbb66e5c2815ba3728b6","freq","img/orange_2bandit_a2.png","null","70","test","0","166","166","8","",""
"null","308803","pSARL_v2","pSARL_v2fka192b4","6019bbb66e5c2815ba3728b6","fixation","img/fixation.png","null","","test","","","","","",""
"null","309609","pSARL_v2","pSARL_v2fka192b4","6019bbb66e5c2815ba3728b6","freq","img/orange_2bandit_a2.png","null","70","test","0","167","167","8","",""
"null","309771","pSARL_v2","pSARL_v2fka192b4","6019bbb66e5c2815ba3728b6","fixation","img/fixation.png","null","","test","","","","","",""
"577.8999999999069","310354","pSARL_v2","pSARL_v2fka192b4","6019bbb66e5c2815ba3728b6","freq","img/orange_2bandit_a2.png","70","70","test","1","168","168","8","",""
"null","310583","pSARL_v2","pSARL_v2fka192b4","6019bbb66e5c2815ba3728b6","freq_resp","img/orange_2bandit_a.png","70","70","test","","","","8","",""
"null","310744","pSARL_v2","pSARL_v2fka192b4","6019bbb66e5c2815ba3728b6","fixation","img/fixation.png","null","","test","","","","","",""
"467.10000000009313","311215","pSARL_v2","pSARL_v2fka192b4","6019bbb66e5c2815ba3728b6","freq","img/orange_2bandit_a2.png","70","70","test","1","169","169","8","",""
"null","311554","pSARL_v2","pSARL_v2fka192b4","6019bbb66e5c2815ba3728b6","freq_resp","img/orange_2bandit_a.png","70","70","test","","","","8","",""
"null","311715","pSARL_v2","pSARL_v2fka192b4","6019bbb66e5c2815ba3728b6","fixation","img/fixation.png","null","","test","","","","","",""
"428.20000000018626","312148","pSARL_v2","pSARL_v2fka192b4","6019bbb66e5c2815ba3728b6","freq","img/orange_2bandit_a2.png","70","70","test","1","170","170","8","",""
"null","312530","pSARL_v2","pSARL_v2fka192b4","6019bbb66e5c2815ba3728b6","freq_resp","img/orange_2bandit_a.png","70","70","test","","","","8","",""
"null","312691","pSARL_v2","pSARL_v2fka192b4","6019bbb66e5c2815ba3728b6","fixation","img/fixation.png","null","","test","","","","","",""
"385.10000000009313","313081","pSARL_v2","pSARL_v2fka192b4","6019bbb66e5c2815ba3728b6","freq","img/orange_2bandit_a2.png","70","70","test","1","171","171","8","",""
"null","313506","pSARL_v2","pSARL_v2fka192b4","6019bbb66e5c2815ba3728b6","freq_resp","img/orange_2bandit_a.png","70","70","test","","","","8","",""
"null","313667","pSARL_v2","pSARL_v2fka192b4","6019bbb66e5c2815ba3728b6","fixation","img/fixation.png","null","","test","","","","","",""
"474.60000000009313","314146","pSARL_v2","pSARL_v2fka192b4","6019bbb66e5c2815ba3728b6","freq","img/orange_2bandit_a2.png","70","70","test","1","172","172","8","",""
"null","314477","pSARL_v2","pSARL_v2fka192b4","6019bbb66e5c2815ba3728b6","freq_resp","img/orange_2bandit_a.png","70","70","test","","","","8","",""
"null","314634","pSARL_v2","pSARL_v2fka192b4","6019bbb66e5c2815ba3728b6","fixation","img/fixation.png","null","","test","","","","","",""
"421.90000000037253","315061","pSARL_v2","pSARL_v2fka192b4","6019bbb66e5c2815ba3728b6","freq","img/orange_2bandit_a2.png","70","70","test","1","173","173","8","",""
"null","315445","pSARL_v2","pSARL_v2fka192b4","6019bbb66e5c2815ba3728b6","freq_resp","img/orange_2bandit_a.png","70","70","test","","","","8","",""
"null","315607","pSARL_v2","pSARL_v2fka192b4","6019bbb66e5c2815ba3728b6","fixation","img/fixation.png","null","","test","","","","","",""
"619.1000000000931","316230","pSARL_v2","pSARL_v2fka192b4","6019bbb66e5c2815ba3728b6","infreq","img/green_2bandit_a2.png","68","68","test","1","174","174","8","",""
"null","316416","pSARL_v2","pSARL_v2fka192b4","6019bbb66e5c2815ba3728b6","infreq_resp","img/green_2bandit_a.png","68","68","test","","","","8","",""
"null","316578","pSARL_v2","pSARL_v2fka192b4","6019bbb66e5c2815ba3728b6","fixation","img/fixation.png","null","","test","","","","","",""
"502.79999999981374","317085","pSARL_v2","pSARL_v2fka192b4","6019bbb66e5c2815ba3728b6","freq","img/orange_2bandit_a2.png","70","70","test","1","175","175","8","",""
"null","317393","pSARL_v2","pSARL_v2fka192b4","6019bbb66e5c2815ba3728b6","freq_resp","img/orange_2bandit_a.png","70","70","test","","","","8","",""
"null","317555","pSARL_v2","pSARL_v2fka192b4","6019bbb66e5c2815ba3728b6","fixation","img/fixation.png","null","","test","","","","","",""
"555.3000000002794","318114","pSARL_v2","pSARL_v2fka192b4","6019bbb66e5c2815ba3728b6","freq","img/orange_2bandit_a2.png","70","70","test","1","176","176","8","",""
"null","318365","pSARL_v2","pSARL_v2fka192b4","6019bbb66e5c2815ba3728b6","freq_resp","img/orange_2bandit_a.png","70","70","test","","","","8","",""
"null","318526","pSARL_v2","pSARL_v2fka192b4","6019bbb66e5c2815ba3728b6","fixation","img/fixation.png","null","","test","","","","","",""
"687","319217","pSARL_v2","pSARL_v2fka192b4","6019bbb66e5c2815ba3728b6","freq","img/orange_2bandit_a2.png","70","70","test","1","177","177","8","",""
"null","319339","pSARL_v2","pSARL_v2fka192b4","6019bbb66e5c2815ba3728b6","freq_resp","img/orange_2bandit_a.png","70","70","test","","","","8","",""
"null","319499","pSARL_v2","pSARL_v2fka192b4","6019bbb66e5c2815ba3728b6","fixation","img/fixation.png","null","","test","","","","","",""
"714.1000000000931","320217","pSARL_v2","pSARL_v2fka192b4","6019bbb66e5c2815ba3728b6","freq","img/orange_2bandit_a2.png","70","70","test","1","178","178","8","",""
"null","320313","pSARL_v2","pSARL_v2fka192b4","6019bbb66e5c2815ba3728b6","freq_resp","img/orange_2bandit_a.png","70","70","test","","","","8","",""
"null","320475","pSARL_v2","pSARL_v2fka192b4","6019bbb66e5c2815ba3728b6","fixation","img/fixation.png","null","","test","","","","","",""
"759.2000000001863","321238","pSARL_v2","pSARL_v2fka192b4","6019bbb66e5c2815ba3728b6","freq","img/orange_2bandit_a2.png","70","70","test","1","179","179","8","",""
"null","321289","pSARL_v2","pSARL_v2fka192b4","6019bbb66e5c2815ba3728b6","freq_resp","img/orange_2bandit_a.png","70","70","test","","","","8","",""
"null","321449","pSARL_v2","pSARL_v2fka192b4","6019bbb66e5c2815ba3728b6","fixation","img/fixation.png","null","","test","","","","","",""
"null","322259","pSARL_v2","pSARL_v2fka192b4","6019bbb66e5c2815ba3728b6","freq","img/orange_2bandit_a2.png","null","70","test","0","180","180","8","",""
"null","322421","pSARL_v2","pSARL_v2fka192b4","6019bbb66e5c2815ba3728b6","fixation","img/fixation.png","null","","test","","","","","",""
"33.8000000002794","322459","pSARL_v2","pSARL_v2fka192b4","6019bbb66e5c2815ba3728b6","freq","img/orange_2bandit_a2.png","70","70","test","1","181","181","8","",""
"null","323230","pSARL_v2","pSARL_v2fka192b4","6019bbb66e5c2815ba3728b6","freq_resp","img/orange_2bandit_a.png","70","70","test","","","","8","",""
"null","323392","pSARL_v2","pSARL_v2fka192b4","6019bbb66e5c2815ba3728b6","fixation","img/fixation.png","null","","test","","","","","",""
"442.10000000009313","323838","pSARL_v2","pSARL_v2fka192b4","6019bbb66e5c2815ba3728b6","freq","img/orange_2bandit_a2.png","70","70","test","1","182","182","8","",""
"null","324207","pSARL_v2","pSARL_v2fka192b4","6019bbb66e5c2815ba3728b6","freq_resp","img/orange_2bandit_a.png","70","70","test","","","","8","",""
"null","324365","pSARL_v2","pSARL_v2fka192b4","6019bbb66e5c2815ba3728b6","fixation","img/fixation.png","null","","test","","","","","",""
"409.20000000018626","324778","pSARL_v2","pSARL_v2fka192b4","6019bbb66e5c2815ba3728b6","freq","img/orange_2bandit_a2.png","70","70","test","1","183","183","8","",""
"null","325175","pSARL_v2","pSARL_v2fka192b4","6019bbb66e5c2815ba3728b6","freq_resp","img/orange_2bandit_a.png","70","70","test","","","","8","",""
"null","325337","pSARL_v2","pSARL_v2fka192b4","6019bbb66e5c2815ba3728b6","fixation","img/fixation.png","null","","test","","","","","",""
"517.7000000001863","325858","pSARL_v2","pSARL_v2fka192b4","6019bbb66e5c2815ba3728b6","freq","img/orange_2bandit_a2.png","70","70","test","1","184","184","8","",""
"null","326149","pSARL_v2","pSARL_v2fka192b4","6019bbb66e5c2815ba3728b6","freq_resp","img/orange_2bandit_a.png","70","70","test","","","","8","",""
"null","326310","pSARL_v2","pSARL_v2fka192b4","6019bbb66e5c2815ba3728b6","fixation","img/fixation.png","null","","test","","","","","",""
"709.6000000000931","327024","pSARL_v2","pSARL_v2fka192b4","6019bbb66e5c2815ba3728b6","freq","img/orange_2bandit_a2.png","70","70","test","1","185","185","8","",""
"null","327119","pSARL_v2","pSARL_v2fka192b4","6019bbb66e5c2815ba3728b6","freq_resp","img/orange_2bandit_a.png","70","70","test","","","","8","",""
"null","327277","pSARL_v2","pSARL_v2fka192b4","6019bbb66e5c2815ba3728b6","fixation","img/fixation.png","null","","test","","","","","",""
"626.3000000002794","327907","pSARL_v2","pSARL_v2fka192b4","6019bbb66e5c2815ba3728b6","infreq","img/green_2bandit_a2.png","68","68","test","1","186","186","8","",""
"null","328091","pSARL_v2","pSARL_v2fka192b4","6019bbb66e5c2815ba3728b6","infreq_resp","img/green_2bandit_a.png","68","68","test","","","","8","",""
"null","328252","pSARL_v2","pSARL_v2fka192b4","6019bbb66e5c2815ba3728b6","fixation","img/fixation.png","null","","test","","","","","",""
"503.6999999997206","328760","pSARL_v2","pSARL_v2fka192b4","6019bbb66e5c2815ba3728b6","freq","img/orange_2bandit_a2.png","70","70","test","1","187","187","8","",""
"null","329066","pSARL_v2","pSARL_v2fka192b4","6019bbb66e5c2815ba3728b6","freq_resp","img/orange_2bandit_a.png","70","70","test","","","","8","",""
"null","329228","pSARL_v2","pSARL_v2fka192b4","6019bbb66e5c2815ba3728b6","fixation","img/fixation.png","null","","test","","","","","",""
"565.8000000002794","329797","pSARL_v2","pSARL_v2fka192b4","6019bbb66e5c2815ba3728b6","freq","img/orange_2bandit_a2.png","70","70","test","1","188","188","8","",""
"null","330043","pSARL_v2","pSARL_v2fka192b4","6019bbb66e5c2815ba3728b6","freq_resp","img/orange_2bandit_a.png","70","70","test","","","","8","",""
"null","330205","pSARL_v2","pSARL_v2fka192b4","6019bbb66e5c2815ba3728b6","fixation","img/fixation.png","null","","test","","","","","",""
"596.0999999996275","330805","pSARL_v2","pSARL_v2fka192b4","6019bbb66e5c2815ba3728b6","freq","img/orange_2bandit_a2.png","70","70","test","1","189","189","8","",""
"null","331018","pSARL_v2","pSARL_v2fka192b4","6019bbb66e5c2815ba3728b6","freq_resp","img/orange_2bandit_a.png","70","70","test","","","","8","",""
"null","331180","pSARL_v2","pSARL_v2fka192b4","6019bbb66e5c2815ba3728b6","fixation","img/fixation.png","null","","test","","","","","",""
"545.4000000003725","331729","pSARL_v2","pSARL_v2fka192b4","6019bbb66e5c2815ba3728b6","reward","img/slot.png","74","","test","","","","","",""
"null","332490","pSARL_v2","pSARL_v2fka192b4","6019bbb66e5c2815ba3728b6","points","<div class=""verylowPoints""> -4 </div>","null","na","test","","","","8","-4","7"
"471.8000000002794","332965","pSARL_v2","pSARL_v2fka192b4","6019bbb66e5c2815ba3728b6","freq","img/orange_2bandit_a2.png","70","70","test","1","190","190","9","",""
"null","333302","pSARL_v2","pSARL_v2fka192b4","6019bbb66e5c2815ba3728b6","freq_resp","img/orange_2bandit_a.png","70","70","test","","","","9","",""
"null","333463","pSARL_v2","pSARL_v2fka192b4","6019bbb66e5c2815ba3728b6","fixation","img/fixation.png","null","","test","","","","","",""
"495.3000000002794","333962","pSARL_v2","pSARL_v2fka192b4","6019bbb66e5c2815ba3728b6","freq","img/orange_2bandit_a2.png","70","70","test","1","191","191","9","",""
"null","334275","pSARL_v2","pSARL_v2fka192b4","6019bbb66e5c2815ba3728b6","freq_resp","img/orange_2bandit_a.png","70","70","test","","","","9","",""
"null","334435","pSARL_v2","pSARL_v2fka192b4","6019bbb66e5c2815ba3728b6","fixation","img/fixation.png","null","","test","","","","","",""
"530.6000000000931","334970","pSARL_v2","pSARL_v2fka192b4","6019bbb66e5c2815ba3728b6","freq","img/orange_2bandit_a2.png","70","70","test","1","192","192","9","",""
"null","335245","pSARL_v2","pSARL_v2fka192b4","6019bbb66e5c2815ba3728b6","freq_resp","img/orange_2bandit_a.png","70","70","test","","","","9","",""
"null","335406","pSARL_v2","pSARL_v2fka192b4","6019bbb66e5c2815ba3728b6","fixation","img/fixation.png","null","","test","","","","","",""
"530.5","335941","pSARL_v2","pSARL_v2fka192b4","6019bbb66e5c2815ba3728b6","freq","img/orange_2bandit_a2.png","70","70","test","1","193","193","9","",""
"null","336217","pSARL_v2","pSARL_v2fka192b4","6019bbb66e5c2815ba3728b6","freq_resp","img/orange_2bandit_a.png","70","70","test","","","","9","",""
"null","336379","pSARL_v2","pSARL_v2fka192b4","6019bbb66e5c2815ba3728b6","fixation","img/fixation.png","null","","test","","","","","",""
"508.5","336891","pSARL_v2","pSARL_v2fka192b4","6019bbb66e5c2815ba3728b6","freq","img/orange_2bandit_a2.png","70","70","test","1","194","194","9","",""
"null","337194","pSARL_v2","pSARL_v2fka192b4","6019bbb66e5c2815ba3728b6","freq_resp","img/orange_2bandit_a.png","70","70","test","","","","9","",""
"null","337356","pSARL_v2","pSARL_v2fka192b4","6019bbb66e5c2815ba3728b6","fixation","img/fixation.png","null","","test","","","","","",""
"587.7000000001863","337947","pSARL_v2","pSARL_v2fka192b4","6019bbb66e5c2815ba3728b6","freq","img/orange_2bandit_a2.png","70","70","test","1","195","195","9","",""
"null","338168","pSARL_v2","pSARL_v2fka192b4","6019bbb66e5c2815ba3728b6","freq_resp","img/orange_2bandit_a.png","70","70","test","","","","9","",""
"null","338329","pSARL_v2","pSARL_v2fka192b4","6019bbb66e5c2815ba3728b6","fixation","img/fixation.png","null","","test","","","","","",""
"722.7000000001863","339055","pSARL_v2","pSARL_v2fka192b4","6019bbb66e5c2815ba3728b6","freq","img/orange_2bandit_a2.png","70","70","test","1","196","196","9","",""
"null","339144","pSARL_v2","pSARL_v2fka192b4","6019bbb66e5c2815ba3728b6","freq_resp","img/orange_2bandit_a.png","70","70","test","","","","9","",""
"null","339302","pSARL_v2","pSARL_v2fka192b4","6019bbb66e5c2815ba3728b6","fixation","img/fixation.png","null","","test","","","","","",""
"null","340113","pSARL_v2","pSARL_v2fka192b4","6019bbb66e5c2815ba3728b6","freq","img/orange_2bandit_a2.png","null","70","test","0","197","197","9","",""
"null","340270","pSARL_v2","pSARL_v2fka192b4","6019bbb66e5c2815ba3728b6","fixation","img/fixation.png","null","","test","","","","","",""
"null","341081","pSARL_v2","pSARL_v2fka192b4","6019bbb66e5c2815ba3728b6","freq","img/orange_2bandit_a2.png","null","70","test","0","198","198","9","",""
"null","341241","pSARL_v2","pSARL_v2fka192b4","6019bbb66e5c2815ba3728b6","fixation","img/fixation.png","null","","test","","","","","",""
"224.1999999997206","341469","pSARL_v2","pSARL_v2fka192b4","6019bbb66e5c2815ba3728b6","freq","img/orange_2bandit_a2.png","70","70","test","1","199","199","9","",""
"null","342056","pSARL_v2","pSARL_v2fka192b4","6019bbb66e5c2815ba3728b6","freq_resp","img/orange_2bandit_a.png","70","70","test","","","","9","",""
"null","342218","pSARL_v2","pSARL_v2fka192b4","6019bbb66e5c2815ba3728b6","fixation","img/fixation.png","null","","test","","","","","",""
"405.90000000037253","342628","pSARL_v2","pSARL_v2fka192b4","6019bbb66e5c2815ba3728b6","freq","img/orange_2bandit_a2.png","70","70","test","1","200","200","9","",""
"null","343028","pSARL_v2","pSARL_v2fka192b4","6019bbb66e5c2815ba3728b6","freq_resp","img/orange_2bandit_a.png","70","70","test","","","","9","",""
"null","343190","pSARL_v2","pSARL_v2fka192b4","6019bbb66e5c2815ba3728b6","fixation","img/fixation.png","null","","test","","","","","",""
"582.3999999999069","343777","pSARL_v2","pSARL_v2fka192b4","6019bbb66e5c2815ba3728b6","infreq","img/green_2bandit_a2.png","68","68","test","1","201","201","9","",""
"null","344001","pSARL_v2","pSARL_v2fka192b4","6019bbb66e5c2815ba3728b6","infreq_resp","img/green_2bandit_a.png","68","68","test","","","","9","",""
"null","344162","pSARL_v2","pSARL_v2fka192b4","6019bbb66e5c2815ba3728b6","fixation","img/fixation.png","null","","test","","","","","",""
"429.39999999990687","344595","pSARL_v2","pSARL_v2fka192b4","6019bbb66e5c2815ba3728b6","freq","img/orange_2bandit_a2.png","70","70","test","1","202","202","9","",""
"null","344973","pSARL_v2","pSARL_v2fka192b4","6019bbb66e5c2815ba3728b6","freq_resp","img/orange_2bandit_a.png","70","70","test","","","","9","",""
"null","345135","pSARL_v2","pSARL_v2fka192b4","6019bbb66e5c2815ba3728b6","fixation","img/fixation.png","null","","test","","","","","",""
"381.39999999990687","345520","pSARL_v2","pSARL_v2fka192b4","6019bbb66e5c2815ba3728b6","freq","img/orange_2bandit_a2.png","70","70","test","1","203","203","9","",""
"null","345945","pSARL_v2","pSARL_v2fka192b4","6019bbb66e5c2815ba3728b6","freq_resp","img/orange_2bandit_a.png","70","70","test","","","","9","",""
"null","346106","pSARL_v2","pSARL_v2fka192b4","6019bbb66e5c2815ba3728b6","fixation","img/fixation.png","null","","test","","","","","",""
"430.8000000002794","346541","pSARL_v2","pSARL_v2fka192b4","6019bbb66e5c2815ba3728b6","freq","img/orange_2bandit_a2.png","70","70","test","1","204","204","9","",""
"null","346920","pSARL_v2","pSARL_v2fka192b4","6019bbb66e5c2815ba3728b6","freq_resp","img/orange_2bandit_a.png","70","70","test","","","","9","",""
"null","347082","pSARL_v2","pSARL_v2fka192b4","6019bbb66e5c2815ba3728b6","fixation","img/fixation.png","null","","test","","","","","",""
"745.4000000003725","347832","pSARL_v2","pSARL_v2fka192b4","6019bbb66e5c2815ba3728b6","infreq","img/green_2bandit_a2.png","68","68","test","1","205","205","9","",""
"null","347894","pSARL_v2","pSARL_v2fka192b4","6019bbb66e5c2815ba3728b6","infreq_resp","img/green_2bandit_a.png","68","68","test","","","","9","",""
"null","348053","pSARL_v2","pSARL_v2fka192b4","6019bbb66e5c2815ba3728b6","fixation","img/fixation.png","null","","test","","","","","",""
"553.1000000000931","348610","pSARL_v2","pSARL_v2fka192b4","6019bbb66e5c2815ba3728b6","freq","img/orange_2bandit_a2.png","70","70","test","1","206","206","9","",""
"null","348865","pSARL_v2","pSARL_v2fka192b4","6019bbb66e5c2815ba3728b6","freq_resp","img/orange_2bandit_a.png","70","70","test","","","","9","",""
"null","349024","pSARL_v2","pSARL_v2fka192b4","6019bbb66e5c2815ba3728b6","fixation","img/fixation.png","null","","test","","","","","",""
"402.6999999997206","349431","pSARL_v2","pSARL_v2fka192b4","6019bbb66e5c2815ba3728b6","freq","img/orange_2bandit_a2.png","70","70","test","1","207","207","9","",""
"null","349840","pSARL_v2","pSARL_v2fka192b4","6019bbb66e5c2815ba3728b6","freq_resp","img/orange_2bandit_a.png","70","70","test","","","","9","",""
"null","349998","pSARL_v2","pSARL_v2fka192b4","6019bbb66e5c2815ba3728b6","fixation","img/fixation.png","null","","test","","","","","",""
"406.5","350409","pSARL_v2","pSARL_v2fka192b4","6019bbb66e5c2815ba3728b6","freq","img/orange_2bandit_a2.png","70","70","test","1","208","208","9","",""
"null","350813","pSARL_v2","pSARL_v2fka192b4","6019bbb66e5c2815ba3728b6","freq_resp","img/orange_2bandit_a.png","70","70","test","","","","9","",""
"null","350971","pSARL_v2","pSARL_v2fka192b4","6019bbb66e5c2815ba3728b6","fixation","img/fixation.png","null","","test","","","","","",""
"421.39999999990687","351397","pSARL_v2","pSARL_v2fka192b4","6019bbb66e5c2815ba3728b6","freq","img/orange_2bandit_a2.png","70","70","test","1","209","209","9","",""
"null","351780","pSARL_v2","pSARL_v2fka192b4","6019bbb66e5c2815ba3728b6","freq_resp","img/orange_2bandit_a.png","70","70","test","","","","9","",""
"null","351941","pSARL_v2","pSARL_v2fka192b4","6019bbb66e5c2815ba3728b6","fixation","img/fixation.png","null","","test","","","","","",""
"448.60000000009313","352393","pSARL_v2","pSARL_v2fka192b4","6019bbb66e5c2815ba3728b6","freq","img/orange_2bandit_a2.png","70","70","test","1","210","210","9","",""
"null","352756","pSARL_v2","pSARL_v2fka192b4","6019bbb66e5c2815ba3728b6","freq_resp","img/orange_2bandit_a.png","70","70","test","","","","9","",""
"null","352914","pSARL_v2","pSARL_v2fka192b4","6019bbb66e5c2815ba3728b6","fixation","img/fixation.png","null","","test","","","","","",""
"572.8000000002794","353491","pSARL_v2","pSARL_v2fka192b4","6019bbb66e5c2815ba3728b6","infreq","img/green_2bandit_a2.png","68","68","test","1","211","211","9","",""
"null","353729","pSARL_v2","pSARL_v2fka192b4","6019bbb66e5c2815ba3728b6","infreq_resp","img/green_2bandit_a.png","68","68","test","","","","9","",""
"null","353890","pSARL_v2","pSARL_v2fka192b4","6019bbb66e5c2815ba3728b6","fixation","img/fixation.png","null","","test","","","","","",""
"497","354391","pSARL_v2","pSARL_v2fka192b4","6019bbb66e5c2815ba3728b6","freq","img/orange_2bandit_a2.png","70","70","test","1","212","212","9","",""
