"rt","time_elapsed","expId","subject","prolificID","trialType","stimulus","key_press","corrresp","phase","corr","trialNum","attentionRunNum","blockNum","points","rlNum"
"1192.2999999998137","1196","pSARL_v2","pSARL_v2ojse3pd7","5e1d70edd727e90dea42d137","","","","","","","","","","",""
"","3536","pSARL_v2","pSARL_v2ojse3pd7","5e1d70edd727e90dea42d137","fullscreen","","","","","","","","","",""
"31010.899999999907","34549","pSARL_v2","pSARL_v2ojse3pd7","5e1d70edd727e90dea42d137","","","","","","","","","","",""
"null","35353","pSARL_v2","pSARL_v2ojse3pd7","5e1d70edd727e90dea42d137","freqPrac","img/green_2bandit_a2.png","null","70","prac","0","","","","",""
"null","36368","pSARL_v2","pSARL_v2ojse3pd7","5e1d70edd727e90dea42d137","feedback","img/tooSlow.png","null","na","prac","","","","","",""
"null","36524","pSARL_v2","pSARL_v2ojse3pd7","5e1d70edd727e90dea42d137","fixation","img/fixation.png","null","","prac","","","","","",""
"630.4000000003725","37156","pSARL_v2","pSARL_v2ojse3pd7","5e1d70edd727e90dea42d137","infreqPrac","img/orange_2bandit_a2.png","70","68","prac","0","","","","",""
"630.4000000003725","37332","pSARL_v2","pSARL_v2ojse3pd7","5e1d70edd727e90dea42d137","infreqPrac_resp","img/orange_2bandit_a.png","70","68","prac","","","","","",""
"null","38340","pSARL_v2","pSARL_v2ojse3pd7","5e1d70edd727e90dea42d137","feedback","img/wrongKey.png","null","na","prac","","","","","",""
"null","38496","pSARL_v2","pSARL_v2ojse3pd7","5e1d70edd727e90dea42d137","fixation","img/fixation.png","null","","prac","","","","","",""
"682.2999999998137","39180","pSARL_v2","pSARL_v2ojse3pd7","5e1d70edd727e90dea42d137","freqPrac","img/green_2bandit_a2.png","68","70","prac","0","","","","",""
"682.2999999998137","39307","pSARL_v2","pSARL_v2ojse3pd7","5e1d70edd727e90dea42d137","freqPrac_resp","img/green_2bandit_a.png","68","70","prac","","","","","",""
"null","40311","pSARL_v2","pSARL_v2ojse3pd7","5e1d70edd727e90dea42d137","feedback","img/wrongKey.png","null","na","prac","","","","","",""
"null","40466","pSARL_v2","pSARL_v2ojse3pd7","5e1d70edd727e90dea42d137","fixation","img/fixation.png","null","","prac","","","","","",""
"521.5","40989","pSARL_v2","pSARL_v2ojse3pd7","5e1d70edd727e90dea42d137","infreqPrac","img/orange_2bandit_a2.png","70","68","prac","0","","","","",""
"521.5","41277","pSARL_v2","pSARL_v2ojse3pd7","5e1d70edd727e90dea42d137","infreqPrac_resp","img/orange_2bandit_a.png","70","68","prac","","","","","",""
"null","42293","pSARL_v2","pSARL_v2ojse3pd7","5e1d70edd727e90dea42d137","feedback","img/wrongKey.png","null","na","prac","","","","","",""
"null","42452","pSARL_v2","pSARL_v2ojse3pd7","5e1d70edd727e90dea42d137","fixation","img/fixation.png","null","","prac","","","","","",""
"582.6000000000931","43036","pSARL_v2","pSARL_v2ojse3pd7","5e1d70edd727e90dea42d137","infreqPrac","img/orange_2bandit_a2.png","70","68","prac","0","","","","",""
"582.6000000000931","43260","pSARL_v2","pSARL_v2ojse3pd7","5e1d70edd727e90dea42d137","infreqPrac_resp","img/orange_2bandit_a.png","70","68","prac","","","","","",""
"null","44270","pSARL_v2","pSARL_v2ojse3pd7","5e1d70edd727e90dea42d137","feedback","img/wrongKey.png","null","na","prac","","","","","",""
"null","44426","pSARL_v2","pSARL_v2ojse3pd7","5e1d70edd727e90dea42d137","fixation","img/fixation.png","null","","prac","","","","","",""
"416.70000000018626","44844","pSARL_v2","pSARL_v2ojse3pd7","5e1d70edd727e90dea42d137","infreqPrac","img/orange_2bandit_a2.png","68","68","prac","1","","","","",""
"416.70000000018626","45238","pSARL_v2","pSARL_v2ojse3pd7","5e1d70edd727e90dea42d137","infreqPrac_resp","img/orange_2bandit_a.png","68","68","prac","","","","","",""
"null","45392","pSARL_v2","pSARL_v2ojse3pd7","5e1d70edd727e90dea42d137","fixation","img/fixation.png","null","","prac","","","","","",""
"717.6000000000931","46112","pSARL_v2","pSARL_v2ojse3pd7","5e1d70edd727e90dea42d137","freqPrac","img/green_2bandit_a2.png","70","70","prac","1","","","","",""
"717.6000000000931","46203","pSARL_v2","pSARL_v2ojse3pd7","5e1d70edd727e90dea42d137","freqPrac_resp","img/green_2bandit_a.png","70","70","prac","","","","","",""
"null","46362","pSARL_v2","pSARL_v2ojse3pd7","5e1d70edd727e90dea42d137","fixation","img/fixation.png","null","","prac","","","","","",""
"643.7000000001863","47008","pSARL_v2","pSARL_v2ojse3pd7","5e1d70edd727e90dea42d137","infreqPrac","img/orange_2bandit_a2.png","68","68","prac","1","","","","",""
"643.7000000001863","47178","pSARL_v2","pSARL_v2ojse3pd7","5e1d70edd727e90dea42d137","infreqPrac_resp","img/orange_2bandit_a.png","68","68","prac","","","","","",""
"null","47334","pSARL_v2","pSARL_v2ojse3pd7","5e1d70edd727e90dea42d137","fixation","img/fixation.png","null","","prac","","","","","",""
"527.2000000001863","47863","pSARL_v2","pSARL_v2ojse3pd7","5e1d70edd727e90dea42d137","freqPrac","img/green_2bandit_a2.png","70","70","prac","1","","","","",""
"527.2000000001863","48150","pSARL_v2","pSARL_v2ojse3pd7","5e1d70edd727e90dea42d137","freqPrac_resp","img/green_2bandit_a.png","70","70","prac","","","","","",""
"null","48306","pSARL_v2","pSARL_v2ojse3pd7","5e1d70edd727e90dea42d137","fixation","img/fixation.png","null","","prac","","","","","",""
"474.39999999990687","48782","pSARL_v2","pSARL_v2ojse3pd7","5e1d70edd727e90dea42d137","freqPrac","img/green_2bandit_a2.png","70","70","prac","1","","","","",""
"474.39999999990687","49117","pSARL_v2","pSARL_v2ojse3pd7","5e1d70edd727e90dea42d137","freqPrac_resp","img/green_2bandit_a.png","70","70","prac","","","","","",""
"null","49271","pSARL_v2","pSARL_v2ojse3pd7","5e1d70edd727e90dea42d137","fixation","img/fixation.png","null","","prac","","","","","",""
"47227.5","96507","pSARL_v2","pSARL_v2ojse3pd7","5e1d70edd727e90dea42d137","","","","","prac","","","","","",""
"722.7999999998137","97232","pSARL_v2","pSARL_v2ojse3pd7","5e1d70edd727e90dea42d137","rewardPractice","img/slot.png","74","","prac","","","","","",""
"null","97996","pSARL_v2","pSARL_v2ojse3pd7","5e1d70edd727e90dea42d137","feedback","<div class=""veryhighPoints""> +15 </div>","null","na","prac","","","","","",""
"null","98150","pSARL_v2","pSARL_v2ojse3pd7","5e1d70edd727e90dea42d137","fixation","img/fixation.png","null","","prac","","","","","",""
"13380.700000000186","111532","pSARL_v2","pSARL_v2ojse3pd7","5e1d70edd727e90dea42d137","","","","","prac","","","","","",""
"null","112349","pSARL_v2","pSARL_v2ojse3pd7","5e1d70edd727e90dea42d137","freq","img/green_2bandit_a2.png","null","70","test","0","1","1","1","",""
"null","112506","pSARL_v2","pSARL_v2ojse3pd7","5e1d70edd727e90dea42d137","fixation","img/fixation.png","null","","test","","","","","",""
"46.5","112555","pSARL_v2","pSARL_v2ojse3pd7","5e1d70edd727e90dea42d137","freq","img/green_2bandit_a2.png","68","70","test","0","2","2","1","",""
"null","113318","pSARL_v2","pSARL_v2ojse3pd7","5e1d70edd727e90dea42d137","freq_resp","img/green_2bandit_a.png","68","70","test","","","","1","",""
"null","113475","pSARL_v2","pSARL_v2ojse3pd7","5e1d70edd727e90dea42d137","fixation","img/fixation.png","null","","test","","","","","",""
"239.10000000009313","113716","pSARL_v2","pSARL_v2ojse3pd7","5e1d70edd727e90dea42d137","freq","img/green_2bandit_a2.png","70","70","test","1","3","3","1","",""
"null","114291","pSARL_v2","pSARL_v2ojse3pd7","5e1d70edd727e90dea42d137","freq_resp","img/green_2bandit_a.png","70","70","test","","","","1","",""
"null","114448","pSARL_v2","pSARL_v2ojse3pd7","5e1d70edd727e90dea42d137","fixation","img/fixation.png","null","","test","","","","","",""
"445.60000000009313","114896","pSARL_v2","pSARL_v2ojse3pd7","5e1d70edd727e90dea42d137","freq","img/green_2bandit_a2.png","70","70","test","1","4","4","1","",""
"null","115252","pSARL_v2","pSARL_v2ojse3pd7","5e1d70edd727e90dea42d137","freq_resp","img/green_2bandit_a.png","70","70","test","","","","1","",""
"null","115409","pSARL_v2","pSARL_v2ojse3pd7","5e1d70edd727e90dea42d137","fixation","img/fixation.png","null","","test","","","","","",""
"511.6999999997206","115923","pSARL_v2","pSARL_v2ojse3pd7","5e1d70edd727e90dea42d137","freq","img/green_2bandit_a2.png","70","70","test","1","5","5","1","",""
"null","116227","pSARL_v2","pSARL_v2ojse3pd7","5e1d70edd727e90dea42d137","freq_resp","img/green_2bandit_a.png","70","70","test","","","","1","",""
"null","116383","pSARL_v2","pSARL_v2ojse3pd7","5e1d70edd727e90dea42d137","fixation","img/fixation.png","null","","test","","","","","",""
"435.5","116820","pSARL_v2","pSARL_v2ojse3pd7","5e1d70edd727e90dea42d137","infreq","img/orange_2bandit_a2.png","68","68","test","1","6","6","1","",""
"null","117191","pSARL_v2","pSARL_v2ojse3pd7","5e1d70edd727e90dea42d137","infreq_resp","img/orange_2bandit_a.png","68","68","test","","","","1","",""
"null","117350","pSARL_v2","pSARL_v2ojse3pd7","5e1d70edd727e90dea42d137","fixation","img/fixation.png","null","","test","","","","","",""
"387.29999999981374","117739","pSARL_v2","pSARL_v2ojse3pd7","5e1d70edd727e90dea42d137","infreq","img/orange_2bandit_a2.png","68","68","test","1","7","7","1","",""
"null","118158","pSARL_v2","pSARL_v2ojse3pd7","5e1d70edd727e90dea42d137","infreq_resp","img/orange_2bandit_a.png","68","68","test","","","","1","",""
"null","118313","pSARL_v2","pSARL_v2ojse3pd7","5e1d70edd727e90dea42d137","fixation","img/fixation.png","null","","test","","","","","",""
"408.39999999990687","118724","pSARL_v2","pSARL_v2ojse3pd7","5e1d70edd727e90dea42d137","freq","img/green_2bandit_a2.png","70","70","test","1","8","8","1","",""
"null","119124","pSARL_v2","pSARL_v2ojse3pd7","5e1d70edd727e90dea42d137","freq_resp","img/green_2bandit_a.png","70","70","test","","","","1","",""
"null","119281","pSARL_v2","pSARL_v2ojse3pd7","5e1d70edd727e90dea42d137","fixation","img/fixation.png","null","","test","","","","","",""
"381.39999999990687","119665","pSARL_v2","pSARL_v2ojse3pd7","5e1d70edd727e90dea42d137","freq","img/green_2bandit_a2.png","70","70","test","1","9","9","1","",""
"null","120091","pSARL_v2","pSARL_v2ojse3pd7","5e1d70edd727e90dea42d137","freq_resp","img/green_2bandit_a.png","70","70","test","","","","1","",""
"null","120248","pSARL_v2","pSARL_v2ojse3pd7","5e1d70edd727e90dea42d137","fixation","img/fixation.png","null","","test","","","","","",""
"333.39999999990687","120584","pSARL_v2","pSARL_v2ojse3pd7","5e1d70edd727e90dea42d137","freq","img/green_2bandit_a2.png","70","70","test","1","10","10","1","",""
"null","121058","pSARL_v2","pSARL_v2ojse3pd7","5e1d70edd727e90dea42d137","freq_resp","img/green_2bandit_a.png","70","70","test","","","","1","",""
"null","121214","pSARL_v2","pSARL_v2ojse3pd7","5e1d70edd727e90dea42d137","fixation","img/fixation.png","null","","test","","","","","",""
"264.60000000009313","121481","pSARL_v2","pSARL_v2ojse3pd7","5e1d70edd727e90dea42d137","freq","img/green_2bandit_a2.png","70","70","test","1","11","11","1","",""
"null","122025","pSARL_v2","pSARL_v2ojse3pd7","5e1d70edd727e90dea42d137","freq_resp","img/green_2bandit_a.png","70","70","test","","","","1","",""
"null","122182","pSARL_v2","pSARL_v2ojse3pd7","5e1d70edd727e90dea42d137","fixation","img/fixation.png","null","","test","","","","","",""
"259.5","122443","pSARL_v2","pSARL_v2ojse3pd7","5e1d70edd727e90dea42d137","freq","img/green_2bandit_a2.png","70","70","test","1","12","12","1","",""
"null","122992","pSARL_v2","pSARL_v2ojse3pd7","5e1d70edd727e90dea42d137","freq_resp","img/green_2bandit_a.png","70","70","test","","","","1","",""
"null","123148","pSARL_v2","pSARL_v2ojse3pd7","5e1d70edd727e90dea42d137","fixation","img/fixation.png","null","","test","","","","","",""
"320.10000000009313","123470","pSARL_v2","pSARL_v2ojse3pd7","5e1d70edd727e90dea42d137","freq","img/green_2bandit_a2.png","70","70","test","1","13","13","1","",""
"null","123960","pSARL_v2","pSARL_v2ojse3pd7","5e1d70edd727e90dea42d137","freq_resp","img/green_2bandit_a.png","70","70","test","","","","1","",""
"null","124118","pSARL_v2","pSARL_v2ojse3pd7","5e1d70edd727e90dea42d137","fixation","img/fixation.png","null","","test","","","","","",""
"289.6999999997206","124410","pSARL_v2","pSARL_v2ojse3pd7","5e1d70edd727e90dea42d137","freq","img/green_2bandit_a2.png","70","70","test","1","14","14","1","",""
"null","124927","pSARL_v2","pSARL_v2ojse3pd7","5e1d70edd727e90dea42d137","freq_resp","img/green_2bandit_a.png","70","70","test","","","","1","",""
"null","125083","pSARL_v2","pSARL_v2ojse3pd7","5e1d70edd727e90dea42d137","fixation","img/fixation.png","null","","test","","","","","",""
"286.5","125372","pSARL_v2","pSARL_v2ojse3pd7","5e1d70edd727e90dea42d137","freq","img/green_2bandit_a2.png","70","70","test","1","15","15","1","",""
"null","125898","pSARL_v2","pSARL_v2ojse3pd7","5e1d70edd727e90dea42d137","freq_resp","img/green_2bandit_a.png","70","70","test","","","","1","",""
"null","126052","pSARL_v2","pSARL_v2ojse3pd7","5e1d70edd727e90dea42d137","fixation","img/fixation.png","null","","test","","","","","",""
"322.5","126377","pSARL_v2","pSARL_v2ojse3pd7","5e1d70edd727e90dea42d137","freq","img/green_2bandit_a2.png","70","70","test","1","16","16","1","",""
"null","126863","pSARL_v2","pSARL_v2ojse3pd7","5e1d70edd727e90dea42d137","freq_resp","img/green_2bandit_a.png","70","70","test","","","","1","",""
"null","127019","pSARL_v2","pSARL_v2ojse3pd7","5e1d70edd727e90dea42d137","fixation","img/fixation.png","null","","test","","","","","",""
"295.39999999990687","127317","pSARL_v2","pSARL_v2ojse3pd7","5e1d70edd727e90dea42d137","freq","img/green_2bandit_a2.png","70","70","test","1","17","17","1","",""
"null","127831","pSARL_v2","pSARL_v2ojse3pd7","5e1d70edd727e90dea42d137","freq_resp","img/green_2bandit_a.png","70","70","test","","","","1","",""
"null","127988","pSARL_v2","pSARL_v2ojse3pd7","5e1d70edd727e90dea42d137","fixation","img/fixation.png","null","","test","","","","","",""
"268.10000000009313","128258","pSARL_v2","pSARL_v2ojse3pd7","5e1d70edd727e90dea42d137","freq","img/green_2bandit_a2.png","70","70","test","1","18","18","1","",""
"null","128801","pSARL_v2","pSARL_v2ojse3pd7","5e1d70edd727e90dea42d137","freq_resp","img/green_2bandit_a.png","70","70","test","","","","1","",""
"null","128955","pSARL_v2","pSARL_v2ojse3pd7","5e1d70edd727e90dea42d137","fixation","img/fixation.png","null","","test","","","","","",""
"262.39999999990687","129220","pSARL_v2","pSARL_v2ojse3pd7","5e1d70edd727e90dea42d137","freq","img/green_2bandit_a2.png","70","70","test","1","19","19","1","",""
"null","129772","pSARL_v2","pSARL_v2ojse3pd7","5e1d70edd727e90dea42d137","freq_resp","img/green_2bandit_a.png","70","70","test","","","","1","",""
"null","129930","pSARL_v2","pSARL_v2ojse3pd7","5e1d70edd727e90dea42d137","fixation","img/fixation.png","null","","test","","","","","",""
"206.6999999997206","130139","pSARL_v2","pSARL_v2ojse3pd7","5e1d70edd727e90dea42d137","freq","img/green_2bandit_a2.png","70","70","test","1","20","20","1","",""
"null","130746","pSARL_v2","pSARL_v2ojse3pd7","5e1d70edd727e90dea42d137","freq_resp","img/green_2bandit_a.png","70","70","test","","","","1","",""
"null","130902","pSARL_v2","pSARL_v2ojse3pd7","5e1d70edd727e90dea42d137","fixation","img/fixation.png","null","","test","","","","","",""
"89.20000000018626","130993","pSARL_v2","pSARL_v2ojse3pd7","5e1d70edd727e90dea42d137","freq","img/green_2bandit_a2.png","70","70","test","1","21","21","1","",""
"null","131712","pSARL_v2","pSARL_v2ojse3pd7","5e1d70edd727e90dea42d137","freq_resp","img/green_2bandit_a.png","70","70","test","","","","1","",""
"null","131868","pSARL_v2","pSARL_v2ojse3pd7","5e1d70edd727e90dea42d137","fixation","img/fixation.png","null","","test","","","","","",""
"576.1999999997206","132446","pSARL_v2","pSARL_v2ojse3pd7","5e1d70edd727e90dea42d137","reward","img/slot.png","74","","test","","","","","",""
"null","133206","pSARL_v2","pSARL_v2ojse3pd7","5e1d70edd727e90dea42d137","points","<div class=""verylowPoints""> -6 </div>","null","na","test","","","","1","-6","0"
"520.7000000001863","133729","pSARL_v2","pSARL_v2ojse3pd7","5e1d70edd727e90dea42d137","freq","img/green_2bandit_a2.png","70","70","test","1","22","22","2","",""
"null","134010","pSARL_v2","pSARL_v2ojse3pd7","5e1d70edd727e90dea42d137","freq_resp","img/green_2bandit_a.png","70","70","test","","","","2","",""
"null","134165","pSARL_v2","pSARL_v2ojse3pd7","5e1d70edd727e90dea42d137","fixation","img/fixation.png","null","","test","","","","","",""
"501.70000000018626","134669","pSARL_v2","pSARL_v2ojse3pd7","5e1d70edd727e90dea42d137","infreq","img/orange_2bandit_a2.png","68","68","test","1","23","23","2","",""
"null","134973","pSARL_v2","pSARL_v2ojse3pd7","5e1d70edd727e90dea42d137","infreq_resp","img/orange_2bandit_a.png","68","68","test","","","","2","",""
"null","135129","pSARL_v2","pSARL_v2ojse3pd7","5e1d70edd727e90dea42d137","fixation","img/fixation.png","null","","test","","","","","",""
"436.29999999981374","135568","pSARL_v2","pSARL_v2ojse3pd7","5e1d70edd727e90dea42d137","freq","img/green_2bandit_a2.png","70","70","test","1","24","24","2","",""
"null","135944","pSARL_v2","pSARL_v2ojse3pd7","5e1d70edd727e90dea42d137","freq_resp","img/green_2bandit_a.png","70","70","test","","","","2","",""
"null","136100","pSARL_v2","pSARL_v2ojse3pd7","5e1d70edd727e90dea42d137","fixation","img/fixation.png","null","","test","","","","","",""
"450.89999999990687","136553","pSARL_v2","pSARL_v2ojse3pd7","5e1d70edd727e90dea42d137","freq","img/green_2bandit_a2.png","70","70","test","1","25","25","2","",""
"null","136908","pSARL_v2","pSARL_v2ojse3pd7","5e1d70edd727e90dea42d137","freq_resp","img/green_2bandit_a.png","70","70","test","","","","2","",""
"null","137064","pSARL_v2","pSARL_v2ojse3pd7","5e1d70edd727e90dea42d137","fixation","img/fixation.png","null","","test","","","","","",""
"362.6999999997206","137429","pSARL_v2","pSARL_v2ojse3pd7","5e1d70edd727e90dea42d137","freq","img/green_2bandit_a2.png","70","70","test","1","26","26","2","",""
"null","137876","pSARL_v2","pSARL_v2ojse3pd7","5e1d70edd727e90dea42d137","freq_resp","img/green_2bandit_a.png","70","70","test","","","","2","",""
"null","138032","pSARL_v2","pSARL_v2ojse3pd7","5e1d70edd727e90dea42d137","fixation","img/fixation.png","null","","test","","","","","",""
"314.6999999997206","138349","pSARL_v2","pSARL_v2ojse3pd7","5e1d70edd727e90dea42d137","freq","img/green_2bandit_a2.png","70","70","test","1","27","27","2","",""
"null","138841","pSARL_v2","pSARL_v2ojse3pd7","5e1d70edd727e90dea42d137","freq_resp","img/green_2bandit_a.png","70","70","test","","","","2","",""
"null","138997","pSARL_v2","pSARL_v2ojse3pd7","5e1d70edd727e90dea42d137","fixation","img/fixation.png","null","","test","","","","","",""
"246.60000000009313","139246","pSARL_v2","pSARL_v2ojse3pd7","5e1d70edd727e90dea42d137","freq","img/green_2bandit_a2.png","70","70","test","1","28","28","2","",""
"null","139809","pSARL_v2","pSARL_v2ojse3pd7","5e1d70edd727e90dea42d137","freq_resp","img/green_2bandit_a.png","70","70","test","","","","2","",""
"null","139965","pSARL_v2","pSARL_v2ojse3pd7","5e1d70edd727e90dea42d137","fixation","img/fixation.png","null","","test","","","","","",""
"198.70000000018626","140166","pSARL_v2","pSARL_v2ojse3pd7","5e1d70edd727e90dea42d137","freq","img/green_2bandit_a2.png","70","70","test","1","29","29","2","",""
"null","140777","pSARL_v2","pSARL_v2ojse3pd7","5e1d70edd727e90dea42d137","freq_resp","img/green_2bandit_a.png","70","70","test","","","","2","",""
"null","140933","pSARL_v2","pSARL_v2ojse3pd7","5e1d70edd727e90dea42d137","fixation","img/fixation.png","null","","test","","","","","",""
"214.39999999990687","141150","pSARL_v2","pSARL_v2ojse3pd7","5e1d70edd727e90dea42d137","freq","img/green_2bandit_a2.png","70","70","test","1","30","30","2","",""
"null","141740","pSARL_v2","pSARL_v2ojse3pd7","5e1d70edd727e90dea42d137","freq_resp","img/green_2bandit_a.png","70","70","test","","","","2","",""
"null","141896","pSARL_v2","pSARL_v2ojse3pd7","5e1d70edd727e90dea42d137","fixation","img/fixation.png","null","","test","","","","","",""
"277.60000000009313","142176","pSARL_v2","pSARL_v2ojse3pd7","5e1d70edd727e90dea42d137","freq","img/green_2bandit_a2.png","70","70","test","1","31","31","2","",""
"null","142704","pSARL_v2","pSARL_v2ojse3pd7","5e1d70edd727e90dea42d137","freq_resp","img/green_2bandit_a.png","70","70","test","","","","2","",""
"null","142860","pSARL_v2","pSARL_v2ojse3pd7","5e1d70edd727e90dea42d137","fixation","img/fixation.png","null","","test","","","","","",""
"297.39999999990687","143160","pSARL_v2","pSARL_v2ojse3pd7","5e1d70edd727e90dea42d137","freq","img/green_2bandit_a2.png","70","70","test","1","32","32","2","",""
"null","143673","pSARL_v2","pSARL_v2ojse3pd7","5e1d70edd727e90dea42d137","freq_resp","img/green_2bandit_a.png","70","70","test","","","","2","",""
"null","143827","pSARL_v2","pSARL_v2ojse3pd7","5e1d70edd727e90dea42d137","fixation","img/fixation.png","null","","test","","","","","",""
"271","144100","pSARL_v2","pSARL_v2ojse3pd7","5e1d70edd727e90dea42d137","freq","img/green_2bandit_a2.png","70","70","test","1","33","33","2","",""
"null","144643","pSARL_v2","pSARL_v2ojse3pd7","5e1d70edd727e90dea42d137","freq_resp","img/green_2bandit_a.png","70","70","test","","","","2","",""
"null","144799","pSARL_v2","pSARL_v2ojse3pd7","5e1d70edd727e90dea42d137","fixation","img/fixation.png","null","","test","","","","","",""
"239.5","145041","pSARL_v2","pSARL_v2ojse3pd7","5e1d70edd727e90dea42d137","freq","img/green_2bandit_a2.png","70","70","test","1","34","34","2","",""
"null","145609","pSARL_v2","pSARL_v2ojse3pd7","5e1d70edd727e90dea42d137","freq_resp","img/green_2bandit_a.png","70","70","test","","","","2","",""
"null","145771","pSARL_v2","pSARL_v2ojse3pd7","5e1d70edd727e90dea42d137","fixation","img/fixation.png","null","","test","","","","","",""
"256.60000000009313","146030","pSARL_v2","pSARL_v2ojse3pd7","5e1d70edd727e90dea42d137","freq","img/green_2bandit_a2.png","70","70","test","1","35","35","2","",""
"null","146579","pSARL_v2","pSARL_v2ojse3pd7","5e1d70edd727e90dea42d137","freq_resp","img/green_2bandit_a.png","70","70","test","","","","2","",""
"null","146735","pSARL_v2","pSARL_v2ojse3pd7","5e1d70edd727e90dea42d137","fixation","img/fixation.png","null","","test","","","","","",""
"491.79999999981374","147229","pSARL_v2","pSARL_v2ojse3pd7","5e1d70edd727e90dea42d137","infreq","img/orange_2bandit_a2.png","68","68","test","1","36","36","2","",""
"null","147545","pSARL_v2","pSARL_v2ojse3pd7","5e1d70edd727e90dea42d137","infreq_resp","img/orange_2bandit_a.png","68","68","test","","","","2","",""
"null","147701","pSARL_v2","pSARL_v2ojse3pd7","5e1d70edd727e90dea42d137","fixation","img/fixation.png","null","","test","","","","","",""
"444.60000000009313","148148","pSARL_v2","pSARL_v2ojse3pd7","5e1d70edd727e90dea42d137","freq","img/green_2bandit_a2.png","70","70","test","1","37","37","2","",""
"null","148513","pSARL_v2","pSARL_v2ojse3pd7","5e1d70edd727e90dea42d137","freq_resp","img/green_2bandit_a.png","70","70","test","","","","2","",""
"null","148670","pSARL_v2","pSARL_v2ojse3pd7","5e1d70edd727e90dea42d137","fixation","img/fixation.png","null","","test","","","","","",""
"373.39999999990687","149045","pSARL_v2","pSARL_v2ojse3pd7","5e1d70edd727e90dea42d137","freq","img/green_2bandit_a2.png","70","70","test","1","38","38","2","",""
"null","149481","pSARL_v2","pSARL_v2ojse3pd7","5e1d70edd727e90dea42d137","freq_resp","img/green_2bandit_a.png","70","70","test","","","","2","",""
"null","149636","pSARL_v2","pSARL_v2ojse3pd7","5e1d70edd727e90dea42d137","fixation","img/fixation.png","null","","test","","","","","",""
"324.5","149963","pSARL_v2","pSARL_v2ojse3pd7","5e1d70edd727e90dea42d137","freq","img/green_2bandit_a2.png","70","70","test","1","39","39","2","",""
"null","150448","pSARL_v2","pSARL_v2ojse3pd7","5e1d70edd727e90dea42d137","freq_resp","img/green_2bandit_a.png","70","70","test","","","","2","",""
"null","150604","pSARL_v2","pSARL_v2ojse3pd7","5e1d70edd727e90dea42d137","fixation","img/fixation.png","null","","test","","","","","",""
"341.59999999962747","150948","pSARL_v2","pSARL_v2ojse3pd7","5e1d70edd727e90dea42d137","freq","img/green_2bandit_a2.png","70","70","test","1","40","40","2","",""
"null","151419","pSARL_v2","pSARL_v2ojse3pd7","5e1d70edd727e90dea42d137","freq_resp","img/green_2bandit_a.png","70","70","test","","","","2","",""
"null","151573","pSARL_v2","pSARL_v2ojse3pd7","5e1d70edd727e90dea42d137","fixation","img/fixation.png","null","","test","","","","","",""
"293.10000000009313","151868","pSARL_v2","pSARL_v2ojse3pd7","5e1d70edd727e90dea42d137","freq","img/green_2bandit_a2.png","70","70","test","1","41","41","2","",""
"null","152384","pSARL_v2","pSARL_v2ojse3pd7","5e1d70edd727e90dea42d137","freq_resp","img/green_2bandit_a.png","70","70","test","","","","2","",""
"null","152540","pSARL_v2","pSARL_v2ojse3pd7","5e1d70edd727e90dea42d137","fixation","img/fixation.png","null","","test","","","","","",""
"287.5","152830","pSARL_v2","pSARL_v2ojse3pd7","5e1d70edd727e90dea42d137","freq","img/green_2bandit_a2.png","70","70","test","1","42","42","2","",""
"null","153352","pSARL_v2","pSARL_v2ojse3pd7","5e1d70edd727e90dea42d137","freq_resp","img/green_2bandit_a.png","70","70","test","","","","2","",""
"null","153509","pSARL_v2","pSARL_v2ojse3pd7","5e1d70edd727e90dea42d137","fixation","img/fixation.png","null","","test","","","","","",""
"302.60000000009313","153814","pSARL_v2","pSARL_v2ojse3pd7","5e1d70edd727e90dea42d137","freq","img/green_2bandit_a2.png","70","70","test","1","43","43","2","",""
"null","154320","pSARL_v2","pSARL_v2ojse3pd7","5e1d70edd727e90dea42d137","freq_resp","img/green_2bandit_a.png","70","70","test","","","","2","",""
"null","154476","pSARL_v2","pSARL_v2ojse3pd7","5e1d70edd727e90dea42d137","fixation","img/fixation.png","null","","test","","","","","",""
"476.20000000018626","154954","pSARL_v2","pSARL_v2ojse3pd7","5e1d70edd727e90dea42d137","reward","img/slot.png","74","","test","","","","","",""
"null","155706","pSARL_v2","pSARL_v2ojse3pd7","5e1d70edd727e90dea42d137","points","<div class=""verylowPoints""> -11 </div>","null","na","test","","","","2","-11","1"
"572.5","156281","pSARL_v2","pSARL_v2ojse3pd7","5e1d70edd727e90dea42d137","freq","img/green_2bandit_a2.png","70","70","test","1","44","44","3","",""
"null","156517","pSARL_v2","pSARL_v2ojse3pd7","5e1d70edd727e90dea42d137","freq_resp","img/green_2bandit_a.png","70","70","test","","","","3","",""
"null","156673","pSARL_v2","pSARL_v2ojse3pd7","5e1d70edd727e90dea42d137","fixation","img/fixation.png","null","","test","","","","","",""
"286.60000000009313","156962","pSARL_v2","pSARL_v2ojse3pd7","5e1d70edd727e90dea42d137","freq","img/green_2bandit_a2.png","70","70","test","1","45","45","3","",""
"null","157483","pSARL_v2","pSARL_v2ojse3pd7","5e1d70edd727e90dea42d137","freq_resp","img/green_2bandit_a.png","70","70","test","","","","3","",""
"null","157641","pSARL_v2","pSARL_v2ojse3pd7","5e1d70edd727e90dea42d137","fixation","img/fixation.png","null","","test","","","","","",""
"172.60000000009313","157816","pSARL_v2","pSARL_v2ojse3pd7","5e1d70edd727e90dea42d137","freq","img/green_2bandit_a2.png","70","70","test","1","46","46","3","",""
"null","158456","pSARL_v2","pSARL_v2ojse3pd7","5e1d70edd727e90dea42d137","freq_resp","img/green_2bandit_a.png","70","70","test","","","","3","",""
"null","158613","pSARL_v2","pSARL_v2ojse3pd7","5e1d70edd727e90dea42d137","fixation","img/fixation.png","null","","test","","","","","",""
"315.60000000009313","158931","pSARL_v2","pSARL_v2ojse3pd7","5e1d70edd727e90dea42d137","freq","img/green_2bandit_a2.png","70","70","test","1","47","47","3","",""
"null","159429","pSARL_v2","pSARL_v2ojse3pd7","5e1d70edd727e90dea42d137","freq_resp","img/green_2bandit_a.png","70","70","test","","","","3","",""
"null","159587","pSARL_v2","pSARL_v2ojse3pd7","5e1d70edd727e90dea42d137","fixation","img/fixation.png","null","","test","","","","","",""
"304.39999999990687","159894","pSARL_v2","pSARL_v2ojse3pd7","5e1d70edd727e90dea42d137","freq","img/green_2bandit_a2.png","70","70","test","1","48","48","3","",""
"null","160398","pSARL_v2","pSARL_v2ojse3pd7","5e1d70edd727e90dea42d137","freq_resp","img/green_2bandit_a.png","70","70","test","","","","3","",""
"null","160552","pSARL_v2","pSARL_v2ojse3pd7","5e1d70edd727e90dea42d137","fixation","img/fixation.png","null","","test","","","","","",""
"346.60000000009313","160901","pSARL_v2","pSARL_v2ojse3pd7","5e1d70edd727e90dea42d137","freq","img/green_2bandit_a2.png","70","70","test","1","49","49","3","",""
"null","161362","pSARL_v2","pSARL_v2ojse3pd7","5e1d70edd727e90dea42d137","freq_resp","img/green_2bandit_a.png","70","70","test","","","","3","",""
"null","161519","pSARL_v2","pSARL_v2ojse3pd7","5e1d70edd727e90dea42d137","fixation","img/fixation.png","null","","test","","","","","",""
"320.5","161842","pSARL_v2","pSARL_v2ojse3pd7","5e1d70edd727e90dea42d137","freq","img/green_2bandit_a2.png","70","70","test","1","50","50","3","",""
"null","162329","pSARL_v2","pSARL_v2ojse3pd7","5e1d70edd727e90dea42d137","freq_resp","img/green_2bandit_a.png","70","70","test","","","","3","",""
"null","162483","pSARL_v2","pSARL_v2ojse3pd7","5e1d70edd727e90dea42d137","fixation","img/fixation.png","null","","test","","","","","",""
"297.5","162783","pSARL_v2","pSARL_v2ojse3pd7","5e1d70edd727e90dea42d137","freq","img/green_2bandit_a2.png","70","70","test","1","51","51","3","",""
"null","163297","pSARL_v2","pSARL_v2ojse3pd7","5e1d70edd727e90dea42d137","freq_resp","img/green_2bandit_a.png","70","70","test","","","","3","",""
"null","163454","pSARL_v2","pSARL_v2ojse3pd7","5e1d70edd727e90dea42d137","fixation","img/fixation.png","null","","test","","","","","",""
"289.5","163746","pSARL_v2","pSARL_v2ojse3pd7","5e1d70edd727e90dea42d137","freq","img/green_2bandit_a2.png","70","70","test","1","52","52","3","",""
"null","164269","pSARL_v2","pSARL_v2ojse3pd7","5e1d70edd727e90dea42d137","freq_resp","img/green_2bandit_a.png","70","70","test","","","","3","",""
"null","164425","pSARL_v2","pSARL_v2ojse3pd7","5e1d70edd727e90dea42d137","fixation","img/fixation.png","null","","test","","","","","",""
"303.6999999997206","164731","pSARL_v2","pSARL_v2ojse3pd7","5e1d70edd727e90dea42d137","freq","img/green_2bandit_a2.png","70","70","test","1","53","53","3","",""
"null","165236","pSARL_v2","pSARL_v2ojse3pd7","5e1d70edd727e90dea42d137","freq_resp","img/green_2bandit_a.png","70","70","test","","","","3","",""
"null","165391","pSARL_v2","pSARL_v2ojse3pd7","5e1d70edd727e90dea42d137","fixation","img/fixation.png","null","","test","","","","","",""
"343.89999999990687","165737","pSARL_v2","pSARL_v2ojse3pd7","5e1d70edd727e90dea42d137","freq","img/green_2bandit_a2.png","70","70","test","1","54","54","3","",""
"null","166205","pSARL_v2","pSARL_v2ojse3pd7","5e1d70edd727e90dea42d137","freq_resp","img/green_2bandit_a.png","70","70","test","","","","3","",""
"null","166361","pSARL_v2","pSARL_v2ojse3pd7","5e1d70edd727e90dea42d137","fixation","img/fixation.png","null","","test","","","","","",""
"357.39999999990687","166721","pSARL_v2","pSARL_v2ojse3pd7","5e1d70edd727e90dea42d137","freq","img/green_2bandit_a2.png","70","70","test","1","55","55","3","",""
"null","167176","pSARL_v2","pSARL_v2ojse3pd7","5e1d70edd727e90dea42d137","freq_resp","img/green_2bandit_a.png","70","70","test","","","","3","",""
"null","167331","pSARL_v2","pSARL_v2ojse3pd7","5e1d70edd727e90dea42d137","fixation","img/fixation.png","null","","test","","","","","",""
"307.29999999981374","167641","pSARL_v2","pSARL_v2ojse3pd7","5e1d70edd727e90dea42d137","freq","img/green_2bandit_a2.png","70","70","test","1","56","56","3","",""
"null","168139","pSARL_v2","pSARL_v2ojse3pd7","5e1d70edd727e90dea42d137","freq_resp","img/green_2bandit_a.png","70","70","test","","","","3","",""
"null","168294","pSARL_v2","pSARL_v2ojse3pd7","5e1d70edd727e90dea42d137","fixation","img/fixation.png","null","","test","","","","","",""
"350.5","168647","pSARL_v2","pSARL_v2ojse3pd7","5e1d70edd727e90dea42d137","freq","img/green_2bandit_a2.png","70","70","test","1","57","57","3","",""
"null","169107","pSARL_v2","pSARL_v2ojse3pd7","5e1d70edd727e90dea42d137","freq_resp","img/green_2bandit_a.png","70","70","test","","","","3","",""
"null","169265","pSARL_v2","pSARL_v2ojse3pd7","5e1d70edd727e90dea42d137","fixation","img/fixation.png","null","","test","","","","","",""
"428","169695","pSARL_v2","pSARL_v2ojse3pd7","5e1d70edd727e90dea42d137","infreq","img/orange_2bandit_a2.png","68","68","test","1","58","58","3","",""
"null","170076","pSARL_v2","pSARL_v2ojse3pd7","5e1d70edd727e90dea42d137","infreq_resp","img/orange_2bandit_a.png","68","68","test","","","","3","",""
"null","170232","pSARL_v2","pSARL_v2ojse3pd7","5e1d70edd727e90dea42d137","fixation","img/fixation.png","null","","test","","","","","",""
"424.5","170659","pSARL_v2","pSARL_v2ojse3pd7","5e1d70edd727e90dea42d137","freq","img/green_2bandit_a2.png","70","70","test","1","59","59","3","",""
"null","171045","pSARL_v2","pSARL_v2ojse3pd7","5e1d70edd727e90dea42d137","freq_resp","img/green_2bandit_a.png","70","70","test","","","","3","",""
"null","171200","pSARL_v2","pSARL_v2ojse3pd7","5e1d70edd727e90dea42d137","fixation","img/fixation.png","null","","test","","","","","",""
"353.39999999990687","171556","pSARL_v2","pSARL_v2ojse3pd7","5e1d70edd727e90dea42d137","freq","img/green_2bandit_a2.png","70","70","test","1","60","60","3","",""
"null","172014","pSARL_v2","pSARL_v2ojse3pd7","5e1d70edd727e90dea42d137","freq_resp","img/green_2bandit_a.png","70","70","test","","","","3","",""
"null","172170","pSARL_v2","pSARL_v2ojse3pd7","5e1d70edd727e90dea42d137","fixation","img/fixation.png","null","","test","","","","","",""
"280.5","172453","pSARL_v2","pSARL_v2ojse3pd7","5e1d70edd727e90dea42d137","freq","img/green_2bandit_a2.png","70","70","test","1","61","61","3","",""
"null","172983","pSARL_v2","pSARL_v2ojse3pd7","5e1d70edd727e90dea42d137","freq_resp","img/green_2bandit_a.png","70","70","test","","","","3","",""
"null","173139","pSARL_v2","pSARL_v2ojse3pd7","5e1d70edd727e90dea42d137","fixation","img/fixation.png","null","","test","","","","","",""
"273.5","173415","pSARL_v2","pSARL_v2ojse3pd7","5e1d70edd727e90dea42d137","freq","img/green_2bandit_a2.png","70","70","test","1","62","62","3","",""
"null","173949","pSARL_v2","pSARL_v2ojse3pd7","5e1d70edd727e90dea42d137","freq_resp","img/green_2bandit_a.png","70","70","test","","","","3","",""
"null","174106","pSARL_v2","pSARL_v2ojse3pd7","5e1d70edd727e90dea42d137","fixation","img/fixation.png","null","","test","","","","","",""
"290.5","174399","pSARL_v2","pSARL_v2ojse3pd7","5e1d70edd727e90dea42d137","freq","img/green_2bandit_a2.png","70","70","test","1","63","63","3","",""
"null","174916","pSARL_v2","pSARL_v2ojse3pd7","5e1d70edd727e90dea42d137","freq_resp","img/green_2bandit_a.png","70","70","test","","","","3","",""
"null","175073","pSARL_v2","pSARL_v2ojse3pd7","5e1d70edd727e90dea42d137","fixation","img/fixation.png","null","","test","","","","","",""
"307.59999999962747","175383","pSARL_v2","pSARL_v2ojse3pd7","5e1d70edd727e90dea42d137","freq","img/green_2bandit_a2.png","70","70","test","1","64","64","3","",""
"null","175883","pSARL_v2","pSARL_v2ojse3pd7","5e1d70edd727e90dea42d137","freq_resp","img/green_2bandit_a.png","70","70","test","","","","3","",""
"null","176041","pSARL_v2","pSARL_v2ojse3pd7","5e1d70edd727e90dea42d137","fixation","img/fixation.png","null","","test","","","","","",""
"322.79999999981374","176366","pSARL_v2","pSARL_v2ojse3pd7","5e1d70edd727e90dea42d137","infreq","img/orange_2bandit_a2.png","70","68","test","0","65","65","3","",""
"null","176857","pSARL_v2","pSARL_v2ojse3pd7","5e1d70edd727e90dea42d137","infreq_resp","img/orange_2bandit_a.png","70","68","test","","","","3","",""
"null","177012","pSARL_v2","pSARL_v2ojse3pd7","5e1d70edd727e90dea42d137","fixation","img/fixation.png","null","","test","","","","","",""
"357.59999999962747","177372","pSARL_v2","pSARL_v2ojse3pd7","5e1d70edd727e90dea42d137","freq","img/green_2bandit_a2.png","70","70","test","1","66","66","3","",""
"null","177824","pSARL_v2","pSARL_v2ojse3pd7","5e1d70edd727e90dea42d137","freq_resp","img/green_2bandit_a.png","70","70","test","","","","3","",""
"null","177980","pSARL_v2","pSARL_v2ojse3pd7","5e1d70edd727e90dea42d137","fixation","img/fixation.png","null","","test","","","","","",""
"442.5","178425","pSARL_v2","pSARL_v2ojse3pd7","5e1d70edd727e90dea42d137","reward","img/slot.png","74","","test","","","","","",""
"null","179190","pSARL_v2","pSARL_v2ojse3pd7","5e1d70edd727e90dea42d137","points","<div class=""verylowPoints""> -7 </div>","null","na","test","","","","3","-7","2"
"515.7999999998137","179708","pSARL_v2","pSARL_v2ojse3pd7","5e1d70edd727e90dea42d137","freq","img/green_2bandit_a2.png","70","70","test","1","67","67","4","",""
"null","180002","pSARL_v2","pSARL_v2ojse3pd7","5e1d70edd727e90dea42d137","freq_resp","img/green_2bandit_a.png","70","70","test","","","","4","",""
"null","180159","pSARL_v2","pSARL_v2ojse3pd7","5e1d70edd727e90dea42d137","fixation","img/fixation.png","null","","test","","","","","",""
"379","180540","pSARL_v2","pSARL_v2ojse3pd7","5e1d70edd727e90dea42d137","freq","img/green_2bandit_a2.png","70","70","test","1","68","68","4","",""
"null","180974","pSARL_v2","pSARL_v2ojse3pd7","5e1d70edd727e90dea42d137","freq_resp","img/green_2bandit_a.png","70","70","test","","","","4","",""
"null","181132","pSARL_v2","pSARL_v2ojse3pd7","5e1d70edd727e90dea42d137","fixation","img/fixation.png","null","","test","","","","","",""
"345.79999999981374","181480","pSARL_v2","pSARL_v2ojse3pd7","5e1d70edd727e90dea42d137","freq","img/green_2bandit_a2.png","70","70","test","1","69","69","4","",""
"null","181942","pSARL_v2","pSARL_v2ojse3pd7","5e1d70edd727e90dea42d137","freq_resp","img/green_2bandit_a.png","70","70","test","","","","4","",""
"null","182099","pSARL_v2","pSARL_v2ojse3pd7","5e1d70edd727e90dea42d137","fixation","img/fixation.png","null","","test","","","","","",""
"275.29999999981374","182377","pSARL_v2","pSARL_v2ojse3pd7","5e1d70edd727e90dea42d137","freq","img/green_2bandit_a2.png","70","70","test","1","70","70","4","",""
"null","182910","pSARL_v2","pSARL_v2ojse3pd7","5e1d70edd727e90dea42d137","freq_resp","img/green_2bandit_a.png","70","70","test","","","","4","",""
"null","183066","pSARL_v2","pSARL_v2ojse3pd7","5e1d70edd727e90dea42d137","fixation","img/fixation.png","null","","test","","","","","",""
"292.5","183361","pSARL_v2","pSARL_v2ojse3pd7","5e1d70edd727e90dea42d137","freq","img/green_2bandit_a2.png","70","70","test","1","71","71","4","",""
"null","183881","pSARL_v2","pSARL_v2ojse3pd7","5e1d70edd727e90dea42d137","freq_resp","img/green_2bandit_a.png","70","70","test","","","","4","",""
"null","184038","pSARL_v2","pSARL_v2ojse3pd7","5e1d70edd727e90dea42d137","fixation","img/fixation.png","null","","test","","","","","",""
"262.1999999997206","184302","pSARL_v2","pSARL_v2ojse3pd7","5e1d70edd727e90dea42d137","freq","img/green_2bandit_a2.png","70","70","test","1","72","72","4","",""
"null","184849","pSARL_v2","pSARL_v2ojse3pd7","5e1d70edd727e90dea42d137","freq_resp","img/green_2bandit_a.png","70","70","test","","","","4","",""
"null","185006","pSARL_v2","pSARL_v2ojse3pd7","5e1d70edd727e90dea42d137","fixation","img/fixation.png","null","","test","","","","","",""
"277.5","185286","pSARL_v2","pSARL_v2ojse3pd7","5e1d70edd727e90dea42d137","freq","img/green_2bandit_a2.png","70","70","test","1","73","73","4","",""
"null","185823","pSARL_v2","pSARL_v2ojse3pd7","5e1d70edd727e90dea42d137","freq_resp","img/green_2bandit_a.png","70","70","test","","","","4","",""
"null","185979","pSARL_v2","pSARL_v2ojse3pd7","5e1d70edd727e90dea42d137","fixation","img/fixation.png","null","","test","","","","","",""
"438.39999999990687","186420","pSARL_v2","pSARL_v2ojse3pd7","5e1d70edd727e90dea42d137","infreq","img/orange_2bandit_a2.png","68","68","test","1","74","74","4","",""
"null","186792","pSARL_v2","pSARL_v2ojse3pd7","5e1d70edd727e90dea42d137","infreq_resp","img/orange_2bandit_a.png","68","68","test","","","","4","",""
"null","186947","pSARL_v2","pSARL_v2ojse3pd7","5e1d70edd727e90dea42d137","fixation","img/fixation.png","null","","test","","","","","",""
"346.29999999981374","187296","pSARL_v2","pSARL_v2ojse3pd7","5e1d70edd727e90dea42d137","freq","img/green_2bandit_a2.png","70","70","test","1","75","75","4","",""
"null","187759","pSARL_v2","pSARL_v2ojse3pd7","5e1d70edd727e90dea42d137","freq_resp","img/green_2bandit_a.png","70","70","test","","","","4","",""
"null","187914","pSARL_v2","pSARL_v2ojse3pd7","5e1d70edd727e90dea42d137","fixation","img/fixation.png","null","","test","","","","","",""
"277.5","188194","pSARL_v2","pSARL_v2ojse3pd7","5e1d70edd727e90dea42d137","freq","img/green_2bandit_a2.png","70","70","test","1","76","76","4","",""
"null","188724","pSARL_v2","pSARL_v2ojse3pd7","5e1d70edd727e90dea42d137","freq_resp","img/green_2bandit_a.png","70","70","test","","","","4","",""
"null","188880","pSARL_v2","pSARL_v2ojse3pd7","5e1d70edd727e90dea42d137","fixation","img/fixation.png","null","","test","","","","","",""
"295.89999999990687","189178","pSARL_v2","pSARL_v2ojse3pd7","5e1d70edd727e90dea42d137","freq","img/green_2bandit_a2.png","70","70","test","1","77","77","4","",""
"null","189687","pSARL_v2","pSARL_v2ojse3pd7","5e1d70edd727e90dea42d137","freq_resp","img/green_2bandit_a.png","70","70","test","","","","4","",""
"null","189844","pSARL_v2","pSARL_v2ojse3pd7","5e1d70edd727e90dea42d137","fixation","img/fixation.png","null","","test","","","","","",""
"294.89999999990687","190141","pSARL_v2","pSARL_v2ojse3pd7","5e1d70edd727e90dea42d137","freq","img/green_2bandit_a2.png","70","70","test","1","78","78","4","",""
"null","190656","pSARL_v2","pSARL_v2ojse3pd7","5e1d70edd727e90dea42d137","freq_resp","img/green_2bandit_a.png","70","70","test","","","","4","",""
"null","190810","pSARL_v2","pSARL_v2ojse3pd7","5e1d70edd727e90dea42d137","fixation","img/fixation.png","null","","test","","","","","",""
"377.5","191190","pSARL_v2","pSARL_v2ojse3pd7","5e1d70edd727e90dea42d137","freq","img/green_2bandit_a2.png","70","70","test","1","79","79","4","",""
"null","191624","pSARL_v2","pSARL_v2ojse3pd7","5e1d70edd727e90dea42d137","freq_resp","img/green_2bandit_a.png","70","70","test","","","","4","",""
"null","191779","pSARL_v2","pSARL_v2ojse3pd7","5e1d70edd727e90dea42d137","fixation","img/fixation.png","null","","test","","","","","",""
"392.5","192174","pSARL_v2","pSARL_v2ojse3pd7","5e1d70edd727e90dea42d137","freq","img/green_2bandit_a2.png","70","70","test","1","80","80","4","",""
"null","192595","pSARL_v2","pSARL_v2ojse3pd7","5e1d70edd727e90dea42d137","freq_resp","img/green_2bandit_a.png","70","70","test","","","","4","",""
"null","192752","pSARL_v2","pSARL_v2ojse3pd7","5e1d70edd727e90dea42d137","fixation","img/fixation.png","null","","test","","","","","",""
"448","193202","pSARL_v2","pSARL_v2ojse3pd7","5e1d70edd727e90dea42d137","freq","img/green_2bandit_a2.png","70","70","test","1","81","81","4","",""
"null","193566","pSARL_v2","pSARL_v2ojse3pd7","5e1d70edd727e90dea42d137","freq_resp","img/green_2bandit_a.png","70","70","test","","","","4","",""
"null","193721","pSARL_v2","pSARL_v2ojse3pd7","5e1d70edd727e90dea42d137","fixation","img/fixation.png","null","","test","","","","","",""
"397.5","194121","pSARL_v2","pSARL_v2ojse3pd7","5e1d70edd727e90dea42d137","freq","img/green_2bandit_a2.png","70","70","test","1","82","82","4","",""
"null","194532","pSARL_v2","pSARL_v2ojse3pd7","5e1d70edd727e90dea42d137","freq_resp","img/green_2bandit_a.png","70","70","test","","","","4","",""
"null","194688","pSARL_v2","pSARL_v2ojse3pd7","5e1d70edd727e90dea42d137","fixation","img/fixation.png","null","","test","","","","","",""
"372","195062","pSARL_v2","pSARL_v2ojse3pd7","5e1d70edd727e90dea42d137","freq","img/green_2bandit_a2.png","70","70","test","1","83","83","4","",""
"null","195498","pSARL_v2","pSARL_v2ojse3pd7","5e1d70edd727e90dea42d137","freq_resp","img/green_2bandit_a.png","70","70","test","","","","4","",""
"null","195655","pSARL_v2","pSARL_v2ojse3pd7","5e1d70edd727e90dea42d137","fixation","img/fixation.png","null","","test","","","","","",""
"410","196067","pSARL_v2","pSARL_v2ojse3pd7","5e1d70edd727e90dea42d137","infreq","img/orange_2bandit_a2.png","68","68","test","1","84","84","4","",""
"null","196466","pSARL_v2","pSARL_v2ojse3pd7","5e1d70edd727e90dea42d137","infreq_resp","img/orange_2bandit_a.png","68","68","test","","","","4","",""
"null","196622","pSARL_v2","pSARL_v2ojse3pd7","5e1d70edd727e90dea42d137","fixation","img/fixation.png","null","","test","","","","","",""
"428.5","197053","pSARL_v2","pSARL_v2ojse3pd7","5e1d70edd727e90dea42d137","freq","img/green_2bandit_a2.png","70","70","test","1","85","85","4","",""
"null","197434","pSARL_v2","pSARL_v2ojse3pd7","5e1d70edd727e90dea42d137","freq_resp","img/green_2bandit_a.png","70","70","test","","","","4","",""
"null","197591","pSARL_v2","pSARL_v2ojse3pd7","5e1d70edd727e90dea42d137","fixation","img/fixation.png","null","","test","","","","","",""
"422.60000000009313","198016","pSARL_v2","pSARL_v2ojse3pd7","5e1d70edd727e90dea42d137","freq","img/green_2bandit_a2.png","70","70","test","1","86","86","4","",""
"null","198404","pSARL_v2","pSARL_v2ojse3pd7","5e1d70edd727e90dea42d137","freq_resp","img/green_2bandit_a.png","70","70","test","","","","4","",""
"null","198556","pSARL_v2","pSARL_v2ojse3pd7","5e1d70edd727e90dea42d137","fixation","img/fixation.png","null","","test","","","","","",""
"485.79999999981374","199044","pSARL_v2","pSARL_v2ojse3pd7","5e1d70edd727e90dea42d137","freq","img/green_2bandit_a2.png","70","70","test","1","87","87","4","",""
"null","199364","pSARL_v2","pSARL_v2ojse3pd7","5e1d70edd727e90dea42d137","freq_resp","img/green_2bandit_a.png","70","70","test","","","","4","",""
"null","199522","pSARL_v2","pSARL_v2ojse3pd7","5e1d70edd727e90dea42d137","fixation","img/fixation.png","null","","test","","","","","",""
"439.29999999981374","199964","pSARL_v2","pSARL_v2ojse3pd7","5e1d70edd727e90dea42d137","freq","img/green_2bandit_a2.png","70","70","test","1","88","88","4","",""
"null","200331","pSARL_v2","pSARL_v2ojse3pd7","5e1d70edd727e90dea42d137","freq_resp","img/green_2bandit_a.png","70","70","test","","","","4","",""
"null","200488","pSARL_v2","pSARL_v2ojse3pd7","5e1d70edd727e90dea42d137","fixation","img/fixation.png","null","","test","","","","","",""
"392.89999999990687","200883","pSARL_v2","pSARL_v2ojse3pd7","5e1d70edd727e90dea42d137","freq","img/green_2bandit_a2.png","70","70","test","1","89","89","4","",""
"null","201305","pSARL_v2","pSARL_v2ojse3pd7","5e1d70edd727e90dea42d137","freq_resp","img/green_2bandit_a.png","70","70","test","","","","4","",""
"null","201463","pSARL_v2","pSARL_v2ojse3pd7","5e1d70edd727e90dea42d137","fixation","img/fixation.png","null","","test","","","","","",""
"338.39999999990687","201803","pSARL_v2","pSARL_v2ojse3pd7","5e1d70edd727e90dea42d137","freq","img/green_2bandit_a2.png","70","70","test","1","90","90","4","",""
"null","202277","pSARL_v2","pSARL_v2ojse3pd7","5e1d70edd727e90dea42d137","freq_resp","img/green_2bandit_a.png","70","70","test","","","","4","",""
"null","202432","pSARL_v2","pSARL_v2ojse3pd7","5e1d70edd727e90dea42d137","fixation","img/fixation.png","null","","test","","","","","",""
"330.6999999997206","202765","pSARL_v2","pSARL_v2ojse3pd7","5e1d70edd727e90dea42d137","freq","img/green_2bandit_a2.png","70","70","test","1","91","91","4","",""
"null","203244","pSARL_v2","pSARL_v2ojse3pd7","5e1d70edd727e90dea42d137","freq_resp","img/green_2bandit_a.png","70","70","test","","","","4","",""
"null","203400","pSARL_v2","pSARL_v2ojse3pd7","5e1d70edd727e90dea42d137","fixation","img/fixation.png","null","","test","","","","","",""
"329.39999999990687","203732","pSARL_v2","pSARL_v2ojse3pd7","5e1d70edd727e90dea42d137","reward","img/slot.png","74","","test","","","","","",""
"null","204489","pSARL_v2","pSARL_v2ojse3pd7","5e1d70edd727e90dea42d137","points","<div class=""verylowPoints""> -3 </div>","null","na","test","","","","4","-3","3"
"554.6999999997206","205046","pSARL_v2","pSARL_v2ojse3pd7","5e1d70edd727e90dea42d137","freq","img/green_2bandit_a2.png","70","70","test","1","92","92","5","",""
"null","205298","pSARL_v2","pSARL_v2ojse3pd7","5e1d70edd727e90dea42d137","freq_resp","img/green_2bandit_a.png","70","70","test","","","","5","",""
"null","205455","pSARL_v2","pSARL_v2ojse3pd7","5e1d70edd727e90dea42d137","fixation","img/fixation.png","null","","test","","","","","",""
"464.79999999981374","205927","pSARL_v2","pSARL_v2ojse3pd7","5e1d70edd727e90dea42d137","freq","img/green_2bandit_a2.png","70","70","test","1","93","93","5","",""
"null","206269","pSARL_v2","pSARL_v2ojse3pd7","5e1d70edd727e90dea42d137","freq_resp","img/green_2bandit_a.png","70","70","test","","","","5","",""
"null","206425","pSARL_v2","pSARL_v2ojse3pd7","5e1d70edd727e90dea42d137","fixation","img/fixation.png","null","","test","","","","","",""
"310.39999999990687","206738","pSARL_v2","pSARL_v2ojse3pd7","5e1d70edd727e90dea42d137","freq","img/green_2bandit_a2.png","70","70","test","1","94","94","5","",""
"null","207233","pSARL_v2","pSARL_v2ojse3pd7","5e1d70edd727e90dea42d137","freq_resp","img/green_2bandit_a.png","70","70","test","","","","5","",""
"null","207388","pSARL_v2","pSARL_v2ojse3pd7","5e1d70edd727e90dea42d137","fixation","img/fixation.png","null","","test","","","","","",""
"201.60000000009313","207592","pSARL_v2","pSARL_v2ojse3pd7","5e1d70edd727e90dea42d137","infreq","img/orange_2bandit_a2.png","70","68","test","0","95","95","5","",""
"null","208198","pSARL_v2","pSARL_v2ojse3pd7","5e1d70edd727e90dea42d137","infreq_resp","img/orange_2bandit_a.png","70","68","test","","","","5","",""
"null","208354","pSARL_v2","pSARL_v2ojse3pd7","5e1d70edd727e90dea42d137","fixation","img/fixation.png","null","","test","","","","","",""
"242.39999999990687","208599","pSARL_v2","pSARL_v2ojse3pd7","5e1d70edd727e90dea42d137","freq","img/green_2bandit_a2.png","70","70","test","1","96","96","5","",""
"null","209160","pSARL_v2","pSARL_v2ojse3pd7","5e1d70edd727e90dea42d137","freq_resp","img/green_2bandit_a.png","70","70","test","","","","5","",""
"null","209317","pSARL_v2","pSARL_v2ojse3pd7","5e1d70edd727e90dea42d137","fixation","img/fixation.png","null","","test","","","","","",""
"392.6999999997206","209712","pSARL_v2","pSARL_v2ojse3pd7","5e1d70edd727e90dea42d137","infreq","img/orange_2bandit_a2.png","68","68","test","1","97","97","5","",""
"null","210124","pSARL_v2","pSARL_v2ojse3pd7","5e1d70edd727e90dea42d137","infreq_resp","img/orange_2bandit_a.png","68","68","test","","","","5","",""
"null","210278","pSARL_v2","pSARL_v2ojse3pd7","5e1d70edd727e90dea42d137","fixation","img/fixation.png","null","","test","","","","","",""
"287.39999999990687","210568","pSARL_v2","pSARL_v2ojse3pd7","5e1d70edd727e90dea42d137","freq","img/green_2bandit_a2.png","70","70","test","1","98","98","5","",""
"null","211089","pSARL_v2","pSARL_v2ojse3pd7","5e1d70edd727e90dea42d137","freq_resp","img/green_2bandit_a.png","70","70","test","","","","5","",""
"null","211246","pSARL_v2","pSARL_v2ojse3pd7","5e1d70edd727e90dea42d137","fixation","img/fixation.png","null","","test","","","","","",""
"369","211618","pSARL_v2","pSARL_v2ojse3pd7","5e1d70edd727e90dea42d137","freq","img/green_2bandit_a2.png","70","70","test","1","99","99","5","",""
"null","212060","pSARL_v2","pSARL_v2ojse3pd7","5e1d70edd727e90dea42d137","freq_resp","img/green_2bandit_a.png","70","70","test","","","","5","",""
"null","212217","pSARL_v2","pSARL_v2ojse3pd7","5e1d70edd727e90dea42d137","fixation","img/fixation.png","null","","test","","","","","",""
"295.60000000009313","212515","pSARL_v2","pSARL_v2ojse3pd7","5e1d70edd727e90dea42d137","freq","img/green_2bandit_a2.png","70","70","test","1","100","100","5","",""
"null","213026","pSARL_v2","pSARL_v2ojse3pd7","5e1d70edd727e90dea42d137","freq_resp","img/green_2bandit_a.png","70","70","test","","","","5","",""
"null","213184","pSARL_v2","pSARL_v2ojse3pd7","5e1d70edd727e90dea42d137","fixation","img/fixation.png","null","","test","","","","","",""
"291.39999999990687","213478","pSARL_v2","pSARL_v2ojse3pd7","5e1d70edd727e90dea42d137","freq","img/green_2bandit_a2.png","70","70","test","1","101","101","5","",""
"null","213994","pSARL_v2","pSARL_v2ojse3pd7","5e1d70edd727e90dea42d137","freq_resp","img/green_2bandit_a.png","70","70","test","","","","5","",""
"null","214149","pSARL_v2","pSARL_v2ojse3pd7","5e1d70edd727e90dea42d137","fixation","img/fixation.png","null","","test","","","","","",""
"289.5","214441","pSARL_v2","pSARL_v2ojse3pd7","5e1d70edd727e90dea42d137","freq","img/green_2bandit_a2.png","70","70","test","1","102","102","5","",""
"null","214962","pSARL_v2","pSARL_v2ojse3pd7","5e1d70edd727e90dea42d137","freq_resp","img/green_2bandit_a.png","70","70","test","","","","5","",""
"null","215120","pSARL_v2","pSARL_v2ojse3pd7","5e1d70edd727e90dea42d137","fixation","img/fixation.png","null","","test","","","","","",""
"302.89999999990687","215425","pSARL_v2","pSARL_v2ojse3pd7","5e1d70edd727e90dea42d137","freq","img/green_2bandit_a2.png","70","70","test","1","103","103","5","",""
"null","215927","pSARL_v2","pSARL_v2ojse3pd7","5e1d70edd727e90dea42d137","freq_resp","img/green_2bandit_a.png","70","70","test","","","","5","",""
"null","216083","pSARL_v2","pSARL_v2ojse3pd7","5e1d70edd727e90dea42d137","fixation","img/fixation.png","null","","test","","","","","",""
"411.5","216497","pSARL_v2","pSARL_v2ojse3pd7","5e1d70edd727e90dea42d137","freq","img/green_2bandit_a2.png","70","70","test","1","104","104","5","",""
"null","216894","pSARL_v2","pSARL_v2ojse3pd7","5e1d70edd727e90dea42d137","freq_resp","img/green_2bandit_a.png","70","70","test","","","","5","",""
"null","217051","pSARL_v2","pSARL_v2ojse3pd7","5e1d70edd727e90dea42d137","fixation","img/fixation.png","null","","test","","","","","",""
"383.5","217437","pSARL_v2","pSARL_v2ojse3pd7","5e1d70edd727e90dea42d137","freq","img/green_2bandit_a2.png","70","70","test","1","105","105","5","",""
"null","217861","pSARL_v2","pSARL_v2ojse3pd7","5e1d70edd727e90dea42d137","freq_resp","img/green_2bandit_a.png","70","70","test","","","","5","",""
"null","218019","pSARL_v2","pSARL_v2ojse3pd7","5e1d70edd727e90dea42d137","fixation","img/fixation.png","null","","test","","","","","",""
"379.5","218401","pSARL_v2","pSARL_v2ojse3pd7","5e1d70edd727e90dea42d137","freq","img/green_2bandit_a2.png","70","70","test","1","106","106","5","",""
"null","218831","pSARL_v2","pSARL_v2ojse3pd7","5e1d70edd727e90dea42d137","freq_resp","img/green_2bandit_a.png","70","70","test","","","","5","",""
"null","218987","pSARL_v2","pSARL_v2ojse3pd7","5e1d70edd727e90dea42d137","fixation","img/fixation.png","null","","test","","","","","",""
"330.79999999981374","219320","pSARL_v2","pSARL_v2ojse3pd7","5e1d70edd727e90dea42d137","freq","img/green_2bandit_a2.png","70","70","test","1","107","107","5","",""
"null","219797","pSARL_v2","pSARL_v2ojse3pd7","5e1d70edd727e90dea42d137","freq_resp","img/green_2bandit_a.png","70","70","test","","","","5","",""
"null","219955","pSARL_v2","pSARL_v2ojse3pd7","5e1d70edd727e90dea42d137","fixation","img/fixation.png","null","","test","","","","","",""
"346.5","220304","pSARL_v2","pSARL_v2ojse3pd7","5e1d70edd727e90dea42d137","freq","img/green_2bandit_a2.png","70","70","test","1","108","108","5","",""
"null","220767","pSARL_v2","pSARL_v2ojse3pd7","5e1d70edd727e90dea42d137","freq_resp","img/green_2bandit_a.png","70","70","test","","","","5","",""
"null","220925","pSARL_v2","pSARL_v2ojse3pd7","5e1d70edd727e90dea42d137","fixation","img/fixation.png","null","","test","","","","","",""
"296.1999999997206","221224","pSARL_v2","pSARL_v2ojse3pd7","5e1d70edd727e90dea42d137","freq","img/green_2bandit_a2.png","70","70","test","1","109","109","5","",""
"null","221741","pSARL_v2","pSARL_v2ojse3pd7","5e1d70edd727e90dea42d137","freq_resp","img/green_2bandit_a.png","70","70","test","","","","5","",""
"null","221898","pSARL_v2","pSARL_v2ojse3pd7","5e1d70edd727e90dea42d137","fixation","img/fixation.png","null","","test","","","","","",""
"307.6999999997206","222208","pSARL_v2","pSARL_v2ojse3pd7","5e1d70edd727e90dea42d137","freq","img/green_2bandit_a2.png","70","70","test","1","110","110","5","",""
"null","222707","pSARL_v2","pSARL_v2ojse3pd7","5e1d70edd727e90dea42d137","freq_resp","img/green_2bandit_a.png","70","70","test","","","","5","",""
"null","222861","pSARL_v2","pSARL_v2ojse3pd7","5e1d70edd727e90dea42d137","fixation","img/fixation.png","null","","test","","","","","",""
"285.79999999981374","223149","pSARL_v2","pSARL_v2ojse3pd7","5e1d70edd727e90dea42d137","freq","img/green_2bandit_a2.png","70","70","test","1","111","111","5","",""
"null","223674","pSARL_v2","pSARL_v2ojse3pd7","5e1d70edd727e90dea42d137","freq_resp","img/green_2bandit_a.png","70","70","test","","","","5","",""
"null","223831","pSARL_v2","pSARL_v2ojse3pd7","5e1d70edd727e90dea42d137","fixation","img/fixation.png","null","","test","","","","","",""
"256.39999999990687","224090","pSARL_v2","pSARL_v2ojse3pd7","5e1d70edd727e90dea42d137","infreq","img/orange_2bandit_a2.png","70","68","test","0","112","112","5","",""
"null","224640","pSARL_v2","pSARL_v2ojse3pd7","5e1d70edd727e90dea42d137","infreq_resp","img/orange_2bandit_a.png","70","68","test","","","","5","",""
"null","224796","pSARL_v2","pSARL_v2ojse3pd7","5e1d70edd727e90dea42d137","fixation","img/fixation.png","null","","test","","","","","",""
"370.09999999962747","225169","pSARL_v2","pSARL_v2ojse3pd7","5e1d70edd727e90dea42d137","freq","img/green_2bandit_a2.png","70","70","test","1","113","113","5","",""
"null","225612","pSARL_v2","pSARL_v2ojse3pd7","5e1d70edd727e90dea42d137","freq_resp","img/green_2bandit_a.png","70","70","test","","","","5","",""
"null","225767","pSARL_v2","pSARL_v2ojse3pd7","5e1d70edd727e90dea42d137","fixation","img/fixation.png","null","","test","","","","","",""
"319.09999999962747","226089","pSARL_v2","pSARL_v2ojse3pd7","5e1d70edd727e90dea42d137","freq","img/green_2bandit_a2.png","70","70","test","1","114","114","5","",""
"null","226578","pSARL_v2","pSARL_v2ojse3pd7","5e1d70edd727e90dea42d137","freq_resp","img/green_2bandit_a.png","70","70","test","","","","5","",""
"null","226733","pSARL_v2","pSARL_v2ojse3pd7","5e1d70edd727e90dea42d137","fixation","img/fixation.png","null","","test","","","","","",""
"429","227164","pSARL_v2","pSARL_v2ojse3pd7","5e1d70edd727e90dea42d137","reward","img/slot.png","74","","test","","","","","",""
"null","227918","pSARL_v2","pSARL_v2ojse3pd7","5e1d70edd727e90dea42d137","points","<div class=""veryhighPoints""> +1 </div>","null","na","test","","","","5","1","4"
"527.7999999998137","228448","pSARL_v2","pSARL_v2ojse3pd7","5e1d70edd727e90dea42d137","freq","img/green_2bandit_a2.png","70","70","test","1","115","115","6","",""
"null","228729","pSARL_v2","pSARL_v2ojse3pd7","5e1d70edd727e90dea42d137","freq_resp","img/green_2bandit_a.png","70","70","test","","","","6","",""
"null","228887","pSARL_v2","pSARL_v2ojse3pd7","5e1d70edd727e90dea42d137","fixation","img/fixation.png","null","","test","","","","","",""
"629.8999999999069","229519","pSARL_v2","pSARL_v2ojse3pd7","5e1d70edd727e90dea42d137","freq","img/green_2bandit_a2.png","70","70","test","1","116","116","6","",""
"null","229695","pSARL_v2","pSARL_v2ojse3pd7","5e1d70edd727e90dea42d137","freq_resp","img/green_2bandit_a.png","70","70","test","","","","6","",""
"null","229850","pSARL_v2","pSARL_v2ojse3pd7","5e1d70edd727e90dea42d137","fixation","img/fixation.png","null","","test","","","","","",""
"564.5","230417","pSARL_v2","pSARL_v2ojse3pd7","5e1d70edd727e90dea42d137","freq","img/green_2bandit_a2.png","70","70","test","1","117","117","6","",""
"null","230663","pSARL_v2","pSARL_v2ojse3pd7","5e1d70edd727e90dea42d137","freq_resp","img/green_2bandit_a.png","70","70","test","","","","6","",""
"null","230818","pSARL_v2","pSARL_v2ojse3pd7","5e1d70edd727e90dea42d137","fixation","img/fixation.png","null","","test","","","","","",""
"363.3000000002794","231184","pSARL_v2","pSARL_v2ojse3pd7","5e1d70edd727e90dea42d137","freq","img/green_2bandit_a2.png","70","70","test","1","118","118","6","",""
"null","231629","pSARL_v2","pSARL_v2ojse3pd7","5e1d70edd727e90dea42d137","freq_resp","img/green_2bandit_a.png","70","70","test","","","","6","",""
"null","231786","pSARL_v2","pSARL_v2ojse3pd7","5e1d70edd727e90dea42d137","fixation","img/fixation.png","null","","test","","","","","",""
"358","232146","pSARL_v2","pSARL_v2ojse3pd7","5e1d70edd727e90dea42d137","infreq","img/orange_2bandit_a2.png","68","68","test","1","119","119","6","",""
"null","232595","pSARL_v2","pSARL_v2ojse3pd7","5e1d70edd727e90dea42d137","infreq_resp","img/orange_2bandit_a.png","68","68","test","","","","6","",""
"null","232752","pSARL_v2","pSARL_v2ojse3pd7","5e1d70edd727e90dea42d137","fixation","img/fixation.png","null","","test","","","","","",""
"332.5","233087","pSARL_v2","pSARL_v2ojse3pd7","5e1d70edd727e90dea42d137","freq","img/green_2bandit_a2.png","70","70","test","1","120","120","6","",""
"null","233560","pSARL_v2","pSARL_v2ojse3pd7","5e1d70edd727e90dea42d137","freq_resp","img/green_2bandit_a.png","70","70","test","","","","6","",""
"null","233717","pSARL_v2","pSARL_v2ojse3pd7","5e1d70edd727e90dea42d137","fixation","img/fixation.png","null","","test","","","","","",""
"396","234115","pSARL_v2","pSARL_v2ojse3pd7","5e1d70edd727e90dea42d137","freq","img/green_2bandit_a2.png","70","70","test","1","121","121","6","",""
"null","234533","pSARL_v2","pSARL_v2ojse3pd7","5e1d70edd727e90dea42d137","freq_resp","img/green_2bandit_a.png","70","70","test","","","","6","",""
"null","234689","pSARL_v2","pSARL_v2ojse3pd7","5e1d70edd727e90dea42d137","fixation","img/fixation.png","null","","test","","","","","",""
"386.5","235078","pSARL_v2","pSARL_v2ojse3pd7","5e1d70edd727e90dea42d137","freq","img/green_2bandit_a2.png","70","70","test","1","122","122","6","",""
"null","235499","pSARL_v2","pSARL_v2ojse3pd7","5e1d70edd727e90dea42d137","freq_resp","img/green_2bandit_a.png","70","70","test","","","","6","",""
"null","235654","pSARL_v2","pSARL_v2ojse3pd7","5e1d70edd727e90dea42d137","fixation","img/fixation.png","null","","test","","","","","",""
"448.60000000009313","236105","pSARL_v2","pSARL_v2ojse3pd7","5e1d70edd727e90dea42d137","freq","img/green_2bandit_a2.png","70","70","test","1","123","123","6","",""
"null","236468","pSARL_v2","pSARL_v2ojse3pd7","5e1d70edd727e90dea42d137","freq_resp","img/green_2bandit_a.png","70","70","test","","","","6","",""
"null","236623","pSARL_v2","pSARL_v2ojse3pd7","5e1d70edd727e90dea42d137","fixation","img/fixation.png","null","","test","","","","","",""
"420.5","237046","pSARL_v2","pSARL_v2ojse3pd7","5e1d70edd727e90dea42d137","freq","img/green_2bandit_a2.png","70","70","test","1","124","124","6","",""
"null","237440","pSARL_v2","pSARL_v2ojse3pd7","5e1d70edd727e90dea42d137","freq_resp","img/green_2bandit_a.png","70","70","test","","","","6","",""
"null","237597","pSARL_v2","pSARL_v2ojse3pd7","5e1d70edd727e90dea42d137","fixation","img/fixation.png","null","","test","","","","","",""
"473.89999999990687","238073","pSARL_v2","pSARL_v2ojse3pd7","5e1d70edd727e90dea42d137","freq","img/green_2bandit_a2.png","70","70","test","1","125","125","6","",""
"null","238408","pSARL_v2","pSARL_v2ojse3pd7","5e1d70edd727e90dea42d137","freq_resp","img/green_2bandit_a.png","70","70","test","","","","6","",""
"null","238564","pSARL_v2","pSARL_v2ojse3pd7","5e1d70edd727e90dea42d137","fixation","img/fixation.png","null","","test","","","","","",""
"469.29999999981374","239036","pSARL_v2","pSARL_v2ojse3pd7","5e1d70edd727e90dea42d137","freq","img/green_2bandit_a2.png","70","70","test","1","126","126","6","",""
"null","239376","pSARL_v2","pSARL_v2ojse3pd7","5e1d70edd727e90dea42d137","freq_resp","img/green_2bandit_a.png","70","70","test","","","","6","",""
"null","239532","pSARL_v2","pSARL_v2ojse3pd7","5e1d70edd727e90dea42d137","fixation","img/fixation.png","null","","test","","","","","",""
"463.5","239998","pSARL_v2","pSARL_v2ojse3pd7","5e1d70edd727e90dea42d137","freq","img/green_2bandit_a2.png","70","70","test","1","127","127","6","",""
"null","240344","pSARL_v2","pSARL_v2ojse3pd7","5e1d70edd727e90dea42d137","freq_resp","img/green_2bandit_a.png","70","70","test","","","","6","",""
"null","240499","pSARL_v2","pSARL_v2ojse3pd7","5e1d70edd727e90dea42d137","fixation","img/fixation.png","null","","test","","","","","",""
"394.39999999990687","240896","pSARL_v2","pSARL_v2ojse3pd7","5e1d70edd727e90dea42d137","freq","img/green_2bandit_a2.png","70","70","test","1","128","128","6","",""
"null","241308","pSARL_v2","pSARL_v2ojse3pd7","5e1d70edd727e90dea42d137","freq_resp","img/green_2bandit_a.png","70","70","test","","","","6","",""
"null","241466","pSARL_v2","pSARL_v2ojse3pd7","5e1d70edd727e90dea42d137","fixation","img/fixation.png","null","","test","","","","","",""
"412.6999999997206","241881","pSARL_v2","pSARL_v2ojse3pd7","5e1d70edd727e90dea42d137","freq","img/green_2bandit_a2.png","70","70","test","1","129","129","6","",""
"null","242279","pSARL_v2","pSARL_v2ojse3pd7","5e1d70edd727e90dea42d137","freq_resp","img/green_2bandit_a.png","70","70","test","","","","6","",""
"null","242437","pSARL_v2","pSARL_v2ojse3pd7","5e1d70edd727e90dea42d137","fixation","img/fixation.png","null","","test","","","","","",""
"447.6999999997206","242887","pSARL_v2","pSARL_v2ojse3pd7","5e1d70edd727e90dea42d137","freq","img/green_2bandit_a2.png","70","70","test","1","130","130","6","",""
"null","243246","pSARL_v2","pSARL_v2ojse3pd7","5e1d70edd727e90dea42d137","freq_resp","img/green_2bandit_a.png","70","70","test","","","","6","",""
"null","243402","pSARL_v2","pSARL_v2ojse3pd7","5e1d70edd727e90dea42d137","fixation","img/fixation.png","null","","test","","","","","",""
"400.39999999990687","243805","pSARL_v2","pSARL_v2ojse3pd7","5e1d70edd727e90dea42d137","infreq","img/orange_2bandit_a2.png","68","68","test","1","131","131","6","",""
"null","244214","pSARL_v2","pSARL_v2ojse3pd7","5e1d70edd727e90dea42d137","infreq_resp","img/orange_2bandit_a.png","68","68","test","","","","6","",""
"null","244372","pSARL_v2","pSARL_v2ojse3pd7","5e1d70edd727e90dea42d137","fixation","img/fixation.png","null","","test","","","","","",""
"416.60000000009313","244791","pSARL_v2","pSARL_v2ojse3pd7","5e1d70edd727e90dea42d137","freq","img/green_2bandit_a2.png","70","70","test","1","132","132","6","",""
"null","245184","pSARL_v2","pSARL_v2ojse3pd7","5e1d70edd727e90dea42d137","freq_resp","img/green_2bandit_a.png","70","70","test","","","","6","",""
"null","245343","pSARL_v2","pSARL_v2ojse3pd7","5e1d70edd727e90dea42d137","fixation","img/fixation.png","null","","test","","","","","",""
"321.39999999990687","245667","pSARL_v2","pSARL_v2ojse3pd7","5e1d70edd727e90dea42d137","freq","img/green_2bandit_a2.png","70","70","test","1","133","133","6","",""
"null","246156","pSARL_v2","pSARL_v2ojse3pd7","5e1d70edd727e90dea42d137","freq_resp","img/green_2bandit_a.png","70","70","test","","","","6","",""
"null","246312","pSARL_v2","pSARL_v2ojse3pd7","5e1d70edd727e90dea42d137","fixation","img/fixation.png","null","","test","","","","","",""
"315.5","246630","pSARL_v2","pSARL_v2ojse3pd7","5e1d70edd727e90dea42d137","freq","img/green_2bandit_a2.png","70","70","test","1","134","134","6","",""
"null","247127","pSARL_v2","pSARL_v2ojse3pd7","5e1d70edd727e90dea42d137","freq_resp","img/green_2bandit_a.png","70","70","test","","","","6","",""
"null","247283","pSARL_v2","pSARL_v2ojse3pd7","5e1d70edd727e90dea42d137","fixation","img/fixation.png","null","","test","","","","","",""
"395","247680","pSARL_v2","pSARL_v2ojse3pd7","5e1d70edd727e90dea42d137","freq","img/green_2bandit_a2.png","70","70","test","1","135","135","6","",""
"null","248093","pSARL_v2","pSARL_v2ojse3pd7","5e1d70edd727e90dea42d137","freq_resp","img/green_2bandit_a.png","70","70","test","","","","6","",""
"null","248251","pSARL_v2","pSARL_v2ojse3pd7","5e1d70edd727e90dea42d137","fixation","img/fixation.png","null","","test","","","","","",""
"432.29999999981374","248686","pSARL_v2","pSARL_v2ojse3pd7","5e1d70edd727e90dea42d137","freq","img/green_2bandit_a2.png","70","70","test","1","136","136","6","",""
"null","249058","pSARL_v2","pSARL_v2ojse3pd7","5e1d70edd727e90dea42d137","freq_resp","img/green_2bandit_a.png","70","70","test","","","","6","",""
"null","249212","pSARL_v2","pSARL_v2ojse3pd7","5e1d70edd727e90dea42d137","fixation","img/fixation.png","null","","test","","","","","",""
"459.60000000009313","249674","pSARL_v2","pSARL_v2ojse3pd7","5e1d70edd727e90dea42d137","reward","img/slot.png","74","","test","","","","","",""
"null","250431","pSARL_v2","pSARL_v2ojse3pd7","5e1d70edd727e90dea42d137","points","<div class=""verylowPoints""> -7 </div>","null","na","test","","","","6","-7","5"
"394.5","250828","pSARL_v2","pSARL_v2ojse3pd7","5e1d70edd727e90dea42d137","freq","img/green_2bandit_a2.png","70","70","test","1","137","137","7","",""
"null","251243","pSARL_v2","pSARL_v2ojse3pd7","5e1d70edd727e90dea42d137","freq_resp","img/green_2bandit_a.png","70","70","test","","","","7","",""
"null","251398","pSARL_v2","pSARL_v2ojse3pd7","5e1d70edd727e90dea42d137","fixation","img/fixation.png","null","","test","","","","","",""
"389.79999999981374","251790","pSARL_v2","pSARL_v2ojse3pd7","5e1d70edd727e90dea42d137","freq","img/green_2bandit_a2.png","70","70","test","1","138","138","7","",""
"null","252208","pSARL_v2","pSARL_v2ojse3pd7","5e1d70edd727e90dea42d137","freq_resp","img/green_2bandit_a.png","70","70","test","","","","7","",""
"null","252365","pSARL_v2","pSARL_v2ojse3pd7","5e1d70edd727e90dea42d137","fixation","img/fixation.png","null","","test","","","","","",""
"472.09999999962747","252839","pSARL_v2","pSARL_v2ojse3pd7","5e1d70edd727e90dea42d137","freq","img/green_2bandit_a2.png","70","70","test","1","139","139","7","",""
"null","253179","pSARL_v2","pSARL_v2ojse3pd7","5e1d70edd727e90dea42d137","freq_resp","img/green_2bandit_a.png","70","70","test","","","","7","",""
"null","253337","pSARL_v2","pSARL_v2ojse3pd7","5e1d70edd727e90dea42d137","fixation","img/fixation.png","null","","test","","","","","",""
"548.5999999996275","253888","pSARL_v2","pSARL_v2ojse3pd7","5e1d70edd727e90dea42d137","freq","img/green_2bandit_a2.png","70","70","test","1","140","140","7","",""
"null","254146","pSARL_v2","pSARL_v2ojse3pd7","5e1d70edd727e90dea42d137","freq_resp","img/green_2bandit_a.png","70","70","test","","","","7","",""
"null","254302","pSARL_v2","pSARL_v2ojse3pd7","5e1d70edd727e90dea42d137","fixation","img/fixation.png","null","","test","","","","","",""
"328.29999999981374","254633","pSARL_v2","pSARL_v2ojse3pd7","5e1d70edd727e90dea42d137","freq","img/green_2bandit_a2.png","70","70","test","1","141","141","7","",""
"null","255112","pSARL_v2","pSARL_v2ojse3pd7","5e1d70edd727e90dea42d137","freq_resp","img/green_2bandit_a.png","70","70","test","","","","7","",""
"null","255269","pSARL_v2","pSARL_v2ojse3pd7","5e1d70edd727e90dea42d137","fixation","img/fixation.png","null","","test","","","","","",""
"301.59999999962747","255573","pSARL_v2","pSARL_v2ojse3pd7","5e1d70edd727e90dea42d137","freq","img/green_2bandit_a2.png","70","70","test","1","142","142","7","",""
"null","256078","pSARL_v2","pSARL_v2ojse3pd7","5e1d70edd727e90dea42d137","freq_resp","img/green_2bandit_a.png","70","70","test","","","","7","",""
"null","256233","pSARL_v2","pSARL_v2ojse3pd7","5e1d70edd727e90dea42d137","fixation","img/fixation.png","null","","test","","","","","",""
"386.60000000009313","256622","pSARL_v2","pSARL_v2ojse3pd7","5e1d70edd727e90dea42d137","freq","img/green_2bandit_a2.png","70","70","test","1","143","143","7","",""
"null","257042","pSARL_v2","pSARL_v2ojse3pd7","5e1d70edd727e90dea42d137","freq_resp","img/green_2bandit_a.png","70","70","test","","","","7","",""
"null","257199","pSARL_v2","pSARL_v2ojse3pd7","5e1d70edd727e90dea42d137","fixation","img/fixation.png","null","","test","","","","","",""
"359.5","257561","pSARL_v2","pSARL_v2ojse3pd7","5e1d70edd727e90dea42d137","infreq","img/orange_2bandit_a2.png","68","68","test","1","144","144","7","",""
"null","258011","pSARL_v2","pSARL_v2ojse3pd7","5e1d70edd727e90dea42d137","infreq_resp","img/orange_2bandit_a.png","68","68","test","","","","7","",""
"null","258166","pSARL_v2","pSARL_v2ojse3pd7","5e1d70edd727e90dea42d137","fixation","img/fixation.png","null","","test","","","","","",""
"419.39999999990687","258588","pSARL_v2","pSARL_v2ojse3pd7","5e1d70edd727e90dea42d137","infreq","img/orange_2bandit_a2.png","68","68","test","1","145","145","7","",""
"null","258975","pSARL_v2","pSARL_v2ojse3pd7","5e1d70edd727e90dea42d137","infreq_resp","img/orange_2bandit_a.png","68","68","test","","","","7","",""
"null","259131","pSARL_v2","pSARL_v2ojse3pd7","5e1d70edd727e90dea42d137","fixation","img/fixation.png","null","","test","","","","","",""
"375.59999999962747","259509","pSARL_v2","pSARL_v2ojse3pd7","5e1d70edd727e90dea42d137","freq","img/green_2bandit_a2.png","70","70","test","1","146","146","7","",""
"null","259946","pSARL_v2","pSARL_v2ojse3pd7","5e1d70edd727e90dea42d137","freq_resp","img/green_2bandit_a.png","70","70","test","","","","7","",""
"null","260101","pSARL_v2","pSARL_v2ojse3pd7","5e1d70edd727e90dea42d137","fixation","img/fixation.png","null","","test","","","","","",""
"281.5","260385","pSARL_v2","pSARL_v2ojse3pd7","5e1d70edd727e90dea42d137","freq","img/green_2bandit_a2.png","70","70","test","1","147","147","7","",""
"null","260914","pSARL_v2","pSARL_v2ojse3pd7","5e1d70edd727e90dea42d137","freq_resp","img/green_2bandit_a.png","70","70","test","","","","7","",""
"null","261071","pSARL_v2","pSARL_v2ojse3pd7","5e1d70edd727e90dea42d137","fixation","img/fixation.png","null","","test","","","","","",""
"274.09999999962747","261348","pSARL_v2","pSARL_v2ojse3pd7","5e1d70edd727e90dea42d137","freq","img/green_2bandit_a2.png","70","70","test","1","148","148","7","",""
"null","261881","pSARL_v2","pSARL_v2ojse3pd7","5e1d70edd727e90dea42d137","freq_resp","img/green_2bandit_a.png","70","70","test","","","","7","",""
"null","262037","pSARL_v2","pSARL_v2ojse3pd7","5e1d70edd727e90dea42d137","fixation","img/fixation.png","null","","test","","","","","",""
"248.40000000037253","262288","pSARL_v2","pSARL_v2ojse3pd7","5e1d70edd727e90dea42d137","freq","img/green_2bandit_a2.png","70","70","test","1","149","149","7","",""
"null","262849","pSARL_v2","pSARL_v2ojse3pd7","5e1d70edd727e90dea42d137","freq_resp","img/green_2bandit_a.png","70","70","test","","","","7","",""
"null","263006","pSARL_v2","pSARL_v2ojse3pd7","5e1d70edd727e90dea42d137","fixation","img/fixation.png","null","","test","","","","","",""
"306.6999999997206","263315","pSARL_v2","pSARL_v2ojse3pd7","5e1d70edd727e90dea42d137","freq","img/green_2bandit_a2.png","70","70","test","1","150","150","7","",""
"null","263816","pSARL_v2","pSARL_v2ojse3pd7","5e1d70edd727e90dea42d137","freq_resp","img/green_2bandit_a.png","70","70","test","","","","7","",""
"null","263971","pSARL_v2","pSARL_v2ojse3pd7","5e1d70edd727e90dea42d137","fixation","img/fixation.png","null","","test","","","","","",""
"304.39999999990687","264278","pSARL_v2","pSARL_v2ojse3pd7","5e1d70edd727e90dea42d137","freq","img/green_2bandit_a2.png","70","70","test","1","151","151","7","",""
"null","264783","pSARL_v2","pSARL_v2ojse3pd7","5e1d70edd727e90dea42d137","freq_resp","img/green_2bandit_a.png","70","70","test","","","","7","",""
"null","264940","pSARL_v2","pSARL_v2ojse3pd7","5e1d70edd727e90dea42d137","fixation","img/fixation.png","null","","test","","","","","",""
"341.6999999997206","265284","pSARL_v2","pSARL_v2ojse3pd7","5e1d70edd727e90dea42d137","freq","img/green_2bandit_a2.png","70","70","test","1","152","152","7","",""
"null","265748","pSARL_v2","pSARL_v2ojse3pd7","5e1d70edd727e90dea42d137","freq_resp","img/green_2bandit_a.png","70","70","test","","","","7","",""
"null","265905","pSARL_v2","pSARL_v2ojse3pd7","5e1d70edd727e90dea42d137","fixation","img/fixation.png","null","","test","","","","","",""
"339.59999999962747","266251","pSARL_v2","pSARL_v2ojse3pd7","5e1d70edd727e90dea42d137","freq","img/green_2bandit_a2.png","70","70","test","1","153","153","7","",""
"null","266723","pSARL_v2","pSARL_v2ojse3pd7","5e1d70edd727e90dea42d137","freq_resp","img/green_2bandit_a.png","70","70","test","","","","7","",""
"null","266878","pSARL_v2","pSARL_v2ojse3pd7","5e1d70edd727e90dea42d137","fixation","img/fixation.png","null","","test","","","","","",""
"397.39999999990687","267278","pSARL_v2","pSARL_v2ojse3pd7","5e1d70edd727e90dea42d137","freq","img/green_2bandit_a2.png","70","70","test","1","154","154","7","",""
"null","267690","pSARL_v2","pSARL_v2ojse3pd7","5e1d70edd727e90dea42d137","freq_resp","img/green_2bandit_a.png","70","70","test","","","","7","",""
"null","267846","pSARL_v2","pSARL_v2ojse3pd7","5e1d70edd727e90dea42d137","fixation","img/fixation.png","null","","test","","","","","",""
"285.29999999981374","268133","pSARL_v2","pSARL_v2ojse3pd7","5e1d70edd727e90dea42d137","freq","img/green_2bandit_a2.png","70","70","test","1","155","155","7","",""
"null","268655","pSARL_v2","pSARL_v2ojse3pd7","5e1d70edd727e90dea42d137","freq_resp","img/green_2bandit_a.png","70","70","test","","","","7","",""
"null","268809","pSARL_v2","pSARL_v2ojse3pd7","5e1d70edd727e90dea42d137","fixation","img/fixation.png","null","","test","","","","","",""
"261.6999999997206","269073","pSARL_v2","pSARL_v2ojse3pd7","5e1d70edd727e90dea42d137","freq","img/green_2bandit_a2.png","70","70","test","1","156","156","7","",""
"null","269617","pSARL_v2","pSARL_v2ojse3pd7","5e1d70edd727e90dea42d137","freq_resp","img/green_2bandit_a.png","70","70","test","","","","7","",""
"null","269772","pSARL_v2","pSARL_v2ojse3pd7","5e1d70edd727e90dea42d137","fixation","img/fixation.png","null","","test","","","","","",""
"413.79999999981374","270188","pSARL_v2","pSARL_v2ojse3pd7","5e1d70edd727e90dea42d137","freq","img/green_2bandit_a2.png","70","70","test","1","157","157","7","",""
"null","270581","pSARL_v2","pSARL_v2ojse3pd7","5e1d70edd727e90dea42d137","freq_resp","img/green_2bandit_a.png","70","70","test","","","","7","",""
"null","270740","pSARL_v2","pSARL_v2ojse3pd7","5e1d70edd727e90dea42d137","fixation","img/fixation.png","null","","test","","","","","",""
"322.6999999997206","271064","pSARL_v2","pSARL_v2ojse3pd7","5e1d70edd727e90dea42d137","freq","img/green_2bandit_a2.png","70","70","test","1","158","158","7","",""
"null","271550","pSARL_v2","pSARL_v2ojse3pd7","5e1d70edd727e90dea42d137","freq_resp","img/green_2bandit_a.png","70","70","test","","","","7","",""
"null","271705","pSARL_v2","pSARL_v2ojse3pd7","5e1d70edd727e90dea42d137","fixation","img/fixation.png","null","","test","","","","","",""
"298.59999999962747","272005","pSARL_v2","pSARL_v2ojse3pd7","5e1d70edd727e90dea42d137","freq","img/green_2bandit_a2.png","70","70","test","1","159","159","7","",""
"null","272518","pSARL_v2","pSARL_v2ojse3pd7","5e1d70edd727e90dea42d137","freq_resp","img/green_2bandit_a.png","70","70","test","","","","7","",""
"null","272673","pSARL_v2","pSARL_v2ojse3pd7","5e1d70edd727e90dea42d137","fixation","img/fixation.png","null","","test","","","","","",""
"335.6999999997206","273011","pSARL_v2","pSARL_v2ojse3pd7","5e1d70edd727e90dea42d137","freq","img/green_2bandit_a2.png","70","70","test","1","160","160","7","",""
"null","273486","pSARL_v2","pSARL_v2ojse3pd7","5e1d70edd727e90dea42d137","freq_resp","img/green_2bandit_a.png","70","70","test","","","","7","",""
"null","273642","pSARL_v2","pSARL_v2ojse3pd7","5e1d70edd727e90dea42d137","fixation","img/fixation.png","null","","test","","","","","",""
"419.89999999990687","274064","pSARL_v2","pSARL_v2ojse3pd7","5e1d70edd727e90dea42d137","reward","img/slot.png","74","","test","","","","","",""
"null","274824","pSARL_v2","pSARL_v2ojse3pd7","5e1d70edd727e90dea42d137","points","<div class=""verylowPoints""> -6 </div>","null","na","test","","","","7","-6","6"
"500.59999999962747","275326","pSARL_v2","pSARL_v2ojse3pd7","5e1d70edd727e90dea42d137","freq","img/green_2bandit_a2.png","70","70","test","1","161","161","8","",""
"null","275632","pSARL_v2","pSARL_v2ojse3pd7","5e1d70edd727e90dea42d137","freq_resp","img/green_2bandit_a.png","70","70","test","","","","8","",""
"null","275785","pSARL_v2","pSARL_v2ojse3pd7","5e1d70edd727e90dea42d137","fixation","img/fixation.png","null","","test","","","","","",""
"350","276137","pSARL_v2","pSARL_v2ojse3pd7","5e1d70edd727e90dea42d137","freq","img/green_2bandit_a2.png","70","70","test","1","162","162","8","",""
"null","276595","pSARL_v2","pSARL_v2ojse3pd7","5e1d70edd727e90dea42d137","freq_resp","img/green_2bandit_a.png","70","70","test","","","","8","",""
"null","276749","pSARL_v2","pSARL_v2ojse3pd7","5e1d70edd727e90dea42d137","fixation","img/fixation.png","null","","test","","","","","",""
"456.5","277208","pSARL_v2","pSARL_v2ojse3pd7","5e1d70edd727e90dea42d137","freq","img/green_2bandit_a2.png","70","70","test","1","163","163","8","",""
"null","277559","pSARL_v2","pSARL_v2ojse3pd7","5e1d70edd727e90dea42d137","freq_resp","img/green_2bandit_a.png","70","70","test","","","","8","",""
"null","277716","pSARL_v2","pSARL_v2ojse3pd7","5e1d70edd727e90dea42d137","fixation","img/fixation.png","null","","test","","","","","",""
"365.8000000002794","278084","pSARL_v2","pSARL_v2ojse3pd7","5e1d70edd727e90dea42d137","freq","img/green_2bandit_a2.png","70","70","test","1","164","164","8","",""
"null","278527","pSARL_v2","pSARL_v2ojse3pd7","5e1d70edd727e90dea42d137","freq_resp","img/green_2bandit_a.png","70","70","test","","","","8","",""
"null","278682","pSARL_v2","pSARL_v2ojse3pd7","5e1d70edd727e90dea42d137","fixation","img/fixation.png","null","","test","","","","","",""
"275.70000000018626","278960","pSARL_v2","pSARL_v2ojse3pd7","5e1d70edd727e90dea42d137","freq","img/green_2bandit_a2.png","70","70","test","1","165","165","8","",""
"null","279494","pSARL_v2","pSARL_v2ojse3pd7","5e1d70edd727e90dea42d137","freq_resp","img/green_2bandit_a.png","70","70","test","","","","8","",""
"null","279662","pSARL_v2","pSARL_v2ojse3pd7","5e1d70edd727e90dea42d137","fixation","img/fixation.png","null","","test","","","","","",""
"280.60000000009313","279945","pSARL_v2","pSARL_v2ojse3pd7","5e1d70edd727e90dea42d137","infreq","img/orange_2bandit_a2.png","70","68","test","0","166","166","8","",""
"null","280474","pSARL_v2","pSARL_v2ojse3pd7","5e1d70edd727e90dea42d137","infreq_resp","img/orange_2bandit_a.png","70","68","test","","","","8","",""
"null","280631","pSARL_v2","pSARL_v2ojse3pd7","5e1d70edd727e90dea42d137","fixation","img/fixation.png","null","","test","","","","","",""
"252.60000000009313","280886","pSARL_v2","pSARL_v2ojse3pd7","5e1d70edd727e90dea42d137","freq","img/green_2bandit_a2.png","70","70","test","1","167","167","8","",""
"null","281441","pSARL_v2","pSARL_v2ojse3pd7","5e1d70edd727e90dea42d137","freq_resp","img/green_2bandit_a.png","70","70","test","","","","8","",""
"null","281595","pSARL_v2","pSARL_v2ojse3pd7","5e1d70edd727e90dea42d137","fixation","img/fixation.png","null","","test","","","","","",""
"381.6999999997206","281979","pSARL_v2","pSARL_v2ojse3pd7","5e1d70edd727e90dea42d137","freq","img/green_2bandit_a2.png","70","70","test","1","168","168","8","",""
"null","282409","pSARL_v2","pSARL_v2ojse3pd7","5e1d70edd727e90dea42d137","freq_resp","img/green_2bandit_a.png","70","70","test","","","","8","",""
"null","282563","pSARL_v2","pSARL_v2ojse3pd7","5e1d70edd727e90dea42d137","fixation","img/fixation.png","null","","test","","","","","",""
"331.70000000018626","282897","pSARL_v2","pSARL_v2ojse3pd7","5e1d70edd727e90dea42d137","freq","img/green_2bandit_a2.png","70","70","test","1","169","169","8","",""
"null","283375","pSARL_v2","pSARL_v2ojse3pd7","5e1d70edd727e90dea42d137","freq_resp","img/green_2bandit_a.png","70","70","test","","","","8","",""
"null","283528","pSARL_v2","pSARL_v2ojse3pd7","5e1d70edd727e90dea42d137","fixation","img/fixation.png","null","","test","","","","","",""
"373.89999999990687","283904","pSARL_v2","pSARL_v2ojse3pd7","5e1d70edd727e90dea42d137","freq","img/green_2bandit_a2.png","70","70","test","1","170","170","8","",""
"null","284341","pSARL_v2","pSARL_v2ojse3pd7","5e1d70edd727e90dea42d137","freq_resp","img/green_2bandit_a.png","70","70","test","","","","8","",""
"null","284497","pSARL_v2","pSARL_v2ojse3pd7","5e1d70edd727e90dea42d137","fixation","img/fixation.png","null","","test","","","","","",""
"346.5","284845","pSARL_v2","pSARL_v2ojse3pd7","5e1d70edd727e90dea42d137","freq","img/green_2bandit_a2.png","70","70","test","1","171","171","8","",""
"null","285302","pSARL_v2","pSARL_v2ojse3pd7","5e1d70edd727e90dea42d137","freq_resp","img/green_2bandit_a.png","70","70","test","","","","8","",""
"null","285458","pSARL_v2","pSARL_v2ojse3pd7","5e1d70edd727e90dea42d137","fixation","img/fixation.png","null","","test","","","","","",""
"389.90000000037253","285850","pSARL_v2","pSARL_v2ojse3pd7","5e1d70edd727e90dea42d137","infreq","img/orange_2bandit_a2.png","68","68","test","1","172","172","8","",""
"null","286269","pSARL_v2","pSARL_v2ojse3pd7","5e1d70edd727e90dea42d137","infreq_resp","img/orange_2bandit_a.png","68","68","test","","","","8","",""
"null","286423","pSARL_v2","pSARL_v2ojse3pd7","5e1d70edd727e90dea42d137","fixation","img/fixation.png","null","","test","","","","","",""
"323.8000000002794","286749","pSARL_v2","pSARL_v2ojse3pd7","5e1d70edd727e90dea42d137","freq","img/green_2bandit_a2.png","70","70","test","1","173","173","8","",""
"null","287236","pSARL_v2","pSARL_v2ojse3pd7","5e1d70edd727e90dea42d137","freq_resp","img/green_2bandit_a.png","70","70","test","","","","8","",""
"null","287393","pSARL_v2","pSARL_v2ojse3pd7","5e1d70edd727e90dea42d137","fixation","img/fixation.png","null","","test","","","","","",""
"315.60000000009313","287711","pSARL_v2","pSARL_v2ojse3pd7","5e1d70edd727e90dea42d137","freq","img/green_2bandit_a2.png","70","70","test","1","174","174","8","",""
"null","288205","pSARL_v2","pSARL_v2ojse3pd7","5e1d70edd727e90dea42d137","freq_resp","img/green_2bandit_a.png","70","70","test","","","","8","",""
"null","288363","pSARL_v2","pSARL_v2ojse3pd7","5e1d70edd727e90dea42d137","fixation","img/fixation.png","null","","test","","","","","",""
"352.5","288717","pSARL_v2","pSARL_v2ojse3pd7","5e1d70edd727e90dea42d137","freq","img/green_2bandit_a2.png","70","70","test","1","175","175","8","",""
"null","289173","pSARL_v2","pSARL_v2ojse3pd7","5e1d70edd727e90dea42d137","freq_resp","img/green_2bandit_a.png","70","70","test","","","","8","",""
"null","289328","pSARL_v2","pSARL_v2ojse3pd7","5e1d70edd727e90dea42d137","fixation","img/fixation.png","null","","test","","","","","",""
"327.5","289658","pSARL_v2","pSARL_v2ojse3pd7","5e1d70edd727e90dea42d137","freq","img/green_2bandit_a2.png","70","70","test","1","176","176","8","",""
"null","290137","pSARL_v2","pSARL_v2ojse3pd7","5e1d70edd727e90dea42d137","freq_resp","img/green_2bandit_a.png","70","70","test","","","","8","",""
"null","290293","pSARL_v2","pSARL_v2ojse3pd7","5e1d70edd727e90dea42d137","fixation","img/fixation.png","null","","test","","","","","",""
"302.5","290598","pSARL_v2","pSARL_v2ojse3pd7","5e1d70edd727e90dea42d137","freq","img/green_2bandit_a2.png","70","70","test","1","177","177","8","",""
"null","291111","pSARL_v2","pSARL_v2ojse3pd7","5e1d70edd727e90dea42d137","freq_resp","img/green_2bandit_a.png","70","70","test","","","","8","",""
"null","291268","pSARL_v2","pSARL_v2ojse3pd7","5e1d70edd727e90dea42d137","fixation","img/fixation.png","null","","test","","","","","",""
"637","291907","pSARL_v2","pSARL_v2ojse3pd7","5e1d70edd727e90dea42d137","freq","img/green_2bandit_a2.png","70","70","test","1","178","178","8","",""
"null","292081","pSARL_v2","pSARL_v2ojse3pd7","5e1d70edd727e90dea42d137","freq_resp","img/green_2bandit_a.png","70","70","test","","","","8","",""
"null","292237","pSARL_v2","pSARL_v2ojse3pd7","5e1d70edd727e90dea42d137","fixation","img/fixation.png","null","","test","","","","","",""
"737.8999999999069","292977","pSARL_v2","pSARL_v2ojse3pd7","5e1d70edd727e90dea42d137","freq","img/green_2bandit_a2.png","70","70","test","1","179","179","8","",""
"null","293054","pSARL_v2","pSARL_v2ojse3pd7","5e1d70edd727e90dea42d137","freq_resp","img/green_2bandit_a.png","70","70","test","","","","8","",""
"null","293212","pSARL_v2","pSARL_v2ojse3pd7","5e1d70edd727e90dea42d137","fixation","img/fixation.png","null","","test","","","","","",""
"768.4000000003725","293982","pSARL_v2","pSARL_v2ojse3pd7","5e1d70edd727e90dea42d137","freq","img/green_2bandit_a2.png","70","70","test","1","180","180","8","",""
"null","294016","pSARL_v2","pSARL_v2ojse3pd7","5e1d70edd727e90dea42d137","freq_resp","img/green_2bandit_a.png","70","70","test","","","","8","",""
"null","294174","pSARL_v2","pSARL_v2ojse3pd7","5e1d70edd727e90dea42d137","fixation","img/fixation.png","null","","test","","","","","",""
"573.6000000000931","294750","pSARL_v2","pSARL_v2ojse3pd7","5e1d70edd727e90dea42d137","freq","img/green_2bandit_a2.png","70","70","test","1","181","181","8","",""
"null","294979","pSARL_v2","pSARL_v2ojse3pd7","5e1d70edd727e90dea42d137","freq_resp","img/green_2bandit_a.png","70","70","test","","","","8","",""
"null","295135","pSARL_v2","pSARL_v2ojse3pd7","5e1d70edd727e90dea42d137","fixation","img/fixation.png","null","","test","","","","","",""
"335.8000000002794","295473","pSARL_v2","pSARL_v2ojse3pd7","5e1d70edd727e90dea42d137","freq","img/green_2bandit_a2.png","70","70","test","1","182","182","8","",""
"null","295951","pSARL_v2","pSARL_v2ojse3pd7","5e1d70edd727e90dea42d137","freq_resp","img/green_2bandit_a.png","70","70","test","","","","8","",""
"null","296108","pSARL_v2","pSARL_v2ojse3pd7","5e1d70edd727e90dea42d137","fixation","img/fixation.png","null","","test","","","","","",""
"325.8000000002794","296436","pSARL_v2","pSARL_v2ojse3pd7","5e1d70edd727e90dea42d137","freq","img/green_2bandit_a2.png","70","70","test","1","183","183","8","",""
"null","296916","pSARL_v2","pSARL_v2ojse3pd7","5e1d70edd727e90dea42d137","freq_resp","img/green_2bandit_a.png","70","70","test","","","","8","",""
"null","297074","pSARL_v2","pSARL_v2ojse3pd7","5e1d70edd727e90dea42d137","fixation","img/fixation.png","null","","test","","","","","",""
"413.5","297489","pSARL_v2","pSARL_v2ojse3pd7","5e1d70edd727e90dea42d137","reward","img/slot.png","74","","test","","","","","",""
"null","298253","pSARL_v2","pSARL_v2ojse3pd7","5e1d70edd727e90dea42d137","points","<div class=""verylowPoints""> -4 </div>","null","na","test","","","","8","-4","7"
"388.5","298643","pSARL_v2","pSARL_v2ojse3pd7","5e1d70edd727e90dea42d137","freq","img/green_2bandit_a2.png","70","70","test","1","184","184","9","",""
"null","299069","pSARL_v2","pSARL_v2ojse3pd7","5e1d70edd727e90dea42d137","freq_resp","img/green_2bandit_a.png","70","70","test","","","","9","",""
"null","299228","pSARL_v2","pSARL_v2ojse3pd7","5e1d70edd727e90dea42d137","fixation","img/fixation.png","null","","test","","","","","",""
"268.60000000009313","299498","pSARL_v2","pSARL_v2ojse3pd7","5e1d70edd727e90dea42d137","freq","img/green_2bandit_a2.png","70","70","test","1","185","185","9","",""
"null","300038","pSARL_v2","pSARL_v2ojse3pd7","5e1d70edd727e90dea42d137","freq_resp","img/green_2bandit_a.png","70","70","test","","","","9","",""
"null","300192","pSARL_v2","pSARL_v2ojse3pd7","5e1d70edd727e90dea42d137","fixation","img/fixation.png","null","","test","","","","","",""
"265.90000000037253","300460","pSARL_v2","pSARL_v2ojse3pd7","5e1d70edd727e90dea42d137","freq","img/green_2bandit_a2.png","70","70","test","1","186","186","9","",""
"null","301003","pSARL_v2","pSARL_v2ojse3pd7","5e1d70edd727e90dea42d137","freq_resp","img/green_2bandit_a.png","70","70","test","","","","9","",""
"null","301159","pSARL_v2","pSARL_v2ojse3pd7","5e1d70edd727e90dea42d137","fixation","img/fixation.png","null","","test","","","","","",""
"304.59999999962747","301466","pSARL_v2","pSARL_v2ojse3pd7","5e1d70edd727e90dea42d137","freq","img/green_2bandit_a2.png","70","70","test","1","187","187","9","",""
"null","301969","pSARL_v2","pSARL_v2ojse3pd7","5e1d70edd727e90dea42d137","freq_resp","img/green_2bandit_a.png","70","70","test","","","","9","",""
"null","302124","pSARL_v2","pSARL_v2ojse3pd7","5e1d70edd727e90dea42d137","fixation","img/fixation.png","null","","test","","","","","",""
"281.70000000018626","302409","pSARL_v2","pSARL_v2ojse3pd7","5e1d70edd727e90dea42d137","freq","img/green_2bandit_a2.png","70","70","test","1","188","188","9","",""
"null","302935","pSARL_v2","pSARL_v2ojse3pd7","5e1d70edd727e90dea42d137","freq_resp","img/green_2bandit_a.png","70","70","test","","","","9","",""
"null","303090","pSARL_v2","pSARL_v2ojse3pd7","5e1d70edd727e90dea42d137","fixation","img/fixation.png","null","","test","","","","","",""
"277.6999999997206","303370","pSARL_v2","pSARL_v2ojse3pd7","5e1d70edd727e90dea42d137","freq","img/green_2bandit_a2.png","70","70","test","1","189","189","9","",""
"null","303903","pSARL_v2","pSARL_v2ojse3pd7","5e1d70edd727e90dea42d137","freq_resp","img/green_2bandit_a.png","70","70","test","","","","9","",""
"null","304058","pSARL_v2","pSARL_v2ojse3pd7","5e1d70edd727e90dea42d137","fixation","img/fixation.png","null","","test","","","","","",""
"295.29999999981374","304355","pSARL_v2","pSARL_v2ojse3pd7","5e1d70edd727e90dea42d137","freq","img/green_2bandit_a2.png","70","70","test","1","190","190","9","",""
"null","304867","pSARL_v2","pSARL_v2ojse3pd7","5e1d70edd727e90dea42d137","freq_resp","img/green_2bandit_a.png","70","70","test","","","","9","",""
"null","305023","pSARL_v2","pSARL_v2ojse3pd7","5e1d70edd727e90dea42d137","fixation","img/fixation.png","null","","test","","","","","",""
"377.70000000018626","305403","pSARL_v2","pSARL_v2ojse3pd7","5e1d70edd727e90dea42d137","infreq","img/orange_2bandit_a2.png","68","68","test","1","191","191","9","",""
"null","305833","pSARL_v2","pSARL_v2ojse3pd7","5e1d70edd727e90dea42d137","infreq_resp","img/orange_2bandit_a.png","68","68","test","","","","9","",""
"null","305990","pSARL_v2","pSARL_v2ojse3pd7","5e1d70edd727e90dea42d137","fixation","img/fixation.png","null","","test","","","","","",""
"245","306237","pSARL_v2","pSARL_v2ojse3pd7","5e1d70edd727e90dea42d137","freq","img/green_2bandit_a2.png","70","70","test","1","192","192","9","",""
"null","306801","pSARL_v2","pSARL_v2ojse3pd7","5e1d70edd727e90dea42d137","freq_resp","img/green_2bandit_a.png","70","70","test","","","","9","",""
"null","306956","pSARL_v2","pSARL_v2ojse3pd7","5e1d70edd727e90dea42d137","fixation","img/fixation.png","null","","test","","","","","",""
"306.90000000037253","307265","pSARL_v2","pSARL_v2ojse3pd7","5e1d70edd727e90dea42d137","freq","img/green_2bandit_a2.png","70","70","test","1","193","193","9","",""
"null","307772","pSARL_v2","pSARL_v2ojse3pd7","5e1d70edd727e90dea42d137","freq_resp","img/green_2bandit_a.png","70","70","test","","","","9","",""
"null","307929","pSARL_v2","pSARL_v2ojse3pd7","5e1d70edd727e90dea42d137","fixation","img/fixation.png","null","","test","","","","","",""
"297.39999999990687","308228","pSARL_v2","pSARL_v2ojse3pd7","5e1d70edd727e90dea42d137","infreq","img/orange_2bandit_a2.png","70","68","test","0","194","194","9","",""
"null","308735","pSARL_v2","pSARL_v2ojse3pd7","5e1d70edd727e90dea42d137","infreq_resp","img/orange_2bandit_a.png","70","68","test","","","","9","",""
"null","308889","pSARL_v2","pSARL_v2ojse3pd7","5e1d70edd727e90dea42d137","fixation","img/fixation.png","null","","test","","","","","",""
"493.89999999990687","309385","pSARL_v2","pSARL_v2ojse3pd7","5e1d70edd727e90dea42d137","infreq","img/orange_2bandit_a2.png","68","68","test","1","195","195","9","",""
"null","309706","pSARL_v2","pSARL_v2ojse3pd7","5e1d70edd727e90dea42d137","infreq_resp","img/orange_2bandit_a.png","68","68","test","","","","9","",""
"null","309862","pSARL_v2","pSARL_v2ojse3pd7","5e1d70edd727e90dea42d137","fixation","img/fixation.png","null","","test","","","","","",""
"355.20000000018626","310219","pSARL_v2","pSARL_v2ojse3pd7","5e1d70edd727e90dea42d137","freq","img/green_2bandit_a2.png","70","70","test","1","196","196","9","",""
"null","310674","pSARL_v2","pSARL_v2ojse3pd7","5e1d70edd727e90dea42d137","freq_resp","img/green_2bandit_a.png","70","70","test","","","","9","",""
"null","310830","pSARL_v2","pSARL_v2ojse3pd7","5e1d70edd727e90dea42d137","fixation","img/fixation.png","null","","test","","","","","",""
"284.60000000009313","311117","pSARL_v2","pSARL_v2ojse3pd7","5e1d70edd727e90dea42d137","freq","img/green_2bandit_a2.png","70","70","test","1","197","197","9","",""
"null","311642","pSARL_v2","pSARL_v2ojse3pd7","5e1d70edd727e90dea42d137","freq_resp","img/green_2bandit_a.png","70","70","test","","","","9","",""
"null","311799","pSARL_v2","pSARL_v2ojse3pd7","5e1d70edd727e90dea42d137","fixation","img/fixation.png","null","","test","","","","","",""
"365.40000000037253","312167","pSARL_v2","pSARL_v2ojse3pd7","5e1d70edd727e90dea42d137","freq","img/green_2bandit_a2.png","70","70","test","1","198","198","9","",""
"null","312611","pSARL_v2","pSARL_v2ojse3pd7","5e1d70edd727e90dea42d137","freq_resp","img/green_2bandit_a.png","70","70","test","","","","9","",""
"null","312767","pSARL_v2","pSARL_v2ojse3pd7","5e1d70edd727e90dea42d137","fixation","img/fixation.png","null","","test","","","","","",""
"360.39999999990687","313129","pSARL_v2","pSARL_v2ojse3pd7","5e1d70edd727e90dea42d137","freq","img/green_2bandit_a2.png","70","70","test","1","199","199","9","",""
"null","313574","pSARL_v2","pSARL_v2ojse3pd7","5e1d70edd727e90dea42d137","freq_resp","img/green_2bandit_a.png","70","70","test","","","","9","",""
"null","313729","pSARL_v2","pSARL_v2ojse3pd7","5e1d70edd727e90dea42d137","fixation","img/fixation.png","null","","test","","","","","",""
"339.89999999990687","314071","pSARL_v2","pSARL_v2ojse3pd7","5e1d70edd727e90dea42d137","freq","img/green_2bandit_a2.png","70","70","test","1","200","200","9","",""
"null","314544","pSARL_v2","pSARL_v2ojse3pd7","5e1d70edd727e90dea42d137","freq_resp","img/green_2bandit_a.png","70","70","test","","","","9","",""
"null","314701","pSARL_v2","pSARL_v2ojse3pd7","5e1d70edd727e90dea42d137","fixation","img/fixation.png","null","","test","","","","","",""
"482.20000000018626","315185","pSARL_v2","pSARL_v2ojse3pd7","5e1d70edd727e90dea42d137","freq","img/green_2bandit_a2.png","70","70","test","1","201","201","9","",""
"null","315511","pSARL_v2","pSARL_v2ojse3pd7","5e1d70edd727e90dea42d137","freq_resp","img/green_2bandit_a.png","70","70","test","","","","9","",""
"null","315666","pSARL_v2","pSARL_v2ojse3pd7","5e1d70edd727e90dea42d137","fixation","img/fixation.png","null","","test","","","","","",""
"305.70000000018626","315974","pSARL_v2","pSARL_v2ojse3pd7","5e1d70edd727e90dea42d137","freq","img/green_2bandit_a2.png","70","70","test","1","202","202","9","",""
"null","316479","pSARL_v2","pSARL_v2ojse3pd7","5e1d70edd727e90dea42d137","freq_resp","img/green_2bandit_a.png","70","70","test","","","","9","",""
"null","316635","pSARL_v2","pSARL_v2ojse3pd7","5e1d70edd727e90dea42d137","fixation","img/fixation.png","null","","test","","","","","",""
"299.1999999997206","316936","pSARL_v2","pSARL_v2ojse3pd7","5e1d70edd727e90dea42d137","freq","img/green_2bandit_a2.png","70","70","test","1","203","203","9","",""
"null","317446","pSARL_v2","pSARL_v2ojse3pd7","5e1d70edd727e90dea42d137","freq_resp","img/green_2bandit_a.png","70","70","test","","","","9","",""
"null","317604","pSARL_v2","pSARL_v2ojse3pd7","5e1d70edd727e90dea42d137","fixation","img/fixation.png","null","","test","","","","","",""
"291.5","317898","pSARL_v2","pSARL_v2ojse3pd7","5e1d70edd727e90dea42d137","freq","img/green_2bandit_a2.png","70","70","test","1","204","204","9","",""
"null","318415","pSARL_v2","pSARL_v2ojse3pd7","5e1d70edd727e90dea42d137","freq_resp","img/green_2bandit_a.png","70","70","test","","","","9","",""
"null","318574","pSARL_v2","pSARL_v2ojse3pd7","5e1d70edd727e90dea42d137","fixation","img/fixation.png","null","","test","","","","","",""
"350.3000000002794","318926","pSARL_v2","pSARL_v2ojse3pd7","5e1d70edd727e90dea42d137","freq","img/green_2bandit_a2.png","70","70","test","1","205","205","9","",""
"null","319384","pSARL_v2","pSARL_v2ojse3pd7","5e1d70edd727e90dea42d137","freq_resp","img/green_2bandit_a.png","70","70","test","","","","9","",""
"null","319538","pSARL_v2","pSARL_v2ojse3pd7","5e1d70edd727e90dea42d137","fixation","img/fixation.png","null","","test","","","","","",""
"477.40000000037253","320018","pSARL_v2","pSARL_v2ojse3pd7","5e1d70edd727e90dea42d137","freq","img/green_2bandit_a2.png","70","70","test","1","206","206","9","",""
