"rt","time_elapsed","expId","subject","prolificID","trialType","stimulus","key_press","corrresp","phase","corr","trialNum","attentionRunNum","blockNum","points","rlNum"
"62375.09999999404","62382","pSARL_v2","pSARL_v27av7451j","62e750fa810b090c094dc2f0","","","","","","","","","","",""
"","65524","pSARL_v2","pSARL_v27av7451j","62e750fa810b090c094dc2f0","fullscreen","","","","","","","","","",""
"115967.29999998212","181498","pSARL_v2","pSARL_v27av7451j","62e750fa810b090c094dc2f0","","","","","","","","","","",""
"null","182311","pSARL_v2","pSARL_v27av7451j","62e750fa810b090c094dc2f0","freqPrac","img/green_2bandit_b2.png","null","70","prac","0","","","","",""
"null","183319","pSARL_v2","pSARL_v27av7451j","62e750fa810b090c094dc2f0","feedback","img/tooSlow.png","null","na","prac","","","","","",""
"null","183488","pSARL_v2","pSARL_v27av7451j","62e750fa810b090c094dc2f0","fixation","img/fixation.png","null","","prac","","","","","",""
"510.90000000596046","184003","pSARL_v2","pSARL_v27av7451j","62e750fa810b090c094dc2f0","infreqPrac","img/orange_2bandit_b2.png","68","68","prac","1","","","","",""
"510.90000000596046","184312","pSARL_v2","pSARL_v27av7451j","62e750fa810b090c094dc2f0","infreqPrac_resp","img/orange_2bandit_b.png","68","68","prac","","","","","",""
"null","184469","pSARL_v2","pSARL_v27av7451j","62e750fa810b090c094dc2f0","fixation","img/fixation.png","null","","prac","","","","","",""
"97.80000001192093","184571","pSARL_v2","pSARL_v27av7451j","62e750fa810b090c094dc2f0","freqPrac","img/green_2bandit_b2.png","68","70","prac","0","","","","",""
"97.80000001192093","185286","pSARL_v2","pSARL_v27av7451j","62e750fa810b090c094dc2f0","freqPrac_resp","img/green_2bandit_b.png","68","70","prac","","","","","",""
"null","186301","pSARL_v2","pSARL_v27av7451j","62e750fa810b090c094dc2f0","feedback","img/wrongKey.png","null","na","prac","","","","","",""
"null","186456","pSARL_v2","pSARL_v27av7451j","62e750fa810b090c094dc2f0","fixation","img/fixation.png","null","","prac","","","","","",""
"759.3999999761581","187219","pSARL_v2","pSARL_v27av7451j","62e750fa810b090c094dc2f0","infreqPrac","img/orange_2bandit_b2.png","68","68","prac","1","","","","",""
"759.3999999761581","187264","pSARL_v2","pSARL_v27av7451j","62e750fa810b090c094dc2f0","infreqPrac_resp","img/orange_2bandit_b.png","68","68","prac","","","","","",""
"null","187428","pSARL_v2","pSARL_v27av7451j","62e750fa810b090c094dc2f0","fixation","img/fixation.png","null","","prac","","","","","",""
"458.5","187891","pSARL_v2","pSARL_v27av7451j","62e750fa810b090c094dc2f0","infreqPrac","img/orange_2bandit_b2.png","68","68","prac","1","","","","",""
"458.5","188247","pSARL_v2","pSARL_v27av7451j","62e750fa810b090c094dc2f0","infreqPrac_resp","img/orange_2bandit_b.png","68","68","prac","","","","","",""
"null","188403","pSARL_v2","pSARL_v27av7451j","62e750fa810b090c094dc2f0","fixation","img/fixation.png","null","","prac","","","","","",""
"468.10000002384186","188875","pSARL_v2","pSARL_v27av7451j","62e750fa810b090c094dc2f0","infreqPrac","img/orange_2bandit_b2.png","68","68","prac","1","","","","",""
"468.10000002384186","189223","pSARL_v2","pSARL_v27av7451j","62e750fa810b090c094dc2f0","infreqPrac_resp","img/orange_2bandit_b.png","68","68","prac","","","","","",""
"null","189386","pSARL_v2","pSARL_v27av7451j","62e750fa810b090c094dc2f0","fixation","img/fixation.png","null","","prac","","","","","",""
"589.3999999761581","189979","pSARL_v2","pSARL_v27av7451j","62e750fa810b090c094dc2f0","freqPrac","img/green_2bandit_b2.png","70","70","prac","1","","","","",""
"589.3999999761581","190198","pSARL_v2","pSARL_v27av7451j","62e750fa810b090c094dc2f0","freqPrac_resp","img/green_2bandit_b.png","70","70","prac","","","","","",""
"null","190353","pSARL_v2","pSARL_v27av7451j","62e750fa810b090c094dc2f0","fixation","img/fixation.png","null","","prac","","","","","",""
"517.6000000238419","190875","pSARL_v2","pSARL_v27av7451j","62e750fa810b090c094dc2f0","infreqPrac","img/orange_2bandit_b2.png","68","68","prac","1","","","","",""
"517.6000000238419","191173","pSARL_v2","pSARL_v27av7451j","62e750fa810b090c094dc2f0","infreqPrac_resp","img/orange_2bandit_b.png","68","68","prac","","","","","",""
"null","191328","pSARL_v2","pSARL_v27av7451j","62e750fa810b090c094dc2f0","fixation","img/fixation.png","null","","prac","","","","","",""
"null","192138","pSARL_v2","pSARL_v27av7451j","62e750fa810b090c094dc2f0","freqPrac","img/green_2bandit_b2.png","null","70","prac","0","","","","",""
"null","193149","pSARL_v2","pSARL_v27av7451j","62e750fa810b090c094dc2f0","feedback","img/tooSlow.png","null","na","prac","","","","","",""
"null","193319","pSARL_v2","pSARL_v27av7451j","62e750fa810b090c094dc2f0","fixation","img/fixation.png","null","","prac","","","","","",""
"432.5","193756","pSARL_v2","pSARL_v27av7451j","62e750fa810b090c094dc2f0","freqPrac","img/green_2bandit_b2.png","70","70","prac","1","","","","",""
"432.5","194138","pSARL_v2","pSARL_v27av7451j","62e750fa810b090c094dc2f0","freqPrac_resp","img/green_2bandit_b.png","70","70","prac","","","","","",""
"null","194302","pSARL_v2","pSARL_v27av7451j","62e750fa810b090c094dc2f0","fixation","img/fixation.png","null","","prac","","","","","",""
"28602.69999998808","222909","pSARL_v2","pSARL_v27av7451j","62e750fa810b090c094dc2f0","","","","","prac","","","","","",""
"963.0999999940395","223877","pSARL_v2","pSARL_v27av7451j","62e750fa810b090c094dc2f0","rewardPractice","img/slot.png","74","","prac","","","","","",""
"null","224642","pSARL_v2","pSARL_v27av7451j","62e750fa810b090c094dc2f0","feedback","<div class=""veryhighPoints""> +15 </div>","null","na","prac","","","","","",""
"null","224811","pSARL_v2","pSARL_v27av7451j","62e750fa810b090c094dc2f0","fixation","img/fixation.png","null","","prac","","","","","",""
"10318.300000011921","235133","pSARL_v2","pSARL_v27av7451j","62e750fa810b090c094dc2f0","","","","","prac","","","","","",""
"627.0999999940395","235765","pSARL_v2","pSARL_v27av7451j","62e750fa810b090c094dc2f0","freq","img/green_2bandit_b2.png","70","70","test","1","1","1","1","",""
"null","235950","pSARL_v2","pSARL_v27av7451j","62e750fa810b090c094dc2f0","freq_resp","img/green_2bandit_b.png","70","70","test","","","","1","",""
"null","236107","pSARL_v2","pSARL_v27av7451j","62e750fa810b090c094dc2f0","fixation","img/fixation.png","null","","test","","","","","",""
"446","236557","pSARL_v2","pSARL_v27av7451j","62e750fa810b090c094dc2f0","freq","img/green_2bandit_b2.png","70","70","test","1","2","2","1","",""
"null","236925","pSARL_v2","pSARL_v27av7451j","62e750fa810b090c094dc2f0","freq_resp","img/green_2bandit_b.png","70","70","test","","","","1","",""
"null","237087","pSARL_v2","pSARL_v27av7451j","62e750fa810b090c094dc2f0","fixation","img/fixation.png","null","","test","","","","","",""
"329.59999999403954","237421","pSARL_v2","pSARL_v27av7451j","62e750fa810b090c094dc2f0","freq","img/green_2bandit_b2.png","70","70","test","1","3","3","1","",""
"null","237899","pSARL_v2","pSARL_v27av7451j","62e750fa810b090c094dc2f0","freq_resp","img/green_2bandit_b.png","70","70","test","","","","1","",""
"null","238054","pSARL_v2","pSARL_v27av7451j","62e750fa810b090c094dc2f0","fixation","img/fixation.png","null","","test","","","","","",""
"330.89999997615814","238389","pSARL_v2","pSARL_v27av7451j","62e750fa810b090c094dc2f0","freq","img/green_2bandit_b2.png","70","70","test","1","4","4","1","",""
"null","238865","pSARL_v2","pSARL_v27av7451j","62e750fa810b090c094dc2f0","freq_resp","img/green_2bandit_b.png","70","70","test","","","","1","",""
"null","239019","pSARL_v2","pSARL_v27av7451j","62e750fa810b090c094dc2f0","fixation","img/fixation.png","null","","test","","","","","",""
"301.59999999403954","239325","pSARL_v2","pSARL_v27av7451j","62e750fa810b090c094dc2f0","freq","img/green_2bandit_b2.png","70","70","test","1","5","5","1","",""
"null","239838","pSARL_v2","pSARL_v27av7451j","62e750fa810b090c094dc2f0","freq_resp","img/green_2bandit_b.png","70","70","test","","","","1","",""
"null","239994","pSARL_v2","pSARL_v27av7451j","62e750fa810b090c094dc2f0","fixation","img/fixation.png","null","","test","","","","","",""
"463.2999999821186","240461","pSARL_v2","pSARL_v27av7451j","62e750fa810b090c094dc2f0","infreq","img/orange_2bandit_b2.png","68","68","test","1","6","6","1","",""
"null","240808","pSARL_v2","pSARL_v27av7451j","62e750fa810b090c094dc2f0","infreq_resp","img/orange_2bandit_b.png","68","68","test","","","","1","",""
"null","240971","pSARL_v2","pSARL_v27av7451j","62e750fa810b090c094dc2f0","fixation","img/fixation.png","null","","test","","","","","",""
"366.09999999403954","241341","pSARL_v2","pSARL_v27av7451j","62e750fa810b090c094dc2f0","infreq","img/orange_2bandit_b2.png","68","68","test","1","7","7","1","",""
"null","241785","pSARL_v2","pSARL_v27av7451j","62e750fa810b090c094dc2f0","infreq_resp","img/orange_2bandit_b.png","68","68","test","","","","1","",""
"null","241954","pSARL_v2","pSARL_v27av7451j","62e750fa810b090c094dc2f0","fixation","img/fixation.png","null","","test","","","","","",""
"591.1000000238419","242549","pSARL_v2","pSARL_v27av7451j","62e750fa810b090c094dc2f0","freq","img/green_2bandit_b2.png","70","70","test","1","8","8","1","",""
"null","242776","pSARL_v2","pSARL_v27av7451j","62e750fa810b090c094dc2f0","freq_resp","img/green_2bandit_b.png","70","70","test","","","","1","",""
"null","242937","pSARL_v2","pSARL_v27av7451j","62e750fa810b090c094dc2f0","fixation","img/fixation.png","null","","test","","","","","",""
"407.60000002384186","243350","pSARL_v2","pSARL_v27av7451j","62e750fa810b090c094dc2f0","freq","img/green_2bandit_b2.png","70","70","test","1","9","9","1","",""
"null","243754","pSARL_v2","pSARL_v27av7451j","62e750fa810b090c094dc2f0","freq_resp","img/green_2bandit_b.png","70","70","test","","","","1","",""
"null","243921","pSARL_v2","pSARL_v27av7451j","62e750fa810b090c094dc2f0","fixation","img/fixation.png","null","","test","","","","","",""
"312.5","244238","pSARL_v2","pSARL_v27av7451j","62e750fa810b090c094dc2f0","freq","img/green_2bandit_b2.png","70","70","test","1","10","10","1","",""
"null","244736","pSARL_v2","pSARL_v27av7451j","62e750fa810b090c094dc2f0","freq_resp","img/green_2bandit_b.png","70","70","test","","","","1","",""
"null","244891","pSARL_v2","pSARL_v27av7451j","62e750fa810b090c094dc2f0","fixation","img/fixation.png","null","","test","","","","","",""
"358.5","245254","pSARL_v2","pSARL_v27av7451j","62e750fa810b090c094dc2f0","freq","img/green_2bandit_b2.png","70","70","test","1","11","11","1","",""
"null","245713","pSARL_v2","pSARL_v27av7451j","62e750fa810b090c094dc2f0","freq_resp","img/green_2bandit_b.png","70","70","test","","","","1","",""
"null","245883","pSARL_v2","pSARL_v27av7451j","62e750fa810b090c094dc2f0","fixation","img/fixation.png","null","","test","","","","","",""
"326.90000000596046","246214","pSARL_v2","pSARL_v27av7451j","62e750fa810b090c094dc2f0","freq","img/green_2bandit_b2.png","70","70","test","1","12","12","1","",""
"null","246705","pSARL_v2","pSARL_v27av7451j","62e750fa810b090c094dc2f0","freq_resp","img/green_2bandit_b.png","70","70","test","","","","1","",""
"null","246862","pSARL_v2","pSARL_v27av7451j","62e750fa810b090c094dc2f0","fixation","img/fixation.png","null","","test","","","","","",""
"268","247134","pSARL_v2","pSARL_v27av7451j","62e750fa810b090c094dc2f0","freq","img/green_2bandit_b2.png","70","70","test","1","13","13","1","",""
"null","247684","pSARL_v2","pSARL_v27av7451j","62e750fa810b090c094dc2f0","freq_resp","img/green_2bandit_b.png","70","70","test","","","","1","",""
"null","247853","pSARL_v2","pSARL_v27av7451j","62e750fa810b090c094dc2f0","fixation","img/fixation.png","null","","test","","","","","",""
"308.30000001192093","248166","pSARL_v2","pSARL_v27av7451j","62e750fa810b090c094dc2f0","freq","img/green_2bandit_b2.png","70","70","test","1","14","14","1","",""
"null","248665","pSARL_v2","pSARL_v27av7451j","62e750fa810b090c094dc2f0","freq_resp","img/green_2bandit_b.png","70","70","test","","","","1","",""
"null","248824","pSARL_v2","pSARL_v27av7451j","62e750fa810b090c094dc2f0","fixation","img/fixation.png","null","","test","","","","","",""
"258.09999999403954","249086","pSARL_v2","pSARL_v27av7451j","62e750fa810b090c094dc2f0","freq","img/green_2bandit_b2.png","70","70","test","1","15","15","1","",""
"null","249644","pSARL_v2","pSARL_v27av7451j","62e750fa810b090c094dc2f0","freq_resp","img/green_2bandit_b.png","70","70","test","","","","1","",""
"null","249805","pSARL_v2","pSARL_v27av7451j","62e750fa810b090c094dc2f0","fixation","img/fixation.png","null","","test","","","","","",""
"228.80000001192093","250038","pSARL_v2","pSARL_v27av7451j","62e750fa810b090c094dc2f0","freq","img/green_2bandit_b2.png","70","70","test","1","16","16","1","",""
"null","250626","pSARL_v2","pSARL_v27av7451j","62e750fa810b090c094dc2f0","freq_resp","img/green_2bandit_b.png","70","70","test","","","","1","",""
"null","250788","pSARL_v2","pSARL_v27av7451j","62e750fa810b090c094dc2f0","fixation","img/fixation.png","null","","test","","","","","",""
"141.59999999403954","250934","pSARL_v2","pSARL_v27av7451j","62e750fa810b090c094dc2f0","freq","img/green_2bandit_b2.png","70","70","test","1","17","17","1","",""
"null","251604","pSARL_v2","pSARL_v27av7451j","62e750fa810b090c094dc2f0","freq_resp","img/green_2bandit_b.png","70","70","test","","","","1","",""
"null","251773","pSARL_v2","pSARL_v27av7451j","62e750fa810b090c094dc2f0","fixation","img/fixation.png","null","","test","","","","","",""
"268.7999999821186","252046","pSARL_v2","pSARL_v27av7451j","62e750fa810b090c094dc2f0","freq","img/green_2bandit_b2.png","70","70","test","1","18","18","1","",""
"null","252589","pSARL_v2","pSARL_v27av7451j","62e750fa810b090c094dc2f0","freq_resp","img/green_2bandit_b.png","70","70","test","","","","1","",""
"null","252745","pSARL_v2","pSARL_v27av7451j","62e750fa810b090c094dc2f0","fixation","img/fixation.png","null","","test","","","","","",""
"240.69999998807907","252990","pSARL_v2","pSARL_v27av7451j","62e750fa810b090c094dc2f0","freq","img/green_2bandit_b2.png","70","70","test","1","19","19","1","",""
"null","253566","pSARL_v2","pSARL_v27av7451j","62e750fa810b090c094dc2f0","freq_resp","img/green_2bandit_b.png","70","70","test","","","","1","",""
"null","253721","pSARL_v2","pSARL_v27av7451j","62e750fa810b090c094dc2f0","fixation","img/fixation.png","null","","test","","","","","",""
"313","254038","pSARL_v2","pSARL_v27av7451j","62e750fa810b090c094dc2f0","freq","img/green_2bandit_b2.png","70","70","test","1","20","20","1","",""
"null","254532","pSARL_v2","pSARL_v27av7451j","62e750fa810b090c094dc2f0","freq_resp","img/green_2bandit_b.png","70","70","test","","","","1","",""
"null","254688","pSARL_v2","pSARL_v27av7451j","62e750fa810b090c094dc2f0","fixation","img/fixation.png","null","","test","","","","","",""
"385.2999999821186","255079","pSARL_v2","pSARL_v27av7451j","62e750fa810b090c094dc2f0","freq","img/green_2bandit_b2.png","70","70","test","1","21","21","1","",""
"null","255504","pSARL_v2","pSARL_v27av7451j","62e750fa810b090c094dc2f0","freq_resp","img/green_2bandit_b.png","70","70","test","","","","1","",""
"null","255671","pSARL_v2","pSARL_v27av7451j","62e750fa810b090c094dc2f0","fixation","img/fixation.png","null","","test","","","","","",""
"690.3999999761581","256366","pSARL_v2","pSARL_v27av7451j","62e750fa810b090c094dc2f0","reward","img/slot.png","74","","test","","","","","",""
"null","257122","pSARL_v2","pSARL_v27av7451j","62e750fa810b090c094dc2f0","points","<div class=""verylowPoints""> -6 </div>","null","na","test","","","","1","-6","0"
"696","257822","pSARL_v2","pSARL_v27av7451j","62e750fa810b090c094dc2f0","freq","img/green_2bandit_b2.png","70","70","test","1","22","22","2","",""
"null","257942","pSARL_v2","pSARL_v27av7451j","62e750fa810b090c094dc2f0","freq_resp","img/green_2bandit_b.png","70","70","test","","","","2","",""
"null","258107","pSARL_v2","pSARL_v27av7451j","62e750fa810b090c094dc2f0","fixation","img/fixation.png","null","","test","","","","","",""
"null","258913","pSARL_v2","pSARL_v27av7451j","62e750fa810b090c094dc2f0","infreq","img/orange_2bandit_b2.png","null","68","test","0","23","23","2","",""
"null","259072","pSARL_v2","pSARL_v27av7451j","62e750fa810b090c094dc2f0","fixation","img/fixation.png","null","","test","","","","","",""
"698.2000000178814","259774","pSARL_v2","pSARL_v27av7451j","62e750fa810b090c094dc2f0","freq","img/green_2bandit_b2.png","70","70","test","1","24","24","2","",""
"null","259892","pSARL_v2","pSARL_v27av7451j","62e750fa810b090c094dc2f0","freq_resp","img/green_2bandit_b.png","70","70","test","","","","2","",""
"null","260056","pSARL_v2","pSARL_v27av7451j","62e750fa810b090c094dc2f0","fixation","img/fixation.png","null","","test","","","","","",""
"530.0999999940395","260591","pSARL_v2","pSARL_v27av7451j","62e750fa810b090c094dc2f0","freq","img/green_2bandit_b2.png","70","70","test","1","25","25","2","",""
"null","260877","pSARL_v2","pSARL_v27av7451j","62e750fa810b090c094dc2f0","freq_resp","img/green_2bandit_b.png","70","70","test","","","","2","",""
"null","261033","pSARL_v2","pSARL_v27av7451j","62e750fa810b090c094dc2f0","fixation","img/fixation.png","null","","test","","","","","",""
"337","261374","pSARL_v2","pSARL_v27av7451j","62e750fa810b090c094dc2f0","freq","img/green_2bandit_b2.png","70","70","test","1","26","26","2","",""
"null","261855","pSARL_v2","pSARL_v27av7451j","62e750fa810b090c094dc2f0","freq_resp","img/green_2bandit_b.png","70","70","test","","","","2","",""
"null","262011","pSARL_v2","pSARL_v27av7451j","62e750fa810b090c094dc2f0","fixation","img/fixation.png","null","","test","","","","","",""
"318.90000000596046","262334","pSARL_v2","pSARL_v27av7451j","62e750fa810b090c094dc2f0","freq","img/green_2bandit_b2.png","70","70","test","1","27","27","2","",""
"null","262821","pSARL_v2","pSARL_v27av7451j","62e750fa810b090c094dc2f0","freq_resp","img/green_2bandit_b.png","70","70","test","","","","2","",""
"null","262988","pSARL_v2","pSARL_v27av7451j","62e750fa810b090c094dc2f0","fixation","img/fixation.png","null","","test","","","","","",""
"332.5","263327","pSARL_v2","pSARL_v27av7451j","62e750fa810b090c094dc2f0","freq","img/green_2bandit_b2.png","70","70","test","1","28","28","2","",""
"null","263801","pSARL_v2","pSARL_v27av7451j","62e750fa810b090c094dc2f0","freq_resp","img/green_2bandit_b.png","70","70","test","","","","2","",""
"null","263971","pSARL_v2","pSARL_v27av7451j","62e750fa810b090c094dc2f0","fixation","img/fixation.png","null","","test","","","","","",""
"335.40000000596046","264311","pSARL_v2","pSARL_v27av7451j","62e750fa810b090c094dc2f0","freq","img/green_2bandit_b2.png","70","70","test","1","29","29","2","",""
"null","264785","pSARL_v2","pSARL_v27av7451j","62e750fa810b090c094dc2f0","freq_resp","img/green_2bandit_b.png","70","70","test","","","","2","",""
"null","264955","pSARL_v2","pSARL_v27av7451j","62e750fa810b090c094dc2f0","fixation","img/fixation.png","null","","test","","","","","",""
"334.90000000596046","265294","pSARL_v2","pSARL_v27av7451j","62e750fa810b090c094dc2f0","freq","img/green_2bandit_b2.png","70","70","test","1","30","30","2","",""
"null","265773","pSARL_v2","pSARL_v27av7451j","62e750fa810b090c094dc2f0","freq_resp","img/green_2bandit_b.png","70","70","test","","","","2","",""
"null","265930","pSARL_v2","pSARL_v27av7451j","62e750fa810b090c094dc2f0","fixation","img/fixation.png","null","","test","","","","","",""
"344.19999998807907","266278","pSARL_v2","pSARL_v27av7451j","62e750fa810b090c094dc2f0","freq","img/green_2bandit_b2.png","70","70","test","1","31","31","2","",""
"null","266751","pSARL_v2","pSARL_v27av7451j","62e750fa810b090c094dc2f0","freq_resp","img/green_2bandit_b.png","70","70","test","","","","2","",""
"null","266921","pSARL_v2","pSARL_v27av7451j","62e750fa810b090c094dc2f0","fixation","img/fixation.png","null","","test","","","","","",""
"297.60000002384186","267223","pSARL_v2","pSARL_v27av7451j","62e750fa810b090c094dc2f0","freq","img/green_2bandit_b2.png","70","70","test","1","32","32","2","",""
"null","267744","pSARL_v2","pSARL_v27av7451j","62e750fa810b090c094dc2f0","freq_resp","img/green_2bandit_b.png","70","70","test","","","","2","",""
"null","267905","pSARL_v2","pSARL_v27av7451j","62e750fa810b090c094dc2f0","fixation","img/fixation.png","null","","test","","","","","",""
"240.5","268150","pSARL_v2","pSARL_v27av7451j","62e750fa810b090c094dc2f0","freq","img/green_2bandit_b2.png","70","70","test","1","33","33","2","",""
"null","268723","pSARL_v2","pSARL_v27av7451j","62e750fa810b090c094dc2f0","freq_resp","img/green_2bandit_b.png","70","70","test","","","","2","",""
"null","268880","pSARL_v2","pSARL_v27av7451j","62e750fa810b090c094dc2f0","fixation","img/fixation.png","null","","test","","","","","",""
"178.10000002384186","269063","pSARL_v2","pSARL_v27av7451j","62e750fa810b090c094dc2f0","freq","img/green_2bandit_b2.png","70","70","test","1","34","34","2","",""
"null","269702","pSARL_v2","pSARL_v27av7451j","62e750fa810b090c094dc2f0","freq_resp","img/green_2bandit_b.png","70","70","test","","","","2","",""
"null","269871","pSARL_v2","pSARL_v27av7451j","62e750fa810b090c094dc2f0","fixation","img/fixation.png","null","","test","","","","","",""
"179.40000000596046","270055","pSARL_v2","pSARL_v27av7451j","62e750fa810b090c094dc2f0","freq","img/green_2bandit_b2.png","70","70","test","1","35","35","2","",""
"null","270695","pSARL_v2","pSARL_v27av7451j","62e750fa810b090c094dc2f0","freq_resp","img/green_2bandit_b.png","70","70","test","","","","2","",""
"null","270856","pSARL_v2","pSARL_v27av7451j","62e750fa810b090c094dc2f0","fixation","img/fixation.png","null","","test","","","","","",""
"250","271111","pSARL_v2","pSARL_v27av7451j","62e750fa810b090c094dc2f0","infreq","img/orange_2bandit_b2.png","70","68","test","0","36","36","2","",""
"null","271680","pSARL_v2","pSARL_v27av7451j","62e750fa810b090c094dc2f0","infreq_resp","img/orange_2bandit_b.png","70","68","test","","","","2","",""
"null","271839","pSARL_v2","pSARL_v27av7451j","62e750fa810b090c094dc2f0","fixation","img/fixation.png","null","","test","","","","","",""
"475.69999998807907","272319","pSARL_v2","pSARL_v27av7451j","62e750fa810b090c094dc2f0","freq","img/green_2bandit_b2.png","70","70","test","1","37","37","2","",""
"null","272660","pSARL_v2","pSARL_v27av7451j","62e750fa810b090c094dc2f0","freq_resp","img/green_2bandit_b.png","70","70","test","","","","2","",""
"null","272816","pSARL_v2","pSARL_v27av7451j","62e750fa810b090c094dc2f0","fixation","img/fixation.png","null","","test","","","","","",""
"514.5999999940395","273335","pSARL_v2","pSARL_v27av7451j","62e750fa810b090c094dc2f0","freq","img/green_2bandit_b2.png","70","70","test","1","38","38","2","",""
"null","273633","pSARL_v2","pSARL_v27av7451j","62e750fa810b090c094dc2f0","freq_resp","img/green_2bandit_b.png","70","70","test","","","","2","",""
"null","273788","pSARL_v2","pSARL_v27av7451j","62e750fa810b090c094dc2f0","fixation","img/fixation.png","null","","test","","","","","",""
"470.30000001192093","274263","pSARL_v2","pSARL_v27av7451j","62e750fa810b090c094dc2f0","freq","img/green_2bandit_b2.png","70","70","test","1","39","39","2","",""
"null","274602","pSARL_v2","pSARL_v27av7451j","62e750fa810b090c094dc2f0","freq_resp","img/green_2bandit_b.png","70","70","test","","","","2","",""
"null","274771","pSARL_v2","pSARL_v27av7451j","62e750fa810b090c094dc2f0","fixation","img/fixation.png","null","","test","","","","","",""
"431.30000001192093","275207","pSARL_v2","pSARL_v27av7451j","62e750fa810b090c094dc2f0","freq","img/green_2bandit_b2.png","70","70","test","1","40","40","2","",""
"null","275593","pSARL_v2","pSARL_v27av7451j","62e750fa810b090c094dc2f0","freq_resp","img/green_2bandit_b.png","70","70","test","","","","2","",""
"null","275756","pSARL_v2","pSARL_v27av7451j","62e750fa810b090c094dc2f0","fixation","img/fixation.png","null","","test","","","","","",""
"366.90000000596046","276127","pSARL_v2","pSARL_v27av7451j","62e750fa810b090c094dc2f0","freq","img/green_2bandit_b2.png","70","70","test","1","41","41","2","",""
"null","276573","pSARL_v2","pSARL_v27av7451j","62e750fa810b090c094dc2f0","freq_resp","img/green_2bandit_b.png","70","70","test","","","","2","",""
"null","276728","pSARL_v2","pSARL_v27av7451j","62e750fa810b090c094dc2f0","fixation","img/fixation.png","null","","test","","","","","",""
"330.40000000596046","277063","pSARL_v2","pSARL_v27av7451j","62e750fa810b090c094dc2f0","freq","img/green_2bandit_b2.png","70","70","test","1","42","42","2","",""
"null","277549","pSARL_v2","pSARL_v27av7451j","62e750fa810b090c094dc2f0","freq_resp","img/green_2bandit_b.png","70","70","test","","","","2","",""
"null","277705","pSARL_v2","pSARL_v27av7451j","62e750fa810b090c094dc2f0","fixation","img/fixation.png","null","","test","","","","","",""
"345.90000000596046","278055","pSARL_v2","pSARL_v27av7451j","62e750fa810b090c094dc2f0","freq","img/green_2bandit_b2.png","70","70","test","1","43","43","2","",""
"null","278519","pSARL_v2","pSARL_v27av7451j","62e750fa810b090c094dc2f0","freq_resp","img/green_2bandit_b.png","70","70","test","","","","2","",""
"null","278688","pSARL_v2","pSARL_v27av7451j","62e750fa810b090c094dc2f0","fixation","img/fixation.png","null","","test","","","","","",""
"538.6999999880791","279231","pSARL_v2","pSARL_v27av7451j","62e750fa810b090c094dc2f0","reward","img/slot.png","74","","test","","","","","",""
"null","279999","pSARL_v2","pSARL_v27av7451j","62e750fa810b090c094dc2f0","points","<div class=""verylowPoints""> -11 </div>","null","na","test","","","","2","-11","1"
"500.30000001192093","280503","pSARL_v2","pSARL_v27av7451j","62e750fa810b090c094dc2f0","freq","img/green_2bandit_b2.png","70","70","test","1","44","44","3","",""
"null","280820","pSARL_v2","pSARL_v27av7451j","62e750fa810b090c094dc2f0","freq_resp","img/green_2bandit_b.png","70","70","test","","","","3","",""
"null","280976","pSARL_v2","pSARL_v27av7451j","62e750fa810b090c094dc2f0","fixation","img/fixation.png","null","","test","","","","","",""
"570.7999999821186","281551","pSARL_v2","pSARL_v27av7451j","62e750fa810b090c094dc2f0","freq","img/green_2bandit_b2.png","70","70","test","1","45","45","3","",""
"null","281794","pSARL_v2","pSARL_v27av7451j","62e750fa810b090c094dc2f0","freq_resp","img/green_2bandit_b.png","70","70","test","","","","3","",""
"null","281948","pSARL_v2","pSARL_v27av7451j","62e750fa810b090c094dc2f0","fixation","img/fixation.png","null","","test","","","","","",""
"550.7000000178814","282503","pSARL_v2","pSARL_v27av7451j","62e750fa810b090c094dc2f0","freq","img/green_2bandit_b2.png","70","70","test","1","46","46","3","",""
"null","282767","pSARL_v2","pSARL_v27av7451j","62e750fa810b090c094dc2f0","freq_resp","img/green_2bandit_b.png","70","70","test","","","","3","",""
"null","282923","pSARL_v2","pSARL_v27av7451j","62e750fa810b090c094dc2f0","fixation","img/fixation.png","null","","test","","","","","",""
"479.80000001192093","283407","pSARL_v2","pSARL_v27av7451j","62e750fa810b090c094dc2f0","freq","img/green_2bandit_b2.png","70","70","test","1","47","47","3","",""
"null","283744","pSARL_v2","pSARL_v27av7451j","62e750fa810b090c094dc2f0","freq_resp","img/green_2bandit_b.png","70","70","test","","","","3","",""
"null","283914","pSARL_v2","pSARL_v27av7451j","62e750fa810b090c094dc2f0","fixation","img/fixation.png","null","","test","","","","","",""
"584.9000000059605","284503","pSARL_v2","pSARL_v27av7451j","62e750fa810b090c094dc2f0","freq","img/green_2bandit_b2.png","70","70","test","1","48","48","3","",""
"null","284734","pSARL_v2","pSARL_v27av7451j","62e750fa810b090c094dc2f0","freq_resp","img/green_2bandit_b.png","70","70","test","","","","3","",""
"null","284905","pSARL_v2","pSARL_v27av7451j","62e750fa810b090c094dc2f0","fixation","img/fixation.png","null","","test","","","","","",""
"394","285303","pSARL_v2","pSARL_v27av7451j","62e750fa810b090c094dc2f0","freq","img/green_2bandit_b2.png","70","70","test","1","49","49","3","",""
"null","285722","pSARL_v2","pSARL_v27av7451j","62e750fa810b090c094dc2f0","freq_resp","img/green_2bandit_b.png","70","70","test","","","","3","",""
"null","285889","pSARL_v2","pSARL_v27av7451j","62e750fa810b090c094dc2f0","fixation","img/fixation.png","null","","test","","","","","",""
"377.80000001192093","286271","pSARL_v2","pSARL_v27av7451j","62e750fa810b090c094dc2f0","freq","img/green_2bandit_b2.png","70","70","test","1","50","50","3","",""
"null","286705","pSARL_v2","pSARL_v27av7451j","62e750fa810b090c094dc2f0","freq_resp","img/green_2bandit_b.png","70","70","test","","","","3","",""
"null","286875","pSARL_v2","pSARL_v27av7451j","62e750fa810b090c094dc2f0","fixation","img/fixation.png","null","","test","","","","","",""
"472","287351","pSARL_v2","pSARL_v27av7451j","62e750fa810b090c094dc2f0","freq","img/green_2bandit_b2.png","70","70","test","1","51","51","3","",""
"null","287696","pSARL_v2","pSARL_v27av7451j","62e750fa810b090c094dc2f0","freq_resp","img/green_2bandit_b.png","70","70","test","","","","3","",""
"null","287850","pSARL_v2","pSARL_v27av7451j","62e750fa810b090c094dc2f0","fixation","img/fixation.png","null","","test","","","","","",""
"416.69999998807907","288271","pSARL_v2","pSARL_v27av7451j","62e750fa810b090c094dc2f0","freq","img/green_2bandit_b2.png","70","70","test","1","52","52","3","",""
"null","288667","pSARL_v2","pSARL_v27av7451j","62e750fa810b090c094dc2f0","freq_resp","img/green_2bandit_b.png","70","70","test","","","","3","",""
"null","288823","pSARL_v2","pSARL_v27av7451j","62e750fa810b090c094dc2f0","fixation","img/fixation.png","null","","test","","","","","",""
"364.19999998807907","289192","pSARL_v2","pSARL_v27av7451j","62e750fa810b090c094dc2f0","freq","img/green_2bandit_b2.png","70","70","test","1","53","53","3","",""
"null","289642","pSARL_v2","pSARL_v27av7451j","62e750fa810b090c094dc2f0","freq_resp","img/green_2bandit_b.png","70","70","test","","","","3","",""
"null","289798","pSARL_v2","pSARL_v27av7451j","62e750fa810b090c094dc2f0","fixation","img/fixation.png","null","","test","","","","","",""
"308.69999998807907","290111","pSARL_v2","pSARL_v27av7451j","62e750fa810b090c094dc2f0","freq","img/green_2bandit_b2.png","70","70","test","1","54","54","3","",""
"null","290617","pSARL_v2","pSARL_v27av7451j","62e750fa810b090c094dc2f0","freq_resp","img/green_2bandit_b.png","70","70","test","","","","3","",""
"null","290773","pSARL_v2","pSARL_v27av7451j","62e750fa810b090c094dc2f0","fixation","img/fixation.png","null","","test","","","","","",""
"270.19999998807907","291048","pSARL_v2","pSARL_v27av7451j","62e750fa810b090c094dc2f0","freq","img/green_2bandit_b2.png","70","70","test","1","55","55","3","",""
"null","291597","pSARL_v2","pSARL_v27av7451j","62e750fa810b090c094dc2f0","freq_resp","img/green_2bandit_b.png","70","70","test","","","","3","",""
"null","291756","pSARL_v2","pSARL_v27av7451j","62e750fa810b090c094dc2f0","fixation","img/fixation.png","null","","test","","","","","",""
"238.89999997615814","292000","pSARL_v2","pSARL_v27av7451j","62e750fa810b090c094dc2f0","freq","img/green_2bandit_b2.png","70","70","test","1","56","56","3","",""
"null","292573","pSARL_v2","pSARL_v27av7451j","62e750fa810b090c094dc2f0","freq_resp","img/green_2bandit_b.png","70","70","test","","","","3","",""
"null","292729","pSARL_v2","pSARL_v27av7451j","62e750fa810b090c094dc2f0","fixation","img/fixation.png","null","","test","","","","","",""
"226.2999999821186","292960","pSARL_v2","pSARL_v27av7451j","62e750fa810b090c094dc2f0","freq","img/green_2bandit_b2.png","70","70","test","1","57","57","3","",""
"null","293549","pSARL_v2","pSARL_v27av7451j","62e750fa810b090c094dc2f0","freq_resp","img/green_2bandit_b.png","70","70","test","","","","3","",""
"null","293704","pSARL_v2","pSARL_v27av7451j","62e750fa810b090c094dc2f0","fixation","img/fixation.png","null","","test","","","","","",""
"394.69999998807907","294104","pSARL_v2","pSARL_v27av7451j","62e750fa810b090c094dc2f0","infreq","img/orange_2bandit_b2.png","68","68","test","1","58","58","3","",""
"null","294522","pSARL_v2","pSARL_v27av7451j","62e750fa810b090c094dc2f0","infreq_resp","img/orange_2bandit_b.png","68","68","test","","","","3","",""
"null","294690","pSARL_v2","pSARL_v27av7451j","62e750fa810b090c094dc2f0","fixation","img/fixation.png","null","","test","","","","","",""
"329.5","295024","pSARL_v2","pSARL_v27av7451j","62e750fa810b090c094dc2f0","freq","img/green_2bandit_b2.png","70","70","test","1","59","59","3","",""
"null","295504","pSARL_v2","pSARL_v27av7451j","62e750fa810b090c094dc2f0","freq_resp","img/green_2bandit_b.png","70","70","test","","","","3","",""
"null","295672","pSARL_v2","pSARL_v27av7451j","62e750fa810b090c094dc2f0","fixation","img/fixation.png","null","","test","","","","","",""
"571.5999999940395","296248","pSARL_v2","pSARL_v27av7451j","62e750fa810b090c094dc2f0","freq","img/green_2bandit_b2.png","70","70","test","1","60","60","3","",""
"null","296491","pSARL_v2","pSARL_v27av7451j","62e750fa810b090c094dc2f0","freq_resp","img/green_2bandit_b.png","70","70","test","","","","3","",""
"null","296646","pSARL_v2","pSARL_v27av7451j","62e750fa810b090c094dc2f0","fixation","img/fixation.png","null","","test","","","","","",""
"412.59999999403954","297063","pSARL_v2","pSARL_v27av7451j","62e750fa810b090c094dc2f0","freq","img/green_2bandit_b2.png","70","70","test","1","61","61","3","",""
"null","297465","pSARL_v2","pSARL_v27av7451j","62e750fa810b090c094dc2f0","freq_resp","img/green_2bandit_b.png","70","70","test","","","","3","",""
"null","297621","pSARL_v2","pSARL_v27av7451j","62e750fa810b090c094dc2f0","fixation","img/fixation.png","null","","test","","","","","",""
"278.2000000178814","297904","pSARL_v2","pSARL_v27av7451j","62e750fa810b090c094dc2f0","freq","img/green_2bandit_b2.png","70","70","test","1","62","62","3","",""
"null","298435","pSARL_v2","pSARL_v27av7451j","62e750fa810b090c094dc2f0","freq_resp","img/green_2bandit_b.png","70","70","test","","","","3","",""
"null","298591","pSARL_v2","pSARL_v27av7451j","62e750fa810b090c094dc2f0","fixation","img/fixation.png","null","","test","","","","","",""
"244.69999998807907","298840","pSARL_v2","pSARL_v27av7451j","62e750fa810b090c094dc2f0","freq","img/green_2bandit_b2.png","70","70","test","1","63","63","3","",""
"null","299412","pSARL_v2","pSARL_v27av7451j","62e750fa810b090c094dc2f0","freq_resp","img/green_2bandit_b.png","70","70","test","","","","3","",""
"null","299573","pSARL_v2","pSARL_v27av7451j","62e750fa810b090c094dc2f0","fixation","img/fixation.png","null","","test","","","","","",""
"134.2000000178814","299712","pSARL_v2","pSARL_v27av7451j","62e750fa810b090c094dc2f0","freq","img/green_2bandit_b2.png","70","70","test","1","64","64","3","",""
"null","300386","pSARL_v2","pSARL_v27av7451j","62e750fa810b090c094dc2f0","freq_resp","img/green_2bandit_b.png","70","70","test","","","","3","",""
"null","300542","pSARL_v2","pSARL_v27av7451j","62e750fa810b090c094dc2f0","fixation","img/fixation.png","null","","test","","","","","",""
"109.40000000596046","300656","pSARL_v2","pSARL_v27av7451j","62e750fa810b090c094dc2f0","infreq","img/orange_2bandit_b2.png","70","68","test","0","65","65","3","",""
"null","301360","pSARL_v2","pSARL_v27av7451j","62e750fa810b090c094dc2f0","infreq_resp","img/orange_2bandit_b.png","70","68","test","","","","3","",""
"null","301514","pSARL_v2","pSARL_v27av7451j","62e750fa810b090c094dc2f0","fixation","img/fixation.png","null","","test","","","","","",""
"505.09999999403954","302024","pSARL_v2","pSARL_v27av7451j","62e750fa810b090c094dc2f0","freq","img/green_2bandit_b2.png","70","70","test","1","66","66","3","",""
"null","302325","pSARL_v2","pSARL_v27av7451j","62e750fa810b090c094dc2f0","freq_resp","img/green_2bandit_b.png","70","70","test","","","","3","",""
"null","302490","pSARL_v2","pSARL_v27av7451j","62e750fa810b090c094dc2f0","fixation","img/fixation.png","null","","test","","","","","",""
"545.8000000119209","303040","pSARL_v2","pSARL_v27av7451j","62e750fa810b090c094dc2f0","reward","img/slot.png","74","","test","","","","","",""
"null","303800","pSARL_v2","pSARL_v27av7451j","62e750fa810b090c094dc2f0","points","<div class=""verylowPoints""> -7 </div>","null","na","test","","","","3","-7","2"
"388.19999998807907","304192","pSARL_v2","pSARL_v27av7451j","62e750fa810b090c094dc2f0","freq","img/green_2bandit_b2.png","70","70","test","1","67","67","4","",""
"null","304621","pSARL_v2","pSARL_v27av7451j","62e750fa810b090c094dc2f0","freq_resp","img/green_2bandit_b.png","70","70","test","","","","4","",""
"null","304791","pSARL_v2","pSARL_v27av7451j","62e750fa810b090c094dc2f0","fixation","img/fixation.png","null","","test","","","","","",""
"421","305216","pSARL_v2","pSARL_v27av7451j","62e750fa810b090c094dc2f0","freq","img/green_2bandit_b2.png","70","70","test","1","68","68","4","",""
"null","305607","pSARL_v2","pSARL_v27av7451j","62e750fa810b090c094dc2f0","freq_resp","img/green_2bandit_b.png","70","70","test","","","","4","",""
"null","305762","pSARL_v2","pSARL_v27av7451j","62e750fa810b090c094dc2f0","fixation","img/fixation.png","null","","test","","","","","",""
"449.5","306216","pSARL_v2","pSARL_v27av7451j","62e750fa810b090c094dc2f0","freq","img/green_2bandit_b2.png","70","70","test","1","69","69","4","",""
"null","306577","pSARL_v2","pSARL_v27av7451j","62e750fa810b090c094dc2f0","freq_resp","img/green_2bandit_b.png","70","70","test","","","","4","",""
"null","306739","pSARL_v2","pSARL_v27av7451j","62e750fa810b090c094dc2f0","fixation","img/fixation.png","null","","test","","","","","",""
"392.80000001192093","307136","pSARL_v2","pSARL_v27av7451j","62e750fa810b090c094dc2f0","freq","img/green_2bandit_b2.png","70","70","test","1","70","70","4","",""
"null","307555","pSARL_v2","pSARL_v27av7451j","62e750fa810b090c094dc2f0","freq_resp","img/green_2bandit_b.png","70","70","test","","","","4","",""
"null","307722","pSARL_v2","pSARL_v27av7451j","62e750fa810b090c094dc2f0","fixation","img/fixation.png","null","","test","","","","","",""
"338.09999999403954","308064","pSARL_v2","pSARL_v27av7451j","62e750fa810b090c094dc2f0","freq","img/green_2bandit_b2.png","70","70","test","1","71","71","4","",""
"null","308532","pSARL_v2","pSARL_v27av7451j","62e750fa810b090c094dc2f0","freq_resp","img/green_2bandit_b.png","70","70","test","","","","4","",""
"null","308701","pSARL_v2","pSARL_v27av7451j","62e750fa810b090c094dc2f0","fixation","img/fixation.png","null","","test","","","","","",""
"263.40000000596046","308968","pSARL_v2","pSARL_v27av7451j","62e750fa810b090c094dc2f0","freq","img/green_2bandit_b2.png","70","70","test","1","72","72","4","",""
"null","309519","pSARL_v2","pSARL_v27av7451j","62e750fa810b090c094dc2f0","freq_resp","img/green_2bandit_b.png","70","70","test","","","","4","",""
"null","309674","pSARL_v2","pSARL_v27av7451j","62e750fa810b090c094dc2f0","fixation","img/fixation.png","null","","test","","","","","",""
"274.09999999403954","309952","pSARL_v2","pSARL_v27av7451j","62e750fa810b090c094dc2f0","freq","img/green_2bandit_b2.png","70","70","test","1","73","73","4","",""
"null","310498","pSARL_v2","pSARL_v27av7451j","62e750fa810b090c094dc2f0","freq_resp","img/green_2bandit_b.png","70","70","test","","","","4","",""
"null","310656","pSARL_v2","pSARL_v27av7451j","62e750fa810b090c094dc2f0","fixation","img/fixation.png","null","","test","","","","","",""
"396.09999999403954","311056","pSARL_v2","pSARL_v27av7451j","62e750fa810b090c094dc2f0","infreq","img/orange_2bandit_b2.png","68","68","test","1","74","74","4","",""
"null","311472","pSARL_v2","pSARL_v27av7451j","62e750fa810b090c094dc2f0","infreq_resp","img/orange_2bandit_b.png","68","68","test","","","","4","",""
"null","311638","pSARL_v2","pSARL_v27av7451j","62e750fa810b090c094dc2f0","fixation","img/fixation.png","null","","test","","","","","",""
"301.80000001192093","311944","pSARL_v2","pSARL_v27av7451j","62e750fa810b090c094dc2f0","freq","img/green_2bandit_b2.png","70","70","test","1","75","75","4","",""
"null","312461","pSARL_v2","pSARL_v27av7451j","62e750fa810b090c094dc2f0","freq_resp","img/green_2bandit_b.png","70","70","test","","","","4","",""
"null","312615","pSARL_v2","pSARL_v27av7451j","62e750fa810b090c094dc2f0","fixation","img/fixation.png","null","","test","","","","","",""
"316.7000000178814","312937","pSARL_v2","pSARL_v27av7451j","62e750fa810b090c094dc2f0","freq","img/green_2bandit_b2.png","70","70","test","1","76","76","4","",""
"null","313437","pSARL_v2","pSARL_v27av7451j","62e750fa810b090c094dc2f0","freq_resp","img/green_2bandit_b.png","70","70","test","","","","4","",""
"null","313607","pSARL_v2","pSARL_v27av7451j","62e750fa810b090c094dc2f0","fixation","img/fixation.png","null","","test","","","","","",""
"301.09999999403954","313912","pSARL_v2","pSARL_v27av7451j","62e750fa810b090c094dc2f0","freq","img/green_2bandit_b2.png","70","70","test","1","77","77","4","",""
"null","314420","pSARL_v2","pSARL_v27av7451j","62e750fa810b090c094dc2f0","freq_resp","img/green_2bandit_b.png","70","70","test","","","","4","",""
"null","314589","pSARL_v2","pSARL_v27av7451j","62e750fa810b090c094dc2f0","fixation","img/fixation.png","null","","test","","","","","",""
"279.59999999403954","314873","pSARL_v2","pSARL_v27av7451j","62e750fa810b090c094dc2f0","freq","img/green_2bandit_b2.png","70","70","test","1","78","78","4","",""
"null","315398","pSARL_v2","pSARL_v27av7451j","62e750fa810b090c094dc2f0","freq_resp","img/green_2bandit_b.png","70","70","test","","","","4","",""
"null","315556","pSARL_v2","pSARL_v27av7451j","62e750fa810b090c094dc2f0","fixation","img/fixation.png","null","","test","","","","","",""
"232.09999999403954","315793","pSARL_v2","pSARL_v27av7451j","62e750fa810b090c094dc2f0","freq","img/green_2bandit_b2.png","70","70","test","1","79","79","4","",""
"null","316375","pSARL_v2","pSARL_v27av7451j","62e750fa810b090c094dc2f0","freq_resp","img/green_2bandit_b.png","70","70","test","","","","4","",""
"null","316545","pSARL_v2","pSARL_v27av7451j","62e750fa810b090c094dc2f0","fixation","img/fixation.png","null","","test","","","","","",""
"275.2999999821186","316825","pSARL_v2","pSARL_v27av7451j","62e750fa810b090c094dc2f0","freq","img/green_2bandit_b2.png","70","70","test","1","80","80","4","",""
"null","317366","pSARL_v2","pSARL_v27av7451j","62e750fa810b090c094dc2f0","freq_resp","img/green_2bandit_b.png","70","70","test","","","","4","",""
"null","317522","pSARL_v2","pSARL_v27av7451j","62e750fa810b090c094dc2f0","fixation","img/fixation.png","null","","test","","","","","",""
"242.19999998807907","317768","pSARL_v2","pSARL_v27av7451j","62e750fa810b090c094dc2f0","freq","img/green_2bandit_b2.png","70","70","test","1","81","81","4","",""
"null","318342","pSARL_v2","pSARL_v27av7451j","62e750fa810b090c094dc2f0","freq_resp","img/green_2bandit_b.png","70","70","test","","","","4","",""
"null","318506","pSARL_v2","pSARL_v27av7451j","62e750fa810b090c094dc2f0","fixation","img/fixation.png","null","","test","","","","","",""
"298","318809","pSARL_v2","pSARL_v27av7451j","62e750fa810b090c094dc2f0","freq","img/green_2bandit_b2.png","70","70","test","1","82","82","4","",""
"null","319317","pSARL_v2","pSARL_v27av7451j","62e750fa810b090c094dc2f0","freq_resp","img/green_2bandit_b.png","70","70","test","","","","4","",""
"null","319473","pSARL_v2","pSARL_v27av7451j","62e750fa810b090c094dc2f0","fixation","img/fixation.png","null","","test","","","","","",""
"299.40000000596046","319777","pSARL_v2","pSARL_v27av7451j","62e750fa810b090c094dc2f0","freq","img/green_2bandit_b2.png","70","70","test","1","83","83","4","",""
"null","320282","pSARL_v2","pSARL_v27av7451j","62e750fa810b090c094dc2f0","freq_resp","img/green_2bandit_b.png","70","70","test","","","","4","",""
"null","320450","pSARL_v2","pSARL_v27av7451j","62e750fa810b090c094dc2f0","fixation","img/fixation.png","null","","test","","","","","",""
"401.5","320857","pSARL_v2","pSARL_v27av7451j","62e750fa810b090c094dc2f0","infreq","img/orange_2bandit_b2.png","68","68","test","1","84","84","4","",""
"null","321268","pSARL_v2","pSARL_v27av7451j","62e750fa810b090c094dc2f0","infreq_resp","img/orange_2bandit_b.png","68","68","test","","","","4","",""
"null","321423","pSARL_v2","pSARL_v27av7451j","62e750fa810b090c094dc2f0","fixation","img/fixation.png","null","","test","","","","","",""
"340.89999997615814","321769","pSARL_v2","pSARL_v27av7451j","62e750fa810b090c094dc2f0","freq","img/green_2bandit_b2.png","70","70","test","1","85","85","4","",""
"null","322247","pSARL_v2","pSARL_v27av7451j","62e750fa810b090c094dc2f0","freq_resp","img/green_2bandit_b.png","70","70","test","","","","4","",""
"null","322406","pSARL_v2","pSARL_v27av7451j","62e750fa810b090c094dc2f0","fixation","img/fixation.png","null","","test","","","","","",""
"302","322713","pSARL_v2","pSARL_v27av7451j","62e750fa810b090c094dc2f0","freq","img/green_2bandit_b2.png","70","70","test","1","86","86","4","",""
"null","323218","pSARL_v2","pSARL_v27av7451j","62e750fa810b090c094dc2f0","freq_resp","img/green_2bandit_b.png","70","70","test","","","","4","",""
"null","323389","pSARL_v2","pSARL_v27av7451j","62e750fa810b090c094dc2f0","fixation","img/fixation.png","null","","test","","","","","",""
"304","323697","pSARL_v2","pSARL_v27av7451j","62e750fa810b090c094dc2f0","freq","img/green_2bandit_b2.png","70","70","test","1","87","87","4","",""
"null","324200","pSARL_v2","pSARL_v27av7451j","62e750fa810b090c094dc2f0","freq_resp","img/green_2bandit_b.png","70","70","test","","","","4","",""
"null","324357","pSARL_v2","pSARL_v27av7451j","62e750fa810b090c094dc2f0","fixation","img/fixation.png","null","","test","","","","","",""
"264","324625","pSARL_v2","pSARL_v27av7451j","62e750fa810b090c094dc2f0","freq","img/green_2bandit_b2.png","70","70","test","1","88","88","4","",""
"null","325180","pSARL_v2","pSARL_v27av7451j","62e750fa810b090c094dc2f0","freq_resp","img/green_2bandit_b.png","70","70","test","","","","4","",""
"null","325341","pSARL_v2","pSARL_v27av7451j","62e750fa810b090c094dc2f0","fixation","img/fixation.png","null","","test","","","","","",""
"239.59999999403954","325585","pSARL_v2","pSARL_v27av7451j","62e750fa810b090c094dc2f0","freq","img/green_2bandit_b2.png","70","70","test","1","89","89","4","",""
"null","326161","pSARL_v2","pSARL_v27av7451j","62e750fa810b090c094dc2f0","freq_resp","img/green_2bandit_b.png","70","70","test","","","","4","",""
"null","326317","pSARL_v2","pSARL_v27av7451j","62e750fa810b090c094dc2f0","fixation","img/fixation.png","null","","test","","","","","",""
"248","326569","pSARL_v2","pSARL_v27av7451j","62e750fa810b090c094dc2f0","freq","img/green_2bandit_b2.png","70","70","test","1","90","90","4","",""
"null","327139","pSARL_v2","pSARL_v27av7451j","62e750fa810b090c094dc2f0","freq_resp","img/green_2bandit_b.png","70","70","test","","","","4","",""
"null","327294","pSARL_v2","pSARL_v27av7451j","62e750fa810b090c094dc2f0","fixation","img/fixation.png","null","","test","","","","","",""
"238.69999998807907","327537","pSARL_v2","pSARL_v27av7451j","62e750fa810b090c094dc2f0","freq","img/green_2bandit_b2.png","70","70","test","1","91","91","4","",""
"null","328107","pSARL_v2","pSARL_v27av7451j","62e750fa810b090c094dc2f0","freq_resp","img/green_2bandit_b.png","70","70","test","","","","4","",""
"null","328272","pSARL_v2","pSARL_v27av7451j","62e750fa810b090c094dc2f0","fixation","img/fixation.png","null","","test","","","","","",""
"612.4000000059605","328890","pSARL_v2","pSARL_v27av7451j","62e750fa810b090c094dc2f0","reward","img/slot.png","74","","test","","","","","",""
"null","329651","pSARL_v2","pSARL_v27av7451j","62e750fa810b090c094dc2f0","points","<div class=""verylowPoints""> -3 </div>","null","na","test","","","","4","-3","3"
"642.1999999880791","330297","pSARL_v2","pSARL_v27av7451j","62e750fa810b090c094dc2f0","freq","img/green_2bandit_b2.png","70","70","test","1","92","92","5","",""
"null","330462","pSARL_v2","pSARL_v27av7451j","62e750fa810b090c094dc2f0","freq_resp","img/green_2bandit_b.png","70","70","test","","","","5","",""
"null","330617","pSARL_v2","pSARL_v27av7451j","62e750fa810b090c094dc2f0","fixation","img/fixation.png","null","","test","","","","","",""
"683.5999999940395","331305","pSARL_v2","pSARL_v27av7451j","62e750fa810b090c094dc2f0","freq","img/green_2bandit_b2.png","70","70","test","1","93","93","5","",""
"null","331436","pSARL_v2","pSARL_v27av7451j","62e750fa810b090c094dc2f0","freq_resp","img/green_2bandit_b.png","70","70","test","","","","5","",""
"null","331592","pSARL_v2","pSARL_v27av7451j","62e750fa810b090c094dc2f0","fixation","img/fixation.png","null","","test","","","","","",""
"621","332217","pSARL_v2","pSARL_v27av7451j","62e750fa810b090c094dc2f0","freq","img/green_2bandit_b2.png","70","70","test","1","94","94","5","",""
"null","332405","pSARL_v2","pSARL_v27av7451j","62e750fa810b090c094dc2f0","freq_resp","img/green_2bandit_b.png","70","70","test","","","","5","",""
"null","332573","pSARL_v2","pSARL_v27av7451j","62e750fa810b090c094dc2f0","fixation","img/fixation.png","null","","test","","","","","",""
"575.7999999821186","333153","pSARL_v2","pSARL_v27av7451j","62e750fa810b090c094dc2f0","infreq","img/orange_2bandit_b2.png","68","68","test","1","95","95","5","",""
"null","333385","pSARL_v2","pSARL_v27av7451j","62e750fa810b090c094dc2f0","infreq_resp","img/orange_2bandit_b.png","68","68","test","","","","5","",""
"null","333542","pSARL_v2","pSARL_v27av7451j","62e750fa810b090c094dc2f0","fixation","img/fixation.png","null","","test","","","","","",""
"430.7000000178814","333977","pSARL_v2","pSARL_v27av7451j","62e750fa810b090c094dc2f0","freq","img/green_2bandit_b2.png","70","70","test","1","96","96","5","",""
"null","334356","pSARL_v2","pSARL_v27av7451j","62e750fa810b090c094dc2f0","freq_resp","img/green_2bandit_b.png","70","70","test","","","","5","",""
"null","334511","pSARL_v2","pSARL_v27av7451j","62e750fa810b090c094dc2f0","fixation","img/fixation.png","null","","test","","","","","",""
"502.2000000178814","335017","pSARL_v2","pSARL_v27av7451j","62e750fa810b090c094dc2f0","infreq","img/orange_2bandit_b2.png","68","68","test","1","97","97","5","",""
"null","335329","pSARL_v2","pSARL_v27av7451j","62e750fa810b090c094dc2f0","infreq_resp","img/orange_2bandit_b.png","68","68","test","","","","5","",""
"null","335485","pSARL_v2","pSARL_v27av7451j","62e750fa810b090c094dc2f0","fixation","img/fixation.png","null","","test","","","","","",""
"376.09999999403954","335865","pSARL_v2","pSARL_v27av7451j","62e750fa810b090c094dc2f0","freq","img/green_2bandit_b2.png","70","70","test","1","98","98","5","",""
"null","336295","pSARL_v2","pSARL_v27av7451j","62e750fa810b090c094dc2f0","freq_resp","img/green_2bandit_b.png","70","70","test","","","","5","",""
"null","336457","pSARL_v2","pSARL_v27av7451j","62e750fa810b090c094dc2f0","fixation","img/fixation.png","null","","test","","","","","",""
"396.10000002384186","336857","pSARL_v2","pSARL_v27av7451j","62e750fa810b090c094dc2f0","freq","img/green_2bandit_b2.png","70","70","test","1","99","99","5","",""
"null","337272","pSARL_v2","pSARL_v27av7451j","62e750fa810b090c094dc2f0","freq_resp","img/green_2bandit_b.png","70","70","test","","","","5","",""
"null","337439","pSARL_v2","pSARL_v27av7451j","62e750fa810b090c094dc2f0","fixation","img/fixation.png","null","","test","","","","","",""
"365.60000002384186","337810","pSARL_v2","pSARL_v27av7451j","62e750fa810b090c094dc2f0","freq","img/green_2bandit_b2.png","70","70","test","1","100","100","5","",""
"null","338253","pSARL_v2","pSARL_v27av7451j","62e750fa810b090c094dc2f0","freq_resp","img/green_2bandit_b.png","70","70","test","","","","5","",""
"null","338409","pSARL_v2","pSARL_v27av7451j","62e750fa810b090c094dc2f0","fixation","img/fixation.png","null","","test","","","","","",""
"300.19999998807907","338713","pSARL_v2","pSARL_v27av7451j","62e750fa810b090c094dc2f0","freq","img/green_2bandit_b2.png","70","70","test","1","101","101","5","",""
"null","339226","pSARL_v2","pSARL_v27av7451j","62e750fa810b090c094dc2f0","freq_resp","img/green_2bandit_b.png","70","70","test","","","","5","",""
"null","339381","pSARL_v2","pSARL_v27av7451j","62e750fa810b090c094dc2f0","fixation","img/fixation.png","null","","test","","","","","",""
"312","339697","pSARL_v2","pSARL_v27av7451j","62e750fa810b090c094dc2f0","freq","img/green_2bandit_b2.png","70","70","test","1","102","102","5","",""
"null","340201","pSARL_v2","pSARL_v27av7451j","62e750fa810b090c094dc2f0","freq_resp","img/green_2bandit_b.png","70","70","test","","","","5","",""
"null","340357","pSARL_v2","pSARL_v27av7451j","62e750fa810b090c094dc2f0","fixation","img/fixation.png","null","","test","","","","","",""
"271.90000000596046","340633","pSARL_v2","pSARL_v27av7451j","62e750fa810b090c094dc2f0","freq","img/green_2bandit_b2.png","70","70","test","1","103","103","5","",""
"null","341181","pSARL_v2","pSARL_v27av7451j","62e750fa810b090c094dc2f0","freq_resp","img/green_2bandit_b.png","70","70","test","","","","5","",""
"null","341340","pSARL_v2","pSARL_v27av7451j","62e750fa810b090c094dc2f0","fixation","img/fixation.png","null","","test","","","","","",""
"288.69999998807907","341633","pSARL_v2","pSARL_v27av7451j","62e750fa810b090c094dc2f0","freq","img/green_2bandit_b2.png","70","70","test","1","104","104","5","",""
"null","342150","pSARL_v2","pSARL_v27av7451j","62e750fa810b090c094dc2f0","freq_resp","img/green_2bandit_b.png","70","70","test","","","","5","",""
"null","342305","pSARL_v2","pSARL_v27av7451j","62e750fa810b090c094dc2f0","fixation","img/fixation.png","null","","test","","","","","",""
"307.90000000596046","342618","pSARL_v2","pSARL_v27av7451j","62e750fa810b090c094dc2f0","freq","img/green_2bandit_b2.png","70","70","test","1","105","105","5","",""
"null","343126","pSARL_v2","pSARL_v27av7451j","62e750fa810b090c094dc2f0","freq_resp","img/green_2bandit_b.png","70","70","test","","","","5","",""
"null","343281","pSARL_v2","pSARL_v27av7451j","62e750fa810b090c094dc2f0","fixation","img/fixation.png","null","","test","","","","","",""
"299.69999998807907","343586","pSARL_v2","pSARL_v27av7451j","62e750fa810b090c094dc2f0","freq","img/green_2bandit_b2.png","70","70","test","1","106","106","5","",""
"null","344107","pSARL_v2","pSARL_v27av7451j","62e750fa810b090c094dc2f0","freq_resp","img/green_2bandit_b.png","70","70","test","","","","5","",""
"null","344273","pSARL_v2","pSARL_v27av7451j","62e750fa810b090c094dc2f0","fixation","img/fixation.png","null","","test","","","","","",""
"236.5","344514","pSARL_v2","pSARL_v27av7451j","62e750fa810b090c094dc2f0","freq","img/green_2bandit_b2.png","70","70","test","1","107","107","5","",""
"null","345092","pSARL_v2","pSARL_v27av7451j","62e750fa810b090c094dc2f0","freq_resp","img/green_2bandit_b.png","70","70","test","","","","5","",""
"null","345257","pSARL_v2","pSARL_v27av7451j","62e750fa810b090c094dc2f0","fixation","img/fixation.png","null","","test","","","","","",""
"268","345530","pSARL_v2","pSARL_v27av7451j","62e750fa810b090c094dc2f0","freq","img/green_2bandit_b2.png","70","70","test","1","108","108","5","",""
"null","346067","pSARL_v2","pSARL_v27av7451j","62e750fa810b090c094dc2f0","freq_resp","img/green_2bandit_b.png","70","70","test","","","","5","",""
"null","346236","pSARL_v2","pSARL_v27av7451j","62e750fa810b090c094dc2f0","fixation","img/fixation.png","null","","test","","","","","",""
"225.59999999403954","346466","pSARL_v2","pSARL_v27av7451j","62e750fa810b090c094dc2f0","freq","img/green_2bandit_b2.png","70","70","test","1","109","109","5","",""
"null","347055","pSARL_v2","pSARL_v27av7451j","62e750fa810b090c094dc2f0","freq_resp","img/green_2bandit_b.png","70","70","test","","","","5","",""
"null","347226","pSARL_v2","pSARL_v27av7451j","62e750fa810b090c094dc2f0","fixation","img/fixation.png","null","","test","","","","","",""
"267.69999998807907","347498","pSARL_v2","pSARL_v27av7451j","62e750fa810b090c094dc2f0","freq","img/green_2bandit_b2.png","70","70","test","1","110","110","5","",""
"null","348047","pSARL_v2","pSARL_v27av7451j","62e750fa810b090c094dc2f0","freq_resp","img/green_2bandit_b.png","70","70","test","","","","5","",""
"null","348209","pSARL_v2","pSARL_v27av7451j","62e750fa810b090c094dc2f0","fixation","img/fixation.png","null","","test","","","","","",""
"235.89999997615814","348450","pSARL_v2","pSARL_v27av7451j","62e750fa810b090c094dc2f0","freq","img/green_2bandit_b2.png","70","70","test","1","111","111","5","",""
"null","349029","pSARL_v2","pSARL_v27av7451j","62e750fa810b090c094dc2f0","freq_resp","img/green_2bandit_b.png","70","70","test","","","","5","",""
"null","349191","pSARL_v2","pSARL_v27av7451j","62e750fa810b090c094dc2f0","fixation","img/fixation.png","null","","test","","","","","",""
"406.19999998807907","349602","pSARL_v2","pSARL_v27av7451j","62e750fa810b090c094dc2f0","infreq","img/orange_2bandit_b2.png","68","68","test","1","112","112","5","",""
"null","350008","pSARL_v2","pSARL_v27av7451j","62e750fa810b090c094dc2f0","infreq_resp","img/orange_2bandit_b.png","68","68","test","","","","5","",""
"null","350173","pSARL_v2","pSARL_v27av7451j","62e750fa810b090c094dc2f0","fixation","img/fixation.png","null","","test","","","","","",""
"312.59999999403954","350490","pSARL_v2","pSARL_v27av7451j","62e750fa810b090c094dc2f0","freq","img/green_2bandit_b2.png","70","70","test","1","113","113","5","",""
"null","350994","pSARL_v2","pSARL_v27av7451j","62e750fa810b090c094dc2f0","freq_resp","img/green_2bandit_b.png","70","70","test","","","","5","",""
"null","351150","pSARL_v2","pSARL_v27av7451j","62e750fa810b090c094dc2f0","fixation","img/fixation.png","null","","test","","","","","",""
"247.19999998807907","351402","pSARL_v2","pSARL_v27av7451j","62e750fa810b090c094dc2f0","freq","img/green_2bandit_b2.png","70","70","test","1","114","114","5","",""
"null","351971","pSARL_v2","pSARL_v27av7451j","62e750fa810b090c094dc2f0","freq_resp","img/green_2bandit_b.png","70","70","test","","","","5","",""
"null","352139","pSARL_v2","pSARL_v27av7451j","62e750fa810b090c094dc2f0","fixation","img/fixation.png","null","","test","","","","","",""
"530.5999999940395","352674","pSARL_v2","pSARL_v27av7451j","62e750fa810b090c094dc2f0","reward","img/slot.png","74","","test","","","","","",""
"null","353442","pSARL_v2","pSARL_v27av7451j","62e750fa810b090c094dc2f0","points","<div class=""veryhighPoints""> +1 </div>","null","na","test","","","","5","1","4"
"307.5","353754","pSARL_v2","pSARL_v27av7451j","62e750fa810b090c094dc2f0","freq","img/green_2bandit_b2.png","70","70","test","1","115","115","6","",""
"null","354265","pSARL_v2","pSARL_v27av7451j","62e750fa810b090c094dc2f0","freq_resp","img/green_2bandit_b.png","70","70","test","","","","6","",""
"null","354435","pSARL_v2","pSARL_v27av7451j","62e750fa810b090c094dc2f0","fixation","img/fixation.png","null","","test","","","","","",""
"290.40000000596046","354730","pSARL_v2","pSARL_v27av7451j","62e750fa810b090c094dc2f0","freq","img/green_2bandit_b2.png","70","70","test","1","116","116","6","",""
"null","355254","pSARL_v2","pSARL_v27av7451j","62e750fa810b090c094dc2f0","freq_resp","img/green_2bandit_b.png","70","70","test","","","","6","",""
"null","355410","pSARL_v2","pSARL_v27av7451j","62e750fa810b090c094dc2f0","fixation","img/fixation.png","null","","test","","","","","",""
"299.30000001192093","355714","pSARL_v2","pSARL_v27av7451j","62e750fa810b090c094dc2f0","freq","img/green_2bandit_b2.png","70","70","test","1","117","117","6","",""
"null","356232","pSARL_v2","pSARL_v27av7451j","62e750fa810b090c094dc2f0","freq_resp","img/green_2bandit_b.png","70","70","test","","","","6","",""
"null","356391","pSARL_v2","pSARL_v27av7451j","62e750fa810b090c094dc2f0","fixation","img/fixation.png","null","","test","","","","","",""
"286.7999999821186","356682","pSARL_v2","pSARL_v27av7451j","62e750fa810b090c094dc2f0","freq","img/green_2bandit_b2.png","70","70","test","1","118","118","6","",""
"null","357201","pSARL_v2","pSARL_v27av7451j","62e750fa810b090c094dc2f0","freq_resp","img/green_2bandit_b.png","70","70","test","","","","6","",""
"null","357357","pSARL_v2","pSARL_v27av7451j","62e750fa810b090c094dc2f0","fixation","img/fixation.png","null","","test","","","","","",""
"472.2999999821186","357834","pSARL_v2","pSARL_v27av7451j","62e750fa810b090c094dc2f0","infreq","img/orange_2bandit_b2.png","68","68","test","1","119","119","6","",""
"null","358178","pSARL_v2","pSARL_v27av7451j","62e750fa810b090c094dc2f0","infreq_resp","img/orange_2bandit_b.png","68","68","test","","","","6","",""
"null","358333","pSARL_v2","pSARL_v27av7451j","62e750fa810b090c094dc2f0","fixation","img/fixation.png","null","","test","","","","","",""
"321","358658","pSARL_v2","pSARL_v27av7451j","62e750fa810b090c094dc2f0","freq","img/green_2bandit_b2.png","70","70","test","1","120","120","6","",""
"null","359150","pSARL_v2","pSARL_v27av7451j","62e750fa810b090c094dc2f0","freq_resp","img/green_2bandit_b.png","70","70","test","","","","6","",""
"null","359320","pSARL_v2","pSARL_v27av7451j","62e750fa810b090c094dc2f0","fixation","img/fixation.png","null","","test","","","","","",""
"310.2999999821186","359634","pSARL_v2","pSARL_v27av7451j","62e750fa810b090c094dc2f0","freq","img/green_2bandit_b2.png","70","70","test","1","121","121","6","",""
"null","360141","pSARL_v2","pSARL_v27av7451j","62e750fa810b090c094dc2f0","freq_resp","img/green_2bandit_b.png","70","70","test","","","","6","",""
"null","360312","pSARL_v2","pSARL_v27av7451j","62e750fa810b090c094dc2f0","fixation","img/fixation.png","null","","test","","","","","",""
"317.89999997615814","360634","pSARL_v2","pSARL_v27av7451j","62e750fa810b090c094dc2f0","freq","img/green_2bandit_b2.png","70","70","test","1","122","122","6","",""
"null","361134","pSARL_v2","pSARL_v27av7451j","62e750fa810b090c094dc2f0","freq_resp","img/green_2bandit_b.png","70","70","test","","","","6","",""
"null","361303","pSARL_v2","pSARL_v27av7451j","62e750fa810b090c094dc2f0","fixation","img/fixation.png","null","","test","","","","","",""
"294.80000001192093","361602","pSARL_v2","pSARL_v27av7451j","62e750fa810b090c094dc2f0","freq","img/green_2bandit_b2.png","70","70","test","1","123","123","6","",""
"null","362123","pSARL_v2","pSARL_v27av7451j","62e750fa810b090c094dc2f0","freq_resp","img/green_2bandit_b.png","70","70","test","","","","6","",""
"null","362290","pSARL_v2","pSARL_v27av7451j","62e750fa810b090c094dc2f0","fixation","img/fixation.png","null","","test","","","","","",""
"267.80000001192093","362562","pSARL_v2","pSARL_v27av7451j","62e750fa810b090c094dc2f0","freq","img/green_2bandit_b2.png","70","70","test","1","124","124","6","",""
"null","363106","pSARL_v2","pSARL_v27av7451j","62e750fa810b090c094dc2f0","freq_resp","img/green_2bandit_b.png","70","70","test","","","","6","",""
"null","363273","pSARL_v2","pSARL_v27av7451j","62e750fa810b090c094dc2f0","fixation","img/fixation.png","null","","test","","","","","",""
"268.7000000178814","363546","pSARL_v2","pSARL_v27av7451j","62e750fa810b090c094dc2f0","freq","img/green_2bandit_b2.png","70","70","test","1","125","125","6","",""
"null","364083","pSARL_v2","pSARL_v27av7451j","62e750fa810b090c094dc2f0","freq_resp","img/green_2bandit_b.png","70","70","test","","","","6","",""
"null","364244","pSARL_v2","pSARL_v27av7451j","62e750fa810b090c094dc2f0","fixation","img/fixation.png","null","","test","","","","","",""
"250.40000000596046","364498","pSARL_v2","pSARL_v27av7451j","62e750fa810b090c094dc2f0","freq","img/green_2bandit_b2.png","70","70","test","1","126","126","6","",""
"null","365066","pSARL_v2","pSARL_v27av7451j","62e750fa810b090c094dc2f0","freq_resp","img/green_2bandit_b.png","70","70","test","","","","6","",""
"null","365221","pSARL_v2","pSARL_v27av7451j","62e750fa810b090c094dc2f0","fixation","img/fixation.png","null","","test","","","","","",""
"265.40000000596046","365490","pSARL_v2","pSARL_v27av7451j","62e750fa810b090c094dc2f0","freq","img/green_2bandit_b2.png","70","70","test","1","127","127","6","",""
"null","366038","pSARL_v2","pSARL_v27av7451j","62e750fa810b090c094dc2f0","freq_resp","img/green_2bandit_b.png","70","70","test","","","","6","",""
"null","366201","pSARL_v2","pSARL_v27av7451j","62e750fa810b090c094dc2f0","fixation","img/fixation.png","null","","test","","","","","",""
"285.5","366490","pSARL_v2","pSARL_v27av7451j","62e750fa810b090c094dc2f0","freq","img/green_2bandit_b2.png","70","70","test","1","128","128","6","",""
"null","367017","pSARL_v2","pSARL_v27av7451j","62e750fa810b090c094dc2f0","freq_resp","img/green_2bandit_b.png","70","70","test","","","","6","",""
"null","367175","pSARL_v2","pSARL_v27av7451j","62e750fa810b090c094dc2f0","fixation","img/fixation.png","null","","test","","","","","",""
"295.40000000596046","367474","pSARL_v2","pSARL_v27av7451j","62e750fa810b090c094dc2f0","freq","img/green_2bandit_b2.png","70","70","test","1","129","129","6","",""
"null","367984","pSARL_v2","pSARL_v27av7451j","62e750fa810b090c094dc2f0","freq_resp","img/green_2bandit_b.png","70","70","test","","","","6","",""
"null","368141","pSARL_v2","pSARL_v27av7451j","62e750fa810b090c094dc2f0","fixation","img/fixation.png","null","","test","","","","","",""
"233.69999998807907","368379","pSARL_v2","pSARL_v27av7451j","62e750fa810b090c094dc2f0","freq","img/green_2bandit_b2.png","70","70","test","1","130","130","6","",""
"null","368962","pSARL_v2","pSARL_v27av7451j","62e750fa810b090c094dc2f0","freq_resp","img/green_2bandit_b.png","70","70","test","","","","6","",""
"null","369131","pSARL_v2","pSARL_v27av7451j","62e750fa810b090c094dc2f0","fixation","img/fixation.png","null","","test","","","","","",""
"226.80000001192093","369363","pSARL_v2","pSARL_v27av7451j","62e750fa810b090c094dc2f0","infreq","img/orange_2bandit_b2.png","70","68","test","0","131","131","6","",""
"null","369950","pSARL_v2","pSARL_v27av7451j","62e750fa810b090c094dc2f0","infreq_resp","img/orange_2bandit_b.png","70","68","test","","","","6","",""
"null","370107","pSARL_v2","pSARL_v27av7451j","62e750fa810b090c094dc2f0","fixation","img/fixation.png","null","","test","","","","","",""
"331.5","370443","pSARL_v2","pSARL_v27av7451j","62e750fa810b090c094dc2f0","freq","img/green_2bandit_b2.png","70","70","test","1","132","132","6","",""
"null","370921","pSARL_v2","pSARL_v27av7451j","62e750fa810b090c094dc2f0","freq_resp","img/green_2bandit_b.png","70","70","test","","","","6","",""
"null","371091","pSARL_v2","pSARL_v27av7451j","62e750fa810b090c094dc2f0","fixation","img/fixation.png","null","","test","","","","","",""
"275.69999998807907","371371","pSARL_v2","pSARL_v27av7451j","62e750fa810b090c094dc2f0","freq","img/green_2bandit_b2.png","70","70","test","1","133","133","6","",""
"null","371900","pSARL_v2","pSARL_v27av7451j","62e750fa810b090c094dc2f0","freq_resp","img/green_2bandit_b.png","70","70","test","","","","6","",""
"null","372058","pSARL_v2","pSARL_v27av7451j","62e750fa810b090c094dc2f0","fixation","img/fixation.png","null","","test","","","","","",""
"412.40000000596046","372475","pSARL_v2","pSARL_v27av7451j","62e750fa810b090c094dc2f0","freq","img/green_2bandit_b2.png","70","70","test","1","134","134","6","",""
"null","372882","pSARL_v2","pSARL_v27av7451j","62e750fa810b090c094dc2f0","freq_resp","img/green_2bandit_b.png","70","70","test","","","","6","",""
"null","373036","pSARL_v2","pSARL_v27av7451j","62e750fa810b090c094dc2f0","fixation","img/fixation.png","null","","test","","","","","",""
"338.10000002384186","373379","pSARL_v2","pSARL_v27av7451j","62e750fa810b090c094dc2f0","freq","img/green_2bandit_b2.png","70","70","test","1","135","135","6","",""
"null","373858","pSARL_v2","pSARL_v27av7451j","62e750fa810b090c094dc2f0","freq_resp","img/green_2bandit_b.png","70","70","test","","","","6","",""
"null","374029","pSARL_v2","pSARL_v27av7451j","62e750fa810b090c094dc2f0","fixation","img/fixation.png","null","","test","","","","","",""
"281.5","374315","pSARL_v2","pSARL_v27av7451j","62e750fa810b090c094dc2f0","freq","img/green_2bandit_b2.png","70","70","test","1","136","136","6","",""
"null","374843","pSARL_v2","pSARL_v27av7451j","62e750fa810b090c094dc2f0","freq_resp","img/green_2bandit_b.png","70","70","test","","","","6","",""
"null","375013","pSARL_v2","pSARL_v27av7451j","62e750fa810b090c094dc2f0","fixation","img/fixation.png","null","","test","","","","","",""
"585.2999999821186","375603","pSARL_v2","pSARL_v27av7451j","62e750fa810b090c094dc2f0","reward","img/slot.png","74","","test","","","","","",""
"null","376373","pSARL_v2","pSARL_v27av7451j","62e750fa810b090c094dc2f0","points","<div class=""verylowPoints""> -7 </div>","null","na","test","","","","6","-7","5"
"561.7000000178814","376939","pSARL_v2","pSARL_v27av7451j","62e750fa810b090c094dc2f0","freq","img/green_2bandit_b2.png","70","70","test","1","137","137","7","",""
"null","377186","pSARL_v2","pSARL_v27av7451j","62e750fa810b090c094dc2f0","freq_resp","img/green_2bandit_b.png","70","70","test","","","","7","",""
"null","377342","pSARL_v2","pSARL_v27av7451j","62e750fa810b090c094dc2f0","fixation","img/fixation.png","null","","test","","","","","",""
"624.6000000238419","377971","pSARL_v2","pSARL_v27av7451j","62e750fa810b090c094dc2f0","freq","img/green_2bandit_b2.png","70","70","test","1","138","138","7","",""
"null","378156","pSARL_v2","pSARL_v27av7451j","62e750fa810b090c094dc2f0","freq_resp","img/green_2bandit_b.png","70","70","test","","","","7","",""
"null","378325","pSARL_v2","pSARL_v27av7451j","62e750fa810b090c094dc2f0","fixation","img/fixation.png","null","","test","","","","","",""
"505.40000000596046","378835","pSARL_v2","pSARL_v27av7451j","62e750fa810b090c094dc2f0","freq","img/green_2bandit_b2.png","70","70","test","1","139","139","7","",""
"null","379141","pSARL_v2","pSARL_v27av7451j","62e750fa810b090c094dc2f0","freq_resp","img/green_2bandit_b.png","70","70","test","","","","7","",""
"null","379296","pSARL_v2","pSARL_v27av7451j","62e750fa810b090c094dc2f0","fixation","img/fixation.png","null","","test","","","","","",""
"510.7999999821186","379811","pSARL_v2","pSARL_v27av7451j","62e750fa810b090c094dc2f0","freq","img/green_2bandit_b2.png","70","70","test","1","140","140","7","",""
"null","380107","pSARL_v2","pSARL_v27av7451j","62e750fa810b090c094dc2f0","freq_resp","img/green_2bandit_b.png","70","70","test","","","","7","",""
"null","380275","pSARL_v2","pSARL_v27av7451j","62e750fa810b090c094dc2f0","fixation","img/fixation.png","null","","test","","","","","",""
"427.7999999821186","380707","pSARL_v2","pSARL_v27av7451j","62e750fa810b090c094dc2f0","freq","img/green_2bandit_b2.png","70","70","test","1","141","141","7","",""
"null","381093","pSARL_v2","pSARL_v27av7451j","62e750fa810b090c094dc2f0","freq_resp","img/green_2bandit_b.png","70","70","test","","","","7","",""
"null","381258","pSARL_v2","pSARL_v27av7451j","62e750fa810b090c094dc2f0","fixation","img/fixation.png","null","","test","","","","","",""
"444.69999998807907","381707","pSARL_v2","pSARL_v27av7451j","62e750fa810b090c094dc2f0","freq","img/green_2bandit_b2.png","70","70","test","1","142","142","7","",""
"null","382077","pSARL_v2","pSARL_v27av7451j","62e750fa810b090c094dc2f0","freq_resp","img/green_2bandit_b.png","70","70","test","","","","7","",""
"null","382239","pSARL_v2","pSARL_v27av7451j","62e750fa810b090c094dc2f0","fixation","img/fixation.png","null","","test","","","","","",""
"432","382675","pSARL_v2","pSARL_v27av7451j","62e750fa810b090c094dc2f0","freq","img/green_2bandit_b2.png","70","70","test","1","143","143","7","",""
"null","383063","pSARL_v2","pSARL_v27av7451j","62e750fa810b090c094dc2f0","freq_resp","img/green_2bandit_b.png","70","70","test","","","","7","",""
"null","383218","pSARL_v2","pSARL_v27av7451j","62e750fa810b090c094dc2f0","fixation","img/fixation.png","null","","test","","","","","",""
"412.69999998807907","383635","pSARL_v2","pSARL_v27av7451j","62e750fa810b090c094dc2f0","infreq","img/orange_2bandit_b2.png","68","68","test","1","144","144","7","",""
"null","384041","pSARL_v2","pSARL_v27av7451j","62e750fa810b090c094dc2f0","infreq_resp","img/orange_2bandit_b.png","68","68","test","","","","7","",""
"null","384201","pSARL_v2","pSARL_v27av7451j","62e750fa810b090c094dc2f0","fixation","img/fixation.png","null","","test","","","","","",""
"509.7999999821186","384715","pSARL_v2","pSARL_v27av7451j","62e750fa810b090c094dc2f0","infreq","img/orange_2bandit_b2.png","68","68","test","1","145","145","7","",""
"null","385018","pSARL_v2","pSARL_v27av7451j","62e750fa810b090c094dc2f0","infreq_resp","img/orange_2bandit_b.png","68","68","test","","","","7","",""
"null","385175","pSARL_v2","pSARL_v27av7451j","62e750fa810b090c094dc2f0","fixation","img/fixation.png","null","","test","","","","","",""
"399.39999997615814","385579","pSARL_v2","pSARL_v27av7451j","62e750fa810b090c094dc2f0","freq","img/green_2bandit_b2.png","70","70","test","1","146","146","7","",""
"null","385992","pSARL_v2","pSARL_v27av7451j","62e750fa810b090c094dc2f0","freq_resp","img/green_2bandit_b.png","70","70","test","","","","7","",""
"null","386159","pSARL_v2","pSARL_v27av7451j","62e750fa810b090c094dc2f0","fixation","img/fixation.png","null","","test","","","","","",""
"328.39999997615814","386491","pSARL_v2","pSARL_v27av7451j","62e750fa810b090c094dc2f0","freq","img/green_2bandit_b2.png","70","70","test","1","147","147","7","",""
"null","386978","pSARL_v2","pSARL_v27av7451j","62e750fa810b090c094dc2f0","freq_resp","img/green_2bandit_b.png","70","70","test","","","","7","",""
"null","387133","pSARL_v2","pSARL_v27av7451j","62e750fa810b090c094dc2f0","fixation","img/fixation.png","null","","test","","","","","",""
"289.69999998807907","387427","pSARL_v2","pSARL_v27av7451j","62e750fa810b090c094dc2f0","freq","img/green_2bandit_b2.png","70","70","test","1","148","148","7","",""
"null","387953","pSARL_v2","pSARL_v27av7451j","62e750fa810b090c094dc2f0","freq_resp","img/green_2bandit_b.png","70","70","test","","","","7","",""
"null","388107","pSARL_v2","pSARL_v27av7451j","62e750fa810b090c094dc2f0","fixation","img/fixation.png","null","","test","","","","","",""
"307.59999999403954","388419","pSARL_v2","pSARL_v27av7451j","62e750fa810b090c094dc2f0","freq","img/green_2bandit_b2.png","70","70","test","1","149","149","7","",""
"null","388919","pSARL_v2","pSARL_v27av7451j","62e750fa810b090c094dc2f0","freq_resp","img/green_2bandit_b.png","70","70","test","","","","7","",""
"null","389076","pSARL_v2","pSARL_v27av7451j","62e750fa810b090c094dc2f0","fixation","img/fixation.png","null","","test","","","","","",""
"515.3000000119209","389595","pSARL_v2","pSARL_v27av7451j","62e750fa810b090c094dc2f0","freq","img/green_2bandit_b2.png","70","70","test","1","150","150","7","",""
"null","389900","pSARL_v2","pSARL_v27av7451j","62e750fa810b090c094dc2f0","freq_resp","img/green_2bandit_b.png","70","70","test","","","","7","",""
"null","390061","pSARL_v2","pSARL_v27av7451j","62e750fa810b090c094dc2f0","fixation","img/fixation.png","null","","test","","","","","",""
"465.90000000596046","390531","pSARL_v2","pSARL_v27av7451j","62e750fa810b090c094dc2f0","freq","img/green_2bandit_b2.png","70","70","test","1","151","151","7","",""
"null","390885","pSARL_v2","pSARL_v27av7451j","62e750fa810b090c094dc2f0","freq_resp","img/green_2bandit_b.png","70","70","test","","","","7","",""
"null","391041","pSARL_v2","pSARL_v27av7451j","62e750fa810b090c094dc2f0","fixation","img/fixation.png","null","","test","","","","","",""
"406.5","391451","pSARL_v2","pSARL_v27av7451j","62e750fa810b090c094dc2f0","freq","img/green_2bandit_b2.png","70","70","test","1","152","152","7","",""
"null","391860","pSARL_v2","pSARL_v27av7451j","62e750fa810b090c094dc2f0","freq_resp","img/green_2bandit_b.png","70","70","test","","","","7","",""
"null","392016","pSARL_v2","pSARL_v27av7451j","62e750fa810b090c094dc2f0","fixation","img/fixation.png","null","","test","","","","","",""
"375.5","392396","pSARL_v2","pSARL_v27av7451j","62e750fa810b090c094dc2f0","freq","img/green_2bandit_b2.png","70","70","test","1","153","153","7","",""
"null","392828","pSARL_v2","pSARL_v27av7451j","62e750fa810b090c094dc2f0","freq_resp","img/green_2bandit_b.png","70","70","test","","","","7","",""
"null","392992","pSARL_v2","pSARL_v27av7451j","62e750fa810b090c094dc2f0","fixation","img/fixation.png","null","","test","","","","","",""
"335","393332","pSARL_v2","pSARL_v27av7451j","62e750fa810b090c094dc2f0","freq","img/green_2bandit_b2.png","70","70","test","1","154","154","7","",""
"null","393812","pSARL_v2","pSARL_v27av7451j","62e750fa810b090c094dc2f0","freq_resp","img/green_2bandit_b.png","70","70","test","","","","7","",""
"null","393976","pSARL_v2","pSARL_v27av7451j","62e750fa810b090c094dc2f0","fixation","img/fixation.png","null","","test","","","","","",""
"279.30000001192093","394259","pSARL_v2","pSARL_v27av7451j","62e750fa810b090c094dc2f0","freq","img/green_2bandit_b2.png","70","70","test","1","155","155","7","",""
"null","394790","pSARL_v2","pSARL_v27av7451j","62e750fa810b090c094dc2f0","freq_resp","img/green_2bandit_b.png","70","70","test","","","","7","",""
"null","394947","pSARL_v2","pSARL_v27av7451j","62e750fa810b090c094dc2f0","fixation","img/fixation.png","null","","test","","","","","",""
"308.09999999403954","395260","pSARL_v2","pSARL_v27av7451j","62e750fa810b090c094dc2f0","freq","img/green_2bandit_b2.png","70","70","test","1","156","156","7","",""
"null","395769","pSARL_v2","pSARL_v27av7451j","62e750fa810b090c094dc2f0","freq_resp","img/green_2bandit_b.png","70","70","test","","","","7","",""
"null","395925","pSARL_v2","pSARL_v27av7451j","62e750fa810b090c094dc2f0","fixation","img/fixation.png","null","","test","","","","","",""
"298.2999999821186","396228","pSARL_v2","pSARL_v27av7451j","62e750fa810b090c094dc2f0","freq","img/green_2bandit_b2.png","70","70","test","1","157","157","7","",""
"null","396745","pSARL_v2","pSARL_v27av7451j","62e750fa810b090c094dc2f0","freq_resp","img/green_2bandit_b.png","70","70","test","","","","7","",""
"null","396902","pSARL_v2","pSARL_v27av7451j","62e750fa810b090c094dc2f0","fixation","img/fixation.png","null","","test","","","","","",""
"297.40000000596046","397204","pSARL_v2","pSARL_v27av7451j","62e750fa810b090c094dc2f0","freq","img/green_2bandit_b2.png","70","70","test","1","158","158","7","",""
"null","397720","pSARL_v2","pSARL_v27av7451j","62e750fa810b090c094dc2f0","freq_resp","img/green_2bandit_b.png","70","70","test","","","","7","",""
"null","397876","pSARL_v2","pSARL_v27av7451j","62e750fa810b090c094dc2f0","fixation","img/fixation.png","null","","test","","","","","",""
"283.7999999821186","398164","pSARL_v2","pSARL_v27av7451j","62e750fa810b090c094dc2f0","freq","img/green_2bandit_b2.png","70","70","test","1","159","159","7","",""
"null","398685","pSARL_v2","pSARL_v27av7451j","62e750fa810b090c094dc2f0","freq_resp","img/green_2bandit_b.png","70","70","test","","","","7","",""
"null","398843","pSARL_v2","pSARL_v27av7451j","62e750fa810b090c094dc2f0","fixation","img/fixation.png","null","","test","","","","","",""
"308.69999998807907","399156","pSARL_v2","pSARL_v27av7451j","62e750fa810b090c094dc2f0","freq","img/green_2bandit_b2.png","70","70","test","1","160","160","7","",""
"null","399653","pSARL_v2","pSARL_v27av7451j","62e750fa810b090c094dc2f0","freq_resp","img/green_2bandit_b.png","70","70","test","","","","7","",""
"null","399809","pSARL_v2","pSARL_v27av7451j","62e750fa810b090c094dc2f0","fixation","img/fixation.png","null","","test","","","","","",""
"614.6000000238419","400428","pSARL_v2","pSARL_v27av7451j","62e750fa810b090c094dc2f0","reward","img/slot.png","74","","test","","","","","",""
"null","401187","pSARL_v2","pSARL_v27av7451j","62e750fa810b090c094dc2f0","points","<div class=""verylowPoints""> -6 </div>","null","na","test","","","","7","-6","6"
"460.09999999403954","401652","pSARL_v2","pSARL_v27av7451j","62e750fa810b090c094dc2f0","freq","img/green_2bandit_b2.png","70","70","test","1","161","161","8","",""
"null","402010","pSARL_v2","pSARL_v27av7451j","62e750fa810b090c094dc2f0","freq_resp","img/green_2bandit_b.png","70","70","test","","","","8","",""
"null","402165","pSARL_v2","pSARL_v27av7451j","62e750fa810b090c094dc2f0","fixation","img/fixation.png","null","","test","","","","","",""
"490","402660","pSARL_v2","pSARL_v27av7451j","62e750fa810b090c094dc2f0","freq","img/green_2bandit_b2.png","70","70","test","1","162","162","8","",""
"null","402985","pSARL_v2","pSARL_v27av7451j","62e750fa810b090c094dc2f0","freq_resp","img/green_2bandit_b.png","70","70","test","","","","8","",""
"null","403141","pSARL_v2","pSARL_v27av7451j","62e750fa810b090c094dc2f0","fixation","img/fixation.png","null","","test","","","","","",""
"395","403540","pSARL_v2","pSARL_v27av7451j","62e750fa810b090c094dc2f0","freq","img/green_2bandit_b2.png","70","70","test","1","163","163","8","",""
"null","403964","pSARL_v2","pSARL_v27av7451j","62e750fa810b090c094dc2f0","freq_resp","img/green_2bandit_b.png","70","70","test","","","","8","",""
"null","404119","pSARL_v2","pSARL_v27av7451j","62e750fa810b090c094dc2f0","fixation","img/fixation.png","null","","test","","","","","",""
"376.69999998807907","404500","pSARL_v2","pSARL_v27av7451j","62e750fa810b090c094dc2f0","freq","img/green_2bandit_b2.png","70","70","test","1","164","164","8","",""
"null","404941","pSARL_v2","pSARL_v27av7451j","62e750fa810b090c094dc2f0","freq_resp","img/green_2bandit_b.png","70","70","test","","","","8","",""
"null","405097","pSARL_v2","pSARL_v27av7451j","62e750fa810b090c094dc2f0","fixation","img/fixation.png","null","","test","","","","","",""
"309.90000000596046","405412","pSARL_v2","pSARL_v27av7451j","62e750fa810b090c094dc2f0","freq","img/green_2bandit_b2.png","70","70","test","1","165","165","8","",""
"null","405914","pSARL_v2","pSARL_v27av7451j","62e750fa810b090c094dc2f0","freq_resp","img/green_2bandit_b.png","70","70","test","","","","8","",""
"null","406070","pSARL_v2","pSARL_v27av7451j","62e750fa810b090c094dc2f0","fixation","img/fixation.png","null","","test","","","","","",""
"505.30000001192093","406580","pSARL_v2","pSARL_v27av7451j","62e750fa810b090c094dc2f0","infreq","img/orange_2bandit_b2.png","68","68","test","1","166","166","8","",""
"null","406889","pSARL_v2","pSARL_v27av7451j","62e750fa810b090c094dc2f0","infreq_resp","img/orange_2bandit_b.png","68","68","test","","","","8","",""
"null","407058","pSARL_v2","pSARL_v27av7451j","62e750fa810b090c094dc2f0","fixation","img/fixation.png","null","","test","","","","","",""
"29.299999982118607","407092","pSARL_v2","pSARL_v27av7451j","62e750fa810b090c094dc2f0","freq","img/green_2bandit_b2.png","68","70","test","0","167","167","8","",""
"null","407868","pSARL_v2","pSARL_v27av7451j","62e750fa810b090c094dc2f0","freq_resp","img/green_2bandit_b.png","68","70","test","","","","8","",""
"null","408026","pSARL_v2","pSARL_v27av7451j","62e750fa810b090c094dc2f0","fixation","img/fixation.png","null","","test","","","","","",""
"541.6999999880791","408572","pSARL_v2","pSARL_v27av7451j","62e750fa810b090c094dc2f0","freq","img/green_2bandit_b2.png","70","70","test","1","168","168","8","",""
"null","408845","pSARL_v2","pSARL_v27av7451j","62e750fa810b090c094dc2f0","freq_resp","img/green_2bandit_b.png","70","70","test","","","","8","",""
"null","409001","pSARL_v2","pSARL_v27av7451j","62e750fa810b090c094dc2f0","fixation","img/fixation.png","null","","test","","","","","",""
"526.9000000059605","409532","pSARL_v2","pSARL_v27av7451j","62e750fa810b090c094dc2f0","freq","img/green_2bandit_b2.png","70","70","test","1","169","169","8","",""
"null","409822","pSARL_v2","pSARL_v27av7451j","62e750fa810b090c094dc2f0","freq_resp","img/green_2bandit_b.png","70","70","test","","","","8","",""
"null","409991","pSARL_v2","pSARL_v27av7451j","62e750fa810b090c094dc2f0","fixation","img/fixation.png","null","","test","","","","","",""
"512.2999999821186","410508","pSARL_v2","pSARL_v27av7451j","62e750fa810b090c094dc2f0","freq","img/green_2bandit_b2.png","70","70","test","1","170","170","8","",""
"null","410800","pSARL_v2","pSARL_v27av7451j","62e750fa810b090c094dc2f0","freq_resp","img/green_2bandit_b.png","70","70","test","","","","8","",""
"null","410960","pSARL_v2","pSARL_v27av7451j","62e750fa810b090c094dc2f0","fixation","img/fixation.png","null","","test","","","","","",""
"512","411476","pSARL_v2","pSARL_v27av7451j","62e750fa810b090c094dc2f0","freq","img/green_2bandit_b2.png","70","70","test","1","171","171","8","",""
"null","411783","pSARL_v2","pSARL_v27av7451j","62e750fa810b090c094dc2f0","freq_resp","img/green_2bandit_b.png","70","70","test","","","","8","",""
"null","411945","pSARL_v2","pSARL_v27av7451j","62e750fa810b090c094dc2f0","fixation","img/fixation.png","null","","test","","","","","",""
"543.0999999940395","412492","pSARL_v2","pSARL_v27av7451j","62e750fa810b090c094dc2f0","infreq","img/orange_2bandit_b2.png","68","68","test","1","172","172","8","",""
"null","412760","pSARL_v2","pSARL_v27av7451j","62e750fa810b090c094dc2f0","infreq_resp","img/orange_2bandit_b.png","68","68","test","","","","8","",""
"null","412915","pSARL_v2","pSARL_v27av7451j","62e750fa810b090c094dc2f0","fixation","img/fixation.png","null","","test","","","","","",""
"349","413268","pSARL_v2","pSARL_v27av7451j","62e750fa810b090c094dc2f0","freq","img/green_2bandit_b2.png","70","70","test","1","173","173","8","",""
"null","413734","pSARL_v2","pSARL_v27av7451j","62e750fa810b090c094dc2f0","freq_resp","img/green_2bandit_b.png","70","70","test","","","","8","",""
"null","413904","pSARL_v2","pSARL_v27av7451j","62e750fa810b090c094dc2f0","fixation","img/fixation.png","null","","test","","","","","",""
"568.2000000178814","414476","pSARL_v2","pSARL_v27av7451j","62e750fa810b090c094dc2f0","freq","img/green_2bandit_b2.png","70","70","test","1","174","174","8","",""
"null","414722","pSARL_v2","pSARL_v27av7451j","62e750fa810b090c094dc2f0","freq_resp","img/green_2bandit_b.png","70","70","test","","","","8","",""
"null","414891","pSARL_v2","pSARL_v27av7451j","62e750fa810b090c094dc2f0","fixation","img/fixation.png","null","","test","","","","","",""
"396.7000000178814","415293","pSARL_v2","pSARL_v27av7451j","62e750fa810b090c094dc2f0","freq","img/green_2bandit_b2.png","70","70","test","1","175","175","8","",""
"null","415713","pSARL_v2","pSARL_v27av7451j","62e750fa810b090c094dc2f0","freq_resp","img/green_2bandit_b.png","70","70","test","","","","8","",""
"null","415870","pSARL_v2","pSARL_v27av7451j","62e750fa810b090c094dc2f0","fixation","img/fixation.png","null","","test","","","","","",""
"258.40000000596046","416132","pSARL_v2","pSARL_v27av7451j","62e750fa810b090c094dc2f0","freq","img/green_2bandit_b2.png","70","70","test","1","176","176","8","",""
"null","416685","pSARL_v2","pSARL_v27av7451j","62e750fa810b090c094dc2f0","freq_resp","img/green_2bandit_b.png","70","70","test","","","","8","",""
"null","416843","pSARL_v2","pSARL_v27av7451j","62e750fa810b090c094dc2f0","fixation","img/fixation.png","null","","test","","","","","",""
"244.80000001192093","417092","pSARL_v2","pSARL_v27av7451j","62e750fa810b090c094dc2f0","freq","img/green_2bandit_b2.png","70","70","test","1","177","177","8","",""
"null","417665","pSARL_v2","pSARL_v27av7451j","62e750fa810b090c094dc2f0","freq_resp","img/green_2bandit_b.png","70","70","test","","","","8","",""
"null","417827","pSARL_v2","pSARL_v27av7451j","62e750fa810b090c094dc2f0","fixation","img/fixation.png","null","","test","","","","","",""
"292.59999999403954","418125","pSARL_v2","pSARL_v27av7451j","62e750fa810b090c094dc2f0","freq","img/green_2bandit_b2.png","70","70","test","1","178","178","8","",""
"null","418640","pSARL_v2","pSARL_v27av7451j","62e750fa810b090c094dc2f0","freq_resp","img/green_2bandit_b.png","70","70","test","","","","8","",""
"null","418795","pSARL_v2","pSARL_v27av7451j","62e750fa810b090c094dc2f0","fixation","img/fixation.png","null","","test","","","","","",""
"244.7000000178814","419045","pSARL_v2","pSARL_v27av7451j","62e750fa810b090c094dc2f0","freq","img/green_2bandit_b2.png","70","70","test","1","179","179","8","",""
"null","419619","pSARL_v2","pSARL_v27av7451j","62e750fa810b090c094dc2f0","freq_resp","img/green_2bandit_b.png","70","70","test","","","","8","",""
"null","419773","pSARL_v2","pSARL_v27av7451j","62e750fa810b090c094dc2f0","fixation","img/fixation.png","null","","test","","","","","",""
"250.69999998807907","420028","pSARL_v2","pSARL_v27av7451j","62e750fa810b090c094dc2f0","freq","img/green_2bandit_b2.png","70","70","test","1","180","180","8","",""
"null","420590","pSARL_v2","pSARL_v27av7451j","62e750fa810b090c094dc2f0","freq_resp","img/green_2bandit_b.png","70","70","test","","","","8","",""
"null","420745","pSARL_v2","pSARL_v27av7451j","62e750fa810b090c094dc2f0","fixation","img/fixation.png","null","","test","","","","","",""
"255.09999999403954","421005","pSARL_v2","pSARL_v27av7451j","62e750fa810b090c094dc2f0","freq","img/green_2bandit_b2.png","70","70","test","1","181","181","8","",""
"null","421569","pSARL_v2","pSARL_v27av7451j","62e750fa810b090c094dc2f0","freq_resp","img/green_2bandit_b.png","70","70","test","","","","8","",""
"null","421739","pSARL_v2","pSARL_v27av7451j","62e750fa810b090c094dc2f0","fixation","img/fixation.png","null","","test","","","","","",""
"236.89999997615814","421981","pSARL_v2","pSARL_v27av7451j","62e750fa810b090c094dc2f0","freq","img/green_2bandit_b2.png","70","70","test","1","182","182","8","",""
"null","422558","pSARL_v2","pSARL_v27av7451j","62e750fa810b090c094dc2f0","freq_resp","img/green_2bandit_b.png","70","70","test","","","","8","",""
"null","422714","pSARL_v2","pSARL_v27av7451j","62e750fa810b090c094dc2f0","fixation","img/fixation.png","null","","test","","","","","",""
"254.59999999403954","422973","pSARL_v2","pSARL_v27av7451j","62e750fa810b090c094dc2f0","freq","img/green_2bandit_b2.png","70","70","test","1","183","183","8","",""
"null","423531","pSARL_v2","pSARL_v27av7451j","62e750fa810b090c094dc2f0","freq_resp","img/green_2bandit_b.png","70","70","test","","","","8","",""
"null","423687","pSARL_v2","pSARL_v27av7451j","62e750fa810b090c094dc2f0","fixation","img/fixation.png","null","","test","","","","","",""
"473.19999998807907","424165","pSARL_v2","pSARL_v27av7451j","62e750fa810b090c094dc2f0","reward","img/slot.png","74","","test","","","","","",""
"null","424921","pSARL_v2","pSARL_v27av7451j","62e750fa810b090c094dc2f0","points","<div class=""verylowPoints""> -4 </div>","null","na","test","","","","8","-4","7"
"367.09999999403954","425293","pSARL_v2","pSARL_v27av7451j","62e750fa810b090c094dc2f0","freq","img/green_2bandit_b2.png","70","70","test","1","184","184","9","",""
"null","425740","pSARL_v2","pSARL_v27av7451j","62e750fa810b090c094dc2f0","freq_resp","img/green_2bandit_b.png","70","70","test","","","","9","",""
"null","425909","pSARL_v2","pSARL_v27av7451j","62e750fa810b090c094dc2f0","fixation","img/fixation.png","null","","test","","","","","",""
"427.2000000178814","426341","pSARL_v2","pSARL_v27av7451j","62e750fa810b090c094dc2f0","freq","img/green_2bandit_b2.png","70","70","test","1","185","185","9","",""
"null","426728","pSARL_v2","pSARL_v27av7451j","62e750fa810b090c094dc2f0","freq_resp","img/green_2bandit_b.png","70","70","test","","","","9","",""
"null","426884","pSARL_v2","pSARL_v27av7451j","62e750fa810b090c094dc2f0","fixation","img/fixation.png","null","","test","","","","","",""
"484","427373","pSARL_v2","pSARL_v27av7451j","62e750fa810b090c094dc2f0","freq","img/green_2bandit_b2.png","70","70","test","1","186","186","9","",""
"null","427706","pSARL_v2","pSARL_v27av7451j","62e750fa810b090c094dc2f0","freq_resp","img/green_2bandit_b.png","70","70","test","","","","9","",""
"null","427861","pSARL_v2","pSARL_v27av7451j","62e750fa810b090c094dc2f0","fixation","img/fixation.png","null","","test","","","","","",""
"475.90000000596046","428341","pSARL_v2","pSARL_v27av7451j","62e750fa810b090c094dc2f0","freq","img/green_2bandit_b2.png","70","70","test","1","187","187","9","",""
"null","428679","pSARL_v2","pSARL_v27av7451j","62e750fa810b090c094dc2f0","freq_resp","img/green_2bandit_b.png","70","70","test","","","","9","",""
"null","428834","pSARL_v2","pSARL_v27av7451j","62e750fa810b090c094dc2f0","fixation","img/fixation.png","null","","test","","","","","",""
"358.09999999403954","429197","pSARL_v2","pSARL_v27av7451j","62e750fa810b090c094dc2f0","freq","img/green_2bandit_b2.png","70","70","test","1","188","188","9","",""
"null","429654","pSARL_v2","pSARL_v27av7451j","62e750fa810b090c094dc2f0","freq_resp","img/green_2bandit_b.png","70","70","test","","","","9","",""
"null","429823","pSARL_v2","pSARL_v27av7451j","62e750fa810b090c094dc2f0","fixation","img/fixation.png","null","","test","","","","","",""
"361.90000000596046","430189","pSARL_v2","pSARL_v27av7451j","62e750fa810b090c094dc2f0","freq","img/green_2bandit_b2.png","70","70","test","1","189","189","9","",""
"null","430641","pSARL_v2","pSARL_v27av7451j","62e750fa810b090c094dc2f0","freq_resp","img/green_2bandit_b.png","70","70","test","","","","9","",""
"null","430809","pSARL_v2","pSARL_v27av7451j","62e750fa810b090c094dc2f0","fixation","img/fixation.png","null","","test","","","","","",""
"303.2000000178814","431117","pSARL_v2","pSARL_v27av7451j","62e750fa810b090c094dc2f0","freq","img/green_2bandit_b2.png","70","70","test","1","190","190","9","",""
"null","431623","pSARL_v2","pSARL_v27av7451j","62e750fa810b090c094dc2f0","freq_resp","img/green_2bandit_b.png","70","70","test","","","","9","",""
"null","431793","pSARL_v2","pSARL_v27av7451j","62e750fa810b090c094dc2f0","fixation","img/fixation.png","null","","test","","","","","",""
"391.90000000596046","432189","pSARL_v2","pSARL_v27av7451j","62e750fa810b090c094dc2f0","infreq","img/orange_2bandit_b2.png","68","68","test","1","191","191","9","",""
"null","432612","pSARL_v2","pSARL_v27av7451j","62e750fa810b090c094dc2f0","infreq_resp","img/orange_2bandit_b.png","68","68","test","","","","9","",""
"null","432767","pSARL_v2","pSARL_v27av7451j","62e750fa810b090c094dc2f0","fixation","img/fixation.png","null","","test","","","","","",""
"433.69999998807907","433205","pSARL_v2","pSARL_v27av7451j","62e750fa810b090c094dc2f0","freq","img/green_2bandit_b2.png","70","70","test","1","192","192","9","",""
"null","433586","pSARL_v2","pSARL_v27av7451j","62e750fa810b090c094dc2f0","freq_resp","img/green_2bandit_b.png","70","70","test","","","","9","",""
"null","433741","pSARL_v2","pSARL_v27av7451j","62e750fa810b090c094dc2f0","fixation","img/fixation.png","null","","test","","","","","",""
"371.59999999403954","434117","pSARL_v2","pSARL_v27av7451j","62e750fa810b090c094dc2f0","freq","img/green_2bandit_b2.png","70","70","test","1","193","193","9","",""
"null","434560","pSARL_v2","pSARL_v27av7451j","62e750fa810b090c094dc2f0","freq_resp","img/green_2bandit_b.png","70","70","test","","","","9","",""
"null","434729","pSARL_v2","pSARL_v27av7451j","62e750fa810b090c094dc2f0","fixation","img/fixation.png","null","","test","","","","","",""
"583.8000000119209","435317","pSARL_v2","pSARL_v27av7451j","62e750fa810b090c094dc2f0","infreq","img/orange_2bandit_b2.png","68","68","test","1","194","194","9","",""
"null","435546","pSARL_v2","pSARL_v27av7451j","62e750fa810b090c094dc2f0","infreq_resp","img/orange_2bandit_b.png","68","68","test","","","","9","",""
"null","435716","pSARL_v2","pSARL_v27av7451j","62e750fa810b090c094dc2f0","fixation","img/fixation.png","null","","test","","","","","",""
"572.5","436294","pSARL_v2","pSARL_v27av7451j","62e750fa810b090c094dc2f0","infreq","img/orange_2bandit_b2.png","68","68","test","1","195","195","9","",""
"null","436538","pSARL_v2","pSARL_v27av7451j","62e750fa810b090c094dc2f0","infreq_resp","img/orange_2bandit_b.png","68","68","test","","","","9","",""
"null","436694","pSARL_v2","pSARL_v27av7451j","62e750fa810b090c094dc2f0","fixation","img/fixation.png","null","","test","","","","","",""
"554.7999999821186","437253","pSARL_v2","pSARL_v27av7451j","62e750fa810b090c094dc2f0","freq","img/green_2bandit_b2.png","70","70","test","1","196","196","9","",""
"null","437504","pSARL_v2","pSARL_v27av7451j","62e750fa810b090c094dc2f0","freq_resp","img/green_2bandit_b.png","70","70","test","","","","9","",""
"null","437661","pSARL_v2","pSARL_v27av7451j","62e750fa810b090c094dc2f0","fixation","img/fixation.png","null","","test","","","","","",""
"508.19999998807907","438173","pSARL_v2","pSARL_v27av7451j","62e750fa810b090c094dc2f0","freq","img/green_2bandit_b2.png","70","70","test","1","197","197","9","",""
"null","438477","pSARL_v2","pSARL_v27av7451j","62e750fa810b090c094dc2f0","freq_resp","img/green_2bandit_b.png","70","70","test","","","","9","",""
"null","438646","pSARL_v2","pSARL_v27av7451j","62e750fa810b090c094dc2f0","fixation","img/fixation.png","null","","test","","","","","",""
"530.8999999761581","439181","pSARL_v2","pSARL_v27av7451j","62e750fa810b090c094dc2f0","freq","img/green_2bandit_b2.png","70","70","test","1","198","198","9","",""
"null","439465","pSARL_v2","pSARL_v27av7451j","62e750fa810b090c094dc2f0","freq_resp","img/green_2bandit_b.png","70","70","test","","","","9","",""
"null","439635","pSARL_v2","pSARL_v27av7451j","62e750fa810b090c094dc2f0","fixation","img/fixation.png","null","","test","","","","","",""
"485.69999998807907","440125","pSARL_v2","pSARL_v27av7451j","62e750fa810b090c094dc2f0","freq","img/green_2bandit_b2.png","70","70","test","1","199","199","9","",""
"null","440449","pSARL_v2","pSARL_v27av7451j","62e750fa810b090c094dc2f0","freq_resp","img/green_2bandit_b.png","70","70","test","","","","9","",""
"null","440611","pSARL_v2","pSARL_v27av7451j","62e750fa810b090c094dc2f0","fixation","img/fixation.png","null","","test","","","","","",""
"509.90000000596046","441125","pSARL_v2","pSARL_v27av7451j","62e750fa810b090c094dc2f0","freq","img/green_2bandit_b2.png","70","70","test","1","200","200","9","",""
"null","441434","pSARL_v2","pSARL_v27av7451j","62e750fa810b090c094dc2f0","freq_resp","img/green_2bandit_b.png","70","70","test","","","","9","",""
"null","441596","pSARL_v2","pSARL_v27av7451j","62e750fa810b090c094dc2f0","fixation","img/fixation.png","null","","test","","","","","",""
"373.2000000178814","441973","pSARL_v2","pSARL_v27av7451j","62e750fa810b090c094dc2f0","freq","img/green_2bandit_b2.png","70","70","test","1","201","201","9","",""
"null","442404","pSARL_v2","pSARL_v27av7451j","62e750fa810b090c094dc2f0","freq_resp","img/green_2bandit_b.png","70","70","test","","","","9","",""
"null","442574","pSARL_v2","pSARL_v27av7451j","62e750fa810b090c094dc2f0","fixation","img/fixation.png","null","","test","","","","","",""
"315.5","442893","pSARL_v2","pSARL_v27av7451j","62e750fa810b090c094dc2f0","freq","img/green_2bandit_b2.png","70","70","test","1","202","202","9","",""
"null","443396","pSARL_v2","pSARL_v27av7451j","62e750fa810b090c094dc2f0","freq_resp","img/green_2bandit_b.png","70","70","test","","","","9","",""
"null","443566","pSARL_v2","pSARL_v27av7451j","62e750fa810b090c094dc2f0","fixation","img/fixation.png","null","","test","","","","","",""
"299.2000000178814","443870","pSARL_v2","pSARL_v27av7451j","62e750fa810b090c094dc2f0","freq","img/green_2bandit_b2.png","70","70","test","1","203","203","9","",""
"null","444389","pSARL_v2","pSARL_v27av7451j","62e750fa810b090c094dc2f0","freq_resp","img/green_2bandit_b.png","70","70","test","","","","9","",""
"null","444544","pSARL_v2","pSARL_v27av7451j","62e750fa810b090c094dc2f0","fixation","img/fixation.png","null","","test","","","","","",""
"352.90000000596046","444902","pSARL_v2","pSARL_v27av7451j","62e750fa810b090c094dc2f0","freq","img/green_2bandit_b2.png","70","70","test","1","204","204","9","",""
"null","445358","pSARL_v2","pSARL_v27av7451j","62e750fa810b090c094dc2f0","freq_resp","img/green_2bandit_b.png","70","70","test","","","","9","",""
"null","445526","pSARL_v2","pSARL_v27av7451j","62e750fa810b090c094dc2f0","fixation","img/fixation.png","null","","test","","","","","",""
"354.90000000596046","445886","pSARL_v2","pSARL_v27av7451j","62e750fa810b090c094dc2f0","freq","img/green_2bandit_b2.png","70","70","test","1","205","205","9","",""
"null","446337","pSARL_v2","pSARL_v27av7451j","62e750fa810b090c094dc2f0","freq_resp","img/green_2bandit_b.png","70","70","test","","","","9","",""
"null","446492","pSARL_v2","pSARL_v27av7451j","62e750fa810b090c094dc2f0","fixation","img/fixation.png","null","","test","","","","","",""
"437.5","446934","pSARL_v2","pSARL_v27av7451j","62e750fa810b090c094dc2f0","freq","img/green_2bandit_b2.png","70","70","test","1","206","206","9","",""
"null","447313","pSARL_v2","pSARL_v27av7451j","62e750fa810b090c094dc2f0","freq_resp","img/green_2bandit_b.png","70","70","test","","","","9","",""
"null","447483","pSARL_v2","pSARL_v27av7451j","62e750fa810b090c094dc2f0","fixation","img/fixation.png","null","","test","","","","","",""
