"rt","time_elapsed","expId","subject","prolificID","trialType","stimulus","key_press","corrresp","phase","corr","trialNum","attentionRunNum","blockNum","points","rlNum"
"14842.700000047684","14847","pSARL_v2","pSARL_v2z7puv29m","5816176700b325000184dba6","","","","","","","","","","",""
"","17206","pSARL_v2","pSARL_v2z7puv29m","5816176700b325000184dba6","fullscreen","","","","","","","","","",""
"27132.600000023842","44342","pSARL_v2","pSARL_v2z7puv29m","5816176700b325000184dba6","","","","","","","","","","",""
"null","45149","pSARL_v2","pSARL_v2z7puv29m","5816176700b325000184dba6","freqPrac","img/green_2bandit_b2.png","null","70","prac","0","","","","",""
"null","46157","pSARL_v2","pSARL_v2z7puv29m","5816176700b325000184dba6","feedback","img/tooSlow.png","null","na","prac","","","","","",""
"null","46317","pSARL_v2","pSARL_v2z7puv29m","5816176700b325000184dba6","fixation","img/fixation.png","null","","prac","","","","","",""
"427.2000000476837","46748","pSARL_v2","pSARL_v2z7puv29m","5816176700b325000184dba6","infreqPrac","img/orange_2bandit_b2.png","68","68","prac","1","","","","",""
"427.2000000476837","47136","pSARL_v2","pSARL_v2z7puv29m","5816176700b325000184dba6","infreqPrac_resp","img/orange_2bandit_b.png","68","68","prac","","","","","",""
"null","47294","pSARL_v2","pSARL_v2z7puv29m","5816176700b325000184dba6","fixation","img/fixation.png","null","","prac","","","","","",""
"337","47634","pSARL_v2","pSARL_v2z7puv29m","5816176700b325000184dba6","freqPrac","img/green_2bandit_b2.png","70","70","prac","1","","","","",""
"337","48102","pSARL_v2","pSARL_v2z7puv29m","5816176700b325000184dba6","freqPrac_resp","img/green_2bandit_b.png","70","70","prac","","","","","",""
"null","48259","pSARL_v2","pSARL_v2z7puv29m","5816176700b325000184dba6","fixation","img/fixation.png","null","","prac","","","","","",""
"541.6999999880791","48804","pSARL_v2","pSARL_v2z7puv29m","5816176700b325000184dba6","infreqPrac","img/orange_2bandit_b2.png","68","68","prac","1","","","","",""
"541.6999999880791","49065","pSARL_v2","pSARL_v2z7puv29m","5816176700b325000184dba6","infreqPrac_resp","img/orange_2bandit_b.png","68","68","prac","","","","","",""
"null","49223","pSARL_v2","pSARL_v2z7puv29m","5816176700b325000184dba6","fixation","img/fixation.png","null","","prac","","","","","",""
"388.19999998807907","49614","pSARL_v2","pSARL_v2z7puv29m","5816176700b325000184dba6","infreqPrac","img/orange_2bandit_b2.png","68","68","prac","1","","","","",""
"388.19999998807907","50043","pSARL_v2","pSARL_v2z7puv29m","5816176700b325000184dba6","infreqPrac_resp","img/orange_2bandit_b.png","68","68","prac","","","","","",""
"null","50200","pSARL_v2","pSARL_v2z7puv29m","5816176700b325000184dba6","fixation","img/fixation.png","null","","prac","","","","","",""
"316.5","50520","pSARL_v2","pSARL_v2z7puv29m","5816176700b325000184dba6","infreqPrac","img/orange_2bandit_b2.png","68","68","prac","1","","","","",""
"316.5","51007","pSARL_v2","pSARL_v2z7puv29m","5816176700b325000184dba6","infreqPrac_resp","img/orange_2bandit_b.png","68","68","prac","","","","","",""
"null","51163","pSARL_v2","pSARL_v2z7puv29m","5816176700b325000184dba6","fixation","img/fixation.png","null","","prac","","","","","",""
"253.0999999642372","51419","pSARL_v2","pSARL_v2z7puv29m","5816176700b325000184dba6","freqPrac","img/green_2bandit_b2.png","68","70","prac","0","","","","",""
"253.0999999642372","51969","pSARL_v2","pSARL_v2z7puv29m","5816176700b325000184dba6","freqPrac_resp","img/green_2bandit_b.png","68","70","prac","","","","","",""
"null","52983","pSARL_v2","pSARL_v2z7puv29m","5816176700b325000184dba6","feedback","img/wrongKey.png","null","na","prac","","","","","",""
"null","53139","pSARL_v2","pSARL_v2z7puv29m","5816176700b325000184dba6","fixation","img/fixation.png","null","","prac","","","","","",""
"461.0999999642372","53603","pSARL_v2","pSARL_v2z7puv29m","5816176700b325000184dba6","infreqPrac","img/orange_2bandit_b2.png","68","68","prac","1","","","","",""
"461.0999999642372","53947","pSARL_v2","pSARL_v2z7puv29m","5816176700b325000184dba6","infreqPrac_resp","img/orange_2bandit_b.png","68","68","prac","","","","","",""
"null","54104","pSARL_v2","pSARL_v2z7puv29m","5816176700b325000184dba6","fixation","img/fixation.png","null","","prac","","","","","",""
"467.0999999642372","54575","pSARL_v2","pSARL_v2z7puv29m","5816176700b325000184dba6","freqPrac","img/green_2bandit_b2.png","70","70","prac","1","","","","",""
"467.0999999642372","54923","pSARL_v2","pSARL_v2z7puv29m","5816176700b325000184dba6","freqPrac_resp","img/green_2bandit_b.png","70","70","prac","","","","","",""
"null","55080","pSARL_v2","pSARL_v2z7puv29m","5816176700b325000184dba6","fixation","img/fixation.png","null","","prac","","","","","",""
"404.10000002384186","55487","pSARL_v2","pSARL_v2z7puv29m","5816176700b325000184dba6","freqPrac","img/green_2bandit_b2.png","70","70","prac","1","","","","",""
"404.10000002384186","55896","pSARL_v2","pSARL_v2z7puv29m","5816176700b325000184dba6","freqPrac_resp","img/green_2bandit_b.png","70","70","prac","","","","","",""
"null","56065","pSARL_v2","pSARL_v2z7puv29m","5816176700b325000184dba6","fixation","img/fixation.png","null","","prac","","","","","",""
"20354","76422","pSARL_v2","pSARL_v2z7puv29m","5816176700b325000184dba6","","","","","prac","","","","","",""
"453.9000000357628","76879","pSARL_v2","pSARL_v2z7puv29m","5816176700b325000184dba6","rewardPractice","img/slot.png","74","","prac","","","","","",""
"null","77636","pSARL_v2","pSARL_v2z7puv29m","5816176700b325000184dba6","feedback","<div class=""veryhighPoints""> +15 </div>","null","na","prac","","","","","",""
"null","77795","pSARL_v2","pSARL_v2z7puv29m","5816176700b325000184dba6","fixation","img/fixation.png","null","","prac","","","","","",""
"2852.800000011921","80650","pSARL_v2","pSARL_v2z7puv29m","5816176700b325000184dba6","","","","","prac","","","","","",""
"434.5","81087","pSARL_v2","pSARL_v2z7puv29m","5816176700b325000184dba6","freq","img/green_2bandit_b2.png","70","70","test","1","1","1","1","",""
"null","81469","pSARL_v2","pSARL_v2z7puv29m","5816176700b325000184dba6","freq_resp","img/green_2bandit_b.png","70","70","test","","","","1","",""
"null","81626","pSARL_v2","pSARL_v2z7puv29m","5816176700b325000184dba6","fixation","img/fixation.png","null","","test","","","","","",""
"285.69999998807907","81915","pSARL_v2","pSARL_v2z7puv29m","5816176700b325000184dba6","freq","img/green_2bandit_b2.png","70","70","test","1","2","2","1","",""
"null","82446","pSARL_v2","pSARL_v2z7puv29m","5816176700b325000184dba6","freq_resp","img/green_2bandit_b.png","70","70","test","","","","1","",""
"null","82604","pSARL_v2","pSARL_v2z7puv29m","5816176700b325000184dba6","fixation","img/fixation.png","null","","test","","","","","",""
"344.30000001192093","82952","pSARL_v2","pSARL_v2z7puv29m","5816176700b325000184dba6","freq","img/green_2bandit_b2.png","70","70","test","1","3","3","1","",""
"null","83424","pSARL_v2","pSARL_v2z7puv29m","5816176700b325000184dba6","freq_resp","img/green_2bandit_b.png","70","70","test","","","","1","",""
"null","83581","pSARL_v2","pSARL_v2z7puv29m","5816176700b325000184dba6","fixation","img/fixation.png","null","","test","","","","","",""
"296.30000001192093","83881","pSARL_v2","pSARL_v2z7puv29m","5816176700b325000184dba6","freq","img/green_2bandit_b2.png","70","70","test","1","4","4","1","",""
"null","84388","pSARL_v2","pSARL_v2z7puv29m","5816176700b325000184dba6","freq_resp","img/green_2bandit_b.png","70","70","test","","","","1","",""
"null","84549","pSARL_v2","pSARL_v2z7puv29m","5816176700b325000184dba6","fixation","img/fixation.png","null","","test","","","","","",""
"301.39999997615814","84855","pSARL_v2","pSARL_v2z7puv29m","5816176700b325000184dba6","freq","img/green_2bandit_b2.png","70","70","test","1","5","5","1","",""
"null","85371","pSARL_v2","pSARL_v2z7puv29m","5816176700b325000184dba6","freq_resp","img/green_2bandit_b.png","70","70","test","","","","1","",""
"null","85529","pSARL_v2","pSARL_v2z7puv29m","5816176700b325000184dba6","fixation","img/fixation.png","null","","test","","","","","",""
"369.0999999642372","85901","pSARL_v2","pSARL_v2z7puv29m","5816176700b325000184dba6","freq","img/green_2bandit_b2.png","70","70","test","1","6","6","1","",""
"null","86338","pSARL_v2","pSARL_v2z7puv29m","5816176700b325000184dba6","freq_resp","img/green_2bandit_b.png","70","70","test","","","","1","",""
"null","86495","pSARL_v2","pSARL_v2z7puv29m","5816176700b325000184dba6","fixation","img/fixation.png","null","","test","","","","","",""
"316.30000001192093","86814","pSARL_v2","pSARL_v2z7puv29m","5816176700b325000184dba6","freq","img/green_2bandit_b2.png","70","70","test","1","7","7","1","",""
"null","87301","pSARL_v2","pSARL_v2z7puv29m","5816176700b325000184dba6","freq_resp","img/green_2bandit_b.png","70","70","test","","","","1","",""
"null","87462","pSARL_v2","pSARL_v2z7puv29m","5816176700b325000184dba6","fixation","img/fixation.png","null","","test","","","","","",""
"319.10000002384186","87785","pSARL_v2","pSARL_v2z7puv29m","5816176700b325000184dba6","freq","img/green_2bandit_b2.png","70","70","test","1","8","8","1","",""
"null","88271","pSARL_v2","pSARL_v2z7puv29m","5816176700b325000184dba6","freq_resp","img/green_2bandit_b.png","70","70","test","","","","1","",""
"null","88427","pSARL_v2","pSARL_v2z7puv29m","5816176700b325000184dba6","fixation","img/fixation.png","null","","test","","","","","",""
"321.9000000357628","88752","pSARL_v2","pSARL_v2z7puv29m","5816176700b325000184dba6","infreq","img/orange_2bandit_b2.png","68","68","test","1","9","9","1","",""
"null","89234","pSARL_v2","pSARL_v2z7puv29m","5816176700b325000184dba6","infreq_resp","img/orange_2bandit_b.png","68","68","test","","","","1","",""
"null","89390","pSARL_v2","pSARL_v2z7puv29m","5816176700b325000184dba6","fixation","img/fixation.png","null","","test","","","","","",""
"364.60000002384186","89758","pSARL_v2","pSARL_v2z7puv29m","5816176700b325000184dba6","freq","img/green_2bandit_b2.png","70","70","test","1","10","10","1","",""
"null","90199","pSARL_v2","pSARL_v2z7puv29m","5816176700b325000184dba6","freq_resp","img/green_2bandit_b.png","70","70","test","","","","1","",""
"null","90357","pSARL_v2","pSARL_v2z7puv29m","5816176700b325000184dba6","fixation","img/fixation.png","null","","test","","","","","",""
"345.69999998807907","90706","pSARL_v2","pSARL_v2z7puv29m","5816176700b325000184dba6","freq","img/green_2bandit_b2.png","70","70","test","1","11","11","1","",""
"null","91178","pSARL_v2","pSARL_v2z7puv29m","5816176700b325000184dba6","freq_resp","img/green_2bandit_b.png","70","70","test","","","","1","",""
"null","91338","pSARL_v2","pSARL_v2z7puv29m","5816176700b325000184dba6","fixation","img/fixation.png","null","","test","","","","","",""
"320.10000002384186","91661","pSARL_v2","pSARL_v2z7puv29m","5816176700b325000184dba6","freq","img/green_2bandit_b2.png","70","70","test","1","12","12","1","",""
"null","92148","pSARL_v2","pSARL_v2z7puv29m","5816176700b325000184dba6","freq_resp","img/green_2bandit_b.png","70","70","test","","","","1","",""
"null","92307","pSARL_v2","pSARL_v2z7puv29m","5816176700b325000184dba6","fixation","img/fixation.png","null","","test","","","","","",""
"298.69999998807907","92609","pSARL_v2","pSARL_v2z7puv29m","5816176700b325000184dba6","freq","img/green_2bandit_b2.png","70","70","test","1","13","13","1","",""
"null","93129","pSARL_v2","pSARL_v2z7puv29m","5816176700b325000184dba6","freq_resp","img/green_2bandit_b.png","70","70","test","","","","1","",""
"null","93285","pSARL_v2","pSARL_v2z7puv29m","5816176700b325000184dba6","fixation","img/fixation.png","null","","test","","","","","",""
"252.69999998807907","93540","pSARL_v2","pSARL_v2z7puv29m","5816176700b325000184dba6","freq","img/green_2bandit_b2.png","70","70","test","1","14","14","1","",""
"null","94100","pSARL_v2","pSARL_v2z7puv29m","5816176700b325000184dba6","freq_resp","img/green_2bandit_b.png","70","70","test","","","","1","",""
"null","94255","pSARL_v2","pSARL_v2z7puv29m","5816176700b325000184dba6","fixation","img/fixation.png","null","","test","","","","","",""
"311.2999999523163","94570","pSARL_v2","pSARL_v2z7puv29m","5816176700b325000184dba6","freq","img/green_2bandit_b2.png","70","70","test","1","15","15","1","",""
"null","95063","pSARL_v2","pSARL_v2z7puv29m","5816176700b325000184dba6","freq_resp","img/green_2bandit_b.png","70","70","test","","","","1","",""
"null","95220","pSARL_v2","pSARL_v2z7puv29m","5816176700b325000184dba6","fixation","img/fixation.png","null","","test","","","","","",""
"271.5","95495","pSARL_v2","pSARL_v2z7puv29m","5816176700b325000184dba6","freq","img/green_2bandit_b2.png","70","70","test","1","16","16","1","",""
"null","96028","pSARL_v2","pSARL_v2z7puv29m","5816176700b325000184dba6","freq_resp","img/green_2bandit_b.png","70","70","test","","","","1","",""
"null","96186","pSARL_v2","pSARL_v2z7puv29m","5816176700b325000184dba6","fixation","img/fixation.png","null","","test","","","","","",""
"412.19999998807907","96601","pSARL_v2","pSARL_v2z7puv29m","5816176700b325000184dba6","infreq","img/orange_2bandit_b2.png","68","68","test","1","17","17","1","",""
"null","96993","pSARL_v2","pSARL_v2z7puv29m","5816176700b325000184dba6","infreq_resp","img/orange_2bandit_b.png","68","68","test","","","","1","",""
"null","97148","pSARL_v2","pSARL_v2z7puv29m","5816176700b325000184dba6","fixation","img/fixation.png","null","","test","","","","","",""
"403.5","97555","pSARL_v2","pSARL_v2z7puv29m","5816176700b325000184dba6","freq","img/green_2bandit_b2.png","70","70","test","1","18","18","1","",""
"null","97965","pSARL_v2","pSARL_v2z7puv29m","5816176700b325000184dba6","freq_resp","img/green_2bandit_b.png","70","70","test","","","","1","",""
"null","98125","pSARL_v2","pSARL_v2z7puv29m","5816176700b325000184dba6","fixation","img/fixation.png","null","","test","","","","","",""
"336.69999998807907","98465","pSARL_v2","pSARL_v2z7puv29m","5816176700b325000184dba6","freq","img/green_2bandit_b2.png","70","70","test","1","19","19","1","",""
"null","98945","pSARL_v2","pSARL_v2z7puv29m","5816176700b325000184dba6","freq_resp","img/green_2bandit_b.png","70","70","test","","","","1","",""
"null","99102","pSARL_v2","pSARL_v2z7puv29m","5816176700b325000184dba6","fixation","img/fixation.png","null","","test","","","","","",""
"474","99579","pSARL_v2","pSARL_v2z7puv29m","5816176700b325000184dba6","reward","img/slot.png","74","","test","","","","","",""
"null","100338","pSARL_v2","pSARL_v2z7puv29m","5816176700b325000184dba6","points","<div class=""verylowPoints""> -6 </div>","null","na","test","","","","1","-6","0"
"539.3999999761581","100882","pSARL_v2","pSARL_v2z7puv29m","5816176700b325000184dba6","freq","img/green_2bandit_b2.png","70","70","test","1","20","20","2","",""
"null","101148","pSARL_v2","pSARL_v2z7puv29m","5816176700b325000184dba6","freq_resp","img/green_2bandit_b.png","70","70","test","","","","2","",""
"null","101305","pSARL_v2","pSARL_v2z7puv29m","5816176700b325000184dba6","fixation","img/fixation.png","null","","test","","","","","",""
"346.60000002384186","101655","pSARL_v2","pSARL_v2z7puv29m","5816176700b325000184dba6","freq","img/green_2bandit_b2.png","70","70","test","1","21","21","2","",""
"null","102125","pSARL_v2","pSARL_v2z7puv29m","5816176700b325000184dba6","freq_resp","img/green_2bandit_b.png","70","70","test","","","","2","",""
"null","102285","pSARL_v2","pSARL_v2z7puv29m","5816176700b325000184dba6","fixation","img/fixation.png","null","","test","","","","","",""
"257.5","102545","pSARL_v2","pSARL_v2z7puv29m","5816176700b325000184dba6","freq","img/green_2bandit_b2.png","70","70","test","1","22","22","2","",""
"null","103102","pSARL_v2","pSARL_v2z7puv29m","5816176700b325000184dba6","freq_resp","img/green_2bandit_b.png","70","70","test","","","","2","",""
"null","103262","pSARL_v2","pSARL_v2z7puv29m","5816176700b325000184dba6","fixation","img/fixation.png","null","","test","","","","","",""
"298.89999997615814","103564","pSARL_v2","pSARL_v2z7puv29m","5816176700b325000184dba6","freq","img/green_2bandit_b2.png","70","70","test","1","23","23","2","",""
"null","104072","pSARL_v2","pSARL_v2z7puv29m","5816176700b325000184dba6","freq_resp","img/green_2bandit_b.png","70","70","test","","","","2","",""
"null","104232","pSARL_v2","pSARL_v2z7puv29m","5816176700b325000184dba6","fixation","img/fixation.png","null","","test","","","","","",""
"254.5","104490","pSARL_v2","pSARL_v2z7puv29m","5816176700b325000184dba6","freq","img/green_2bandit_b2.png","70","70","test","1","24","24","2","",""
"null","105038","pSARL_v2","pSARL_v2z7puv29m","5816176700b325000184dba6","freq_resp","img/green_2bandit_b.png","70","70","test","","","","2","",""
"null","105197","pSARL_v2","pSARL_v2z7puv29m","5816176700b325000184dba6","fixation","img/fixation.png","null","","test","","","","","",""
"234.70000004768372","105435","pSARL_v2","pSARL_v2z7puv29m","5816176700b325000184dba6","infreq","img/orange_2bandit_b2.png","70","68","test","0","25","25","2","",""
"null","106008","pSARL_v2","pSARL_v2z7puv29m","5816176700b325000184dba6","infreq_resp","img/orange_2bandit_b.png","70","68","test","","","","2","",""
"null","106165","pSARL_v2","pSARL_v2z7puv29m","5816176700b325000184dba6","fixation","img/fixation.png","null","","test","","","","","",""
"376.5999999642372","106544","pSARL_v2","pSARL_v2z7puv29m","5816176700b325000184dba6","freq","img/green_2bandit_b2.png","70","70","test","1","26","26","2","",""
"null","106975","pSARL_v2","pSARL_v2z7puv29m","5816176700b325000184dba6","freq_resp","img/green_2bandit_b.png","70","70","test","","","","2","",""
"null","107134","pSARL_v2","pSARL_v2z7puv29m","5816176700b325000184dba6","fixation","img/fixation.png","null","","test","","","","","",""
"322.5","107459","pSARL_v2","pSARL_v2z7puv29m","5816176700b325000184dba6","freq","img/green_2bandit_b2.png","70","70","test","1","27","27","2","",""
"null","107942","pSARL_v2","pSARL_v2z7puv29m","5816176700b325000184dba6","freq_resp","img/green_2bandit_b.png","70","70","test","","","","2","",""
"null","108101","pSARL_v2","pSARL_v2z7puv29m","5816176700b325000184dba6","fixation","img/fixation.png","null","","test","","","","","",""
"312","108417","pSARL_v2","pSARL_v2z7puv29m","5816176700b325000184dba6","freq","img/green_2bandit_b2.png","70","70","test","1","28","28","2","",""
"null","108909","pSARL_v2","pSARL_v2z7puv29m","5816176700b325000184dba6","freq_resp","img/green_2bandit_b.png","70","70","test","","","","2","",""
"null","109066","pSARL_v2","pSARL_v2z7puv29m","5816176700b325000184dba6","fixation","img/fixation.png","null","","test","","","","","",""
"284.10000002384186","109354","pSARL_v2","pSARL_v2z7puv29m","5816176700b325000184dba6","freq","img/green_2bandit_b2.png","70","70","test","1","29","29","2","",""
"null","109882","pSARL_v2","pSARL_v2z7puv29m","5816176700b325000184dba6","freq_resp","img/green_2bandit_b.png","70","70","test","","","","2","",""
"null","110038","pSARL_v2","pSARL_v2z7puv29m","5816176700b325000184dba6","fixation","img/fixation.png","null","","test","","","","","",""
"376.30000001192093","110417","pSARL_v2","pSARL_v2z7puv29m","5816176700b325000184dba6","freq","img/green_2bandit_b2.png","70","70","test","1","30","30","2","",""
"null","110847","pSARL_v2","pSARL_v2z7puv29m","5816176700b325000184dba6","freq_resp","img/green_2bandit_b.png","70","70","test","","","","2","",""
"null","111006","pSARL_v2","pSARL_v2z7puv29m","5816176700b325000184dba6","fixation","img/fixation.png","null","","test","","","","","",""
"353.60000002384186","111362","pSARL_v2","pSARL_v2z7puv29m","5816176700b325000184dba6","freq","img/green_2bandit_b2.png","70","70","test","1","31","31","2","",""
"null","111827","pSARL_v2","pSARL_v2z7puv29m","5816176700b325000184dba6","freq_resp","img/green_2bandit_b.png","70","70","test","","","","2","",""
"null","111986","pSARL_v2","pSARL_v2z7puv29m","5816176700b325000184dba6","fixation","img/fixation.png","null","","test","","","","","",""
"322.19999998807907","112312","pSARL_v2","pSARL_v2z7puv29m","5816176700b325000184dba6","freq","img/green_2bandit_b2.png","70","70","test","1","32","32","2","",""
"null","112804","pSARL_v2","pSARL_v2z7puv29m","5816176700b325000184dba6","freq_resp","img/green_2bandit_b.png","70","70","test","","","","2","",""
"null","112962","pSARL_v2","pSARL_v2z7puv29m","5816176700b325000184dba6","fixation","img/fixation.png","null","","test","","","","","",""
"281.19999998807907","113247","pSARL_v2","pSARL_v2z7puv29m","5816176700b325000184dba6","freq","img/green_2bandit_b2.png","70","70","test","1","33","33","2","",""
"null","113772","pSARL_v2","pSARL_v2z7puv29m","5816176700b325000184dba6","freq_resp","img/green_2bandit_b.png","70","70","test","","","","2","",""
"null","113928","pSARL_v2","pSARL_v2z7puv29m","5816176700b325000184dba6","fixation","img/fixation.png","null","","test","","","","","",""
"316.30000001192093","114247","pSARL_v2","pSARL_v2z7puv29m","5816176700b325000184dba6","freq","img/green_2bandit_b2.png","70","70","test","1","34","34","2","",""
"null","114735","pSARL_v2","pSARL_v2z7puv29m","5816176700b325000184dba6","freq_resp","img/green_2bandit_b.png","70","70","test","","","","2","",""
"null","114893","pSARL_v2","pSARL_v2z7puv29m","5816176700b325000184dba6","fixation","img/fixation.png","null","","test","","","","","",""
"355.7999999523163","115252","pSARL_v2","pSARL_v2z7puv29m","5816176700b325000184dba6","freq","img/green_2bandit_b2.png","70","70","test","1","35","35","2","",""
"null","115706","pSARL_v2","pSARL_v2z7puv29m","5816176700b325000184dba6","freq_resp","img/green_2bandit_b.png","70","70","test","","","","2","",""
"null","115861","pSARL_v2","pSARL_v2z7puv29m","5816176700b325000184dba6","fixation","img/fixation.png","null","","test","","","","","",""
"287.30000001192093","116151","pSARL_v2","pSARL_v2z7puv29m","5816176700b325000184dba6","freq","img/green_2bandit_b2.png","70","70","test","1","36","36","2","",""
"null","116669","pSARL_v2","pSARL_v2z7puv29m","5816176700b325000184dba6","freq_resp","img/green_2bandit_b.png","70","70","test","","","","2","",""
"null","116826","pSARL_v2","pSARL_v2z7puv29m","5816176700b325000184dba6","fixation","img/fixation.png","null","","test","","","","","",""
"228.69999998807907","117058","pSARL_v2","pSARL_v2z7puv29m","5816176700b325000184dba6","freq","img/green_2bandit_b2.png","70","70","test","1","37","37","2","",""
"null","117635","pSARL_v2","pSARL_v2z7puv29m","5816176700b325000184dba6","freq_resp","img/green_2bandit_b.png","70","70","test","","","","2","",""
"null","117796","pSARL_v2","pSARL_v2z7puv29m","5816176700b325000184dba6","fixation","img/fixation.png","null","","test","","","","","",""
"262.10000002384186","118060","pSARL_v2","pSARL_v2z7puv29m","5816176700b325000184dba6","infreq","img/orange_2bandit_b2.png","70","68","test","0","38","38","2","",""
"null","118601","pSARL_v2","pSARL_v2z7puv29m","5816176700b325000184dba6","infreq_resp","img/orange_2bandit_b.png","70","68","test","","","","2","",""
"null","118759","pSARL_v2","pSARL_v2z7puv29m","5816176700b325000184dba6","fixation","img/fixation.png","null","","test","","","","","",""
"319.9000000357628","119083","pSARL_v2","pSARL_v2z7puv29m","5816176700b325000184dba6","freq","img/green_2bandit_b2.png","70","70","test","1","39","39","2","",""
"null","119565","pSARL_v2","pSARL_v2z7puv29m","5816176700b325000184dba6","freq_resp","img/green_2bandit_b.png","70","70","test","","","","2","",""
"null","119728","pSARL_v2","pSARL_v2z7puv29m","5816176700b325000184dba6","fixation","img/fixation.png","null","","test","","","","","",""
"336.5999999642372","120068","pSARL_v2","pSARL_v2z7puv29m","5816176700b325000184dba6","freq","img/green_2bandit_b2.png","70","70","test","1","40","40","2","",""
"null","120548","pSARL_v2","pSARL_v2z7puv29m","5816176700b325000184dba6","freq_resp","img/green_2bandit_b.png","70","70","test","","","","2","",""
"null","120705","pSARL_v2","pSARL_v2z7puv29m","5816176700b325000184dba6","fixation","img/fixation.png","null","","test","","","","","",""
"435.39999997615814","121144","pSARL_v2","pSARL_v2z7puv29m","5816176700b325000184dba6","reward","img/slot.png","74","","test","","","","","",""
"null","121902","pSARL_v2","pSARL_v2z7puv29m","5816176700b325000184dba6","points","<div class=""verylowPoints""> -11 </div>","null","na","test","","","","2","-11","1"
"505.5999999642372","122411","pSARL_v2","pSARL_v2z7puv29m","5816176700b325000184dba6","freq","img/green_2bandit_b2.png","70","70","test","1","41","41","3","",""
"null","122712","pSARL_v2","pSARL_v2z7puv29m","5816176700b325000184dba6","freq_resp","img/green_2bandit_b.png","70","70","test","","","","3","",""
"null","122870","pSARL_v2","pSARL_v2z7puv29m","5816176700b325000184dba6","fixation","img/fixation.png","null","","test","","","","","",""
"525.5","123398","pSARL_v2","pSARL_v2z7puv29m","5816176700b325000184dba6","freq","img/green_2bandit_b2.png","70","70","test","1","42","42","3","",""
"null","123690","pSARL_v2","pSARL_v2z7puv29m","5816176700b325000184dba6","freq_resp","img/green_2bandit_b.png","70","70","test","","","","3","",""
"null","123846","pSARL_v2","pSARL_v2z7puv29m","5816176700b325000184dba6","fixation","img/fixation.png","null","","test","","","","","",""
"388.10000002384186","124238","pSARL_v2","pSARL_v2z7puv29m","5816176700b325000184dba6","freq","img/green_2bandit_b2.png","70","70","test","1","43","43","3","",""
"null","124666","pSARL_v2","pSARL_v2z7puv29m","5816176700b325000184dba6","freq_resp","img/green_2bandit_b.png","70","70","test","","","","3","",""
"null","124824","pSARL_v2","pSARL_v2z7puv29m","5816176700b325000184dba6","fixation","img/fixation.png","null","","test","","","","","",""
"291.10000002384186","125117","pSARL_v2","pSARL_v2z7puv29m","5816176700b325000184dba6","freq","img/green_2bandit_b2.png","70","70","test","1","44","44","3","",""
"null","125628","pSARL_v2","pSARL_v2z7puv29m","5816176700b325000184dba6","freq_resp","img/green_2bandit_b.png","70","70","test","","","","3","",""
"null","125785","pSARL_v2","pSARL_v2z7puv29m","5816176700b325000184dba6","fixation","img/fixation.png","null","","test","","","","","",""
"420","126207","pSARL_v2","pSARL_v2z7puv29m","5816176700b325000184dba6","infreq","img/orange_2bandit_b2.png","68","68","test","1","45","45","3","",""
"null","126591","pSARL_v2","pSARL_v2z7puv29m","5816176700b325000184dba6","infreq_resp","img/orange_2bandit_b.png","68","68","test","","","","3","",""
"null","126754","pSARL_v2","pSARL_v2z7puv29m","5816176700b325000184dba6","fixation","img/fixation.png","null","","test","","","","","",""
"427.9000000357628","127184","pSARL_v2","pSARL_v2z7puv29m","5816176700b325000184dba6","freq","img/green_2bandit_b2.png","70","70","test","1","46","46","3","",""
"null","127572","pSARL_v2","pSARL_v2z7puv29m","5816176700b325000184dba6","freq_resp","img/green_2bandit_b.png","70","70","test","","","","3","",""
"null","127728","pSARL_v2","pSARL_v2z7puv29m","5816176700b325000184dba6","fixation","img/fixation.png","null","","test","","","","","",""
"310.9000000357628","128042","pSARL_v2","pSARL_v2z7puv29m","5816176700b325000184dba6","freq","img/green_2bandit_b2.png","70","70","test","1","47","47","3","",""
"null","128541","pSARL_v2","pSARL_v2z7puv29m","5816176700b325000184dba6","freq_resp","img/green_2bandit_b.png","70","70","test","","","","3","",""
"null","128700","pSARL_v2","pSARL_v2z7puv29m","5816176700b325000184dba6","fixation","img/fixation.png","null","","test","","","","","",""
"375.89999997615814","129079","pSARL_v2","pSARL_v2z7puv29m","5816176700b325000184dba6","freq","img/green_2bandit_b2.png","70","70","test","1","48","48","3","",""
"null","129512","pSARL_v2","pSARL_v2z7puv29m","5816176700b325000184dba6","freq_resp","img/green_2bandit_b.png","70","70","test","","","","3","",""
"null","129669","pSARL_v2","pSARL_v2z7puv29m","5816176700b325000184dba6","fixation","img/fixation.png","null","","test","","","","","",""
"313.2000000476837","129986","pSARL_v2","pSARL_v2z7puv29m","5816176700b325000184dba6","freq","img/green_2bandit_b2.png","70","70","test","1","49","49","3","",""
"null","130489","pSARL_v2","pSARL_v2z7puv29m","5816176700b325000184dba6","freq_resp","img/green_2bandit_b.png","70","70","test","","","","3","",""
"null","130644","pSARL_v2","pSARL_v2z7puv29m","5816176700b325000184dba6","fixation","img/fixation.png","null","","test","","","","","",""
"387.89999997615814","131037","pSARL_v2","pSARL_v2z7puv29m","5816176700b325000184dba6","infreq","img/orange_2bandit_b2.png","68","68","test","1","50","50","3","",""
"null","131461","pSARL_v2","pSARL_v2z7puv29m","5816176700b325000184dba6","infreq_resp","img/orange_2bandit_b.png","68","68","test","","","","3","",""
"null","131620","pSARL_v2","pSARL_v2z7puv29m","5816176700b325000184dba6","fixation","img/fixation.png","null","","test","","","","","",""
"340.4000000357628","131963","pSARL_v2","pSARL_v2z7puv29m","5816176700b325000184dba6","freq","img/green_2bandit_b2.png","70","70","test","1","51","51","3","",""
"null","132431","pSARL_v2","pSARL_v2z7puv29m","5816176700b325000184dba6","freq_resp","img/green_2bandit_b.png","70","70","test","","","","3","",""
"null","132589","pSARL_v2","pSARL_v2z7puv29m","5816176700b325000184dba6","fixation","img/fixation.png","null","","test","","","","","",""
"324.9000000357628","132917","pSARL_v2","pSARL_v2z7puv29m","5816176700b325000184dba6","freq","img/green_2bandit_b2.png","70","70","test","1","52","52","3","",""
"null","133396","pSARL_v2","pSARL_v2z7puv29m","5816176700b325000184dba6","freq_resp","img/green_2bandit_b.png","70","70","test","","","","3","",""
"null","133555","pSARL_v2","pSARL_v2z7puv29m","5816176700b325000184dba6","fixation","img/fixation.png","null","","test","","","","","",""
"318.9000000357628","133878","pSARL_v2","pSARL_v2z7puv29m","5816176700b325000184dba6","freq","img/green_2bandit_b2.png","70","70","test","1","53","53","3","",""
"null","134375","pSARL_v2","pSARL_v2z7puv29m","5816176700b325000184dba6","freq_resp","img/green_2bandit_b.png","70","70","test","","","","3","",""
"null","134536","pSARL_v2","pSARL_v2z7puv29m","5816176700b325000184dba6","fixation","img/fixation.png","null","","test","","","","","",""
"331.60000002384186","134870","pSARL_v2","pSARL_v2z7puv29m","5816176700b325000184dba6","freq","img/green_2bandit_b2.png","70","70","test","1","54","54","3","",""
"null","135342","pSARL_v2","pSARL_v2z7puv29m","5816176700b325000184dba6","freq_resp","img/green_2bandit_b.png","70","70","test","","","","3","",""
"null","135498","pSARL_v2","pSARL_v2z7puv29m","5816176700b325000184dba6","fixation","img/fixation.png","null","","test","","","","","",""
"339.7000000476837","135841","pSARL_v2","pSARL_v2z7puv29m","5816176700b325000184dba6","freq","img/green_2bandit_b2.png","70","70","test","1","55","55","3","",""
"null","136308","pSARL_v2","pSARL_v2z7puv29m","5816176700b325000184dba6","freq_resp","img/green_2bandit_b.png","70","70","test","","","","3","",""
"null","136463","pSARL_v2","pSARL_v2z7puv29m","5816176700b325000184dba6","fixation","img/fixation.png","null","","test","","","","","",""
"329.80000001192093","136797","pSARL_v2","pSARL_v2z7puv29m","5816176700b325000184dba6","freq","img/green_2bandit_b2.png","70","70","test","1","56","56","3","",""
"null","137286","pSARL_v2","pSARL_v2z7puv29m","5816176700b325000184dba6","freq_resp","img/green_2bandit_b.png","70","70","test","","","","3","",""
"null","137443","pSARL_v2","pSARL_v2z7puv29m","5816176700b325000184dba6","fixation","img/fixation.png","null","","test","","","","","",""
"254.69999998807907","137701","pSARL_v2","pSARL_v2z7puv29m","5816176700b325000184dba6","freq","img/green_2bandit_b2.png","70","70","test","1","57","57","3","",""
"null","138261","pSARL_v2","pSARL_v2z7puv29m","5816176700b325000184dba6","freq_resp","img/green_2bandit_b.png","70","70","test","","","","3","",""
"null","138418","pSARL_v2","pSARL_v2z7puv29m","5816176700b325000184dba6","fixation","img/fixation.png","null","","test","","","","","",""
"384.60000002384186","138805","pSARL_v2","pSARL_v2z7puv29m","5816176700b325000184dba6","infreq","img/orange_2bandit_b2.png","68","68","test","1","58","58","3","",""
"null","139228","pSARL_v2","pSARL_v2z7puv29m","5816176700b325000184dba6","infreq_resp","img/orange_2bandit_b.png","68","68","test","","","","3","",""
"null","139385","pSARL_v2","pSARL_v2z7puv29m","5816176700b325000184dba6","fixation","img/fixation.png","null","","test","","","","","",""
"376.5","139764","pSARL_v2","pSARL_v2z7puv29m","5816176700b325000184dba6","freq","img/green_2bandit_b2.png","70","70","test","1","59","59","3","",""
"null","140193","pSARL_v2","pSARL_v2z7puv29m","5816176700b325000184dba6","freq_resp","img/green_2bandit_b.png","70","70","test","","","","3","",""
"null","140351","pSARL_v2","pSARL_v2z7puv29m","5816176700b325000184dba6","fixation","img/fixation.png","null","","test","","","","","",""
"312.0999999642372","140666","pSARL_v2","pSARL_v2z7puv29m","5816176700b325000184dba6","freq","img/green_2bandit_b2.png","70","70","test","1","60","60","3","",""
"null","141157","pSARL_v2","pSARL_v2z7puv29m","5816176700b325000184dba6","freq_resp","img/green_2bandit_b.png","70","70","test","","","","3","",""
"null","141315","pSARL_v2","pSARL_v2z7puv29m","5816176700b325000184dba6","fixation","img/fixation.png","null","","test","","","","","",""
"506.10000002384186","141824","pSARL_v2","pSARL_v2z7puv29m","5816176700b325000184dba6","freq","img/green_2bandit_b2.png","70","70","test","1","61","61","3","",""
"null","142126","pSARL_v2","pSARL_v2z7puv29m","5816176700b325000184dba6","freq_resp","img/green_2bandit_b.png","70","70","test","","","","3","",""
"null","142287","pSARL_v2","pSARL_v2z7puv29m","5816176700b325000184dba6","fixation","img/fixation.png","null","","test","","","","","",""
"336.7999999523163","142626","pSARL_v2","pSARL_v2z7puv29m","5816176700b325000184dba6","freq","img/green_2bandit_b2.png","70","70","test","1","62","62","3","",""
"null","143094","pSARL_v2","pSARL_v2z7puv29m","5816176700b325000184dba6","freq_resp","img/green_2bandit_b.png","70","70","test","","","","3","",""
"null","143250","pSARL_v2","pSARL_v2z7puv29m","5816176700b325000184dba6","fixation","img/fixation.png","null","","test","","","","","",""
"290.30000001192093","143544","pSARL_v2","pSARL_v2z7puv29m","5816176700b325000184dba6","freq","img/green_2bandit_b2.png","70","70","test","1","63","63","3","",""
"null","144068","pSARL_v2","pSARL_v2z7puv29m","5816176700b325000184dba6","freq_resp","img/green_2bandit_b.png","70","70","test","","","","3","",""
"null","144225","pSARL_v2","pSARL_v2z7puv29m","5816176700b325000184dba6","fixation","img/fixation.png","null","","test","","","","","",""
"415.69999998807907","144644","pSARL_v2","pSARL_v2z7puv29m","5816176700b325000184dba6","freq","img/green_2bandit_b2.png","70","70","test","1","64","64","3","",""
"null","145033","pSARL_v2","pSARL_v2z7puv29m","5816176700b325000184dba6","freq_resp","img/green_2bandit_b.png","70","70","test","","","","3","",""
"null","145191","pSARL_v2","pSARL_v2z7puv29m","5816176700b325000184dba6","fixation","img/fixation.png","null","","test","","","","","",""
"262.5","145457","pSARL_v2","pSARL_v2z7puv29m","5816176700b325000184dba6","freq","img/green_2bandit_b2.png","70","70","test","1","65","65","3","",""
"null","146011","pSARL_v2","pSARL_v2z7puv29m","5816176700b325000184dba6","freq_resp","img/green_2bandit_b.png","70","70","test","","","","3","",""
"null","146169","pSARL_v2","pSARL_v2z7puv29m","5816176700b325000184dba6","fixation","img/fixation.png","null","","test","","","","","",""
"348.60000002384186","146520","pSARL_v2","pSARL_v2z7puv29m","5816176700b325000184dba6","freq","img/green_2bandit_b2.png","70","70","test","1","66","66","3","",""
"null","146978","pSARL_v2","pSARL_v2z7puv29m","5816176700b325000184dba6","freq_resp","img/green_2bandit_b.png","70","70","test","","","","3","",""
"null","147135","pSARL_v2","pSARL_v2z7puv29m","5816176700b325000184dba6","fixation","img/fixation.png","null","","test","","","","","",""
"444.89999997615814","147584","pSARL_v2","pSARL_v2z7puv29m","5816176700b325000184dba6","reward","img/slot.png","74","","test","","","","","",""
"null","148352","pSARL_v2","pSARL_v2z7puv29m","5816176700b325000184dba6","points","<div class=""verylowPoints""> -7 </div>","null","na","test","","","","3","-7","2"
"390.69999998807907","148746","pSARL_v2","pSARL_v2z7puv29m","5816176700b325000184dba6","freq","img/green_2bandit_b2.png","70","70","test","1","67","67","4","",""
"null","149162","pSARL_v2","pSARL_v2z7puv29m","5816176700b325000184dba6","freq_resp","img/green_2bandit_b.png","70","70","test","","","","4","",""
"null","149321","pSARL_v2","pSARL_v2z7puv29m","5816176700b325000184dba6","fixation","img/fixation.png","null","","test","","","","","",""
"293","149617","pSARL_v2","pSARL_v2z7puv29m","5816176700b325000184dba6","freq","img/green_2bandit_b2.png","70","70","test","1","68","68","4","",""
"null","150135","pSARL_v2","pSARL_v2z7puv29m","5816176700b325000184dba6","freq_resp","img/green_2bandit_b.png","70","70","test","","","","4","",""
"null","150296","pSARL_v2","pSARL_v2z7puv29m","5816176700b325000184dba6","fixation","img/fixation.png","null","","test","","","","","",""
"285","150584","pSARL_v2","pSARL_v2z7puv29m","5816176700b325000184dba6","freq","img/green_2bandit_b2.png","70","70","test","1","69","69","4","",""
"null","151109","pSARL_v2","pSARL_v2z7puv29m","5816176700b325000184dba6","freq_resp","img/green_2bandit_b.png","70","70","test","","","","4","",""
"null","151269","pSARL_v2","pSARL_v2z7puv29m","5816176700b325000184dba6","fixation","img/fixation.png","null","","test","","","","","",""
"262.39999997615814","151535","pSARL_v2","pSARL_v2z7puv29m","5816176700b325000184dba6","freq","img/green_2bandit_b2.png","70","70","test","1","70","70","4","",""
"null","152078","pSARL_v2","pSARL_v2z7puv29m","5816176700b325000184dba6","freq_resp","img/green_2bandit_b.png","70","70","test","","","","4","",""
"null","152236","pSARL_v2","pSARL_v2z7puv29m","5816176700b325000184dba6","fixation","img/fixation.png","null","","test","","","","","",""
"275","152514","pSARL_v2","pSARL_v2z7puv29m","5816176700b325000184dba6","freq","img/green_2bandit_b2.png","70","70","test","1","71","71","4","",""
"null","153051","pSARL_v2","pSARL_v2z7puv29m","5816176700b325000184dba6","freq_resp","img/green_2bandit_b.png","70","70","test","","","","4","",""
"null","153211","pSARL_v2","pSARL_v2z7puv29m","5816176700b325000184dba6","fixation","img/fixation.png","null","","test","","","","","",""
"253.60000002384186","153468","pSARL_v2","pSARL_v2z7puv29m","5816176700b325000184dba6","freq","img/green_2bandit_b2.png","70","70","test","1","72","72","4","",""
"null","154018","pSARL_v2","pSARL_v2z7puv29m","5816176700b325000184dba6","freq_resp","img/green_2bandit_b.png","70","70","test","","","","4","",""
"null","154177","pSARL_v2","pSARL_v2z7puv29m","5816176700b325000184dba6","fixation","img/fixation.png","null","","test","","","","","",""
"350.89999997615814","154531","pSARL_v2","pSARL_v2z7puv29m","5816176700b325000184dba6","freq","img/green_2bandit_b2.png","70","70","test","1","73","73","4","",""
"null","154998","pSARL_v2","pSARL_v2z7puv29m","5816176700b325000184dba6","freq_resp","img/green_2bandit_b.png","70","70","test","","","","4","",""
"null","155155","pSARL_v2","pSARL_v2z7puv29m","5816176700b325000184dba6","fixation","img/fixation.png","null","","test","","","","","",""
"467.69999998807907","155625","pSARL_v2","pSARL_v2z7puv29m","5816176700b325000184dba6","freq","img/green_2bandit_b2.png","70","70","test","1","74","74","4","",""
"null","155975","pSARL_v2","pSARL_v2z7puv29m","5816176700b325000184dba6","freq_resp","img/green_2bandit_b.png","70","70","test","","","","4","",""
"null","156133","pSARL_v2","pSARL_v2z7puv29m","5816176700b325000184dba6","fixation","img/fixation.png","null","","test","","","","","",""
"420.69999998807907","156557","pSARL_v2","pSARL_v2z7puv29m","5816176700b325000184dba6","freq","img/green_2bandit_b2.png","70","70","test","1","75","75","4","",""
"null","156940","pSARL_v2","pSARL_v2z7puv29m","5816176700b325000184dba6","freq_resp","img/green_2bandit_b.png","70","70","test","","","","4","",""
"null","157099","pSARL_v2","pSARL_v2z7puv29m","5816176700b325000184dba6","fixation","img/fixation.png","null","","test","","","","","",""
"412","157515","pSARL_v2","pSARL_v2z7puv29m","5816176700b325000184dba6","infreq","img/orange_2bandit_b2.png","68","68","test","1","76","76","4","",""
"null","157921","pSARL_v2","pSARL_v2z7puv29m","5816176700b325000184dba6","infreq_resp","img/orange_2bandit_b.png","68","68","test","","","","4","",""
"null","158078","pSARL_v2","pSARL_v2z7puv29m","5816176700b325000184dba6","fixation","img/fixation.png","null","","test","","","","","",""
"355.60000002384186","158437","pSARL_v2","pSARL_v2z7puv29m","5816176700b325000184dba6","freq","img/green_2bandit_b2.png","70","70","test","1","77","77","4","",""
"null","158889","pSARL_v2","pSARL_v2z7puv29m","5816176700b325000184dba6","freq_resp","img/green_2bandit_b.png","70","70","test","","","","4","",""
"null","159047","pSARL_v2","pSARL_v2z7puv29m","5816176700b325000184dba6","fixation","img/fixation.png","null","","test","","","","","",""
"294","159344","pSARL_v2","pSARL_v2z7puv29m","5816176700b325000184dba6","freq","img/green_2bandit_b2.png","70","70","test","1","78","78","4","",""
"null","159867","pSARL_v2","pSARL_v2z7puv29m","5816176700b325000184dba6","freq_resp","img/green_2bandit_b.png","70","70","test","","","","4","",""
"null","160030","pSARL_v2","pSARL_v2z7puv29m","5816176700b325000184dba6","fixation","img/fixation.png","null","","test","","","","","",""
"286.19999998807907","160319","pSARL_v2","pSARL_v2z7puv29m","5816176700b325000184dba6","freq","img/green_2bandit_b2.png","70","70","test","1","79","79","4","",""
"null","160838","pSARL_v2","pSARL_v2z7puv29m","5816176700b325000184dba6","freq_resp","img/green_2bandit_b.png","70","70","test","","","","4","",""
"null","160995","pSARL_v2","pSARL_v2z7puv29m","5816176700b325000184dba6","fixation","img/fixation.png","null","","test","","","","","",""
"323.19999998807907","161321","pSARL_v2","pSARL_v2z7puv29m","5816176700b325000184dba6","freq","img/green_2bandit_b2.png","70","70","test","1","80","80","4","",""
"null","161808","pSARL_v2","pSARL_v2z7puv29m","5816176700b325000184dba6","freq_resp","img/green_2bandit_b.png","70","70","test","","","","4","",""
"null","161966","pSARL_v2","pSARL_v2z7puv29m","5816176700b325000184dba6","fixation","img/fixation.png","null","","test","","","","","",""
"264.4000000357628","162234","pSARL_v2","pSARL_v2z7puv29m","5816176700b325000184dba6","freq","img/green_2bandit_b2.png","70","70","test","1","81","81","4","",""
"null","162775","pSARL_v2","pSARL_v2z7puv29m","5816176700b325000184dba6","freq_resp","img/green_2bandit_b.png","70","70","test","","","","4","",""
"null","162934","pSARL_v2","pSARL_v2z7puv29m","5816176700b325000184dba6","fixation","img/fixation.png","null","","test","","","","","",""
"250.19999998807907","163188","pSARL_v2","pSARL_v2z7puv29m","5816176700b325000184dba6","freq","img/green_2bandit_b2.png","70","70","test","1","82","82","4","",""
"null","163741","pSARL_v2","pSARL_v2z7puv29m","5816176700b325000184dba6","freq_resp","img/green_2bandit_b.png","70","70","test","","","","4","",""
"null","163898","pSARL_v2","pSARL_v2z7puv29m","5816176700b325000184dba6","fixation","img/fixation.png","null","","test","","","","","",""
"218.70000004768372","164120","pSARL_v2","pSARL_v2z7puv29m","5816176700b325000184dba6","freq","img/green_2bandit_b2.png","70","70","test","1","83","83","4","",""
"null","164705","pSARL_v2","pSARL_v2z7puv29m","5816176700b325000184dba6","freq_resp","img/green_2bandit_b.png","70","70","test","","","","4","",""
"null","164862","pSARL_v2","pSARL_v2z7puv29m","5816176700b325000184dba6","fixation","img/fixation.png","null","","test","","","","","",""
"199","165064","pSARL_v2","pSARL_v2z7puv29m","5816176700b325000184dba6","freq","img/green_2bandit_b2.png","70","70","test","1","84","84","4","",""
"null","165668","pSARL_v2","pSARL_v2z7puv29m","5816176700b325000184dba6","freq_resp","img/green_2bandit_b.png","70","70","test","","","","4","",""
"null","165827","pSARL_v2","pSARL_v2z7puv29m","5816176700b325000184dba6","fixation","img/fixation.png","null","","test","","","","","",""
"200.0999999642372","166031","pSARL_v2","pSARL_v2z7puv29m","5816176700b325000184dba6","freq","img/green_2bandit_b2.png","70","70","test","1","85","85","4","",""
"null","166647","pSARL_v2","pSARL_v2z7puv29m","5816176700b325000184dba6","freq_resp","img/green_2bandit_b.png","70","70","test","","","","4","",""
"null","166804","pSARL_v2","pSARL_v2z7puv29m","5816176700b325000184dba6","fixation","img/fixation.png","null","","test","","","","","",""
"248.30000001192093","167055","pSARL_v2","pSARL_v2z7puv29m","5816176700b325000184dba6","infreq","img/orange_2bandit_b2.png","70","68","test","0","86","86","4","",""
"null","167622","pSARL_v2","pSARL_v2z7puv29m","5816176700b325000184dba6","infreq_resp","img/orange_2bandit_b.png","70","68","test","","","","4","",""
"null","167781","pSARL_v2","pSARL_v2z7puv29m","5816176700b325000184dba6","fixation","img/fixation.png","null","","test","","","","","",""
"365.30000001192093","168149","pSARL_v2","pSARL_v2z7puv29m","5816176700b325000184dba6","freq","img/green_2bandit_b2.png","70","70","test","1","87","87","4","",""
"null","168589","pSARL_v2","pSARL_v2z7puv29m","5816176700b325000184dba6","freq_resp","img/green_2bandit_b.png","70","70","test","","","","4","",""
"null","168749","pSARL_v2","pSARL_v2z7puv29m","5816176700b325000184dba6","fixation","img/fixation.png","null","","test","","","","","",""
"270.7999999523163","169022","pSARL_v2","pSARL_v2z7puv29m","5816176700b325000184dba6","freq","img/green_2bandit_b2.png","70","70","test","1","88","88","4","",""
"null","169569","pSARL_v2","pSARL_v2z7puv29m","5816176700b325000184dba6","freq_resp","img/green_2bandit_b.png","70","70","test","","","","4","",""
"null","169724","pSARL_v2","pSARL_v2z7puv29m","5816176700b325000184dba6","fixation","img/fixation.png","null","","test","","","","","",""
"454.60000002384186","170182","pSARL_v2","pSARL_v2z7puv29m","5816176700b325000184dba6","reward","img/slot.png","74","","test","","","","","",""
"null","170937","pSARL_v2","pSARL_v2z7puv29m","5816176700b325000184dba6","points","<div class=""verylowPoints""> -3 </div>","null","na","test","","","","4","-3","3"
"435.5999999642372","171376","pSARL_v2","pSARL_v2z7puv29m","5816176700b325000184dba6","freq","img/green_2bandit_b2.png","70","70","test","1","89","89","5","",""
"null","171746","pSARL_v2","pSARL_v2z7puv29m","5816176700b325000184dba6","freq_resp","img/green_2bandit_b.png","70","70","test","","","","5","",""
"null","171905","pSARL_v2","pSARL_v2z7puv29m","5816176700b325000184dba6","fixation","img/fixation.png","null","","test","","","","","",""
"476.10000002384186","172384","pSARL_v2","pSARL_v2z7puv29m","5816176700b325000184dba6","freq","img/green_2bandit_b2.png","70","70","test","1","90","90","5","",""
"null","172713","pSARL_v2","pSARL_v2z7puv29m","5816176700b325000184dba6","freq_resp","img/green_2bandit_b.png","70","70","test","","","","5","",""
"null","172871","pSARL_v2","pSARL_v2z7puv29m","5816176700b325000184dba6","fixation","img/fixation.png","null","","test","","","","","",""
"280.39999997615814","173154","pSARL_v2","pSARL_v2z7puv29m","5816176700b325000184dba6","freq","img/green_2bandit_b2.png","70","70","test","1","91","91","5","",""
"null","173687","pSARL_v2","pSARL_v2z7puv29m","5816176700b325000184dba6","freq_resp","img/green_2bandit_b.png","70","70","test","","","","5","",""
"null","173847","pSARL_v2","pSARL_v2z7puv29m","5816176700b325000184dba6","fixation","img/fixation.png","null","","test","","","","","",""
"256.9000000357628","174107","pSARL_v2","pSARL_v2z7puv29m","5816176700b325000184dba6","freq","img/green_2bandit_b2.png","70","70","test","1","92","92","5","",""
"null","174661","pSARL_v2","pSARL_v2z7puv29m","5816176700b325000184dba6","freq_resp","img/green_2bandit_b.png","70","70","test","","","","5","",""
"null","174819","pSARL_v2","pSARL_v2z7puv29m","5816176700b325000184dba6","fixation","img/fixation.png","null","","test","","","","","",""
"255.9000000357628","175081","pSARL_v2","pSARL_v2z7puv29m","5816176700b325000184dba6","freq","img/green_2bandit_b2.png","70","70","test","1","93","93","5","",""
"null","175644","pSARL_v2","pSARL_v2z7puv29m","5816176700b325000184dba6","freq_resp","img/green_2bandit_b.png","70","70","test","","","","5","",""
"null","175804","pSARL_v2","pSARL_v2z7puv29m","5816176700b325000184dba6","fixation","img/fixation.png","null","","test","","","","","",""
"275.4000000357628","176082","pSARL_v2","pSARL_v2z7puv29m","5816176700b325000184dba6","freq","img/green_2bandit_b2.png","70","70","test","1","94","94","5","",""
"null","176623","pSARL_v2","pSARL_v2z7puv29m","5816176700b325000184dba6","freq_resp","img/green_2bandit_b.png","70","70","test","","","","5","",""
"null","176782","pSARL_v2","pSARL_v2z7puv29m","5816176700b325000184dba6","fixation","img/fixation.png","null","","test","","","","","",""
"351.80000001192093","177137","pSARL_v2","pSARL_v2z7puv29m","5816176700b325000184dba6","freq","img/green_2bandit_b2.png","70","70","test","1","95","95","5","",""
"null","177603","pSARL_v2","pSARL_v2z7puv29m","5816176700b325000184dba6","freq_resp","img/green_2bandit_b.png","70","70","test","","","","5","",""
"null","177760","pSARL_v2","pSARL_v2z7puv29m","5816176700b325000184dba6","fixation","img/fixation.png","null","","test","","","","","",""
"300.5","178064","pSARL_v2","pSARL_v2z7puv29m","5816176700b325000184dba6","freq","img/green_2bandit_b2.png","70","70","test","1","96","96","5","",""
"null","178569","pSARL_v2","pSARL_v2z7puv29m","5816176700b325000184dba6","freq_resp","img/green_2bandit_b.png","70","70","test","","","","5","",""
"null","178726","pSARL_v2","pSARL_v2z7puv29m","5816176700b325000184dba6","fixation","img/fixation.png","null","","test","","","","","",""
"257.5","178986","pSARL_v2","pSARL_v2z7puv29m","5816176700b325000184dba6","freq","img/green_2bandit_b2.png","70","70","test","1","97","97","5","",""
"null","179534","pSARL_v2","pSARL_v2z7puv29m","5816176700b325000184dba6","freq_resp","img/green_2bandit_b.png","70","70","test","","","","5","",""
"null","179693","pSARL_v2","pSARL_v2z7puv29m","5816176700b325000184dba6","fixation","img/fixation.png","null","","test","","","","","",""
"220.5","179917","pSARL_v2","pSARL_v2z7puv29m","5816176700b325000184dba6","freq","img/green_2bandit_b2.png","70","70","test","1","98","98","5","",""
"null","180510","pSARL_v2","pSARL_v2z7puv29m","5816176700b325000184dba6","freq_resp","img/green_2bandit_b.png","70","70","test","","","","5","",""
"null","180669","pSARL_v2","pSARL_v2z7puv29m","5816176700b325000184dba6","fixation","img/fixation.png","null","","test","","","","","",""
"250.30000001192093","180923","pSARL_v2","pSARL_v2z7puv29m","5816176700b325000184dba6","freq","img/green_2bandit_b2.png","70","70","test","1","99","99","5","",""
"null","181491","pSARL_v2","pSARL_v2z7puv29m","5816176700b325000184dba6","freq_resp","img/green_2bandit_b.png","70","70","test","","","","5","",""
"null","181649","pSARL_v2","pSARL_v2z7puv29m","5816176700b325000184dba6","fixation","img/fixation.png","null","","test","","","","","",""
"298.5999999642372","181950","pSARL_v2","pSARL_v2z7puv29m","5816176700b325000184dba6","freq","img/green_2bandit_b2.png","70","70","test","1","100","100","5","",""
"null","182461","pSARL_v2","pSARL_v2z7puv29m","5816176700b325000184dba6","freq_resp","img/green_2bandit_b.png","70","70","test","","","","5","",""
"null","182621","pSARL_v2","pSARL_v2z7puv29m","5816176700b325000184dba6","fixation","img/fixation.png","null","","test","","","","","",""
"310.5","182934","pSARL_v2","pSARL_v2z7puv29m","5816176700b325000184dba6","freq","img/green_2bandit_b2.png","70","70","test","1","101","101","5","",""
"null","183441","pSARL_v2","pSARL_v2z7puv29m","5816176700b325000184dba6","freq_resp","img/green_2bandit_b.png","70","70","test","","","","5","",""
"null","183600","pSARL_v2","pSARL_v2z7puv29m","5816176700b325000184dba6","fixation","img/fixation.png","null","","test","","","","","",""
"226.39999997615814","183830","pSARL_v2","pSARL_v2z7puv29m","5816176700b325000184dba6","freq","img/green_2bandit_b2.png","70","70","test","1","102","102","5","",""
"null","184416","pSARL_v2","pSARL_v2z7puv29m","5816176700b325000184dba6","freq_resp","img/green_2bandit_b.png","70","70","test","","","","5","",""
"null","184574","pSARL_v2","pSARL_v2z7puv29m","5816176700b325000184dba6","fixation","img/fixation.png","null","","test","","","","","",""
"278.89999997615814","184856","pSARL_v2","pSARL_v2z7puv29m","5816176700b325000184dba6","freq","img/green_2bandit_b2.png","70","70","test","1","103","103","5","",""
"null","185383","pSARL_v2","pSARL_v2z7puv29m","5816176700b325000184dba6","freq_resp","img/green_2bandit_b.png","70","70","test","","","","5","",""
"null","185542","pSARL_v2","pSARL_v2z7puv29m","5816176700b325000184dba6","fixation","img/fixation.png","null","","test","","","","","",""
"null","186355","pSARL_v2","pSARL_v2z7puv29m","5816176700b325000184dba6","infreq","img/orange_2bandit_b2.png","null","68","test","0","104","104","5","",""
"null","186524","pSARL_v2","pSARL_v2z7puv29m","5816176700b325000184dba6","fixation","img/fixation.png","null","","test","","","","","",""
"513.7000000476837","187041","pSARL_v2","pSARL_v2z7puv29m","5816176700b325000184dba6","infreq","img/orange_2bandit_b2.png","68","68","test","1","105","105","5","",""
"null","187333","pSARL_v2","pSARL_v2z7puv29m","5816176700b325000184dba6","infreq_resp","img/orange_2bandit_b.png","68","68","test","","","","5","",""
"null","187489","pSARL_v2","pSARL_v2z7puv29m","5816176700b325000184dba6","fixation","img/fixation.png","null","","test","","","","","",""
"379.60000002384186","187872","pSARL_v2","pSARL_v2z7puv29m","5816176700b325000184dba6","freq","img/green_2bandit_b2.png","70","70","test","1","106","106","5","",""
"null","188298","pSARL_v2","pSARL_v2z7puv29m","5816176700b325000184dba6","freq_resp","img/green_2bandit_b.png","70","70","test","","","","5","",""
"null","188455","pSARL_v2","pSARL_v2z7puv29m","5816176700b325000184dba6","fixation","img/fixation.png","null","","test","","","","","",""
"259.60000002384186","188718","pSARL_v2","pSARL_v2z7puv29m","5816176700b325000184dba6","freq","img/green_2bandit_b2.png","70","70","test","1","107","107","5","",""
"null","189274","pSARL_v2","pSARL_v2z7puv29m","5816176700b325000184dba6","freq_resp","img/green_2bandit_b.png","70","70","test","","","","5","",""
"null","189435","pSARL_v2","pSARL_v2z7puv29m","5816176700b325000184dba6","fixation","img/fixation.png","null","","test","","","","","",""
"437.19999998807907","189875","pSARL_v2","pSARL_v2z7puv29m","5816176700b325000184dba6","reward","img/slot.png","74","","test","","","","","",""
"null","190628","pSARL_v2","pSARL_v2z7puv29m","5816176700b325000184dba6","points","<div class=""veryhighPoints""> +1 </div>","null","na","test","","","","5","1","4"
"466.30000001192093","191098","pSARL_v2","pSARL_v2z7puv29m","5816176700b325000184dba6","freq","img/green_2bandit_b2.png","70","70","test","1","108","108","6","",""
"null","191446","pSARL_v2","pSARL_v2z7puv29m","5816176700b325000184dba6","freq_resp","img/green_2bandit_b.png","70","70","test","","","","6","",""
"null","191605","pSARL_v2","pSARL_v2z7puv29m","5816176700b325000184dba6","fixation","img/fixation.png","null","","test","","","","","",""
"475.30000001192093","192084","pSARL_v2","pSARL_v2z7puv29m","5816176700b325000184dba6","infreq","img/orange_2bandit_b2.png","68","68","test","1","109","109","6","",""
"null","192414","pSARL_v2","pSARL_v2z7puv29m","5816176700b325000184dba6","infreq_resp","img/orange_2bandit_b.png","68","68","test","","","","6","",""
"null","192572","pSARL_v2","pSARL_v2z7puv29m","5816176700b325000184dba6","fixation","img/fixation.png","null","","test","","","","","",""
"446.69999998807907","193021","pSARL_v2","pSARL_v2z7puv29m","5816176700b325000184dba6","freq","img/green_2bandit_b2.png","68","70","test","0","110","110","6","",""
"null","193384","pSARL_v2","pSARL_v2z7puv29m","5816176700b325000184dba6","freq_resp","img/green_2bandit_b.png","68","70","test","","","","6","",""
"null","193548","pSARL_v2","pSARL_v2z7puv29m","5816176700b325000184dba6","fixation","img/fixation.png","null","","test","","","","","",""
"301.60000002384186","193853","pSARL_v2","pSARL_v2z7puv29m","5816176700b325000184dba6","freq","img/green_2bandit_b2.png","70","70","test","1","111","111","6","",""
"null","194355","pSARL_v2","pSARL_v2z7puv29m","5816176700b325000184dba6","freq_resp","img/green_2bandit_b.png","70","70","test","","","","6","",""
"null","194513","pSARL_v2","pSARL_v2z7puv29m","5816176700b325000184dba6","fixation","img/fixation.png","null","","test","","","","","",""
"332.5","194848","pSARL_v2","pSARL_v2z7puv29m","5816176700b325000184dba6","freq","img/green_2bandit_b2.png","70","70","test","1","112","112","6","",""
"null","195332","pSARL_v2","pSARL_v2z7puv29m","5816176700b325000184dba6","freq_resp","img/green_2bandit_b.png","70","70","test","","","","6","",""
"null","195492","pSARL_v2","pSARL_v2z7puv29m","5816176700b325000184dba6","fixation","img/fixation.png","null","","test","","","","","",""
"331.39999997615814","195827","pSARL_v2","pSARL_v2z7puv29m","5816176700b325000184dba6","freq","img/green_2bandit_b2.png","70","70","test","1","113","113","6","",""
"null","196305","pSARL_v2","pSARL_v2z7puv29m","5816176700b325000184dba6","freq_resp","img/green_2bandit_b.png","70","70","test","","","","6","",""
"null","196463","pSARL_v2","pSARL_v2z7puv29m","5816176700b325000184dba6","fixation","img/fixation.png","null","","test","","","","","",""
"301.89999997615814","196768","pSARL_v2","pSARL_v2z7puv29m","5816176700b325000184dba6","freq","img/green_2bandit_b2.png","70","70","test","1","114","114","6","",""
"null","197275","pSARL_v2","pSARL_v2z7puv29m","5816176700b325000184dba6","freq_resp","img/green_2bandit_b.png","70","70","test","","","","6","",""
"null","197436","pSARL_v2","pSARL_v2z7puv29m","5816176700b325000184dba6","fixation","img/fixation.png","null","","test","","","","","",""
"228.19999998807907","197667","pSARL_v2","pSARL_v2z7puv29m","5816176700b325000184dba6","freq","img/green_2bandit_b2.png","70","70","test","1","115","115","6","",""
"null","198255","pSARL_v2","pSARL_v2z7puv29m","5816176700b325000184dba6","freq_resp","img/green_2bandit_b.png","70","70","test","","","","6","",""
"null","198415","pSARL_v2","pSARL_v2z7puv29m","5816176700b325000184dba6","fixation","img/fixation.png","null","","test","","","","","",""
"267.0999999642372","198685","pSARL_v2","pSARL_v2z7puv29m","5816176700b325000184dba6","freq","img/green_2bandit_b2.png","70","70","test","1","116","116","6","",""
"null","199224","pSARL_v2","pSARL_v2z7puv29m","5816176700b325000184dba6","freq_resp","img/green_2bandit_b.png","70","70","test","","","","6","",""
"null","199382","pSARL_v2","pSARL_v2z7puv29m","5816176700b325000184dba6","fixation","img/fixation.png","null","","test","","","","","",""
"331.30000001192093","199717","pSARL_v2","pSARL_v2z7puv29m","5816176700b325000184dba6","freq","img/green_2bandit_b2.png","70","70","test","1","117","117","6","",""
"null","200190","pSARL_v2","pSARL_v2z7puv29m","5816176700b325000184dba6","freq_resp","img/green_2bandit_b.png","70","70","test","","","","6","",""
"null","200345","pSARL_v2","pSARL_v2z7puv29m","5816176700b325000184dba6","fixation","img/fixation.png","null","","test","","","","","",""
"257.89999997615814","200606","pSARL_v2","pSARL_v2z7puv29m","5816176700b325000184dba6","freq","img/green_2bandit_b2.png","70","70","test","1","118","118","6","",""
"null","201154","pSARL_v2","pSARL_v2z7puv29m","5816176700b325000184dba6","freq_resp","img/green_2bandit_b.png","70","70","test","","","","6","",""
"null","201314","pSARL_v2","pSARL_v2z7puv29m","5816176700b325000184dba6","fixation","img/fixation.png","null","","test","","","","","",""
"421.69999998807907","201738","pSARL_v2","pSARL_v2z7puv29m","5816176700b325000184dba6","freq","img/green_2bandit_b2.png","70","70","test","1","119","119","6","",""
"null","202122","pSARL_v2","pSARL_v2z7puv29m","5816176700b325000184dba6","freq_resp","img/green_2bandit_b.png","70","70","test","","","","6","",""
"null","202280","pSARL_v2","pSARL_v2z7puv29m","5816176700b325000184dba6","fixation","img/fixation.png","null","","test","","","","","",""
"368.5999999642372","202651","pSARL_v2","pSARL_v2z7puv29m","5816176700b325000184dba6","freq","img/green_2bandit_b2.png","70","70","test","1","120","120","6","",""
"null","203087","pSARL_v2","pSARL_v2z7puv29m","5816176700b325000184dba6","freq_resp","img/green_2bandit_b.png","70","70","test","","","","6","",""
"null","203245","pSARL_v2","pSARL_v2z7puv29m","5816176700b325000184dba6","fixation","img/fixation.png","null","","test","","","","","",""
"650.3000000119209","203898","pSARL_v2","pSARL_v2z7puv29m","5816176700b325000184dba6","infreq","img/orange_2bandit_b2.png","70","68","test","0","121","121","6","",""
"null","204055","pSARL_v2","pSARL_v2z7puv29m","5816176700b325000184dba6","infreq_resp","img/orange_2bandit_b.png","70","68","test","","","","6","",""
"null","204211","pSARL_v2","pSARL_v2z7puv29m","5816176700b325000184dba6","fixation","img/fixation.png","null","","test","","","","","",""
"445.19999998807907","204659","pSARL_v2","pSARL_v2z7puv29m","5816176700b325000184dba6","infreq","img/orange_2bandit_b2.png","68","68","test","1","122","122","6","",""
"null","205025","pSARL_v2","pSARL_v2z7puv29m","5816176700b325000184dba6","infreq_resp","img/orange_2bandit_b.png","68","68","test","","","","6","",""
"null","205183","pSARL_v2","pSARL_v2z7puv29m","5816176700b325000184dba6","fixation","img/fixation.png","null","","test","","","","","",""
"414.60000002384186","205601","pSARL_v2","pSARL_v2z7puv29m","5816176700b325000184dba6","freq","img/green_2bandit_b2.png","70","70","test","1","123","123","6","",""
"null","205991","pSARL_v2","pSARL_v2z7puv29m","5816176700b325000184dba6","freq_resp","img/green_2bandit_b.png","70","70","test","","","","6","",""
"null","206149","pSARL_v2","pSARL_v2z7puv29m","5816176700b325000184dba6","fixation","img/fixation.png","null","","test","","","","","",""
"377.80000001192093","206531","pSARL_v2","pSARL_v2z7puv29m","5816176700b325000184dba6","freq","img/green_2bandit_b2.png","70","70","test","1","124","124","6","",""
"null","206968","pSARL_v2","pSARL_v2z7puv29m","5816176700b325000184dba6","freq_resp","img/green_2bandit_b.png","70","70","test","","","","6","",""
"null","207126","pSARL_v2","pSARL_v2z7puv29m","5816176700b325000184dba6","fixation","img/fixation.png","null","","test","","","","","",""
"285.0999999642372","207414","pSARL_v2","pSARL_v2z7puv29m","5816176700b325000184dba6","freq","img/green_2bandit_b2.png","70","70","test","1","125","125","6","",""
"null","207932","pSARL_v2","pSARL_v2z7puv29m","5816176700b325000184dba6","freq_resp","img/green_2bandit_b.png","70","70","test","","","","6","",""
"null","208090","pSARL_v2","pSARL_v2z7puv29m","5816176700b325000184dba6","fixation","img/fixation.png","null","","test","","","","","",""
"229.30000001192093","208323","pSARL_v2","pSARL_v2z7puv29m","5816176700b325000184dba6","freq","img/green_2bandit_b2.png","70","70","test","1","126","126","6","",""
"null","208909","pSARL_v2","pSARL_v2z7puv29m","5816176700b325000184dba6","freq_resp","img/green_2bandit_b.png","70","70","test","","","","6","",""
"null","209070","pSARL_v2","pSARL_v2z7puv29m","5816176700b325000184dba6","fixation","img/fixation.png","null","","test","","","","","",""
"218.4000000357628","209291","pSARL_v2","pSARL_v2z7puv29m","5816176700b325000184dba6","freq","img/green_2bandit_b2.png","70","70","test","1","127","127","6","",""
"null","209891","pSARL_v2","pSARL_v2z7puv29m","5816176700b325000184dba6","freq_resp","img/green_2bandit_b.png","70","70","test","","","","6","",""
"null","210052","pSARL_v2","pSARL_v2z7puv29m","5816176700b325000184dba6","fixation","img/fixation.png","null","","test","","","","","",""
"438.0999999642372","210493","pSARL_v2","pSARL_v2z7puv29m","5816176700b325000184dba6","reward","img/slot.png","74","","test","","","","","",""
"null","211254","pSARL_v2","pSARL_v2z7puv29m","5816176700b325000184dba6","points","<div class=""verylowPoints""> -7 </div>","null","na","test","","","","6","-7","5"
"452.30000001192093","211709","pSARL_v2","pSARL_v2z7puv29m","5816176700b325000184dba6","freq","img/green_2bandit_b2.png","70","70","test","1","128","128","7","",""
"null","212072","pSARL_v2","pSARL_v2z7puv29m","5816176700b325000184dba6","freq_resp","img/green_2bandit_b.png","70","70","test","","","","7","",""
"null","212232","pSARL_v2","pSARL_v2z7puv29m","5816176700b325000184dba6","fixation","img/fixation.png","null","","test","","","","","",""
"270","212506","pSARL_v2","pSARL_v2z7puv29m","5816176700b325000184dba6","freq","img/green_2bandit_b2.png","70","70","test","1","129","129","7","",""
"null","213046","pSARL_v2","pSARL_v2z7puv29m","5816176700b325000184dba6","freq_resp","img/green_2bandit_b.png","70","70","test","","","","7","",""
"null","213205","pSARL_v2","pSARL_v2z7puv29m","5816176700b325000184dba6","fixation","img/fixation.png","null","","test","","","","","",""
"261.30000001192093","213470","pSARL_v2","pSARL_v2z7puv29m","5816176700b325000184dba6","freq","img/green_2bandit_b2.png","70","70","test","1","130","130","7","",""
"null","214022","pSARL_v2","pSARL_v2z7puv29m","5816176700b325000184dba6","freq_resp","img/green_2bandit_b.png","70","70","test","","","","7","",""
"null","214178","pSARL_v2","pSARL_v2z7puv29m","5816176700b325000184dba6","fixation","img/fixation.png","null","","test","","","","","",""
"228.5","214410","pSARL_v2","pSARL_v2z7puv29m","5816176700b325000184dba6","freq","img/green_2bandit_b2.png","70","70","test","1","131","131","7","",""
"null","214996","pSARL_v2","pSARL_v2z7puv29m","5816176700b325000184dba6","freq_resp","img/green_2bandit_b.png","70","70","test","","","","7","",""
"null","215154","pSARL_v2","pSARL_v2z7puv29m","5816176700b325000184dba6","fixation","img/fixation.png","null","","test","","","","","",""
"459.80000001192093","215616","pSARL_v2","pSARL_v2z7puv29m","5816176700b325000184dba6","infreq","img/orange_2bandit_b2.png","68","68","test","1","132","132","7","",""
"null","215960","pSARL_v2","pSARL_v2z7puv29m","5816176700b325000184dba6","infreq_resp","img/orange_2bandit_b.png","68","68","test","","","","7","",""
"null","216117","pSARL_v2","pSARL_v2z7puv29m","5816176700b325000184dba6","fixation","img/fixation.png","null","","test","","","","","",""
"467.60000002384186","216588","pSARL_v2","pSARL_v2z7puv29m","5816176700b325000184dba6","freq","img/green_2bandit_b2.png","70","70","test","1","133","133","7","",""
"null","216925","pSARL_v2","pSARL_v2z7puv29m","5816176700b325000184dba6","freq_resp","img/green_2bandit_b.png","70","70","test","","","","7","",""
"null","217086","pSARL_v2","pSARL_v2z7puv29m","5816176700b325000184dba6","fixation","img/fixation.png","null","","test","","","","","",""
"293.19999998807907","217383","pSARL_v2","pSARL_v2z7puv29m","5816176700b325000184dba6","freq","img/green_2bandit_b2.png","70","70","test","1","134","134","7","",""
"null","217905","pSARL_v2","pSARL_v2z7puv29m","5816176700b325000184dba6","freq_resp","img/green_2bandit_b.png","70","70","test","","","","7","",""
"null","218061","pSARL_v2","pSARL_v2z7puv29m","5816176700b325000184dba6","fixation","img/fixation.png","null","","test","","","","","",""
"330.69999998807907","218396","pSARL_v2","pSARL_v2z7puv29m","5816176700b325000184dba6","freq","img/green_2bandit_b2.png","70","70","test","1","135","135","7","",""
"null","218868","pSARL_v2","pSARL_v2z7puv29m","5816176700b325000184dba6","freq_resp","img/green_2bandit_b.png","70","70","test","","","","7","",""
"null","219026","pSARL_v2","pSARL_v2z7puv29m","5816176700b325000184dba6","fixation","img/fixation.png","null","","test","","","","","",""
"392","219422","pSARL_v2","pSARL_v2z7puv29m","5816176700b325000184dba6","infreq","img/orange_2bandit_b2.png","68","68","test","1","136","136","7","",""
"null","219844","pSARL_v2","pSARL_v2z7puv29m","5816176700b325000184dba6","infreq_resp","img/orange_2bandit_b.png","68","68","test","","","","7","",""
"null","219999","pSARL_v2","pSARL_v2z7puv29m","5816176700b325000184dba6","fixation","img/fixation.png","null","","test","","","","","",""
"553.6999999880791","220555","pSARL_v2","pSARL_v2z7puv29m","5816176700b325000184dba6","freq","img/green_2bandit_b2.png","70","70","test","1","137","137","7","",""
"null","220819","pSARL_v2","pSARL_v2z7puv29m","5816176700b325000184dba6","freq_resp","img/green_2bandit_b.png","70","70","test","","","","7","",""
"null","220979","pSARL_v2","pSARL_v2z7puv29m","5816176700b325000184dba6","fixation","img/fixation.png","null","","test","","","","","",""
"302.5999999642372","221284","pSARL_v2","pSARL_v2z7puv29m","5816176700b325000184dba6","freq","img/green_2bandit_b2.png","70","70","test","1","138","138","7","",""
"null","221798","pSARL_v2","pSARL_v2z7puv29m","5816176700b325000184dba6","freq_resp","img/green_2bandit_b.png","70","70","test","","","","7","",""
"null","221957","pSARL_v2","pSARL_v2z7puv29m","5816176700b325000184dba6","fixation","img/fixation.png","null","","test","","","","","",""
"229.30000001192093","222190","pSARL_v2","pSARL_v2z7puv29m","5816176700b325000184dba6","freq","img/green_2bandit_b2.png","70","70","test","1","139","139","7","",""
"null","222773","pSARL_v2","pSARL_v2z7puv29m","5816176700b325000184dba6","freq_resp","img/green_2bandit_b.png","70","70","test","","","","7","",""
"null","222929","pSARL_v2","pSARL_v2z7puv29m","5816176700b325000184dba6","fixation","img/fixation.png","null","","test","","","","","",""
"227.39999997615814","223159","pSARL_v2","pSARL_v2z7puv29m","5816176700b325000184dba6","freq","img/green_2bandit_b2.png","70","70","test","1","140","140","7","",""
"null","223736","pSARL_v2","pSARL_v2z7puv29m","5816176700b325000184dba6","freq_resp","img/green_2bandit_b.png","70","70","test","","","","7","",""
"null","223895","pSARL_v2","pSARL_v2z7puv29m","5816176700b325000184dba6","fixation","img/fixation.png","null","","test","","","","","",""
"229.39999997615814","224127","pSARL_v2","pSARL_v2z7puv29m","5816176700b325000184dba6","freq","img/green_2bandit_b2.png","70","70","test","1","141","141","7","",""
"null","224702","pSARL_v2","pSARL_v2z7puv29m","5816176700b325000184dba6","freq_resp","img/green_2bandit_b.png","70","70","test","","","","7","",""
"null","224863","pSARL_v2","pSARL_v2z7puv29m","5816176700b325000184dba6","fixation","img/fixation.png","null","","test","","","","","",""
"261.69999998807907","225127","pSARL_v2","pSARL_v2z7puv29m","5816176700b325000184dba6","freq","img/green_2bandit_b2.png","70","70","test","1","142","142","7","",""
"null","225672","pSARL_v2","pSARL_v2z7puv29m","5816176700b325000184dba6","freq_resp","img/green_2bandit_b.png","70","70","test","","","","7","",""
"null","225826","pSARL_v2","pSARL_v2z7puv29m","5816176700b325000184dba6","fixation","img/fixation.png","null","","test","","","","","",""
"257.5999999642372","226086","pSARL_v2","pSARL_v2z7puv29m","5816176700b325000184dba6","freq","img/green_2bandit_b2.png","70","70","test","1","143","143","7","",""
"null","226635","pSARL_v2","pSARL_v2z7puv29m","5816176700b325000184dba6","freq_resp","img/green_2bandit_b.png","70","70","test","","","","7","",""
"null","226792","pSARL_v2","pSARL_v2z7puv29m","5816176700b325000184dba6","fixation","img/fixation.png","null","","test","","","","","",""
"280.69999998807907","227075","pSARL_v2","pSARL_v2z7puv29m","5816176700b325000184dba6","freq","img/green_2bandit_b2.png","70","70","test","1","144","144","7","",""
"null","227599","pSARL_v2","pSARL_v2z7puv29m","5816176700b325000184dba6","freq_resp","img/green_2bandit_b.png","70","70","test","","","","7","",""
"null","227758","pSARL_v2","pSARL_v2z7puv29m","5816176700b325000184dba6","fixation","img/fixation.png","null","","test","","","","","",""
"273","228034","pSARL_v2","pSARL_v2z7puv29m","5816176700b325000184dba6","freq","img/green_2bandit_b2.png","70","70","test","1","145","145","7","",""
"null","228578","pSARL_v2","pSARL_v2z7puv29m","5816176700b325000184dba6","freq_resp","img/green_2bandit_b.png","70","70","test","","","","7","",""
"null","228733","pSARL_v2","pSARL_v2z7puv29m","5816176700b325000184dba6","fixation","img/fixation.png","null","","test","","","","","",""
"283.19999998807907","229019","pSARL_v2","pSARL_v2z7puv29m","5816176700b325000184dba6","freq","img/green_2bandit_b2.png","70","70","test","1","146","146","7","",""
"null","229551","pSARL_v2","pSARL_v2z7puv29m","5816176700b325000184dba6","freq_resp","img/green_2bandit_b.png","70","70","test","","","","7","",""
"null","229710","pSARL_v2","pSARL_v2z7puv29m","5816176700b325000184dba6","fixation","img/fixation.png","null","","test","","","","","",""
"274.60000002384186","229987","pSARL_v2","pSARL_v2z7puv29m","5816176700b325000184dba6","freq","img/green_2bandit_b2.png","70","70","test","1","147","147","7","",""
"null","230524","pSARL_v2","pSARL_v2z7puv29m","5816176700b325000184dba6","freq_resp","img/green_2bandit_b.png","70","70","test","","","","7","",""
"null","230681","pSARL_v2","pSARL_v2z7puv29m","5816176700b325000184dba6","fixation","img/fixation.png","null","","test","","","","","",""
"253.39999997615814","230937","pSARL_v2","pSARL_v2z7puv29m","5816176700b325000184dba6","freq","img/green_2bandit_b2.png","70","70","test","1","148","148","7","",""
"null","231501","pSARL_v2","pSARL_v2z7puv29m","5816176700b325000184dba6","freq_resp","img/green_2bandit_b.png","70","70","test","","","","7","",""
"null","231657","pSARL_v2","pSARL_v2z7puv29m","5816176700b325000184dba6","fixation","img/fixation.png","null","","test","","","","","",""
"427.9000000357628","232089","pSARL_v2","pSARL_v2z7puv29m","5816176700b325000184dba6","reward","img/slot.png","74","","test","","","","","",""
"null","232845","pSARL_v2","pSARL_v2z7puv29m","5816176700b325000184dba6","points","<div class=""verylowPoints""> -6 </div>","null","na","test","","","","7","-6","6"
"493.89999997615814","233342","pSARL_v2","pSARL_v2z7puv29m","5816176700b325000184dba6","freq","img/green_2bandit_b2.png","70","70","test","1","149","149","8","",""
"null","233662","pSARL_v2","pSARL_v2z7puv29m","5816176700b325000184dba6","freq_resp","img/green_2bandit_b.png","70","70","test","","","","8","",""
"null","233819","pSARL_v2","pSARL_v2z7puv29m","5816176700b325000184dba6","fixation","img/fixation.png","null","","test","","","","","",""
"284.30000001192093","234106","pSARL_v2","pSARL_v2z7puv29m","5816176700b325000184dba6","freq","img/green_2bandit_b2.png","70","70","test","1","150","150","8","",""
"null","234635","pSARL_v2","pSARL_v2z7puv29m","5816176700b325000184dba6","freq_resp","img/green_2bandit_b.png","70","70","test","","","","8","",""
"null","234790","pSARL_v2","pSARL_v2z7puv29m","5816176700b325000184dba6","fixation","img/fixation.png","null","","test","","","","","",""
"243.69999998807907","235037","pSARL_v2","pSARL_v2z7puv29m","5816176700b325000184dba6","freq","img/green_2bandit_b2.png","70","70","test","1","151","151","8","",""
"null","235598","pSARL_v2","pSARL_v2z7puv29m","5816176700b325000184dba6","freq_resp","img/green_2bandit_b.png","70","70","test","","","","8","",""
"null","235758","pSARL_v2","pSARL_v2z7puv29m","5816176700b325000184dba6","fixation","img/fixation.png","null","","test","","","","","",""
"243.20000004768372","236004","pSARL_v2","pSARL_v2z7puv29m","5816176700b325000184dba6","freq","img/green_2bandit_b2.png","70","70","test","1","152","152","8","",""
"null","236567","pSARL_v2","pSARL_v2z7puv29m","5816176700b325000184dba6","freq_resp","img/green_2bandit_b.png","70","70","test","","","","8","",""
"null","236725","pSARL_v2","pSARL_v2z7puv29m","5816176700b325000184dba6","fixation","img/fixation.png","null","","test","","","","","",""
"269.7999999523163","236998","pSARL_v2","pSARL_v2z7puv29m","5816176700b325000184dba6","freq","img/green_2bandit_b2.png","70","70","test","1","153","153","8","",""
"null","237546","pSARL_v2","pSARL_v2z7puv29m","5816176700b325000184dba6","freq_resp","img/green_2bandit_b.png","70","70","test","","","","8","",""
"null","237704","pSARL_v2","pSARL_v2z7puv29m","5816176700b325000184dba6","fixation","img/fixation.png","null","","test","","","","","",""
"251.80000001192093","237959","pSARL_v2","pSARL_v2z7puv29m","5816176700b325000184dba6","freq","img/green_2bandit_b2.png","70","70","test","1","154","154","8","",""
"null","238510","pSARL_v2","pSARL_v2z7puv29m","5816176700b325000184dba6","freq_resp","img/green_2bandit_b.png","70","70","test","","","","8","",""
"null","238670","pSARL_v2","pSARL_v2z7puv29m","5816176700b325000184dba6","fixation","img/fixation.png","null","","test","","","","","",""
"244.20000004768372","238918","pSARL_v2","pSARL_v2z7puv29m","5816176700b325000184dba6","freq","img/green_2bandit_b2.png","70","70","test","1","155","155","8","",""
"null","239488","pSARL_v2","pSARL_v2z7puv29m","5816176700b325000184dba6","freq_resp","img/green_2bandit_b.png","70","70","test","","","","8","",""
"null","239644","pSARL_v2","pSARL_v2z7puv29m","5816176700b325000184dba6","fixation","img/fixation.png","null","","test","","","","","",""
"280.69999998807907","239928","pSARL_v2","pSARL_v2z7puv29m","5816176700b325000184dba6","freq","img/green_2bandit_b2.png","70","70","test","1","156","156","8","",""
"null","240460","pSARL_v2","pSARL_v2z7puv29m","5816176700b325000184dba6","freq_resp","img/green_2bandit_b.png","70","70","test","","","","8","",""
"null","240620","pSARL_v2","pSARL_v2z7puv29m","5816176700b325000184dba6","fixation","img/fixation.png","null","","test","","","","","",""
"242.69999998807907","240865","pSARL_v2","pSARL_v2z7puv29m","5816176700b325000184dba6","freq","img/green_2bandit_b2.png","70","70","test","1","157","157","8","",""
"null","241439","pSARL_v2","pSARL_v2z7puv29m","5816176700b325000184dba6","freq_resp","img/green_2bandit_b.png","70","70","test","","","","8","",""
"null","241601","pSARL_v2","pSARL_v2z7puv29m","5816176700b325000184dba6","fixation","img/fixation.png","null","","test","","","","","",""
"402.2999999523163","242007","pSARL_v2","pSARL_v2z7puv29m","5816176700b325000184dba6","infreq","img/orange_2bandit_b2.png","68","68","test","1","158","158","8","",""
"null","242422","pSARL_v2","pSARL_v2z7puv29m","5816176700b325000184dba6","infreq_resp","img/orange_2bandit_b.png","68","68","test","","","","8","",""
"null","242578","pSARL_v2","pSARL_v2z7puv29m","5816176700b325000184dba6","fixation","img/fixation.png","null","","test","","","","","",""
"296.7000000476837","242878","pSARL_v2","pSARL_v2z7puv29m","5816176700b325000184dba6","freq","img/green_2bandit_b2.png","70","70","test","1","159","159","8","",""
"null","243388","pSARL_v2","pSARL_v2z7puv29m","5816176700b325000184dba6","freq_resp","img/green_2bandit_b.png","70","70","test","","","","8","",""
"null","243544","pSARL_v2","pSARL_v2z7puv29m","5816176700b325000184dba6","fixation","img/fixation.png","null","","test","","","","","",""
"345.69999998807907","243892","pSARL_v2","pSARL_v2z7puv29m","5816176700b325000184dba6","freq","img/green_2bandit_b2.png","70","70","test","1","160","160","8","",""
"null","244354","pSARL_v2","pSARL_v2z7puv29m","5816176700b325000184dba6","freq_resp","img/green_2bandit_b.png","70","70","test","","","","8","",""
"null","244512","pSARL_v2","pSARL_v2z7puv29m","5816176700b325000184dba6","fixation","img/fixation.png","null","","test","","","","","",""
"270.19999998807907","244786","pSARL_v2","pSARL_v2z7puv29m","5816176700b325000184dba6","freq","img/green_2bandit_b2.png","70","70","test","1","161","161","8","",""
"null","245320","pSARL_v2","pSARL_v2z7puv29m","5816176700b325000184dba6","freq_resp","img/green_2bandit_b.png","70","70","test","","","","8","",""
"null","245477","pSARL_v2","pSARL_v2z7puv29m","5816176700b325000184dba6","fixation","img/fixation.png","null","","test","","","","","",""
"244.5","245724","pSARL_v2","pSARL_v2z7puv29m","5816176700b325000184dba6","freq","img/green_2bandit_b2.png","70","70","test","1","162","162","8","",""
"null","246298","pSARL_v2","pSARL_v2z7puv29m","5816176700b325000184dba6","freq_resp","img/green_2bandit_b.png","70","70","test","","","","8","",""
"null","246458","pSARL_v2","pSARL_v2z7puv29m","5816176700b325000184dba6","fixation","img/fixation.png","null","","test","","","","","",""
"268.0999999642372","246730","pSARL_v2","pSARL_v2z7puv29m","5816176700b325000184dba6","freq","img/green_2bandit_b2.png","70","70","test","1","163","163","8","",""
"null","247266","pSARL_v2","pSARL_v2z7puv29m","5816176700b325000184dba6","freq_resp","img/green_2bandit_b.png","70","70","test","","","","8","",""
"null","247424","pSARL_v2","pSARL_v2z7puv29m","5816176700b325000184dba6","fixation","img/fixation.png","null","","test","","","","","",""
"285.30000001192093","247712","pSARL_v2","pSARL_v2z7puv29m","5816176700b325000184dba6","freq","img/green_2bandit_b2.png","70","70","test","1","164","164","8","",""
"null","248233","pSARL_v2","pSARL_v2z7puv29m","5816176700b325000184dba6","freq_resp","img/green_2bandit_b.png","70","70","test","","","","8","",""
"null","248391","pSARL_v2","pSARL_v2z7puv29m","5816176700b325000184dba6","fixation","img/fixation.png","null","","test","","","","","",""
"260.5","248655","pSARL_v2","pSARL_v2z7puv29m","5816176700b325000184dba6","freq","img/green_2bandit_b2.png","70","70","test","1","165","165","8","",""
"null","249203","pSARL_v2","pSARL_v2z7puv29m","5816176700b325000184dba6","freq_resp","img/green_2bandit_b.png","70","70","test","","","","8","",""
"null","249358","pSARL_v2","pSARL_v2z7puv29m","5816176700b325000184dba6","fixation","img/fixation.png","null","","test","","","","","",""
"416.2999999523163","249777","pSARL_v2","pSARL_v2z7puv29m","5816176700b325000184dba6","freq","img/green_2bandit_b2.png","70","70","test","1","166","166","8","",""
"null","250166","pSARL_v2","pSARL_v2z7puv29m","5816176700b325000184dba6","freq_resp","img/green_2bandit_b.png","70","70","test","","","","8","",""
"null","250326","pSARL_v2","pSARL_v2z7puv29m","5816176700b325000184dba6","fixation","img/fixation.png","null","","test","","","","","",""
"262.69999998807907","250592","pSARL_v2","pSARL_v2z7puv29m","5816176700b325000184dba6","freq","img/green_2bandit_b2.png","70","70","test","1","167","167","8","",""
"null","251133","pSARL_v2","pSARL_v2z7puv29m","5816176700b325000184dba6","freq_resp","img/green_2bandit_b.png","70","70","test","","","","8","",""
"null","251290","pSARL_v2","pSARL_v2z7puv29m","5816176700b325000184dba6","fixation","img/fixation.png","null","","test","","","","","",""
"208.70000004768372","251501","pSARL_v2","pSARL_v2z7puv29m","5816176700b325000184dba6","freq","img/green_2bandit_b2.png","70","70","test","1","168","168","8","",""
"null","252098","pSARL_v2","pSARL_v2z7puv29m","5816176700b325000184dba6","freq_resp","img/green_2bandit_b.png","70","70","test","","","","8","",""
"null","252256","pSARL_v2","pSARL_v2z7puv29m","5816176700b325000184dba6","fixation","img/fixation.png","null","","test","","","","","",""
"228.4000000357628","252488","pSARL_v2","pSARL_v2z7puv29m","5816176700b325000184dba6","freq","img/green_2bandit_b2.png","70","70","test","1","169","169","8","",""
"null","253075","pSARL_v2","pSARL_v2z7puv29m","5816176700b325000184dba6","freq_resp","img/green_2bandit_b.png","70","70","test","","","","8","",""
"null","253235","pSARL_v2","pSARL_v2z7puv29m","5816176700b325000184dba6","fixation","img/fixation.png","null","","test","","","","","",""
"379","253617","pSARL_v2","pSARL_v2z7puv29m","5816176700b325000184dba6","infreq","img/orange_2bandit_b2.png","68","68","test","1","170","170","8","",""
"null","254053","pSARL_v2","pSARL_v2z7puv29m","5816176700b325000184dba6","infreq_resp","img/orange_2bandit_b.png","68","68","test","","","","8","",""
"null","254213","pSARL_v2","pSARL_v2z7puv29m","5816176700b325000184dba6","fixation","img/fixation.png","null","","test","","","","","",""
"436.7999999523163","254653","pSARL_v2","pSARL_v2z7puv29m","5816176700b325000184dba6","freq","img/green_2bandit_b2.png","70","70","test","1","171","171","8","",""
"null","255031","pSARL_v2","pSARL_v2z7puv29m","5816176700b325000184dba6","freq_resp","img/green_2bandit_b.png","70","70","test","","","","8","",""
"null","255191","pSARL_v2","pSARL_v2z7puv29m","5816176700b325000184dba6","fixation","img/fixation.png","null","","test","","","","","",""
"246.5","255440","pSARL_v2","pSARL_v2z7puv29m","5816176700b325000184dba6","freq","img/green_2bandit_b2.png","70","70","test","1","172","172","8","",""
"null","255998","pSARL_v2","pSARL_v2z7puv29m","5816176700b325000184dba6","freq_resp","img/green_2bandit_b.png","70","70","test","","","","8","",""
"null","256155","pSARL_v2","pSARL_v2z7puv29m","5816176700b325000184dba6","fixation","img/fixation.png","null","","test","","","","","",""
"243.9000000357628","256402","pSARL_v2","pSARL_v2z7puv29m","5816176700b325000184dba6","freq","img/green_2bandit_b2.png","70","70","test","1","173","173","8","",""
"null","256967","pSARL_v2","pSARL_v2z7puv29m","5816176700b325000184dba6","freq_resp","img/green_2bandit_b.png","70","70","test","","","","8","",""
"null","257128","pSARL_v2","pSARL_v2z7puv29m","5816176700b325000184dba6","fixation","img/fixation.png","null","","test","","","","","",""
"338.5","257470","pSARL_v2","pSARL_v2z7puv29m","5816176700b325000184dba6","reward","img/slot.png","74","","test","","","","","",""
"null","258237","pSARL_v2","pSARL_v2z7puv29m","5816176700b325000184dba6","points","<div class=""verylowPoints""> -4 </div>","null","na","test","","","","8","-4","7"
"409.4000000357628","258649","pSARL_v2","pSARL_v2z7puv29m","5816176700b325000184dba6","freq","img/green_2bandit_b2.png","70","70","test","1","174","174","9","",""
"null","259044","pSARL_v2","pSARL_v2z7puv29m","5816176700b325000184dba6","freq_resp","img/green_2bandit_b.png","70","70","test","","","","9","",""
"null","259199","pSARL_v2","pSARL_v2z7puv29m","5816176700b325000184dba6","fixation","img/fixation.png","null","","test","","","","","",""
"240.5","259442","pSARL_v2","pSARL_v2z7puv29m","5816176700b325000184dba6","freq","img/green_2bandit_b2.png","70","70","test","1","175","175","9","",""
"null","260008","pSARL_v2","pSARL_v2z7puv29m","5816176700b325000184dba6","freq_resp","img/green_2bandit_b.png","70","70","test","","","","9","",""
"null","260167","pSARL_v2","pSARL_v2z7puv29m","5816176700b325000184dba6","fixation","img/fixation.png","null","","test","","","","","",""
"238","260408","pSARL_v2","pSARL_v2z7puv29m","5816176700b325000184dba6","infreq","img/orange_2bandit_b2.png","70","68","test","0","176","176","9","",""
"null","260972","pSARL_v2","pSARL_v2z7puv29m","5816176700b325000184dba6","infreq_resp","img/orange_2bandit_b.png","70","68","test","","","","9","",""
"null","261131","pSARL_v2","pSARL_v2z7puv29m","5816176700b325000184dba6","fixation","img/fixation.png","null","","test","","","","","",""
"270.5999999642372","261405","pSARL_v2","pSARL_v2z7puv29m","5816176700b325000184dba6","freq","img/green_2bandit_b2.png","70","70","test","1","177","177","9","",""
"null","261948","pSARL_v2","pSARL_v2z7puv29m","5816176700b325000184dba6","freq_resp","img/green_2bandit_b.png","70","70","test","","","","9","",""
"null","262106","pSARL_v2","pSARL_v2z7puv29m","5816176700b325000184dba6","fixation","img/fixation.png","null","","test","","","","","",""
"227.19999998807907","262337","pSARL_v2","pSARL_v2z7puv29m","5816176700b325000184dba6","freq","img/green_2bandit_b2.png","70","70","test","1","178","178","9","",""
"null","262929","pSARL_v2","pSARL_v2z7puv29m","5816176700b325000184dba6","freq_resp","img/green_2bandit_b.png","70","70","test","","","","9","",""
"null","263085","pSARL_v2","pSARL_v2z7puv29m","5816176700b325000184dba6","fixation","img/fixation.png","null","","test","","","","","",""
"138.5","263227","pSARL_v2","pSARL_v2z7puv29m","5816176700b325000184dba6","freq","img/green_2bandit_b2.png","70","70","test","1","179","179","9","",""
"null","263895","pSARL_v2","pSARL_v2z7puv29m","5816176700b325000184dba6","freq_resp","img/green_2bandit_b.png","70","70","test","","","","9","",""
"null","264053","pSARL_v2","pSARL_v2z7puv29m","5816176700b325000184dba6","fixation","img/fixation.png","null","","test","","","","","",""
"347.60000002384186","264404","pSARL_v2","pSARL_v2z7puv29m","5816176700b325000184dba6","infreq","img/orange_2bandit_b2.png","68","68","test","1","180","180","9","",""
"null","264874","pSARL_v2","pSARL_v2z7puv29m","5816176700b325000184dba6","infreq_resp","img/orange_2bandit_b.png","68","68","test","","","","9","",""
"null","265031","pSARL_v2","pSARL_v2z7puv29m","5816176700b325000184dba6","fixation","img/fixation.png","null","","test","","","","","",""
"188.20000004768372","265222","pSARL_v2","pSARL_v2z7puv29m","5816176700b325000184dba6","freq","img/green_2bandit_b2.png","70","70","test","1","181","181","9","",""
"null","265846","pSARL_v2","pSARL_v2z7puv29m","5816176700b325000184dba6","freq_resp","img/green_2bandit_b.png","70","70","test","","","","9","",""
"null","266006","pSARL_v2","pSARL_v2z7puv29m","5816176700b325000184dba6","fixation","img/fixation.png","null","","test","","","","","",""
"206.39999997615814","266215","pSARL_v2","pSARL_v2z7puv29m","5816176700b325000184dba6","freq","img/green_2bandit_b2.png","70","70","test","1","182","182","9","",""
"null","266816","pSARL_v2","pSARL_v2z7puv29m","5816176700b325000184dba6","freq_resp","img/green_2bandit_b.png","70","70","test","","","","9","",""
"null","266976","pSARL_v2","pSARL_v2z7puv29m","5816176700b325000184dba6","fixation","img/fixation.png","null","","test","","","","","",""
"262.19999998807907","267242","pSARL_v2","pSARL_v2z7puv29m","5816176700b325000184dba6","infreq","img/orange_2bandit_b2.png","70","68","test","0","183","183","9","",""
"null","267796","pSARL_v2","pSARL_v2z7puv29m","5816176700b325000184dba6","infreq_resp","img/orange_2bandit_b.png","70","68","test","","","","9","",""
"null","267954","pSARL_v2","pSARL_v2z7puv29m","5816176700b325000184dba6","fixation","img/fixation.png","null","","test","","","","","",""
"91.19999998807907","268048","pSARL_v2","pSARL_v2z7puv29m","5816176700b325000184dba6","freq","img/green_2bandit_b2.png","70","70","test","1","184","184","9","",""
"null","268772","pSARL_v2","pSARL_v2z7puv29m","5816176700b325000184dba6","freq_resp","img/green_2bandit_b.png","70","70","test","","","","9","",""
"null","268927","pSARL_v2","pSARL_v2z7puv29m","5816176700b325000184dba6","fixation","img/fixation.png","null","","test","","","","","",""
"214.30000001192093","269145","pSARL_v2","pSARL_v2z7puv29m","5816176700b325000184dba6","freq","img/green_2bandit_b2.png","70","70","test","1","185","185","9","",""
"null","269739","pSARL_v2","pSARL_v2z7puv29m","5816176700b325000184dba6","freq_resp","img/green_2bandit_b.png","70","70","test","","","","9","",""
"null","269901","pSARL_v2","pSARL_v2z7puv29m","5816176700b325000184dba6","fixation","img/fixation.png","null","","test","","","","","",""
"238.89999997615814","270143","pSARL_v2","pSARL_v2z7puv29m","5816176700b325000184dba6","freq","img/green_2bandit_b2.png","70","70","test","1","186","186","9","",""
"null","270718","pSARL_v2","pSARL_v2z7puv29m","5816176700b325000184dba6","freq_resp","img/green_2bandit_b.png","70","70","test","","","","9","",""
"null","270875","pSARL_v2","pSARL_v2z7puv29m","5816176700b325000184dba6","fixation","img/fixation.png","null","","test","","","","","",""
"215.19999998807907","271094","pSARL_v2","pSARL_v2z7puv29m","5816176700b325000184dba6","freq","img/green_2bandit_b2.png","70","70","test","1","187","187","9","",""
"null","271692","pSARL_v2","pSARL_v2z7puv29m","5816176700b325000184dba6","freq_resp","img/green_2bandit_b.png","70","70","test","","","","9","",""
"null","271849","pSARL_v2","pSARL_v2z7puv29m","5816176700b325000184dba6","fixation","img/fixation.png","null","","test","","","","","",""
"258.19999998807907","272110","pSARL_v2","pSARL_v2z7puv29m","5816176700b325000184dba6","freq","img/green_2bandit_b2.png","70","70","test","1","188","188","9","",""
"null","272656","pSARL_v2","pSARL_v2z7puv29m","5816176700b325000184dba6","freq_resp","img/green_2bandit_b.png","70","70","test","","","","9","",""
"null","272812","pSARL_v2","pSARL_v2z7puv29m","5816176700b325000184dba6","fixation","img/fixation.png","null","","test","","","","","",""
"273.9000000357628","273089","pSARL_v2","pSARL_v2z7puv29m","5816176700b325000184dba6","freq","img/green_2bandit_b2.png","70","70","test","1","189","189","9","",""
"null","273631","pSARL_v2","pSARL_v2z7puv29m","5816176700b325000184dba6","freq_resp","img/green_2bandit_b.png","70","70","test","","","","9","",""
"null","273786","pSARL_v2","pSARL_v2z7puv29m","5816176700b325000184dba6","fixation","img/fixation.png","null","","test","","","","","",""
"347.5999999642372","274137","pSARL_v2","pSARL_v2z7puv29m","5816176700b325000184dba6","freq","img/green_2bandit_b2.png","70","70","test","1","190","190","9","",""
"null","274595","pSARL_v2","pSARL_v2z7puv29m","5816176700b325000184dba6","freq_resp","img/green_2bandit_b.png","70","70","test","","","","9","",""
"null","274754","pSARL_v2","pSARL_v2z7puv29m","5816176700b325000184dba6","fixation","img/fixation.png","null","","test","","","","","",""
"281.0999999642372","275038","pSARL_v2","pSARL_v2z7puv29m","5816176700b325000184dba6","freq","img/green_2bandit_b2.png","70","70","test","1","191","191","9","",""
"null","275561","pSARL_v2","pSARL_v2z7puv29m","5816176700b325000184dba6","freq_resp","img/green_2bandit_b.png","70","70","test","","","","9","",""
"null","275718","pSARL_v2","pSARL_v2z7puv29m","5816176700b325000184dba6","fixation","img/fixation.png","null","","test","","","","","",""
"295.30000001192093","276017","pSARL_v2","pSARL_v2z7puv29m","5816176700b325000184dba6","freq","img/green_2bandit_b2.png","70","70","test","1","192","192","9","",""
"null","276524","pSARL_v2","pSARL_v2z7puv29m","5816176700b325000184dba6","freq_resp","img/green_2bandit_b.png","70","70","test","","","","9","",""
"null","276683","pSARL_v2","pSARL_v2z7puv29m","5816176700b325000184dba6","fixation","img/fixation.png","null","","test","","","","","",""
"229.0999999642372","276915","pSARL_v2","pSARL_v2z7puv29m","5816176700b325000184dba6","freq","img/green_2bandit_b2.png","70","70","test","1","193","193","9","",""
"null","277504","pSARL_v2","pSARL_v2z7puv29m","5816176700b325000184dba6","freq_resp","img/green_2bandit_b.png","70","70","test","","","","9","",""
"null","277662","pSARL_v2","pSARL_v2z7puv29m","5816176700b325000184dba6","fixation","img/fixation.png","null","","test","","","","","",""
"236.19999998807907","277901","pSARL_v2","pSARL_v2z7puv29m","5816176700b325000184dba6","freq","img/green_2bandit_b2.png","70","70","test","1","194","194","9","",""
"null","278484","pSARL_v2","pSARL_v2z7puv29m","5816176700b325000184dba6","freq_resp","img/green_2bandit_b.png","70","70","test","","","","9","",""
"null","278640","pSARL_v2","pSARL_v2z7puv29m","5816176700b325000184dba6","fixation","img/fixation.png","null","","test","","","","","",""
"249.69999998807907","278893","pSARL_v2","pSARL_v2z7puv29m","5816176700b325000184dba6","freq","img/green_2bandit_b2.png","70","70","test","1","195","195","9","",""
"null","279446","pSARL_v2","pSARL_v2z7puv29m","5816176700b325000184dba6","freq_resp","img/green_2bandit_b.png","70","70","test","","","","9","",""
"null","279604","pSARL_v2","pSARL_v2z7puv29m","5816176700b325000184dba6","fixation","img/fixation.png","null","","test","","","","","",""
"261","279868","pSARL_v2","pSARL_v2z7puv29m","5816176700b325000184dba6","freq","img/green_2bandit_b2.png","70","70","test","1","196","196","9","",""
"null","280421","pSARL_v2","pSARL_v2z7puv29m","5816176700b325000184dba6","freq_resp","img/green_2bandit_b.png","70","70","test","","","","9","",""
"null","280579","pSARL_v2","pSARL_v2z7puv29m","5816176700b325000184dba6","fixation","img/fixation.png","null","","test","","","","","",""
"439.39999997615814","281021","pSARL_v2","pSARL_v2z7puv29m","5816176700b325000184dba6","reward","img/slot.png","74","","test","","","","","",""
"null","281783","pSARL_v2","pSARL_v2z7puv29m","5816176700b325000184dba6","points","<div class=""verylowPoints""> -3 </div>","null","na","test","","","","9","-3","8"
"339.5","282126","pSARL_v2","pSARL_v2z7puv29m","5816176700b325000184dba6","freq","img/green_2bandit_b2.png","70","70","test","1","197","197","10","",""
"null","282594","pSARL_v2","pSARL_v2z7puv29m","5816176700b325000184dba6","freq_resp","img/green_2bandit_b.png","70","70","test","","","","10","",""
"null","282754","pSARL_v2","pSARL_v2z7puv29m","5816176700b325000184dba6","fixation","img/fixation.png","null","","test","","","","","",""
"246","283003","pSARL_v2","pSARL_v2z7puv29m","5816176700b325000184dba6","freq","img/green_2bandit_b2.png","70","70","test","1","198","198","10","",""
"null","283565","pSARL_v2","pSARL_v2z7puv29m","5816176700b325000184dba6","freq_resp","img/green_2bandit_b.png","70","70","test","","","","10","",""
"null","283722","pSARL_v2","pSARL_v2z7puv29m","5816176700b325000184dba6","fixation","img/fixation.png","null","","test","","","","","",""
"200.19999998807907","283926","pSARL_v2","pSARL_v2z7puv29m","5816176700b325000184dba6","freq","img/green_2bandit_b2.png","70","70","test","1","199","199","10","",""
"null","284541","pSARL_v2","pSARL_v2z7puv29m","5816176700b325000184dba6","freq_resp","img/green_2bandit_b.png","70","70","test","","","","10","",""
"null","284698","pSARL_v2","pSARL_v2z7puv29m","5816176700b325000184dba6","fixation","img/fixation.png","null","","test","","","","","",""
"291.5","284992","pSARL_v2","pSARL_v2z7puv29m","5816176700b325000184dba6","freq","img/green_2bandit_b2.png","70","70","test","1","200","200","10","",""
"null","285504","pSARL_v2","pSARL_v2z7puv29m","5816176700b325000184dba6","freq_resp","img/green_2bandit_b.png","70","70","test","","","","10","",""
"null","285664","pSARL_v2","pSARL_v2z7puv29m","5816176700b325000184dba6","fixation","img/fixation.png","null","","test","","","","","",""
"168.5","285835","pSARL_v2","pSARL_v2z7puv29m","5816176700b325000184dba6","freq","img/green_2bandit_b2.png","70","70","test","1","201","201","10","",""
"null","286483","pSARL_v2","pSARL_v2z7puv29m","5816176700b325000184dba6","freq_resp","img/green_2bandit_b.png","70","70","test","","","","10","",""
"null","286640","pSARL_v2","pSARL_v2z7puv29m","5816176700b325000184dba6","fixation","img/fixation.png","null","","test","","","","","",""
"172.69999998807907","286817","pSARL_v2","pSARL_v2z7puv29m","5816176700b325000184dba6","freq","img/green_2bandit_b2.png","70","70","test","1","202","202","10","",""
"null","287461","pSARL_v2","pSARL_v2z7puv29m","5816176700b325000184dba6","freq_resp","img/green_2bandit_b.png","70","70","test","","","","10","",""
"null","287620","pSARL_v2","pSARL_v2z7puv29m","5816176700b325000184dba6","fixation","img/fixation.png","null","","test","","","","","",""
"218.9000000357628","287841","pSARL_v2","pSARL_v2z7puv29m","5816176700b325000184dba6","freq","img/green_2bandit_b2.png","70","70","test","1","203","203","10","",""
"null","288436","pSARL_v2","pSARL_v2z7puv29m","5816176700b325000184dba6","freq_resp","img/green_2bandit_b.png","70","70","test","","","","10","",""
"null","288594","pSARL_v2","pSARL_v2z7puv29m","5816176700b325000184dba6","fixation","img/fixation.png","null","","test","","","","","",""
"257.19999998807907","288855","pSARL_v2","pSARL_v2z7puv29m","5816176700b325000184dba6","freq","img/green_2bandit_b2.png","70","70","test","1","204","204","10","",""
"null","289407","pSARL_v2","pSARL_v2z7puv29m","5816176700b325000184dba6","freq_resp","img/green_2bandit_b.png","70","70","test","","","","10","",""
"null","289566","pSARL_v2","pSARL_v2z7puv29m","5816176700b325000184dba6","fixation","img/fixation.png","null","","test","","","","","",""
"270.19999998807907","289840","pSARL_v2","pSARL_v2z7puv29m","5816176700b325000184dba6","freq","img/green_2bandit_b2.png","70","70","test","1","205","205","10","",""
"null","290379","pSARL_v2","pSARL_v2z7puv29m","5816176700b325000184dba6","freq_resp","img/green_2bandit_b.png","70","70","test","","","","10","",""
"null","290539","pSARL_v2","pSARL_v2z7puv29m","5816176700b325000184dba6","fixation","img/fixation.png","null","","test","","","","","",""
"203.39999997615814","290746","pSARL_v2","pSARL_v2z7puv29m","5816176700b325000184dba6","freq","img/green_2bandit_b2.png","70","70","test","1","206","206","10","",""
