"rt","time_elapsed","expId","subject","prolificID","trialType","stimulus","key_press","corrresp","phase","corr","trialNum","attentionRunNum","blockNum","points","rlNum"
"6390.700000000012","6410","pSARL_v2","pSARL_v2q9r4qnz5","5dd31760fb7d41000c6610e3","","","","","","","","","","",""
"","9839","pSARL_v2","pSARL_v2q9r4qnz5","5dd31760fb7d41000c6610e3","fullscreen","","","","","","","","","",""
"20482.100000000035","30336","pSARL_v2","pSARL_v2q9r4qnz5","5dd31760fb7d41000c6610e3","","","","","","","","","","",""
"null","31150","pSARL_v2","pSARL_v2q9r4qnz5","5dd31760fb7d41000c6610e3","freqPrac","img/orange_2bandit_a2.png","null","70","prac","0","","","","",""
"null","32162","pSARL_v2","pSARL_v2q9r4qnz5","5dd31760fb7d41000c6610e3","feedback","img/tooSlow.png","null","na","prac","","","","","",""
"null","32324","pSARL_v2","pSARL_v2q9r4qnz5","5dd31760fb7d41000c6610e3","fixation","img/fixation.png","null","","prac","","","","","",""
"547.0999999999767","32884","pSARL_v2","pSARL_v2q9r4qnz5","5dd31760fb7d41000c6610e3","infreqPrac","img/green_2bandit_a2.png","68","68","prac","1","","","","",""
"547.0999999999767","33150","pSARL_v2","pSARL_v2q9r4qnz5","5dd31760fb7d41000c6610e3","infreqPrac_resp","img/green_2bandit_a.png","68","68","prac","","","","","",""
"null","33313","pSARL_v2","pSARL_v2q9r4qnz5","5dd31760fb7d41000c6610e3","fixation","img/fixation.png","null","","prac","","","","","",""
"491","33816","pSARL_v2","pSARL_v2q9r4qnz5","5dd31760fb7d41000c6610e3","freqPrac","img/orange_2bandit_a2.png","70","70","prac","1","","","","",""
"491","34137","pSARL_v2","pSARL_v2q9r4qnz5","5dd31760fb7d41000c6610e3","freqPrac_resp","img/orange_2bandit_a.png","70","70","prac","","","","","",""
"null","34299","pSARL_v2","pSARL_v2q9r4qnz5","5dd31760fb7d41000c6610e3","fixation","img/fixation.png","null","","prac","","","","","",""
"466.9000000000233","34778","pSARL_v2","pSARL_v2q9r4qnz5","5dd31760fb7d41000c6610e3","infreqPrac","img/green_2bandit_a2.png","68","68","prac","1","","","","",""
"466.9000000000233","35123","pSARL_v2","pSARL_v2q9r4qnz5","5dd31760fb7d41000c6610e3","infreqPrac_resp","img/green_2bandit_a.png","68","68","prac","","","","","",""
"null","35285","pSARL_v2","pSARL_v2q9r4qnz5","5dd31760fb7d41000c6610e3","fixation","img/fixation.png","null","","prac","","","","","",""
"491","35788","pSARL_v2","pSARL_v2q9r4qnz5","5dd31760fb7d41000c6610e3","infreqPrac","img/green_2bandit_a2.png","68","68","prac","1","","","","",""
"491","36109","pSARL_v2","pSARL_v2q9r4qnz5","5dd31760fb7d41000c6610e3","infreqPrac_resp","img/green_2bandit_a.png","68","68","prac","","","","","",""
"null","36272","pSARL_v2","pSARL_v2q9r4qnz5","5dd31760fb7d41000c6610e3","fixation","img/fixation.png","null","","prac","","","","","",""
"536.6999999999534","36821","pSARL_v2","pSARL_v2q9r4qnz5","5dd31760fb7d41000c6610e3","infreqPrac","img/green_2bandit_a2.png","68","68","prac","1","","","","",""
"536.6999999999534","37096","pSARL_v2","pSARL_v2q9r4qnz5","5dd31760fb7d41000c6610e3","infreqPrac_resp","img/green_2bandit_a.png","68","68","prac","","","","","",""
"null","37259","pSARL_v2","pSARL_v2q9r4qnz5","5dd31760fb7d41000c6610e3","fixation","img/fixation.png","null","","prac","","","","","",""
"377.5999999999767","37648","pSARL_v2","pSARL_v2q9r4qnz5","5dd31760fb7d41000c6610e3","freqPrac","img/orange_2bandit_a2.png","70","70","prac","1","","","","",""
"377.5999999999767","38083","pSARL_v2","pSARL_v2q9r4qnz5","5dd31760fb7d41000c6610e3","freqPrac_resp","img/orange_2bandit_a.png","70","70","prac","","","","","",""
"null","38246","pSARL_v2","pSARL_v2q9r4qnz5","5dd31760fb7d41000c6610e3","fixation","img/fixation.png","null","","prac","","","","","",""
"417.30000000004657","38675","pSARL_v2","pSARL_v2q9r4qnz5","5dd31760fb7d41000c6610e3","infreqPrac","img/green_2bandit_a2.png","68","68","prac","1","","","","",""
"417.30000000004657","39070","pSARL_v2","pSARL_v2q9r4qnz5","5dd31760fb7d41000c6610e3","infreqPrac_resp","img/green_2bandit_a.png","68","68","prac","","","","","",""
"null","39232","pSARL_v2","pSARL_v2q9r4qnz5","5dd31760fb7d41000c6610e3","fixation","img/fixation.png","null","","prac","","","","","",""
"327.1000000000349","39570","pSARL_v2","pSARL_v2q9r4qnz5","5dd31760fb7d41000c6610e3","freqPrac","img/orange_2bandit_a2.png","70","70","prac","1","","","","",""
"327.1000000000349","40055","pSARL_v2","pSARL_v2q9r4qnz5","5dd31760fb7d41000c6610e3","freqPrac_resp","img/orange_2bandit_a.png","70","70","prac","","","","","",""
"null","40217","pSARL_v2","pSARL_v2q9r4qnz5","5dd31760fb7d41000c6610e3","fixation","img/fixation.png","null","","prac","","","","","",""
"366.1000000000349","40595","pSARL_v2","pSARL_v2q9r4qnz5","5dd31760fb7d41000c6610e3","freqPrac","img/orange_2bandit_a2.png","70","70","prac","1","","","","",""
"366.1000000000349","41040","pSARL_v2","pSARL_v2q9r4qnz5","5dd31760fb7d41000c6610e3","freqPrac_resp","img/orange_2bandit_a.png","70","70","prac","","","","","",""
"null","41202","pSARL_v2","pSARL_v2q9r4qnz5","5dd31760fb7d41000c6610e3","fixation","img/fixation.png","null","","prac","","","","","",""
"27298.599999999977","68513","pSARL_v2","pSARL_v2q9r4qnz5","5dd31760fb7d41000c6610e3","","","","","prac","","","","","",""
"457.20000000001164","68983","pSARL_v2","pSARL_v2q9r4qnz5","5dd31760fb7d41000c6610e3","rewardPractice","img/slot.png","74","","prac","","","","","",""
"null","69747","pSARL_v2","pSARL_v2q9r4qnz5","5dd31760fb7d41000c6610e3","feedback","<div class=""veryhighPoints""> +15 </div>","null","na","prac","","","","","",""
"null","69909","pSARL_v2","pSARL_v2q9r4qnz5","5dd31760fb7d41000c6610e3","fixation","img/fixation.png","null","","prac","","","","","",""
"9763.5","79684","pSARL_v2","pSARL_v2q9r4qnz5","5dd31760fb7d41000c6610e3","","","","","prac","","","","","",""
"723.1000000000349","80419","pSARL_v2","pSARL_v2q9r4qnz5","5dd31760fb7d41000c6610e3","freq","img/orange_2bandit_a2.png","70","70","test","1","1","1","1","",""
"null","80507","pSARL_v2","pSARL_v2q9r4qnz5","5dd31760fb7d41000c6610e3","freq_resp","img/orange_2bandit_a.png","70","70","test","","","","1","",""
"null","80669","pSARL_v2","pSARL_v2q9r4qnz5","5dd31760fb7d41000c6610e3","fixation","img/fixation.png","null","","test","","","","","",""
"400.6000000000349","81082","pSARL_v2","pSARL_v2q9r4qnz5","5dd31760fb7d41000c6610e3","freq","img/orange_2bandit_a2.png","70","70","test","1","2","2","1","",""
"null","81493","pSARL_v2","pSARL_v2q9r4qnz5","5dd31760fb7d41000c6610e3","freq_resp","img/orange_2bandit_a.png","70","70","test","","","","1","",""
"null","81655","pSARL_v2","pSARL_v2q9r4qnz5","5dd31760fb7d41000c6610e3","fixation","img/fixation.png","null","","test","","","","","",""
"417.5","82084","pSARL_v2","pSARL_v2q9r4qnz5","5dd31760fb7d41000c6610e3","infreq","img/green_2bandit_a2.png","68","68","test","1","3","3","1","",""
"null","82479","pSARL_v2","pSARL_v2q9r4qnz5","5dd31760fb7d41000c6610e3","infreq_resp","img/green_2bandit_a.png","68","68","test","","","","1","",""
"null","82642","pSARL_v2","pSARL_v2q9r4qnz5","5dd31760fb7d41000c6610e3","fixation","img/fixation.png","null","","test","","","","","",""
"377.20000000001164","83031","pSARL_v2","pSARL_v2q9r4qnz5","5dd31760fb7d41000c6610e3","freq","img/orange_2bandit_a2.png","70","70","test","1","4","4","1","",""
"null","83465","pSARL_v2","pSARL_v2q9r4qnz5","5dd31760fb7d41000c6610e3","freq_resp","img/orange_2bandit_a.png","70","70","test","","","","1","",""
"null","83627","pSARL_v2","pSARL_v2q9r4qnz5","5dd31760fb7d41000c6610e3","fixation","img/fixation.png","null","","test","","","","","",""
"317.70000000001164","83957","pSARL_v2","pSARL_v2q9r4qnz5","5dd31760fb7d41000c6610e3","freq","img/orange_2bandit_a2.png","70","70","test","1","5","5","1","",""
"null","84451","pSARL_v2","pSARL_v2q9r4qnz5","5dd31760fb7d41000c6610e3","freq_resp","img/orange_2bandit_a.png","70","70","test","","","","1","",""
"null","84613","pSARL_v2","pSARL_v2q9r4qnz5","5dd31760fb7d41000c6610e3","fixation","img/fixation.png","null","","test","","","","","",""
"311.8999999999651","84937","pSARL_v2","pSARL_v2q9r4qnz5","5dd31760fb7d41000c6610e3","freq","img/orange_2bandit_a2.png","70","70","test","1","6","6","1","",""
"null","85437","pSARL_v2","pSARL_v2q9r4qnz5","5dd31760fb7d41000c6610e3","freq_resp","img/orange_2bandit_a.png","70","70","test","","","","1","",""
"null","85599","pSARL_v2","pSARL_v2q9r4qnz5","5dd31760fb7d41000c6610e3","fixation","img/fixation.png","null","","test","","","","","",""
"440.3999999999651","86052","pSARL_v2","pSARL_v2q9r4qnz5","5dd31760fb7d41000c6610e3","infreq","img/green_2bandit_a2.png","68","68","test","1","7","7","1","",""
"null","86423","pSARL_v2","pSARL_v2q9r4qnz5","5dd31760fb7d41000c6610e3","infreq_resp","img/green_2bandit_a.png","68","68","test","","","","1","",""
"null","86585","pSARL_v2","pSARL_v2q9r4qnz5","5dd31760fb7d41000c6610e3","fixation","img/fixation.png","null","","test","","","","","",""
"504.20000000001164","87102","pSARL_v2","pSARL_v2q9r4qnz5","5dd31760fb7d41000c6610e3","freq","img/orange_2bandit_a2.png","70","70","test","1","8","8","1","",""
"null","87410","pSARL_v2","pSARL_v2q9r4qnz5","5dd31760fb7d41000c6610e3","freq_resp","img/orange_2bandit_a.png","70","70","test","","","","1","",""
"null","87571","pSARL_v2","pSARL_v2q9r4qnz5","5dd31760fb7d41000c6610e3","fixation","img/fixation.png","null","","test","","","","","",""
"362.9000000000233","87946","pSARL_v2","pSARL_v2q9r4qnz5","5dd31760fb7d41000c6610e3","freq","img/orange_2bandit_a2.png","70","70","test","1","9","9","1","",""
"null","88395","pSARL_v2","pSARL_v2q9r4qnz5","5dd31760fb7d41000c6610e3","freq_resp","img/orange_2bandit_a.png","70","70","test","","","","1","",""
"null","88558","pSARL_v2","pSARL_v2q9r4qnz5","5dd31760fb7d41000c6610e3","fixation","img/fixation.png","null","","test","","","","","",""
"387.5999999999767","88957","pSARL_v2","pSARL_v2q9r4qnz5","5dd31760fb7d41000c6610e3","freq","img/orange_2bandit_a2.png","70","70","test","1","10","10","1","",""
"null","89381","pSARL_v2","pSARL_v2q9r4qnz5","5dd31760fb7d41000c6610e3","freq_resp","img/orange_2bandit_a.png","70","70","test","","","","1","",""
"null","89544","pSARL_v2","pSARL_v2q9r4qnz5","5dd31760fb7d41000c6610e3","fixation","img/fixation.png","null","","test","","","","","",""
"392.20000000001164","89948","pSARL_v2","pSARL_v2q9r4qnz5","5dd31760fb7d41000c6610e3","freq","img/orange_2bandit_a2.png","70","70","test","1","11","11","1","",""
"null","90368","pSARL_v2","pSARL_v2q9r4qnz5","5dd31760fb7d41000c6610e3","freq_resp","img/orange_2bandit_a.png","70","70","test","","","","1","",""
"null","90530","pSARL_v2","pSARL_v2q9r4qnz5","5dd31760fb7d41000c6610e3","fixation","img/fixation.png","null","","test","","","","","",""
"350.30000000004657","90892","pSARL_v2","pSARL_v2q9r4qnz5","5dd31760fb7d41000c6610e3","freq","img/orange_2bandit_a2.png","70","70","test","1","12","12","1","",""
"null","91353","pSARL_v2","pSARL_v2q9r4qnz5","5dd31760fb7d41000c6610e3","freq_resp","img/orange_2bandit_a.png","70","70","test","","","","1","",""
"null","91515","pSARL_v2","pSARL_v2q9r4qnz5","5dd31760fb7d41000c6610e3","fixation","img/fixation.png","null","","test","","","","","",""
"335.5","91863","pSARL_v2","pSARL_v2q9r4qnz5","5dd31760fb7d41000c6610e3","freq","img/orange_2bandit_a2.png","70","70","test","1","13","13","1","",""
"null","92339","pSARL_v2","pSARL_v2q9r4qnz5","5dd31760fb7d41000c6610e3","freq_resp","img/orange_2bandit_a.png","70","70","test","","","","1","",""
"null","92502","pSARL_v2","pSARL_v2q9r4qnz5","5dd31760fb7d41000c6610e3","fixation","img/fixation.png","null","","test","","","","","",""
"361.8999999999651","92875","pSARL_v2","pSARL_v2q9r4qnz5","5dd31760fb7d41000c6610e3","freq","img/orange_2bandit_a2.png","70","70","test","1","14","14","1","",""
"null","93327","pSARL_v2","pSARL_v2q9r4qnz5","5dd31760fb7d41000c6610e3","freq_resp","img/orange_2bandit_a.png","70","70","test","","","","1","",""
"null","93488","pSARL_v2","pSARL_v2q9r4qnz5","5dd31760fb7d41000c6610e3","fixation","img/fixation.png","null","","test","","","","","",""
"328.29999999998836","93828","pSARL_v2","pSARL_v2q9r4qnz5","5dd31760fb7d41000c6610e3","freq","img/orange_2bandit_a2.png","70","70","test","1","15","15","1","",""
"null","94311","pSARL_v2","pSARL_v2q9r4qnz5","5dd31760fb7d41000c6610e3","freq_resp","img/orange_2bandit_a.png","70","70","test","","","","1","",""
"null","94473","pSARL_v2","pSARL_v2q9r4qnz5","5dd31760fb7d41000c6610e3","fixation","img/fixation.png","null","","test","","","","","",""
"334.5999999999767","94819","pSARL_v2","pSARL_v2q9r4qnz5","5dd31760fb7d41000c6610e3","freq","img/orange_2bandit_a2.png","70","70","test","1","16","16","1","",""
"null","95297","pSARL_v2","pSARL_v2q9r4qnz5","5dd31760fb7d41000c6610e3","freq_resp","img/orange_2bandit_a.png","70","70","test","","","","1","",""
"null","95459","pSARL_v2","pSARL_v2q9r4qnz5","5dd31760fb7d41000c6610e3","fixation","img/fixation.png","null","","test","","","","","",""
"440.8999999999651","95912","pSARL_v2","pSARL_v2q9r4qnz5","5dd31760fb7d41000c6610e3","infreq","img/green_2bandit_a2.png","68","68","test","1","17","17","1","",""
"null","96283","pSARL_v2","pSARL_v2q9r4qnz5","5dd31760fb7d41000c6610e3","infreq_resp","img/green_2bandit_a.png","68","68","test","","","","1","",""
"null","96445","pSARL_v2","pSARL_v2q9r4qnz5","5dd31760fb7d41000c6610e3","fixation","img/fixation.png","null","","test","","","","","",""
"419.4000000000233","96877","pSARL_v2","pSARL_v2q9r4qnz5","5dd31760fb7d41000c6610e3","freq","img/orange_2bandit_a2.png","70","70","test","1","18","18","1","",""
"null","97271","pSARL_v2","pSARL_v2q9r4qnz5","5dd31760fb7d41000c6610e3","freq_resp","img/orange_2bandit_a.png","70","70","test","","","","1","",""
"null","97434","pSARL_v2","pSARL_v2q9r4qnz5","5dd31760fb7d41000c6610e3","fixation","img/fixation.png","null","","test","","","","","",""
"345.9000000000233","97792","pSARL_v2","pSARL_v2q9r4qnz5","5dd31760fb7d41000c6610e3","freq","img/orange_2bandit_a2.png","70","70","test","1","19","19","1","",""
"null","98258","pSARL_v2","pSARL_v2q9r4qnz5","5dd31760fb7d41000c6610e3","freq_resp","img/orange_2bandit_a.png","70","70","test","","","","1","",""
"null","98420","pSARL_v2","pSARL_v2q9r4qnz5","5dd31760fb7d41000c6610e3","fixation","img/fixation.png","null","","test","","","","","",""
"335.9000000000233","98768","pSARL_v2","pSARL_v2q9r4qnz5","5dd31760fb7d41000c6610e3","freq","img/orange_2bandit_a2.png","70","70","test","1","20","20","1","",""
"null","99245","pSARL_v2","pSARL_v2q9r4qnz5","5dd31760fb7d41000c6610e3","freq_resp","img/orange_2bandit_a.png","70","70","test","","","","1","",""
"null","99407","pSARL_v2","pSARL_v2q9r4qnz5","5dd31760fb7d41000c6610e3","fixation","img/fixation.png","null","","test","","","","","",""
"1985.7999999999884","101405","pSARL_v2","pSARL_v2q9r4qnz5","5dd31760fb7d41000c6610e3","reward","img/slot.png","74","","test","","","","","",""
"null","102167","pSARL_v2","pSARL_v2q9r4qnz5","5dd31760fb7d41000c6610e3","points","<div class=""verylowPoints""> -6 </div>","null","na","test","","","","1","-6","0"
"45.29999999998836","102225","pSARL_v2","pSARL_v2q9r4qnz5","5dd31760fb7d41000c6610e3","freq","img/orange_2bandit_a2.png","70","70","test","1","21","21","2","",""
"null","102994","pSARL_v2","pSARL_v2q9r4qnz5","5dd31760fb7d41000c6610e3","freq_resp","img/orange_2bandit_a.png","70","70","test","","","","2","",""
"null","103157","pSARL_v2","pSARL_v2q9r4qnz5","5dd31760fb7d41000c6610e3","fixation","img/fixation.png","null","","test","","","","","",""
"240","103410","pSARL_v2","pSARL_v2q9r4qnz5","5dd31760fb7d41000c6610e3","freq","img/orange_2bandit_a2.png","70","70","test","1","22","22","2","",""
"null","103983","pSARL_v2","pSARL_v2q9r4qnz5","5dd31760fb7d41000c6610e3","freq_resp","img/orange_2bandit_a.png","70","70","test","","","","2","",""
"null","104145","pSARL_v2","pSARL_v2q9r4qnz5","5dd31760fb7d41000c6610e3","fixation","img/fixation.png","null","","test","","","","","",""
"261.0999999999767","104418","pSARL_v2","pSARL_v2q9r4qnz5","5dd31760fb7d41000c6610e3","freq","img/orange_2bandit_a2.png","70","70","test","1","23","23","2","",""
"null","104968","pSARL_v2","pSARL_v2q9r4qnz5","5dd31760fb7d41000c6610e3","freq_resp","img/orange_2bandit_a.png","70","70","test","","","","2","",""
"null","105130","pSARL_v2","pSARL_v2q9r4qnz5","5dd31760fb7d41000c6610e3","fixation","img/fixation.png","null","","test","","","","","",""
"362","105504","pSARL_v2","pSARL_v2q9r4qnz5","5dd31760fb7d41000c6610e3","freq","img/orange_2bandit_a2.png","70","70","test","1","24","24","2","",""
"null","105954","pSARL_v2","pSARL_v2q9r4qnz5","5dd31760fb7d41000c6610e3","freq_resp","img/orange_2bandit_a.png","70","70","test","","","","2","",""
"null","106116","pSARL_v2","pSARL_v2q9r4qnz5","5dd31760fb7d41000c6610e3","fixation","img/fixation.png","null","","test","","","","","",""
"416.20000000001164","106544","pSARL_v2","pSARL_v2q9r4qnz5","5dd31760fb7d41000c6610e3","freq","img/orange_2bandit_a2.png","70","70","test","1","25","25","2","",""
"null","106939","pSARL_v2","pSARL_v2q9r4qnz5","5dd31760fb7d41000c6610e3","freq_resp","img/orange_2bandit_a.png","70","70","test","","","","2","",""
"null","107102","pSARL_v2","pSARL_v2q9r4qnz5","5dd31760fb7d41000c6610e3","fixation","img/fixation.png","null","","test","","","","","",""
"333.70000000001164","107448","pSARL_v2","pSARL_v2q9r4qnz5","5dd31760fb7d41000c6610e3","freq","img/orange_2bandit_a2.png","70","70","test","1","26","26","2","",""
"null","107926","pSARL_v2","pSARL_v2q9r4qnz5","5dd31760fb7d41000c6610e3","freq_resp","img/orange_2bandit_a.png","70","70","test","","","","2","",""
"null","108088","pSARL_v2","pSARL_v2q9r4qnz5","5dd31760fb7d41000c6610e3","fixation","img/fixation.png","null","","test","","","","","",""
"339.0999999999767","108439","pSARL_v2","pSARL_v2q9r4qnz5","5dd31760fb7d41000c6610e3","freq","img/orange_2bandit_a2.png","70","70","test","1","27","27","2","",""
"null","108912","pSARL_v2","pSARL_v2q9r4qnz5","5dd31760fb7d41000c6610e3","freq_resp","img/orange_2bandit_a.png","70","70","test","","","","2","",""
"null","109074","pSARL_v2","pSARL_v2q9r4qnz5","5dd31760fb7d41000c6610e3","fixation","img/fixation.png","null","","test","","","","","",""
"429.0999999999767","109515","pSARL_v2","pSARL_v2q9r4qnz5","5dd31760fb7d41000c6610e3","infreq","img/green_2bandit_a2.png","68","68","test","1","28","28","2","",""
"null","109897","pSARL_v2","pSARL_v2q9r4qnz5","5dd31760fb7d41000c6610e3","infreq_resp","img/green_2bandit_a.png","68","68","test","","","","2","",""
"null","110059","pSARL_v2","pSARL_v2q9r4qnz5","5dd31760fb7d41000c6610e3","fixation","img/fixation.png","null","","test","","","","","",""
"433.70000000001164","110504","pSARL_v2","pSARL_v2q9r4qnz5","5dd31760fb7d41000c6610e3","infreq","img/green_2bandit_a2.png","68","68","test","1","29","29","2","",""
"null","110882","pSARL_v2","pSARL_v2q9r4qnz5","5dd31760fb7d41000c6610e3","infreq_resp","img/green_2bandit_a.png","68","68","test","","","","2","",""
"null","111044","pSARL_v2","pSARL_v2q9r4qnz5","5dd31760fb7d41000c6610e3","fixation","img/fixation.png","null","","test","","","","","",""
"481.5","111537","pSARL_v2","pSARL_v2q9r4qnz5","5dd31760fb7d41000c6610e3","freq","img/orange_2bandit_a2.png","70","70","test","1","30","30","2","",""
"null","111867","pSARL_v2","pSARL_v2q9r4qnz5","5dd31760fb7d41000c6610e3","freq_resp","img/orange_2bandit_a.png","70","70","test","","","","2","",""
"null","112030","pSARL_v2","pSARL_v2q9r4qnz5","5dd31760fb7d41000c6610e3","fixation","img/fixation.png","null","","test","","","","","",""
"508.79999999998836","112550","pSARL_v2","pSARL_v2q9r4qnz5","5dd31760fb7d41000c6610e3","infreq","img/green_2bandit_a2.png","68","68","test","1","31","31","2","",""
"null","112854","pSARL_v2","pSARL_v2q9r4qnz5","5dd31760fb7d41000c6610e3","infreq_resp","img/green_2bandit_a.png","68","68","test","","","","2","",""
"null","113016","pSARL_v2","pSARL_v2q9r4qnz5","5dd31760fb7d41000c6610e3","fixation","img/fixation.png","null","","test","","","","","",""
"439.79999999998836","113468","pSARL_v2","pSARL_v2q9r4qnz5","5dd31760fb7d41000c6610e3","freq","img/orange_2bandit_a2.png","70","70","test","1","32","32","2","",""
"null","113840","pSARL_v2","pSARL_v2q9r4qnz5","5dd31760fb7d41000c6610e3","freq_resp","img/orange_2bandit_a.png","70","70","test","","","","2","",""
"null","114002","pSARL_v2","pSARL_v2q9r4qnz5","5dd31760fb7d41000c6610e3","fixation","img/fixation.png","null","","test","","","","","",""
"402.30000000004657","114416","pSARL_v2","pSARL_v2q9r4qnz5","5dd31760fb7d41000c6610e3","freq","img/orange_2bandit_a2.png","70","70","test","1","33","33","2","",""
"null","114832","pSARL_v2","pSARL_v2q9r4qnz5","5dd31760fb7d41000c6610e3","freq_resp","img/orange_2bandit_a.png","70","70","test","","","","2","",""
"null","114994","pSARL_v2","pSARL_v2q9r4qnz5","5dd31760fb7d41000c6610e3","fixation","img/fixation.png","null","","test","","","","","",""
"527.3999999999651","115533","pSARL_v2","pSARL_v2q9r4qnz5","5dd31760fb7d41000c6610e3","freq","img/orange_2bandit_a2.png","70","70","test","1","34","34","2","",""
"null","115817","pSARL_v2","pSARL_v2q9r4qnz5","5dd31760fb7d41000c6610e3","freq_resp","img/orange_2bandit_a.png","70","70","test","","","","2","",""
"null","115979","pSARL_v2","pSARL_v2q9r4qnz5","5dd31760fb7d41000c6610e3","fixation","img/fixation.png","null","","test","","","","","",""
"412.5","116403","pSARL_v2","pSARL_v2q9r4qnz5","5dd31760fb7d41000c6610e3","freq","img/orange_2bandit_a2.png","70","70","test","1","35","35","2","",""
"null","116802","pSARL_v2","pSARL_v2q9r4qnz5","5dd31760fb7d41000c6610e3","freq_resp","img/orange_2bandit_a.png","70","70","test","","","","2","",""
"null","116964","pSARL_v2","pSARL_v2q9r4qnz5","5dd31760fb7d41000c6610e3","fixation","img/fixation.png","null","","test","","","","","",""
"328.29999999998836","117304","pSARL_v2","pSARL_v2q9r4qnz5","5dd31760fb7d41000c6610e3","freq","img/orange_2bandit_a2.png","70","70","test","1","36","36","2","",""
"null","117787","pSARL_v2","pSARL_v2q9r4qnz5","5dd31760fb7d41000c6610e3","freq_resp","img/orange_2bandit_a.png","70","70","test","","","","2","",""
"null","117949","pSARL_v2","pSARL_v2q9r4qnz5","5dd31760fb7d41000c6610e3","fixation","img/fixation.png","null","","test","","","","","",""
"308.79999999998836","118269","pSARL_v2","pSARL_v2q9r4qnz5","5dd31760fb7d41000c6610e3","freq","img/orange_2bandit_a2.png","70","70","test","1","37","37","2","",""
"null","118772","pSARL_v2","pSARL_v2q9r4qnz5","5dd31760fb7d41000c6610e3","freq_resp","img/orange_2bandit_a.png","70","70","test","","","","2","",""
"null","118934","pSARL_v2","pSARL_v2q9r4qnz5","5dd31760fb7d41000c6610e3","fixation","img/fixation.png","null","","test","","","","","",""
"306.5","119252","pSARL_v2","pSARL_v2q9r4qnz5","5dd31760fb7d41000c6610e3","freq","img/orange_2bandit_a2.png","70","70","test","1","38","38","2","",""
"null","119757","pSARL_v2","pSARL_v2q9r4qnz5","5dd31760fb7d41000c6610e3","freq_resp","img/orange_2bandit_a.png","70","70","test","","","","2","",""
"null","119919","pSARL_v2","pSARL_v2q9r4qnz5","5dd31760fb7d41000c6610e3","fixation","img/fixation.png","null","","test","","","","","",""
"270.8999999999651","120202","pSARL_v2","pSARL_v2q9r4qnz5","5dd31760fb7d41000c6610e3","freq","img/orange_2bandit_a2.png","70","70","test","1","39","39","2","",""
"null","120748","pSARL_v2","pSARL_v2q9r4qnz5","5dd31760fb7d41000c6610e3","freq_resp","img/orange_2bandit_a.png","70","70","test","","","","2","",""
"null","120910","pSARL_v2","pSARL_v2q9r4qnz5","5dd31760fb7d41000c6610e3","fixation","img/fixation.png","null","","test","","","","","",""
"308.79999999998836","121230","pSARL_v2","pSARL_v2q9r4qnz5","5dd31760fb7d41000c6610e3","freq","img/orange_2bandit_a2.png","70","70","test","1","40","40","2","",""
"null","121732","pSARL_v2","pSARL_v2q9r4qnz5","5dd31760fb7d41000c6610e3","freq_resp","img/orange_2bandit_a.png","70","70","test","","","","2","",""
"null","121894","pSARL_v2","pSARL_v2q9r4qnz5","5dd31760fb7d41000c6610e3","fixation","img/fixation.png","null","","test","","","","","",""
"302.70000000001164","122209","pSARL_v2","pSARL_v2q9r4qnz5","5dd31760fb7d41000c6610e3","freq","img/orange_2bandit_a2.png","70","70","test","1","41","41","2","",""
"null","122718","pSARL_v2","pSARL_v2q9r4qnz5","5dd31760fb7d41000c6610e3","freq_resp","img/orange_2bandit_a.png","70","70","test","","","","2","",""
"null","122880","pSARL_v2","pSARL_v2q9r4qnz5","5dd31760fb7d41000c6610e3","fixation","img/fixation.png","null","","test","","","","","",""
"318.20000000001164","123211","pSARL_v2","pSARL_v2q9r4qnz5","5dd31760fb7d41000c6610e3","freq","img/orange_2bandit_a2.png","70","70","test","1","42","42","2","",""
"null","123703","pSARL_v2","pSARL_v2q9r4qnz5","5dd31760fb7d41000c6610e3","freq_resp","img/orange_2bandit_a.png","70","70","test","","","","2","",""
"null","123865","pSARL_v2","pSARL_v2q9r4qnz5","5dd31760fb7d41000c6610e3","fixation","img/fixation.png","null","","test","","","","","",""
"2903.7000000000116","126781","pSARL_v2","pSARL_v2q9r4qnz5","5dd31760fb7d41000c6610e3","reward","img/slot.png","74","","test","","","","","",""
"null","127542","pSARL_v2","pSARL_v2q9r4qnz5","5dd31760fb7d41000c6610e3","points","<div class=""verylowPoints""> -11 </div>","null","na","test","","","","2","-11","1"
"719.1999999999534","128274","pSARL_v2","pSARL_v2q9r4qnz5","5dd31760fb7d41000c6610e3","freq","img/orange_2bandit_a2.png","70","70","test","1","43","43","3","",""
"null","128366","pSARL_v2","pSARL_v2q9r4qnz5","5dd31760fb7d41000c6610e3","freq_resp","img/orange_2bandit_a.png","70","70","test","","","","3","",""
"null","128528","pSARL_v2","pSARL_v2q9r4qnz5","5dd31760fb7d41000c6610e3","fixation","img/fixation.png","null","","test","","","","","",""
"349.20000000001164","128889","pSARL_v2","pSARL_v2q9r4qnz5","5dd31760fb7d41000c6610e3","freq","img/orange_2bandit_a2.png","70","70","test","1","44","44","3","",""
"null","129351","pSARL_v2","pSARL_v2q9r4qnz5","5dd31760fb7d41000c6610e3","freq_resp","img/orange_2bandit_a.png","70","70","test","","","","3","",""
"null","129514","pSARL_v2","pSARL_v2q9r4qnz5","5dd31760fb7d41000c6610e3","fixation","img/fixation.png","null","","test","","","","","",""
"89.79999999998836","129615","pSARL_v2","pSARL_v2q9r4qnz5","5dd31760fb7d41000c6610e3","freq","img/orange_2bandit_a2.png","70","70","test","1","45","45","3","",""
"null","130338","pSARL_v2","pSARL_v2q9r4qnz5","5dd31760fb7d41000c6610e3","freq_resp","img/orange_2bandit_a.png","70","70","test","","","","3","",""
"null","130500","pSARL_v2","pSARL_v2q9r4qnz5","5dd31760fb7d41000c6610e3","fixation","img/fixation.png","null","","test","","","","","",""
"105.5","130618","pSARL_v2","pSARL_v2q9r4qnz5","5dd31760fb7d41000c6610e3","freq","img/orange_2bandit_a2.png","70","70","test","1","46","46","3","",""
"null","131324","pSARL_v2","pSARL_v2q9r4qnz5","5dd31760fb7d41000c6610e3","freq_resp","img/orange_2bandit_a.png","70","70","test","","","","3","",""
"null","131486","pSARL_v2","pSARL_v2q9r4qnz5","5dd31760fb7d41000c6610e3","fixation","img/fixation.png","null","","test","","","","","",""
"267.9000000000233","131766","pSARL_v2","pSARL_v2q9r4qnz5","5dd31760fb7d41000c6610e3","freq","img/orange_2bandit_a2.png","70","70","test","1","47","47","3","",""
"null","132310","pSARL_v2","pSARL_v2q9r4qnz5","5dd31760fb7d41000c6610e3","freq_resp","img/orange_2bandit_a.png","70","70","test","","","","3","",""
"null","132473","pSARL_v2","pSARL_v2q9r4qnz5","5dd31760fb7d41000c6610e3","fixation","img/fixation.png","null","","test","","","","","",""
"405.70000000001164","132890","pSARL_v2","pSARL_v2q9r4qnz5","5dd31760fb7d41000c6610e3","infreq","img/green_2bandit_a2.png","68","68","test","1","48","48","3","",""
"null","133296","pSARL_v2","pSARL_v2q9r4qnz5","5dd31760fb7d41000c6610e3","infreq_resp","img/green_2bandit_a.png","68","68","test","","","","3","",""
"null","133459","pSARL_v2","pSARL_v2q9r4qnz5","5dd31760fb7d41000c6610e3","fixation","img/fixation.png","null","","test","","","","","",""
"462.1000000000349","133932","pSARL_v2","pSARL_v2q9r4qnz5","5dd31760fb7d41000c6610e3","freq","img/orange_2bandit_a2.png","70","70","test","1","49","49","3","",""
"null","134281","pSARL_v2","pSARL_v2q9r4qnz5","5dd31760fb7d41000c6610e3","freq_resp","img/orange_2bandit_a.png","70","70","test","","","","3","",""
"null","134443","pSARL_v2","pSARL_v2q9r4qnz5","5dd31760fb7d41000c6610e3","fixation","img/fixation.png","null","","test","","","","","",""
"409.5999999999767","134865","pSARL_v2","pSARL_v2q9r4qnz5","5dd31760fb7d41000c6610e3","infreq","img/green_2bandit_a2.png","68","68","test","1","50","50","3","",""
"null","135267","pSARL_v2","pSARL_v2q9r4qnz5","5dd31760fb7d41000c6610e3","infreq_resp","img/green_2bandit_a.png","68","68","test","","","","3","",""
"null","135430","pSARL_v2","pSARL_v2q9r4qnz5","5dd31760fb7d41000c6610e3","fixation","img/fixation.png","null","","test","","","","","",""
"442.29999999998836","135884","pSARL_v2","pSARL_v2q9r4qnz5","5dd31760fb7d41000c6610e3","freq","img/orange_2bandit_a2.png","70","70","test","1","51","51","3","",""
"null","136254","pSARL_v2","pSARL_v2q9r4qnz5","5dd31760fb7d41000c6610e3","freq_resp","img/orange_2bandit_a.png","70","70","test","","","","3","",""
"null","136416","pSARL_v2","pSARL_v2q9r4qnz5","5dd31760fb7d41000c6610e3","fixation","img/fixation.png","null","","test","","","","","",""
"401.4000000000233","136829","pSARL_v2","pSARL_v2q9r4qnz5","5dd31760fb7d41000c6610e3","freq","img/orange_2bandit_a2.png","70","70","test","1","52","52","3","",""
"null","137240","pSARL_v2","pSARL_v2q9r4qnz5","5dd31760fb7d41000c6610e3","freq_resp","img/orange_2bandit_a.png","70","70","test","","","","3","",""
"null","137402","pSARL_v2","pSARL_v2q9r4qnz5","5dd31760fb7d41000c6610e3","fixation","img/fixation.png","null","","test","","","","","",""
"393.4000000000233","137807","pSARL_v2","pSARL_v2q9r4qnz5","5dd31760fb7d41000c6610e3","freq","img/orange_2bandit_a2.png","70","70","test","1","53","53","3","",""
"null","138226","pSARL_v2","pSARL_v2q9r4qnz5","5dd31760fb7d41000c6610e3","freq_resp","img/orange_2bandit_a.png","70","70","test","","","","3","",""
"null","138388","pSARL_v2","pSARL_v2q9r4qnz5","5dd31760fb7d41000c6610e3","fixation","img/fixation.png","null","","test","","","","","",""
"366.69999999995343","138766","pSARL_v2","pSARL_v2q9r4qnz5","5dd31760fb7d41000c6610e3","freq","img/orange_2bandit_a2.png","70","70","test","1","54","54","3","",""
"null","139211","pSARL_v2","pSARL_v2q9r4qnz5","5dd31760fb7d41000c6610e3","freq_resp","img/orange_2bandit_a.png","70","70","test","","","","3","",""
"null","139373","pSARL_v2","pSARL_v2q9r4qnz5","5dd31760fb7d41000c6610e3","fixation","img/fixation.png","null","","test","","","","","",""
"344.9000000000233","139730","pSARL_v2","pSARL_v2q9r4qnz5","5dd31760fb7d41000c6610e3","freq","img/orange_2bandit_a2.png","70","70","test","1","55","55","3","",""
"null","140197","pSARL_v2","pSARL_v2q9r4qnz5","5dd31760fb7d41000c6610e3","freq_resp","img/orange_2bandit_a.png","70","70","test","","","","3","",""
"null","140359","pSARL_v2","pSARL_v2q9r4qnz5","5dd31760fb7d41000c6610e3","fixation","img/fixation.png","null","","test","","","","","",""
"319.5","140691","pSARL_v2","pSARL_v2q9r4qnz5","5dd31760fb7d41000c6610e3","freq","img/orange_2bandit_a2.png","70","70","test","1","56","56","3","",""
"null","141183","pSARL_v2","pSARL_v2q9r4qnz5","5dd31760fb7d41000c6610e3","freq_resp","img/orange_2bandit_a.png","70","70","test","","","","3","",""
"null","141345","pSARL_v2","pSARL_v2q9r4qnz5","5dd31760fb7d41000c6610e3","fixation","img/fixation.png","null","","test","","","","","",""
"315.9000000000233","141673","pSARL_v2","pSARL_v2q9r4qnz5","5dd31760fb7d41000c6610e3","freq","img/orange_2bandit_a2.png","70","70","test","1","57","57","3","",""
"null","142170","pSARL_v2","pSARL_v2q9r4qnz5","5dd31760fb7d41000c6610e3","freq_resp","img/orange_2bandit_a.png","70","70","test","","","","3","",""
"null","142332","pSARL_v2","pSARL_v2q9r4qnz5","5dd31760fb7d41000c6610e3","fixation","img/fixation.png","null","","test","","","","","",""
"323.79999999998836","142667","pSARL_v2","pSARL_v2q9r4qnz5","5dd31760fb7d41000c6610e3","freq","img/orange_2bandit_a2.png","70","70","test","1","58","58","3","",""
"null","143157","pSARL_v2","pSARL_v2q9r4qnz5","5dd31760fb7d41000c6610e3","freq_resp","img/orange_2bandit_a.png","70","70","test","","","","3","",""
"null","143319","pSARL_v2","pSARL_v2q9r4qnz5","5dd31760fb7d41000c6610e3","fixation","img/fixation.png","null","","test","","","","","",""
"284.5","143615","pSARL_v2","pSARL_v2q9r4qnz5","5dd31760fb7d41000c6610e3","freq","img/orange_2bandit_a2.png","70","70","test","1","59","59","3","",""
"null","144143","pSARL_v2","pSARL_v2q9r4qnz5","5dd31760fb7d41000c6610e3","freq_resp","img/orange_2bandit_a.png","70","70","test","","","","3","",""
"null","144305","pSARL_v2","pSARL_v2q9r4qnz5","5dd31760fb7d41000c6610e3","fixation","img/fixation.png","null","","test","","","","","",""
"270.4000000000233","144588","pSARL_v2","pSARL_v2q9r4qnz5","5dd31760fb7d41000c6610e3","freq","img/orange_2bandit_a2.png","70","70","test","1","60","60","3","",""
"null","145129","pSARL_v2","pSARL_v2q9r4qnz5","5dd31760fb7d41000c6610e3","freq_resp","img/orange_2bandit_a.png","70","70","test","","","","3","",""
"null","145292","pSARL_v2","pSARL_v2q9r4qnz5","5dd31760fb7d41000c6610e3","fixation","img/fixation.png","null","","test","","","","","",""
"262.5999999999767","145566","pSARL_v2","pSARL_v2q9r4qnz5","5dd31760fb7d41000c6610e3","freq","img/orange_2bandit_a2.png","70","70","test","1","61","61","3","",""
"null","146115","pSARL_v2","pSARL_v2q9r4qnz5","5dd31760fb7d41000c6610e3","freq_resp","img/orange_2bandit_a.png","70","70","test","","","","3","",""
"null","146277","pSARL_v2","pSARL_v2q9r4qnz5","5dd31760fb7d41000c6610e3","fixation","img/fixation.png","null","","test","","","","","",""
"157.29999999998836","146446","pSARL_v2","pSARL_v2q9r4qnz5","5dd31760fb7d41000c6610e3","freq","img/orange_2bandit_a2.png","70","70","test","1","62","62","3","",""
"null","147099","pSARL_v2","pSARL_v2q9r4qnz5","5dd31760fb7d41000c6610e3","freq_resp","img/orange_2bandit_a.png","70","70","test","","","","3","",""
"null","147261","pSARL_v2","pSARL_v2q9r4qnz5","5dd31760fb7d41000c6610e3","fixation","img/fixation.png","null","","test","","","","","",""
"210.5","147483","pSARL_v2","pSARL_v2q9r4qnz5","5dd31760fb7d41000c6610e3","freq","img/orange_2bandit_a2.png","70","70","test","1","63","63","3","",""
"null","148084","pSARL_v2","pSARL_v2q9r4qnz5","5dd31760fb7d41000c6610e3","freq_resp","img/orange_2bandit_a.png","70","70","test","","","","3","",""
"null","148246","pSARL_v2","pSARL_v2q9r4qnz5","5dd31760fb7d41000c6610e3","fixation","img/fixation.png","null","","test","","","","","",""
"794.7999999999884","149053","pSARL_v2","pSARL_v2q9r4qnz5","5dd31760fb7d41000c6610e3","freq","img/orange_2bandit_a2.png","70","70","test","1","64","64","3","",""
"null","149070","pSARL_v2","pSARL_v2q9r4qnz5","5dd31760fb7d41000c6610e3","freq_resp","img/orange_2bandit_a.png","70","70","test","","","","3","",""
"null","149232","pSARL_v2","pSARL_v2q9r4qnz5","5dd31760fb7d41000c6610e3","fixation","img/fixation.png","null","","test","","","","","",""
"null","150049","pSARL_v2","pSARL_v2q9r4qnz5","5dd31760fb7d41000c6610e3","freq","img/orange_2bandit_a2.png","null","70","test","0","65","65","3","",""
"null","150212","pSARL_v2","pSARL_v2q9r4qnz5","5dd31760fb7d41000c6610e3","fixation","img/fixation.png","null","","test","","","","","",""
"63.20000000001164","150287","pSARL_v2","pSARL_v2q9r4qnz5","5dd31760fb7d41000c6610e3","freq","img/orange_2bandit_a2.png","70","70","test","1","66","66","3","",""
"null","151035","pSARL_v2","pSARL_v2q9r4qnz5","5dd31760fb7d41000c6610e3","freq_resp","img/orange_2bandit_a.png","70","70","test","","","","3","",""
"null","151197","pSARL_v2","pSARL_v2q9r4qnz5","5dd31760fb7d41000c6610e3","fixation","img/fixation.png","null","","test","","","","","",""
"909.7000000000116","152119","pSARL_v2","pSARL_v2q9r4qnz5","5dd31760fb7d41000c6610e3","reward","img/slot.png","74","","test","","","","","",""
"null","152881","pSARL_v2","pSARL_v2q9r4qnz5","5dd31760fb7d41000c6610e3","points","<div class=""verylowPoints""> -7 </div>","null","na","test","","","","3","-7","2"
"627.9000000000233","153521","pSARL_v2","pSARL_v2q9r4qnz5","5dd31760fb7d41000c6610e3","freq","img/orange_2bandit_a2.png","70","70","test","1","67","67","4","",""
"null","153706","pSARL_v2","pSARL_v2q9r4qnz5","5dd31760fb7d41000c6610e3","freq_resp","img/orange_2bandit_a.png","70","70","test","","","","4","",""
"null","153868","pSARL_v2","pSARL_v2q9r4qnz5","5dd31760fb7d41000c6610e3","fixation","img/fixation.png","null","","test","","","","","",""
"453.79999999998836","154334","pSARL_v2","pSARL_v2q9r4qnz5","5dd31760fb7d41000c6610e3","freq","img/orange_2bandit_a2.png","70","70","test","1","68","68","4","",""
"null","154694","pSARL_v2","pSARL_v2q9r4qnz5","5dd31760fb7d41000c6610e3","freq_resp","img/orange_2bandit_a.png","70","70","test","","","","4","",""
"null","154857","pSARL_v2","pSARL_v2q9r4qnz5","5dd31760fb7d41000c6610e3","fixation","img/fixation.png","null","","test","","","","","",""
"333.3999999999651","155202","pSARL_v2","pSARL_v2q9r4qnz5","5dd31760fb7d41000c6610e3","freq","img/orange_2bandit_a2.png","70","70","test","1","69","69","4","",""
"null","155680","pSARL_v2","pSARL_v2q9r4qnz5","5dd31760fb7d41000c6610e3","freq_resp","img/orange_2bandit_a.png","70","70","test","","","","4","",""
"null","155842","pSARL_v2","pSARL_v2q9r4qnz5","5dd31760fb7d41000c6610e3","fixation","img/fixation.png","null","","test","","","","","",""
"489.29999999998836","156344","pSARL_v2","pSARL_v2q9r4qnz5","5dd31760fb7d41000c6610e3","infreq","img/green_2bandit_a2.png","68","68","test","1","70","70","4","",""
"null","156665","pSARL_v2","pSARL_v2q9r4qnz5","5dd31760fb7d41000c6610e3","infreq_resp","img/green_2bandit_a.png","68","68","test","","","","4","",""
"null","156828","pSARL_v2","pSARL_v2q9r4qnz5","5dd31760fb7d41000c6610e3","fixation","img/fixation.png","null","","test","","","","","",""
"355.9000000000233","157196","pSARL_v2","pSARL_v2q9r4qnz5","5dd31760fb7d41000c6610e3","freq","img/orange_2bandit_a2.png","70","70","test","1","71","71","4","",""
"null","157653","pSARL_v2","pSARL_v2q9r4qnz5","5dd31760fb7d41000c6610e3","freq_resp","img/orange_2bandit_a.png","70","70","test","","","","4","",""
"null","157815","pSARL_v2","pSARL_v2q9r4qnz5","5dd31760fb7d41000c6610e3","fixation","img/fixation.png","null","","test","","","","","",""
"406.20000000001164","158233","pSARL_v2","pSARL_v2q9r4qnz5","5dd31760fb7d41000c6610e3","freq","img/orange_2bandit_a2.png","70","70","test","1","72","72","4","",""
"null","158639","pSARL_v2","pSARL_v2q9r4qnz5","5dd31760fb7d41000c6610e3","freq_resp","img/orange_2bandit_a.png","70","70","test","","","","4","",""
"null","158801","pSARL_v2","pSARL_v2q9r4qnz5","5dd31760fb7d41000c6610e3","fixation","img/fixation.png","null","","test","","","","","",""
"283.0999999999767","159095","pSARL_v2","pSARL_v2q9r4qnz5","5dd31760fb7d41000c6610e3","freq","img/orange_2bandit_a2.png","70","70","test","1","73","73","4","",""
"null","159623","pSARL_v2","pSARL_v2q9r4qnz5","5dd31760fb7d41000c6610e3","freq_resp","img/orange_2bandit_a.png","70","70","test","","","","4","",""
"null","159786","pSARL_v2","pSARL_v2q9r4qnz5","5dd31760fb7d41000c6610e3","fixation","img/fixation.png","null","","test","","","","","",""
"329.19999999995343","160127","pSARL_v2","pSARL_v2q9r4qnz5","5dd31760fb7d41000c6610e3","freq","img/orange_2bandit_a2.png","70","70","test","1","74","74","4","",""
"null","160609","pSARL_v2","pSARL_v2q9r4qnz5","5dd31760fb7d41000c6610e3","freq_resp","img/orange_2bandit_a.png","70","70","test","","","","4","",""
"null","160772","pSARL_v2","pSARL_v2q9r4qnz5","5dd31760fb7d41000c6610e3","fixation","img/fixation.png","null","","test","","","","","",""
"306.5999999999767","161090","pSARL_v2","pSARL_v2q9r4qnz5","5dd31760fb7d41000c6610e3","freq","img/orange_2bandit_a2.png","70","70","test","1","75","75","4","",""
"null","161595","pSARL_v2","pSARL_v2q9r4qnz5","5dd31760fb7d41000c6610e3","freq_resp","img/orange_2bandit_a.png","70","70","test","","","","4","",""
"null","161757","pSARL_v2","pSARL_v2q9r4qnz5","5dd31760fb7d41000c6610e3","fixation","img/fixation.png","null","","test","","","","","",""
"259.80000000004657","162030","pSARL_v2","pSARL_v2q9r4qnz5","5dd31760fb7d41000c6610e3","freq","img/orange_2bandit_a2.png","70","70","test","1","76","76","4","",""
"null","162582","pSARL_v2","pSARL_v2q9r4qnz5","5dd31760fb7d41000c6610e3","freq_resp","img/orange_2bandit_a.png","70","70","test","","","","4","",""
"null","162744","pSARL_v2","pSARL_v2q9r4qnz5","5dd31760fb7d41000c6610e3","fixation","img/fixation.png","null","","test","","","","","",""
"288.79999999998836","163044","pSARL_v2","pSARL_v2q9r4qnz5","5dd31760fb7d41000c6610e3","infreq","img/green_2bandit_a2.png","70","68","test","0","77","77","4","",""
"null","163568","pSARL_v2","pSARL_v2q9r4qnz5","5dd31760fb7d41000c6610e3","infreq_resp","img/green_2bandit_a.png","70","68","test","","","","4","",""
"null","163730","pSARL_v2","pSARL_v2q9r4qnz5","5dd31760fb7d41000c6610e3","fixation","img/fixation.png","null","","test","","","","","",""
"383.69999999995343","164125","pSARL_v2","pSARL_v2q9r4qnz5","5dd31760fb7d41000c6610e3","infreq","img/green_2bandit_a2.png","68","68","test","1","78","78","4","",""
"null","164553","pSARL_v2","pSARL_v2q9r4qnz5","5dd31760fb7d41000c6610e3","infreq_resp","img/green_2bandit_a.png","68","68","test","","","","4","",""
"null","164715","pSARL_v2","pSARL_v2q9r4qnz5","5dd31760fb7d41000c6610e3","fixation","img/fixation.png","null","","test","","","","","",""
"425.19999999995343","165152","pSARL_v2","pSARL_v2q9r4qnz5","5dd31760fb7d41000c6610e3","freq","img/orange_2bandit_a2.png","70","70","test","1","79","79","4","",""
"null","165539","pSARL_v2","pSARL_v2q9r4qnz5","5dd31760fb7d41000c6610e3","freq_resp","img/orange_2bandit_a.png","70","70","test","","","","4","",""
"null","165701","pSARL_v2","pSARL_v2q9r4qnz5","5dd31760fb7d41000c6610e3","fixation","img/fixation.png","null","","test","","","","","",""
"420.70000000001164","166134","pSARL_v2","pSARL_v2q9r4qnz5","5dd31760fb7d41000c6610e3","freq","img/orange_2bandit_a2.png","70","70","test","1","80","80","4","",""
"null","166525","pSARL_v2","pSARL_v2q9r4qnz5","5dd31760fb7d41000c6610e3","freq_resp","img/orange_2bandit_a.png","70","70","test","","","","4","",""
"null","166688","pSARL_v2","pSARL_v2q9r4qnz5","5dd31760fb7d41000c6610e3","fixation","img/fixation.png","null","","test","","","","","",""
"437.0999999999767","167137","pSARL_v2","pSARL_v2q9r4qnz5","5dd31760fb7d41000c6610e3","freq","img/orange_2bandit_a2.png","70","70","test","1","81","81","4","",""
"null","167511","pSARL_v2","pSARL_v2q9r4qnz5","5dd31760fb7d41000c6610e3","freq_resp","img/orange_2bandit_a.png","70","70","test","","","","4","",""
"null","167674","pSARL_v2","pSARL_v2q9r4qnz5","5dd31760fb7d41000c6610e3","fixation","img/fixation.png","null","","test","","","","","",""
"448.9000000000233","168135","pSARL_v2","pSARL_v2q9r4qnz5","5dd31760fb7d41000c6610e3","freq","img/orange_2bandit_a2.png","70","70","test","1","82","82","4","",""
"null","168498","pSARL_v2","pSARL_v2q9r4qnz5","5dd31760fb7d41000c6610e3","freq_resp","img/orange_2bandit_a.png","70","70","test","","","","4","",""
"null","168660","pSARL_v2","pSARL_v2q9r4qnz5","5dd31760fb7d41000c6610e3","fixation","img/fixation.png","null","","test","","","","","",""
"418","169090","pSARL_v2","pSARL_v2q9r4qnz5","5dd31760fb7d41000c6610e3","freq","img/orange_2bandit_a2.png","70","70","test","1","83","83","4","",""
"null","169484","pSARL_v2","pSARL_v2q9r4qnz5","5dd31760fb7d41000c6610e3","freq_resp","img/orange_2bandit_a.png","70","70","test","","","","4","",""
"null","169646","pSARL_v2","pSARL_v2q9r4qnz5","5dd31760fb7d41000c6610e3","fixation","img/fixation.png","null","","test","","","","","",""
"403.20000000001164","170061","pSARL_v2","pSARL_v2q9r4qnz5","5dd31760fb7d41000c6610e3","freq","img/orange_2bandit_a2.png","70","70","test","1","84","84","4","",""
"null","170469","pSARL_v2","pSARL_v2q9r4qnz5","5dd31760fb7d41000c6610e3","freq_resp","img/orange_2bandit_a.png","70","70","test","","","","4","",""
"null","170631","pSARL_v2","pSARL_v2q9r4qnz5","5dd31760fb7d41000c6610e3","fixation","img/fixation.png","null","","test","","","","","",""
"373.29999999998836","171017","pSARL_v2","pSARL_v2q9r4qnz5","5dd31760fb7d41000c6610e3","freq","img/orange_2bandit_a2.png","70","70","test","1","85","85","4","",""
"null","171456","pSARL_v2","pSARL_v2q9r4qnz5","5dd31760fb7d41000c6610e3","freq_resp","img/orange_2bandit_a.png","70","70","test","","","","4","",""
"null","171618","pSARL_v2","pSARL_v2q9r4qnz5","5dd31760fb7d41000c6610e3","fixation","img/fixation.png","null","","test","","","","","",""
"390.20000000001164","172020","pSARL_v2","pSARL_v2q9r4qnz5","5dd31760fb7d41000c6610e3","freq","img/orange_2bandit_a2.png","70","70","test","1","86","86","4","",""
"null","172441","pSARL_v2","pSARL_v2q9r4qnz5","5dd31760fb7d41000c6610e3","freq_resp","img/orange_2bandit_a.png","70","70","test","","","","4","",""
"null","172603","pSARL_v2","pSARL_v2q9r4qnz5","5dd31760fb7d41000c6610e3","fixation","img/fixation.png","null","","test","","","","","",""
"465","173080","pSARL_v2","pSARL_v2q9r4qnz5","5dd31760fb7d41000c6610e3","reward","img/slot.png","74","","test","","","","","",""
"null","173842","pSARL_v2","pSARL_v2q9r4qnz5","5dd31760fb7d41000c6610e3","points","<div class=""verylowPoints""> -3 </div>","null","na","test","","","","4","-3","3"
"608.6000000000349","174462","pSARL_v2","pSARL_v2q9r4qnz5","5dd31760fb7d41000c6610e3","freq","img/orange_2bandit_a2.png","70","70","test","1","87","87","5","",""
"null","174665","pSARL_v2","pSARL_v2q9r4qnz5","5dd31760fb7d41000c6610e3","freq_resp","img/orange_2bandit_a.png","70","70","test","","","","5","",""
"null","174827","pSARL_v2","pSARL_v2q9r4qnz5","5dd31760fb7d41000c6610e3","fixation","img/fixation.png","null","","test","","","","","",""
"468.4000000000233","175307","pSARL_v2","pSARL_v2q9r4qnz5","5dd31760fb7d41000c6610e3","freq","img/orange_2bandit_a2.png","70","70","test","1","88","88","5","",""
"null","175650","pSARL_v2","pSARL_v2q9r4qnz5","5dd31760fb7d41000c6610e3","freq_resp","img/orange_2bandit_a.png","70","70","test","","","","5","",""
"null","175813","pSARL_v2","pSARL_v2q9r4qnz5","5dd31760fb7d41000c6610e3","fixation","img/fixation.png","null","","test","","","","","",""
"464.70000000001164","176289","pSARL_v2","pSARL_v2q9r4qnz5","5dd31760fb7d41000c6610e3","infreq","img/green_2bandit_a2.png","68","68","test","1","89","89","5","",""
"null","176636","pSARL_v2","pSARL_v2q9r4qnz5","5dd31760fb7d41000c6610e3","infreq_resp","img/green_2bandit_a.png","68","68","test","","","","5","",""
"null","176798","pSARL_v2","pSARL_v2q9r4qnz5","5dd31760fb7d41000c6610e3","fixation","img/fixation.png","null","","test","","","","","",""
"356.9000000000233","177168","pSARL_v2","pSARL_v2q9r4qnz5","5dd31760fb7d41000c6610e3","freq","img/orange_2bandit_a2.png","70","70","test","1","90","90","5","",""
"null","177622","pSARL_v2","pSARL_v2q9r4qnz5","5dd31760fb7d41000c6610e3","freq_resp","img/orange_2bandit_a.png","70","70","test","","","","5","",""
"null","177785","pSARL_v2","pSARL_v2q9r4qnz5","5dd31760fb7d41000c6610e3","fixation","img/fixation.png","null","","test","","","","","",""
"371.6000000000349","178169","pSARL_v2","pSARL_v2q9r4qnz5","5dd31760fb7d41000c6610e3","freq","img/orange_2bandit_a2.png","70","70","test","1","91","91","5","",""
"null","178609","pSARL_v2","pSARL_v2q9r4qnz5","5dd31760fb7d41000c6610e3","freq_resp","img/orange_2bandit_a.png","70","70","test","","","","5","",""
"null","178771","pSARL_v2","pSARL_v2q9r4qnz5","5dd31760fb7d41000c6610e3","fixation","img/fixation.png","null","","test","","","","","",""
"472.69999999995343","179256","pSARL_v2","pSARL_v2q9r4qnz5","5dd31760fb7d41000c6610e3","freq","img/orange_2bandit_a2.png","70","70","test","1","92","92","5","",""
"null","179595","pSARL_v2","pSARL_v2q9r4qnz5","5dd31760fb7d41000c6610e3","freq_resp","img/orange_2bandit_a.png","70","70","test","","","","5","",""
"null","179757","pSARL_v2","pSARL_v2q9r4qnz5","5dd31760fb7d41000c6610e3","fixation","img/fixation.png","null","","test","","","","","",""
"353.79999999998836","180122","pSARL_v2","pSARL_v2q9r4qnz5","5dd31760fb7d41000c6610e3","freq","img/orange_2bandit_a2.png","70","70","test","1","93","93","5","",""
"null","180581","pSARL_v2","pSARL_v2q9r4qnz5","5dd31760fb7d41000c6610e3","freq_resp","img/orange_2bandit_a.png","70","70","test","","","","5","",""
"null","180743","pSARL_v2","pSARL_v2q9r4qnz5","5dd31760fb7d41000c6610e3","fixation","img/fixation.png","null","","test","","","","","",""
"373.4000000000233","181128","pSARL_v2","pSARL_v2q9r4qnz5","5dd31760fb7d41000c6610e3","freq","img/orange_2bandit_a2.png","70","70","test","1","94","94","5","",""
"null","181567","pSARL_v2","pSARL_v2q9r4qnz5","5dd31760fb7d41000c6610e3","freq_resp","img/orange_2bandit_a.png","70","70","test","","","","5","",""
"null","181729","pSARL_v2","pSARL_v2q9r4qnz5","5dd31760fb7d41000c6610e3","fixation","img/fixation.png","null","","test","","","","","",""
"329.69999999995343","182070","pSARL_v2","pSARL_v2q9r4qnz5","5dd31760fb7d41000c6610e3","freq","img/orange_2bandit_a2.png","70","70","test","1","95","95","5","",""
"null","182553","pSARL_v2","pSARL_v2q9r4qnz5","5dd31760fb7d41000c6610e3","freq_resp","img/orange_2bandit_a.png","70","70","test","","","","5","",""
"null","182715","pSARL_v2","pSARL_v2q9r4qnz5","5dd31760fb7d41000c6610e3","fixation","img/fixation.png","null","","test","","","","","",""
"292.3999999999651","183020","pSARL_v2","pSARL_v2q9r4qnz5","5dd31760fb7d41000c6610e3","freq","img/orange_2bandit_a2.png","70","70","test","1","96","96","5","",""
"null","183539","pSARL_v2","pSARL_v2q9r4qnz5","5dd31760fb7d41000c6610e3","freq_resp","img/orange_2bandit_a.png","70","70","test","","","","5","",""
"null","183701","pSARL_v2","pSARL_v2q9r4qnz5","5dd31760fb7d41000c6610e3","fixation","img/fixation.png","null","","test","","","","","",""
"339.8999999999651","184053","pSARL_v2","pSARL_v2q9r4qnz5","5dd31760fb7d41000c6610e3","freq","img/orange_2bandit_a2.png","70","70","test","1","97","97","5","",""
"null","184525","pSARL_v2","pSARL_v2q9r4qnz5","5dd31760fb7d41000c6610e3","freq_resp","img/orange_2bandit_a.png","70","70","test","","","","5","",""
"null","184688","pSARL_v2","pSARL_v2q9r4qnz5","5dd31760fb7d41000c6610e3","fixation","img/fixation.png","null","","test","","","","","",""
"369.79999999998836","185069","pSARL_v2","pSARL_v2q9r4qnz5","5dd31760fb7d41000c6610e3","freq","img/orange_2bandit_a2.png","70","70","test","1","98","98","5","",""
"null","185512","pSARL_v2","pSARL_v2q9r4qnz5","5dd31760fb7d41000c6610e3","freq_resp","img/orange_2bandit_a.png","70","70","test","","","","5","",""
"null","185675","pSARL_v2","pSARL_v2q9r4qnz5","5dd31760fb7d41000c6610e3","fixation","img/fixation.png","null","","test","","","","","",""
"295.69999999995343","185984","pSARL_v2","pSARL_v2q9r4qnz5","5dd31760fb7d41000c6610e3","freq","img/orange_2bandit_a2.png","70","70","test","1","99","99","5","",""
"null","186500","pSARL_v2","pSARL_v2q9r4qnz5","5dd31760fb7d41000c6610e3","freq_resp","img/orange_2bandit_a.png","70","70","test","","","","5","",""
"null","186662","pSARL_v2","pSARL_v2q9r4qnz5","5dd31760fb7d41000c6610e3","fixation","img/fixation.png","null","","test","","","","","",""
"308.69999999995343","186982","pSARL_v2","pSARL_v2q9r4qnz5","5dd31760fb7d41000c6610e3","freq","img/orange_2bandit_a2.png","70","70","test","1","100","100","5","",""
"null","187485","pSARL_v2","pSARL_v2q9r4qnz5","5dd31760fb7d41000c6610e3","freq_resp","img/orange_2bandit_a.png","70","70","test","","","","5","",""
"null","187647","pSARL_v2","pSARL_v2q9r4qnz5","5dd31760fb7d41000c6610e3","fixation","img/fixation.png","null","","test","","","","","",""
"344.69999999995343","188004","pSARL_v2","pSARL_v2q9r4qnz5","5dd31760fb7d41000c6610e3","freq","img/orange_2bandit_a2.png","70","70","test","1","101","101","5","",""
"null","188472","pSARL_v2","pSARL_v2q9r4qnz5","5dd31760fb7d41000c6610e3","freq_resp","img/orange_2bandit_a.png","70","70","test","","","","5","",""
"null","188634","pSARL_v2","pSARL_v2q9r4qnz5","5dd31760fb7d41000c6610e3","fixation","img/fixation.png","null","","test","","","","","",""
"298.0999999999767","188944","pSARL_v2","pSARL_v2q9r4qnz5","5dd31760fb7d41000c6610e3","freq","img/orange_2bandit_a2.png","70","70","test","1","102","102","5","",""
"null","189457","pSARL_v2","pSARL_v2q9r4qnz5","5dd31760fb7d41000c6610e3","freq_resp","img/orange_2bandit_a.png","70","70","test","","","","5","",""
"null","189618","pSARL_v2","pSARL_v2q9r4qnz5","5dd31760fb7d41000c6610e3","fixation","img/fixation.png","null","","test","","","","","",""
"274.9000000000233","189906","pSARL_v2","pSARL_v2q9r4qnz5","5dd31760fb7d41000c6610e3","freq","img/orange_2bandit_a2.png","70","70","test","1","103","103","5","",""
"null","190443","pSARL_v2","pSARL_v2q9r4qnz5","5dd31760fb7d41000c6610e3","freq_resp","img/orange_2bandit_a.png","70","70","test","","","","5","",""
"null","190605","pSARL_v2","pSARL_v2q9r4qnz5","5dd31760fb7d41000c6610e3","fixation","img/fixation.png","null","","test","","","","","",""
"373.69999999995343","190991","pSARL_v2","pSARL_v2q9r4qnz5","5dd31760fb7d41000c6610e3","infreq","img/green_2bandit_a2.png","68","68","test","1","104","104","5","",""
"null","191430","pSARL_v2","pSARL_v2q9r4qnz5","5dd31760fb7d41000c6610e3","infreq_resp","img/green_2bandit_a.png","68","68","test","","","","5","",""
"null","191592","pSARL_v2","pSARL_v2q9r4qnz5","5dd31760fb7d41000c6610e3","fixation","img/fixation.png","null","","test","","","","","",""
"352.9000000000233","191956","pSARL_v2","pSARL_v2q9r4qnz5","5dd31760fb7d41000c6610e3","freq","img/orange_2bandit_a2.png","70","70","test","1","105","105","5","",""
"null","192416","pSARL_v2","pSARL_v2q9r4qnz5","5dd31760fb7d41000c6610e3","freq_resp","img/orange_2bandit_a.png","70","70","test","","","","5","",""
"null","192578","pSARL_v2","pSARL_v2q9r4qnz5","5dd31760fb7d41000c6610e3","fixation","img/fixation.png","null","","test","","","","","",""
"362.20000000006985","192953","pSARL_v2","pSARL_v2q9r4qnz5","5dd31760fb7d41000c6610e3","freq","img/orange_2bandit_a2.png","70","70","test","1","106","106","5","",""
"null","193402","pSARL_v2","pSARL_v2q9r4qnz5","5dd31760fb7d41000c6610e3","freq_resp","img/orange_2bandit_a.png","70","70","test","","","","5","",""
"null","193565","pSARL_v2","pSARL_v2q9r4qnz5","5dd31760fb7d41000c6610e3","fixation","img/fixation.png","null","","test","","","","","",""
"322.30000000004657","193899","pSARL_v2","pSARL_v2q9r4qnz5","5dd31760fb7d41000c6610e3","freq","img/orange_2bandit_a2.png","70","70","test","1","107","107","5","",""
"null","194389","pSARL_v2","pSARL_v2q9r4qnz5","5dd31760fb7d41000c6610e3","freq_resp","img/orange_2bandit_a.png","70","70","test","","","","5","",""
"null","194551","pSARL_v2","pSARL_v2q9r4qnz5","5dd31760fb7d41000c6610e3","fixation","img/fixation.png","null","","test","","","","","",""
"258.20000000006985","194821","pSARL_v2","pSARL_v2q9r4qnz5","5dd31760fb7d41000c6610e3","freq","img/orange_2bandit_a2.png","70","70","test","1","108","108","5","",""
"null","195374","pSARL_v2","pSARL_v2q9r4qnz5","5dd31760fb7d41000c6610e3","freq_resp","img/orange_2bandit_a.png","70","70","test","","","","5","",""
"null","195537","pSARL_v2","pSARL_v2q9r4qnz5","5dd31760fb7d41000c6610e3","fixation","img/fixation.png","null","","test","","","","","",""
"545.9000000000233","196094","pSARL_v2","pSARL_v2q9r4qnz5","5dd31760fb7d41000c6610e3","reward","img/slot.png","74","","test","","","","","",""
"null","196856","pSARL_v2","pSARL_v2q9r4qnz5","5dd31760fb7d41000c6610e3","points","<div class=""veryhighPoints""> +1 </div>","null","na","test","","","","5","1","4"
"455.5","197324","pSARL_v2","pSARL_v2q9r4qnz5","5dd31760fb7d41000c6610e3","freq","img/orange_2bandit_a2.png","70","70","test","1","109","109","6","",""
"null","197680","pSARL_v2","pSARL_v2q9r4qnz5","5dd31760fb7d41000c6610e3","freq_resp","img/orange_2bandit_a.png","70","70","test","","","","6","",""
"null","197842","pSARL_v2","pSARL_v2q9r4qnz5","5dd31760fb7d41000c6610e3","fixation","img/fixation.png","null","","test","","","","","",""
"412.5","198266","pSARL_v2","pSARL_v2q9r4qnz5","5dd31760fb7d41000c6610e3","freq","img/orange_2bandit_a2.png","70","70","test","1","110","110","6","",""
"null","198665","pSARL_v2","pSARL_v2q9r4qnz5","5dd31760fb7d41000c6610e3","freq_resp","img/orange_2bandit_a.png","70","70","test","","","","6","",""
"null","198828","pSARL_v2","pSARL_v2q9r4qnz5","5dd31760fb7d41000c6610e3","fixation","img/fixation.png","null","","test","","","","","",""
"354.29999999993015","199194","pSARL_v2","pSARL_v2q9r4qnz5","5dd31760fb7d41000c6610e3","freq","img/orange_2bandit_a2.png","70","70","test","1","111","111","6","",""
"null","199652","pSARL_v2","pSARL_v2q9r4qnz5","5dd31760fb7d41000c6610e3","freq_resp","img/orange_2bandit_a.png","70","70","test","","","","6","",""
"null","199814","pSARL_v2","pSARL_v2q9r4qnz5","5dd31760fb7d41000c6610e3","fixation","img/fixation.png","null","","test","","","","","",""
"435.5999999999767","200262","pSARL_v2","pSARL_v2q9r4qnz5","5dd31760fb7d41000c6610e3","infreq","img/green_2bandit_a2.png","68","68","test","1","112","112","6","",""
"null","200638","pSARL_v2","pSARL_v2q9r4qnz5","5dd31760fb7d41000c6610e3","infreq_resp","img/green_2bandit_a.png","68","68","test","","","","6","",""
"null","200801","pSARL_v2","pSARL_v2q9r4qnz5","5dd31760fb7d41000c6610e3","fixation","img/fixation.png","null","","test","","","","","",""
"463.69999999995343","201276","pSARL_v2","pSARL_v2q9r4qnz5","5dd31760fb7d41000c6610e3","freq","img/orange_2bandit_a2.png","70","70","test","1","113","113","6","",""
"null","201624","pSARL_v2","pSARL_v2q9r4qnz5","5dd31760fb7d41000c6610e3","freq_resp","img/orange_2bandit_a.png","70","70","test","","","","6","",""
"null","201786","pSARL_v2","pSARL_v2q9r4qnz5","5dd31760fb7d41000c6610e3","fixation","img/fixation.png","null","","test","","","","","",""
"368.19999999995343","202166","pSARL_v2","pSARL_v2q9r4qnz5","5dd31760fb7d41000c6610e3","freq","img/orange_2bandit_a2.png","70","70","test","1","114","114","6","",""
"null","202609","pSARL_v2","pSARL_v2q9r4qnz5","5dd31760fb7d41000c6610e3","freq_resp","img/orange_2bandit_a.png","70","70","test","","","","6","",""
"null","202772","pSARL_v2","pSARL_v2q9r4qnz5","5dd31760fb7d41000c6610e3","fixation","img/fixation.png","null","","test","","","","","",""
"366","203150","pSARL_v2","pSARL_v2q9r4qnz5","5dd31760fb7d41000c6610e3","freq","img/orange_2bandit_a2.png","70","70","test","1","115","115","6","",""
"null","203595","pSARL_v2","pSARL_v2q9r4qnz5","5dd31760fb7d41000c6610e3","freq_resp","img/orange_2bandit_a.png","70","70","test","","","","6","",""
"null","203758","pSARL_v2","pSARL_v2q9r4qnz5","5dd31760fb7d41000c6610e3","fixation","img/fixation.png","null","","test","","","","","",""
"288.5","204058","pSARL_v2","pSARL_v2q9r4qnz5","5dd31760fb7d41000c6610e3","freq","img/orange_2bandit_a2.png","70","70","test","1","116","116","6","",""
"null","204583","pSARL_v2","pSARL_v2q9r4qnz5","5dd31760fb7d41000c6610e3","freq_resp","img/orange_2bandit_a.png","70","70","test","","","","6","",""
"null","204746","pSARL_v2","pSARL_v2q9r4qnz5","5dd31760fb7d41000c6610e3","fixation","img/fixation.png","null","","test","","","","","",""
"328","205086","pSARL_v2","pSARL_v2q9r4qnz5","5dd31760fb7d41000c6610e3","freq","img/orange_2bandit_a2.png","70","70","test","1","117","117","6","",""
"null","205571","pSARL_v2","pSARL_v2q9r4qnz5","5dd31760fb7d41000c6610e3","freq_resp","img/orange_2bandit_a.png","70","70","test","","","","6","",""
"null","205734","pSARL_v2","pSARL_v2q9r4qnz5","5dd31760fb7d41000c6610e3","fixation","img/fixation.png","null","","test","","","","","",""
"306.29999999993015","206051","pSARL_v2","pSARL_v2q9r4qnz5","5dd31760fb7d41000c6610e3","freq","img/orange_2bandit_a2.png","70","70","test","1","118","118","6","",""
"null","206557","pSARL_v2","pSARL_v2q9r4qnz5","5dd31760fb7d41000c6610e3","freq_resp","img/orange_2bandit_a.png","70","70","test","","","","6","",""
"null","206720","pSARL_v2","pSARL_v2q9r4qnz5","5dd31760fb7d41000c6610e3","fixation","img/fixation.png","null","","test","","","","","",""
"318.20000000006985","207050","pSARL_v2","pSARL_v2q9r4qnz5","5dd31760fb7d41000c6610e3","freq","img/orange_2bandit_a2.png","70","70","test","1","119","119","6","",""
"null","207544","pSARL_v2","pSARL_v2q9r4qnz5","5dd31760fb7d41000c6610e3","freq_resp","img/orange_2bandit_a.png","70","70","test","","","","6","",""
"null","207706","pSARL_v2","pSARL_v2q9r4qnz5","5dd31760fb7d41000c6610e3","fixation","img/fixation.png","null","","test","","","","","",""
"304.4000000000233","208023","pSARL_v2","pSARL_v2q9r4qnz5","5dd31760fb7d41000c6610e3","freq","img/orange_2bandit_a2.png","70","70","test","1","120","120","6","",""
"null","208530","pSARL_v2","pSARL_v2q9r4qnz5","5dd31760fb7d41000c6610e3","freq_resp","img/orange_2bandit_a.png","70","70","test","","","","6","",""
"null","208692","pSARL_v2","pSARL_v2q9r4qnz5","5dd31760fb7d41000c6610e3","fixation","img/fixation.png","null","","test","","","","","",""
"310.4000000000233","209015","pSARL_v2","pSARL_v2q9r4qnz5","5dd31760fb7d41000c6610e3","freq","img/orange_2bandit_a2.png","70","70","test","1","121","121","6","",""
"null","209517","pSARL_v2","pSARL_v2q9r4qnz5","5dd31760fb7d41000c6610e3","freq_resp","img/orange_2bandit_a.png","70","70","test","","","","6","",""
"null","209680","pSARL_v2","pSARL_v2q9r4qnz5","5dd31760fb7d41000c6610e3","fixation","img/fixation.png","null","","test","","","","","",""
"317.80000000004657","210010","pSARL_v2","pSARL_v2q9r4qnz5","5dd31760fb7d41000c6610e3","freq","img/orange_2bandit_a2.png","70","70","test","1","122","122","6","",""
"null","210504","pSARL_v2","pSARL_v2q9r4qnz5","5dd31760fb7d41000c6610e3","freq_resp","img/orange_2bandit_a.png","70","70","test","","","","6","",""
"null","210666","pSARL_v2","pSARL_v2q9r4qnz5","5dd31760fb7d41000c6610e3","fixation","img/fixation.png","null","","test","","","","","",""
"445.0999999999767","211123","pSARL_v2","pSARL_v2q9r4qnz5","5dd31760fb7d41000c6610e3","infreq","img/green_2bandit_a2.png","68","68","test","1","123","123","6","",""
"null","211489","pSARL_v2","pSARL_v2q9r4qnz5","5dd31760fb7d41000c6610e3","infreq_resp","img/green_2bandit_a.png","68","68","test","","","","6","",""
"null","211651","pSARL_v2","pSARL_v2q9r4qnz5","5dd31760fb7d41000c6610e3","fixation","img/fixation.png","null","","test","","","","","",""
"445.0999999999767","212108","pSARL_v2","pSARL_v2q9r4qnz5","5dd31760fb7d41000c6610e3","freq","img/orange_2bandit_a2.png","70","70","test","1","124","124","6","",""
"null","212474","pSARL_v2","pSARL_v2q9r4qnz5","5dd31760fb7d41000c6610e3","freq_resp","img/orange_2bandit_a.png","70","70","test","","","","6","",""
"null","212637","pSARL_v2","pSARL_v2q9r4qnz5","5dd31760fb7d41000c6610e3","fixation","img/fixation.png","null","","test","","","","","",""
"375.19999999995343","213024","pSARL_v2","pSARL_v2q9r4qnz5","5dd31760fb7d41000c6610e3","freq","img/orange_2bandit_a2.png","70","70","test","1","125","125","6","",""
"null","213460","pSARL_v2","pSARL_v2q9r4qnz5","5dd31760fb7d41000c6610e3","freq_resp","img/orange_2bandit_a.png","70","70","test","","","","6","",""
"null","213622","pSARL_v2","pSARL_v2q9r4qnz5","5dd31760fb7d41000c6610e3","fixation","img/fixation.png","null","","test","","","","","",""
"344.5","213980","pSARL_v2","pSARL_v2q9r4qnz5","5dd31760fb7d41000c6610e3","freq","img/orange_2bandit_a2.png","70","70","test","1","126","126","6","",""
"null","214447","pSARL_v2","pSARL_v2q9r4qnz5","5dd31760fb7d41000c6610e3","freq_resp","img/orange_2bandit_a.png","70","70","test","","","","6","",""
"null","214609","pSARL_v2","pSARL_v2q9r4qnz5","5dd31760fb7d41000c6610e3","fixation","img/fixation.png","null","","test","","","","","",""
"298.69999999995343","214921","pSARL_v2","pSARL_v2q9r4qnz5","5dd31760fb7d41000c6610e3","freq","img/orange_2bandit_a2.png","70","70","test","1","127","127","6","",""
"null","215434","pSARL_v2","pSARL_v2q9r4qnz5","5dd31760fb7d41000c6610e3","freq_resp","img/orange_2bandit_a.png","70","70","test","","","","6","",""
"null","215596","pSARL_v2","pSARL_v2q9r4qnz5","5dd31760fb7d41000c6610e3","fixation","img/fixation.png","null","","test","","","","","",""
"259.0999999999767","215868","pSARL_v2","pSARL_v2q9r4qnz5","5dd31760fb7d41000c6610e3","freq","img/orange_2bandit_a2.png","70","70","test","1","128","128","6","",""
"null","216420","pSARL_v2","pSARL_v2q9r4qnz5","5dd31760fb7d41000c6610e3","freq_resp","img/orange_2bandit_a.png","70","70","test","","","","6","",""
"null","216583","pSARL_v2","pSARL_v2q9r4qnz5","5dd31760fb7d41000c6610e3","fixation","img/fixation.png","null","","test","","","","","",""
"442.5","217037","pSARL_v2","pSARL_v2q9r4qnz5","5dd31760fb7d41000c6610e3","reward","img/slot.png","74","","test","","","","","",""
"null","217798","pSARL_v2","pSARL_v2q9r4qnz5","5dd31760fb7d41000c6610e3","points","<div class=""verylowPoints""> -7 </div>","null","na","test","","","","6","-7","5"
"406.39999999990687","218217","pSARL_v2","pSARL_v2q9r4qnz5","5dd31760fb7d41000c6610e3","freq","img/orange_2bandit_a2.png","70","70","test","1","129","129","7","",""
"null","218622","pSARL_v2","pSARL_v2q9r4qnz5","5dd31760fb7d41000c6610e3","freq_resp","img/orange_2bandit_a.png","70","70","test","","","","7","",""
"null","218784","pSARL_v2","pSARL_v2q9r4qnz5","5dd31760fb7d41000c6610e3","fixation","img/fixation.png","null","","test","","","","","",""
"333.70000000006985","219129","pSARL_v2","pSARL_v2q9r4qnz5","5dd31760fb7d41000c6610e3","freq","img/orange_2bandit_a2.png","70","70","test","1","130","130","7","",""
"null","219607","pSARL_v2","pSARL_v2q9r4qnz5","5dd31760fb7d41000c6610e3","freq_resp","img/orange_2bandit_a.png","70","70","test","","","","7","",""
"null","219769","pSARL_v2","pSARL_v2q9r4qnz5","5dd31760fb7d41000c6610e3","fixation","img/fixation.png","null","","test","","","","","",""
"272.80000000004657","220054","pSARL_v2","pSARL_v2q9r4qnz5","5dd31760fb7d41000c6610e3","freq","img/orange_2bandit_a2.png","70","70","test","1","131","131","7","",""
"null","220593","pSARL_v2","pSARL_v2q9r4qnz5","5dd31760fb7d41000c6610e3","freq_resp","img/orange_2bandit_a.png","70","70","test","","","","7","",""
"null","220755","pSARL_v2","pSARL_v2q9r4qnz5","5dd31760fb7d41000c6610e3","fixation","img/fixation.png","null","","test","","","","","",""
"299.9000000000233","221066","pSARL_v2","pSARL_v2q9r4qnz5","5dd31760fb7d41000c6610e3","freq","img/orange_2bandit_a2.png","70","70","test","1","132","132","7","",""
"null","221579","pSARL_v2","pSARL_v2q9r4qnz5","5dd31760fb7d41000c6610e3","freq_resp","img/orange_2bandit_a.png","70","70","test","","","","7","",""
"null","221741","pSARL_v2","pSARL_v2q9r4qnz5","5dd31760fb7d41000c6610e3","fixation","img/fixation.png","null","","test","","","","","",""
"250","222003","pSARL_v2","pSARL_v2q9r4qnz5","5dd31760fb7d41000c6610e3","freq","img/orange_2bandit_a2.png","70","70","test","1","133","133","7","",""
"null","222565","pSARL_v2","pSARL_v2q9r4qnz5","5dd31760fb7d41000c6610e3","freq_resp","img/orange_2bandit_a.png","70","70","test","","","","7","",""
"null","222729","pSARL_v2","pSARL_v2q9r4qnz5","5dd31760fb7d41000c6610e3","fixation","img/fixation.png","null","","test","","","","","",""
"259.10000000009313","223000","pSARL_v2","pSARL_v2q9r4qnz5","5dd31760fb7d41000c6610e3","freq","img/orange_2bandit_a2.png","70","70","test","1","134","134","7","",""
"null","223552","pSARL_v2","pSARL_v2q9r4qnz5","5dd31760fb7d41000c6610e3","freq_resp","img/orange_2bandit_a.png","70","70","test","","","","7","",""
"null","223715","pSARL_v2","pSARL_v2q9r4qnz5","5dd31760fb7d41000c6610e3","fixation","img/fixation.png","null","","test","","","","","",""
"303.30000000004657","224030","pSARL_v2","pSARL_v2q9r4qnz5","5dd31760fb7d41000c6610e3","freq","img/orange_2bandit_a2.png","70","70","test","1","135","135","7","",""
"null","224538","pSARL_v2","pSARL_v2q9r4qnz5","5dd31760fb7d41000c6610e3","freq_resp","img/orange_2bandit_a.png","70","70","test","","","","7","",""
"null","224701","pSARL_v2","pSARL_v2q9r4qnz5","5dd31760fb7d41000c6610e3","fixation","img/fixation.png","null","","test","","","","","",""
"265.5","224979","pSARL_v2","pSARL_v2q9r4qnz5","5dd31760fb7d41000c6610e3","freq","img/orange_2bandit_a2.png","70","70","test","1","136","136","7","",""
"null","225526","pSARL_v2","pSARL_v2q9r4qnz5","5dd31760fb7d41000c6610e3","freq_resp","img/orange_2bandit_a.png","70","70","test","","","","7","",""
"null","225688","pSARL_v2","pSARL_v2q9r4qnz5","5dd31760fb7d41000c6610e3","fixation","img/fixation.png","null","","test","","","","","",""
"229.5","225929","pSARL_v2","pSARL_v2q9r4qnz5","5dd31760fb7d41000c6610e3","freq","img/orange_2bandit_a2.png","70","70","test","1","137","137","7","",""
"null","226511","pSARL_v2","pSARL_v2q9r4qnz5","5dd31760fb7d41000c6610e3","freq_resp","img/orange_2bandit_a.png","70","70","test","","","","7","",""
"null","226674","pSARL_v2","pSARL_v2q9r4qnz5","5dd31760fb7d41000c6610e3","fixation","img/fixation.png","null","","test","","","","","",""
"223.79999999993015","226910","pSARL_v2","pSARL_v2q9r4qnz5","5dd31760fb7d41000c6610e3","freq","img/orange_2bandit_a2.png","70","70","test","1","138","138","7","",""
"null","227498","pSARL_v2","pSARL_v2q9r4qnz5","5dd31760fb7d41000c6610e3","freq_resp","img/orange_2bandit_a.png","70","70","test","","","","7","",""
"null","227661","pSARL_v2","pSARL_v2q9r4qnz5","5dd31760fb7d41000c6610e3","fixation","img/fixation.png","null","","test","","","","","",""
"211.09999999997672","227884","pSARL_v2","pSARL_v2q9r4qnz5","5dd31760fb7d41000c6610e3","freq","img/orange_2bandit_a2.png","70","70","test","1","139","139","7","",""
"null","228485","pSARL_v2","pSARL_v2q9r4qnz5","5dd31760fb7d41000c6610e3","freq_resp","img/orange_2bandit_a.png","70","70","test","","","","7","",""
"null","228647","pSARL_v2","pSARL_v2q9r4qnz5","5dd31760fb7d41000c6610e3","fixation","img/fixation.png","null","","test","","","","","",""
"295.4000000000233","228955","pSARL_v2","pSARL_v2q9r4qnz5","5dd31760fb7d41000c6610e3","freq","img/orange_2bandit_a2.png","70","70","test","1","140","140","7","",""
"null","229471","pSARL_v2","pSARL_v2q9r4qnz5","5dd31760fb7d41000c6610e3","freq_resp","img/orange_2bandit_a.png","70","70","test","","","","7","",""
"null","229633","pSARL_v2","pSARL_v2q9r4qnz5","5dd31760fb7d41000c6610e3","fixation","img/fixation.png","null","","test","","","","","",""
"181.80000000004657","229827","pSARL_v2","pSARL_v2q9r4qnz5","5dd31760fb7d41000c6610e3","freq","img/orange_2bandit_a2.png","70","70","test","1","141","141","7","",""
"null","230457","pSARL_v2","pSARL_v2q9r4qnz5","5dd31760fb7d41000c6610e3","freq_resp","img/orange_2bandit_a.png","70","70","test","","","","7","",""
"null","230619","pSARL_v2","pSARL_v2q9r4qnz5","5dd31760fb7d41000c6610e3","fixation","img/fixation.png","null","","test","","","","","",""
"120.09999999997672","230751","pSARL_v2","pSARL_v2q9r4qnz5","5dd31760fb7d41000c6610e3","freq","img/orange_2bandit_a2.png","70","70","test","1","142","142","7","",""
"null","231443","pSARL_v2","pSARL_v2q9r4qnz5","5dd31760fb7d41000c6610e3","freq_resp","img/orange_2bandit_a.png","70","70","test","","","","7","",""
"null","231605","pSARL_v2","pSARL_v2q9r4qnz5","5dd31760fb7d41000c6610e3","fixation","img/fixation.png","null","","test","","","","","",""
"296.80000000004657","231914","pSARL_v2","pSARL_v2q9r4qnz5","5dd31760fb7d41000c6610e3","infreq","img/green_2bandit_a2.png","70","68","test","0","143","143","7","",""
"null","232429","pSARL_v2","pSARL_v2q9r4qnz5","5dd31760fb7d41000c6610e3","infreq_resp","img/green_2bandit_a.png","70","68","test","","","","7","",""
"null","232592","pSARL_v2","pSARL_v2q9r4qnz5","5dd31760fb7d41000c6610e3","fixation","img/fixation.png","null","","test","","","","","",""
"369.5","232975","pSARL_v2","pSARL_v2q9r4qnz5","5dd31760fb7d41000c6610e3","freq","img/orange_2bandit_a2.png","70","70","test","1","144","144","7","",""
"null","233417","pSARL_v2","pSARL_v2q9r4qnz5","5dd31760fb7d41000c6610e3","freq_resp","img/orange_2bandit_a.png","70","70","test","","","","7","",""
"null","233579","pSARL_v2","pSARL_v2q9r4qnz5","5dd31760fb7d41000c6610e3","fixation","img/fixation.png","null","","test","","","","","",""
"258.69999999995343","233850","pSARL_v2","pSARL_v2q9r4qnz5","5dd31760fb7d41000c6610e3","freq","img/orange_2bandit_a2.png","70","70","test","1","145","145","7","",""
"null","234403","pSARL_v2","pSARL_v2q9r4qnz5","5dd31760fb7d41000c6610e3","freq_resp","img/orange_2bandit_a.png","70","70","test","","","","7","",""
"null","234566","pSARL_v2","pSARL_v2q9r4qnz5","5dd31760fb7d41000c6610e3","fixation","img/fixation.png","null","","test","","","","","",""
"289.9000000000233","234867","pSARL_v2","pSARL_v2q9r4qnz5","5dd31760fb7d41000c6610e3","freq","img/orange_2bandit_a2.png","70","70","test","1","146","146","7","",""
"null","235389","pSARL_v2","pSARL_v2q9r4qnz5","5dd31760fb7d41000c6610e3","freq_resp","img/orange_2bandit_a.png","70","70","test","","","","7","",""
"null","235551","pSARL_v2","pSARL_v2q9r4qnz5","5dd31760fb7d41000c6610e3","fixation","img/fixation.png","null","","test","","","","","",""
"469.20000000006985","236033","pSARL_v2","pSARL_v2q9r4qnz5","5dd31760fb7d41000c6610e3","freq","img/orange_2bandit_a2.png","70","70","test","1","147","147","7","",""
"null","236375","pSARL_v2","pSARL_v2q9r4qnz5","5dd31760fb7d41000c6610e3","freq_resp","img/orange_2bandit_a.png","70","70","test","","","","7","",""
"null","236538","pSARL_v2","pSARL_v2q9r4qnz5","5dd31760fb7d41000c6610e3","fixation","img/fixation.png","null","","test","","","","","",""
"335.80000000004657","236885","pSARL_v2","pSARL_v2q9r4qnz5","5dd31760fb7d41000c6610e3","freq","img/orange_2bandit_a2.png","70","70","test","1","148","148","7","",""
"null","237362","pSARL_v2","pSARL_v2q9r4qnz5","5dd31760fb7d41000c6610e3","freq_resp","img/orange_2bandit_a.png","70","70","test","","","","7","",""
"null","237525","pSARL_v2","pSARL_v2q9r4qnz5","5dd31760fb7d41000c6610e3","fixation","img/fixation.png","null","","test","","","","","",""
"426.5","237963","pSARL_v2","pSARL_v2q9r4qnz5","5dd31760fb7d41000c6610e3","infreq","img/green_2bandit_a2.png","68","68","test","1","149","149","7","",""
"null","238349","pSARL_v2","pSARL_v2q9r4qnz5","5dd31760fb7d41000c6610e3","infreq_resp","img/green_2bandit_a.png","68","68","test","","","","7","",""
"null","238511","pSARL_v2","pSARL_v2q9r4qnz5","5dd31760fb7d41000c6610e3","fixation","img/fixation.png","null","","test","","","","","",""
"286.0999999999767","238809","pSARL_v2","pSARL_v2q9r4qnz5","5dd31760fb7d41000c6610e3","freq","img/orange_2bandit_a2.png","70","70","test","1","150","150","7","",""
"null","239335","pSARL_v2","pSARL_v2q9r4qnz5","5dd31760fb7d41000c6610e3","freq_resp","img/orange_2bandit_a.png","70","70","test","","","","7","",""
"null","239498","pSARL_v2","pSARL_v2q9r4qnz5","5dd31760fb7d41000c6610e3","fixation","img/fixation.png","null","","test","","","","","",""
"349.19999999995343","239860","pSARL_v2","pSARL_v2q9r4qnz5","5dd31760fb7d41000c6610e3","freq","img/orange_2bandit_a2.png","70","70","test","1","151","151","7","",""
"null","240322","pSARL_v2","pSARL_v2q9r4qnz5","5dd31760fb7d41000c6610e3","freq_resp","img/orange_2bandit_a.png","70","70","test","","","","7","",""
"null","240485","pSARL_v2","pSARL_v2q9r4qnz5","5dd31760fb7d41000c6610e3","fixation","img/fixation.png","null","","test","","","","","",""
"301.5","240799","pSARL_v2","pSARL_v2q9r4qnz5","5dd31760fb7d41000c6610e3","freq","img/orange_2bandit_a2.png","70","70","test","1","152","152","7","",""
"null","241309","pSARL_v2","pSARL_v2q9r4qnz5","5dd31760fb7d41000c6610e3","freq_resp","img/orange_2bandit_a.png","70","70","test","","","","7","",""
"null","241471","pSARL_v2","pSARL_v2q9r4qnz5","5dd31760fb7d41000c6610e3","fixation","img/fixation.png","null","","test","","","","","",""
"373.70000000006985","241857","pSARL_v2","pSARL_v2q9r4qnz5","5dd31760fb7d41000c6610e3","freq","img/orange_2bandit_a2.png","70","70","test","1","153","153","7","",""
"null","242296","pSARL_v2","pSARL_v2q9r4qnz5","5dd31760fb7d41000c6610e3","freq_resp","img/orange_2bandit_a.png","70","70","test","","","","7","",""
"null","242458","pSARL_v2","pSARL_v2q9r4qnz5","5dd31760fb7d41000c6610e3","fixation","img/fixation.png","null","","test","","","","","",""
"312.4000000000233","242783","pSARL_v2","pSARL_v2q9r4qnz5","5dd31760fb7d41000c6610e3","freq","img/orange_2bandit_a2.png","70","70","test","1","154","154","7","",""
"null","243283","pSARL_v2","pSARL_v2q9r4qnz5","5dd31760fb7d41000c6610e3","freq_resp","img/orange_2bandit_a.png","70","70","test","","","","7","",""
"null","243445","pSARL_v2","pSARL_v2q9r4qnz5","5dd31760fb7d41000c6610e3","fixation","img/fixation.png","null","","test","","","","","",""
"488.9000000000233","243946","pSARL_v2","pSARL_v2q9r4qnz5","5dd31760fb7d41000c6610e3","reward","img/slot.png","74","","test","","","","","",""
"null","244709","pSARL_v2","pSARL_v2q9r4qnz5","5dd31760fb7d41000c6610e3","points","<div class=""verylowPoints""> -6 </div>","null","na","test","","","","7","-6","6"
"456","245177","pSARL_v2","pSARL_v2q9r4qnz5","5dd31760fb7d41000c6610e3","freq","img/orange_2bandit_a2.png","70","70","test","1","155","155","8","",""
"null","245533","pSARL_v2","pSARL_v2q9r4qnz5","5dd31760fb7d41000c6610e3","freq_resp","img/orange_2bandit_a.png","70","70","test","","","","8","",""
"null","245694","pSARL_v2","pSARL_v2q9r4qnz5","5dd31760fb7d41000c6610e3","fixation","img/fixation.png","null","","test","","","","","",""
"652.5999999999767","246359","pSARL_v2","pSARL_v2q9r4qnz5","5dd31760fb7d41000c6610e3","freq","img/orange_2bandit_a2.png","70","70","test","1","156","156","8","",""
"null","246518","pSARL_v2","pSARL_v2q9r4qnz5","5dd31760fb7d41000c6610e3","freq_resp","img/orange_2bandit_a.png","70","70","test","","","","8","",""
"null","246680","pSARL_v2","pSARL_v2q9r4qnz5","5dd31760fb7d41000c6610e3","fixation","img/fixation.png","null","","test","","","","","",""
"426.70000000006985","247118","pSARL_v2","pSARL_v2q9r4qnz5","5dd31760fb7d41000c6610e3","freq","img/orange_2bandit_a2.png","70","70","test","1","157","157","8","",""
"null","247505","pSARL_v2","pSARL_v2q9r4qnz5","5dd31760fb7d41000c6610e3","freq_resp","img/orange_2bandit_a.png","70","70","test","","","","8","",""
"null","247668","pSARL_v2","pSARL_v2q9r4qnz5","5dd31760fb7d41000c6610e3","fixation","img/fixation.png","null","","test","","","","","",""
"364","248043","pSARL_v2","pSARL_v2q9r4qnz5","5dd31760fb7d41000c6610e3","freq","img/orange_2bandit_a2.png","70","70","test","1","158","158","8","",""
"null","248492","pSARL_v2","pSARL_v2q9r4qnz5","5dd31760fb7d41000c6610e3","freq_resp","img/orange_2bandit_a.png","70","70","test","","","","8","",""
"null","248654","pSARL_v2","pSARL_v2q9r4qnz5","5dd31760fb7d41000c6610e3","fixation","img/fixation.png","null","","test","","","","","",""
"355.0999999999767","249022","pSARL_v2","pSARL_v2q9r4qnz5","5dd31760fb7d41000c6610e3","freq","img/orange_2bandit_a2.png","70","70","test","1","159","159","8","",""
"null","249479","pSARL_v2","pSARL_v2q9r4qnz5","5dd31760fb7d41000c6610e3","freq_resp","img/orange_2bandit_a.png","70","70","test","","","","8","",""
"null","249641","pSARL_v2","pSARL_v2q9r4qnz5","5dd31760fb7d41000c6610e3","fixation","img/fixation.png","null","","test","","","","","",""
"384.29999999993015","250037","pSARL_v2","pSARL_v2q9r4qnz5","5dd31760fb7d41000c6610e3","infreq","img/green_2bandit_a2.png","68","68","test","1","160","160","8","",""
"null","250464","pSARL_v2","pSARL_v2q9r4qnz5","5dd31760fb7d41000c6610e3","infreq_resp","img/green_2bandit_a.png","68","68","test","","","","8","",""
"null","250626","pSARL_v2","pSARL_v2q9r4qnz5","5dd31760fb7d41000c6610e3","fixation","img/fixation.png","null","","test","","","","","",""
"329.5","250967","pSARL_v2","pSARL_v2q9r4qnz5","5dd31760fb7d41000c6610e3","freq","img/orange_2bandit_a2.png","70","70","test","1","161","161","8","",""
"null","251449","pSARL_v2","pSARL_v2q9r4qnz5","5dd31760fb7d41000c6610e3","freq_resp","img/orange_2bandit_a.png","70","70","test","","","","8","",""
"null","251612","pSARL_v2","pSARL_v2q9r4qnz5","5dd31760fb7d41000c6610e3","fixation","img/fixation.png","null","","test","","","","","",""
"327.70000000006985","251951","pSARL_v2","pSARL_v2q9r4qnz5","5dd31760fb7d41000c6610e3","freq","img/orange_2bandit_a2.png","70","70","test","1","162","162","8","",""
"null","252435","pSARL_v2","pSARL_v2q9r4qnz5","5dd31760fb7d41000c6610e3","freq_resp","img/orange_2bandit_a.png","70","70","test","","","","8","",""
"null","252597","pSARL_v2","pSARL_v2q9r4qnz5","5dd31760fb7d41000c6610e3","fixation","img/fixation.png","null","","test","","","","","",""
"336.9000000000233","252946","pSARL_v2","pSARL_v2q9r4qnz5","5dd31760fb7d41000c6610e3","freq","img/orange_2bandit_a2.png","70","70","test","1","163","163","8","",""
"null","253424","pSARL_v2","pSARL_v2q9r4qnz5","5dd31760fb7d41000c6610e3","freq_resp","img/orange_2bandit_a.png","70","70","test","","","","8","",""
"null","253586","pSARL_v2","pSARL_v2q9r4qnz5","5dd31760fb7d41000c6610e3","fixation","img/fixation.png","null","","test","","","","","",""
"342.79999999993015","253941","pSARL_v2","pSARL_v2q9r4qnz5","5dd31760fb7d41000c6610e3","freq","img/orange_2bandit_a2.png","70","70","test","1","164","164","8","",""
"null","254410","pSARL_v2","pSARL_v2q9r4qnz5","5dd31760fb7d41000c6610e3","freq_resp","img/orange_2bandit_a.png","70","70","test","","","","8","",""
"null","254572","pSARL_v2","pSARL_v2q9r4qnz5","5dd31760fb7d41000c6610e3","fixation","img/fixation.png","null","","test","","","","","",""
"312","254896","pSARL_v2","pSARL_v2q9r4qnz5","5dd31760fb7d41000c6610e3","freq","img/orange_2bandit_a2.png","70","70","test","1","165","165","8","",""
"null","255396","pSARL_v2","pSARL_v2q9r4qnz5","5dd31760fb7d41000c6610e3","freq_resp","img/orange_2bandit_a.png","70","70","test","","","","8","",""
"null","255559","pSARL_v2","pSARL_v2q9r4qnz5","5dd31760fb7d41000c6610e3","fixation","img/fixation.png","null","","test","","","","","",""
"308.19999999995343","255879","pSARL_v2","pSARL_v2q9r4qnz5","5dd31760fb7d41000c6610e3","freq","img/orange_2bandit_a2.png","70","70","test","1","166","166","8","",""
"null","256382","pSARL_v2","pSARL_v2q9r4qnz5","5dd31760fb7d41000c6610e3","freq_resp","img/orange_2bandit_a.png","70","70","test","","","","8","",""
"null","256544","pSARL_v2","pSARL_v2q9r4qnz5","5dd31760fb7d41000c6610e3","fixation","img/fixation.png","null","","test","","","","","",""
"256.69999999995343","256813","pSARL_v2","pSARL_v2q9r4qnz5","5dd31760fb7d41000c6610e3","freq","img/orange_2bandit_a2.png","70","70","test","1","167","167","8","",""
"null","257368","pSARL_v2","pSARL_v2q9r4qnz5","5dd31760fb7d41000c6610e3","freq_resp","img/orange_2bandit_a.png","70","70","test","","","","8","",""
"null","257530","pSARL_v2","pSARL_v2q9r4qnz5","5dd31760fb7d41000c6610e3","fixation","img/fixation.png","null","","test","","","","","",""
"295.19999999995343","257838","pSARL_v2","pSARL_v2q9r4qnz5","5dd31760fb7d41000c6610e3","freq","img/orange_2bandit_a2.png","70","70","test","1","168","168","8","",""
"null","258354","pSARL_v2","pSARL_v2q9r4qnz5","5dd31760fb7d41000c6610e3","freq_resp","img/orange_2bandit_a.png","70","70","test","","","","8","",""
"null","258516","pSARL_v2","pSARL_v2q9r4qnz5","5dd31760fb7d41000c6610e3","fixation","img/fixation.png","null","","test","","","","","",""
"314.89999999990687","258844","pSARL_v2","pSARL_v2q9r4qnz5","5dd31760fb7d41000c6610e3","freq","img/orange_2bandit_a2.png","70","70","test","1","169","169","8","",""
"null","259341","pSARL_v2","pSARL_v2q9r4qnz5","5dd31760fb7d41000c6610e3","freq_resp","img/orange_2bandit_a.png","70","70","test","","","","8","",""
"null","259504","pSARL_v2","pSARL_v2q9r4qnz5","5dd31760fb7d41000c6610e3","fixation","img/fixation.png","null","","test","","","","","",""
"281.5999999999767","259797","pSARL_v2","pSARL_v2q9r4qnz5","5dd31760fb7d41000c6610e3","freq","img/orange_2bandit_a2.png","70","70","test","1","170","170","8","",""
"null","260328","pSARL_v2","pSARL_v2q9r4qnz5","5dd31760fb7d41000c6610e3","freq_resp","img/orange_2bandit_a.png","70","70","test","","","","8","",""
"null","260490","pSARL_v2","pSARL_v2q9r4qnz5","5dd31760fb7d41000c6610e3","fixation","img/fixation.png","null","","test","","","","","",""
"408.9000000000233","260911","pSARL_v2","pSARL_v2q9r4qnz5","5dd31760fb7d41000c6610e3","infreq","img/green_2bandit_a2.png","68","68","test","1","171","171","8","",""
"null","261315","pSARL_v2","pSARL_v2q9r4qnz5","5dd31760fb7d41000c6610e3","infreq_resp","img/green_2bandit_a.png","68","68","test","","","","8","",""
"null","261477","pSARL_v2","pSARL_v2q9r4qnz5","5dd31760fb7d41000c6610e3","fixation","img/fixation.png","null","","test","","","","","",""
"365.19999999995343","261854","pSARL_v2","pSARL_v2q9r4qnz5","5dd31760fb7d41000c6610e3","freq","img/orange_2bandit_a2.png","70","70","test","1","172","172","8","",""
"null","262300","pSARL_v2","pSARL_v2q9r4qnz5","5dd31760fb7d41000c6610e3","freq_resp","img/orange_2bandit_a.png","70","70","test","","","","8","",""
"null","262462","pSARL_v2","pSARL_v2q9r4qnz5","5dd31760fb7d41000c6610e3","fixation","img/fixation.png","null","","test","","","","","",""
"383.4000000000233","262858","pSARL_v2","pSARL_v2q9r4qnz5","5dd31760fb7d41000c6610e3","freq","img/orange_2bandit_a2.png","70","70","test","1","173","173","8","",""
"null","263286","pSARL_v2","pSARL_v2q9r4qnz5","5dd31760fb7d41000c6610e3","freq_resp","img/orange_2bandit_a.png","70","70","test","","","","8","",""
"null","263449","pSARL_v2","pSARL_v2q9r4qnz5","5dd31760fb7d41000c6610e3","fixation","img/fixation.png","null","","test","","","","","",""
"341.69999999995343","263802","pSARL_v2","pSARL_v2q9r4qnz5","5dd31760fb7d41000c6610e3","freq","img/orange_2bandit_a2.png","70","70","test","1","174","174","8","",""
"null","264272","pSARL_v2","pSARL_v2q9r4qnz5","5dd31760fb7d41000c6610e3","freq_resp","img/orange_2bandit_a.png","70","70","test","","","","8","",""
"null","264434","pSARL_v2","pSARL_v2q9r4qnz5","5dd31760fb7d41000c6610e3","fixation","img/fixation.png","null","","test","","","","","",""
"300.5999999999767","264746","pSARL_v2","pSARL_v2q9r4qnz5","5dd31760fb7d41000c6610e3","freq","img/orange_2bandit_a2.png","70","70","test","1","175","175","8","",""
"null","265257","pSARL_v2","pSARL_v2q9r4qnz5","5dd31760fb7d41000c6610e3","freq_resp","img/orange_2bandit_a.png","70","70","test","","","","8","",""
"null","265419","pSARL_v2","pSARL_v2q9r4qnz5","5dd31760fb7d41000c6610e3","fixation","img/fixation.png","null","","test","","","","","",""
"316.19999999995343","265747","pSARL_v2","pSARL_v2q9r4qnz5","5dd31760fb7d41000c6610e3","freq","img/orange_2bandit_a2.png","70","70","test","1","176","176","8","",""
"null","266244","pSARL_v2","pSARL_v2q9r4qnz5","5dd31760fb7d41000c6610e3","freq_resp","img/orange_2bandit_a.png","70","70","test","","","","8","",""
"null","266406","pSARL_v2","pSARL_v2q9r4qnz5","5dd31760fb7d41000c6610e3","fixation","img/fixation.png","null","","test","","","","","",""
"380.70000000006985","266798","pSARL_v2","pSARL_v2q9r4qnz5","5dd31760fb7d41000c6610e3","reward","img/slot.png","74","","test","","","","","",""
"null","267560","pSARL_v2","pSARL_v2q9r4qnz5","5dd31760fb7d41000c6610e3","points","<div class=""verylowPoints""> -4 </div>","null","na","test","","","","8","-4","7"
"303.4000000000233","267875","pSARL_v2","pSARL_v2q9r4qnz5","5dd31760fb7d41000c6610e3","freq","img/orange_2bandit_a2.png","70","70","test","1","177","177","9","",""
"null","268384","pSARL_v2","pSARL_v2q9r4qnz5","5dd31760fb7d41000c6610e3","freq_resp","img/orange_2bandit_a.png","70","70","test","","","","9","",""
"null","268546","pSARL_v2","pSARL_v2q9r4qnz5","5dd31760fb7d41000c6610e3","fixation","img/fixation.png","null","","test","","","","","",""
"537.7999999999302","269096","pSARL_v2","pSARL_v2q9r4qnz5","5dd31760fb7d41000c6610e3","infreq","img/green_2bandit_a2.png","68","68","test","1","178","178","9","",""
"null","269370","pSARL_v2","pSARL_v2q9r4qnz5","5dd31760fb7d41000c6610e3","infreq_resp","img/green_2bandit_a.png","68","68","test","","","","9","",""
"null","269532","pSARL_v2","pSARL_v2q9r4qnz5","5dd31760fb7d41000c6610e3","fixation","img/fixation.png","null","","test","","","","","",""
"348.30000000004657","269893","pSARL_v2","pSARL_v2q9r4qnz5","5dd31760fb7d41000c6610e3","freq","img/orange_2bandit_a2.png","70","70","test","1","179","179","9","",""
"null","270357","pSARL_v2","pSARL_v2q9r4qnz5","5dd31760fb7d41000c6610e3","freq_resp","img/orange_2bandit_a.png","70","70","test","","","","9","",""
"null","270519","pSARL_v2","pSARL_v2q9r4qnz5","5dd31760fb7d41000c6610e3","fixation","img/fixation.png","null","","test","","","","","",""
"371.69999999995343","270904","pSARL_v2","pSARL_v2q9r4qnz5","5dd31760fb7d41000c6610e3","freq","img/orange_2bandit_a2.png","70","70","test","1","180","180","9","",""
"null","271344","pSARL_v2","pSARL_v2q9r4qnz5","5dd31760fb7d41000c6610e3","freq_resp","img/orange_2bandit_a.png","70","70","test","","","","9","",""
"null","271510","pSARL_v2","pSARL_v2q9r4qnz5","5dd31760fb7d41000c6610e3","fixation","img/fixation.png","null","","test","","","","","",""
"328.89999999990687","271850","pSARL_v2","pSARL_v2q9r4qnz5","5dd31760fb7d41000c6610e3","freq","img/orange_2bandit_a2.png","70","70","test","1","181","181","9","",""
"null","272334","pSARL_v2","pSARL_v2q9r4qnz5","5dd31760fb7d41000c6610e3","freq_resp","img/orange_2bandit_a.png","70","70","test","","","","9","",""
"null","272496","pSARL_v2","pSARL_v2q9r4qnz5","5dd31760fb7d41000c6610e3","fixation","img/fixation.png","null","","test","","","","","",""
"212.19999999995343","272720","pSARL_v2","pSARL_v2q9r4qnz5","5dd31760fb7d41000c6610e3","freq","img/orange_2bandit_a2.png","70","70","test","1","182","182","9","",""
"null","273320","pSARL_v2","pSARL_v2q9r4qnz5","5dd31760fb7d41000c6610e3","freq_resp","img/orange_2bandit_a.png","70","70","test","","","","9","",""
"null","273482","pSARL_v2","pSARL_v2q9r4qnz5","5dd31760fb7d41000c6610e3","fixation","img/fixation.png","null","","test","","","","","",""
"125.59999999997672","273621","pSARL_v2","pSARL_v2q9r4qnz5","5dd31760fb7d41000c6610e3","infreq","img/green_2bandit_a2.png","70","68","test","0","183","183","9","",""
"null","274307","pSARL_v2","pSARL_v2q9r4qnz5","5dd31760fb7d41000c6610e3","infreq_resp","img/green_2bandit_a.png","70","68","test","","","","9","",""
"null","274470","pSARL_v2","pSARL_v2q9r4qnz5","5dd31760fb7d41000c6610e3","fixation","img/fixation.png","null","","test","","","","","",""
"298.9000000000233","274780","pSARL_v2","pSARL_v2q9r4qnz5","5dd31760fb7d41000c6610e3","freq","img/orange_2bandit_a2.png","70","70","test","1","184","184","9","",""
"null","275294","pSARL_v2","pSARL_v2q9r4qnz5","5dd31760fb7d41000c6610e3","freq_resp","img/orange_2bandit_a.png","70","70","test","","","","9","",""
"null","275457","pSARL_v2","pSARL_v2q9r4qnz5","5dd31760fb7d41000c6610e3","fixation","img/fixation.png","null","","test","","","","","",""
"504.5","275973","pSARL_v2","pSARL_v2q9r4qnz5","5dd31760fb7d41000c6610e3","freq","img/orange_2bandit_a2.png","70","70","test","1","185","185","9","",""
"null","276284","pSARL_v2","pSARL_v2q9r4qnz5","5dd31760fb7d41000c6610e3","freq_resp","img/orange_2bandit_a.png","70","70","test","","","","9","",""
"null","276447","pSARL_v2","pSARL_v2q9r4qnz5","5dd31760fb7d41000c6610e3","fixation","img/fixation.png","null","","test","","","","","",""
"350.39999999990687","276808","pSARL_v2","pSARL_v2q9r4qnz5","5dd31760fb7d41000c6610e3","freq","img/orange_2bandit_a2.png","70","70","test","1","186","186","9","",""
"null","277273","pSARL_v2","pSARL_v2q9r4qnz5","5dd31760fb7d41000c6610e3","freq_resp","img/orange_2bandit_a.png","70","70","test","","","","9","",""
"null","277434","pSARL_v2","pSARL_v2q9r4qnz5","5dd31760fb7d41000c6610e3","fixation","img/fixation.png","null","","test","","","","","",""
"135.40000000002328","277582","pSARL_v2","pSARL_v2q9r4qnz5","5dd31760fb7d41000c6610e3","freq","img/orange_2bandit_a2.png","70","70","test","1","187","187","9","",""
"null","278261","pSARL_v2","pSARL_v2q9r4qnz5","5dd31760fb7d41000c6610e3","freq_resp","img/orange_2bandit_a.png","70","70","test","","","","9","",""
"null","278423","pSARL_v2","pSARL_v2q9r4qnz5","5dd31760fb7d41000c6610e3","fixation","img/fixation.png","null","","test","","","","","",""
"270.30000000004657","278709","pSARL_v2","pSARL_v2q9r4qnz5","5dd31760fb7d41000c6610e3","freq","img/orange_2bandit_a2.png","70","70","test","1","188","188","9","",""
"null","279252","pSARL_v2","pSARL_v2q9r4qnz5","5dd31760fb7d41000c6610e3","freq_resp","img/orange_2bandit_a.png","70","70","test","","","","9","",""
"null","279414","pSARL_v2","pSARL_v2q9r4qnz5","5dd31760fb7d41000c6610e3","fixation","img/fixation.png","null","","test","","","","","",""
"246.40000000002328","279673","pSARL_v2","pSARL_v2q9r4qnz5","5dd31760fb7d41000c6610e3","freq","img/orange_2bandit_a2.png","70","70","test","1","189","189","9","",""
"null","280239","pSARL_v2","pSARL_v2q9r4qnz5","5dd31760fb7d41000c6610e3","freq_resp","img/orange_2bandit_a.png","70","70","test","","","","9","",""
"null","280401","pSARL_v2","pSARL_v2q9r4qnz5","5dd31760fb7d41000c6610e3","fixation","img/fixation.png","null","","test","","","","","",""
"307.69999999995343","280721","pSARL_v2","pSARL_v2q9r4qnz5","5dd31760fb7d41000c6610e3","freq","img/orange_2bandit_a2.png","70","70","test","1","190","190","9","",""
"null","281225","pSARL_v2","pSARL_v2q9r4qnz5","5dd31760fb7d41000c6610e3","freq_resp","img/orange_2bandit_a.png","70","70","test","","","","9","",""
"null","281388","pSARL_v2","pSARL_v2q9r4qnz5","5dd31760fb7d41000c6610e3","fixation","img/fixation.png","null","","test","","","","","",""
"235.90000000002328","281636","pSARL_v2","pSARL_v2q9r4qnz5","5dd31760fb7d41000c6610e3","freq","img/orange_2bandit_a2.png","70","70","test","1","191","191","9","",""
"null","282212","pSARL_v2","pSARL_v2q9r4qnz5","5dd31760fb7d41000c6610e3","freq_resp","img/orange_2bandit_a.png","70","70","test","","","","9","",""
"null","282374","pSARL_v2","pSARL_v2q9r4qnz5","5dd31760fb7d41000c6610e3","fixation","img/fixation.png","null","","test","","","","","",""
"274.79999999993015","282661","pSARL_v2","pSARL_v2q9r4qnz5","5dd31760fb7d41000c6610e3","freq","img/orange_2bandit_a2.png","70","70","test","1","192","192","9","",""
"null","283198","pSARL_v2","pSARL_v2q9r4qnz5","5dd31760fb7d41000c6610e3","freq_resp","img/orange_2bandit_a.png","70","70","test","","","","9","",""
"null","283360","pSARL_v2","pSARL_v2q9r4qnz5","5dd31760fb7d41000c6610e3","fixation","img/fixation.png","null","","test","","","","","",""
"288.0999999999767","283660","pSARL_v2","pSARL_v2q9r4qnz5","5dd31760fb7d41000c6610e3","freq","img/orange_2bandit_a2.png","70","70","test","1","193","193","9","",""
"null","284183","pSARL_v2","pSARL_v2q9r4qnz5","5dd31760fb7d41000c6610e3","freq_resp","img/orange_2bandit_a.png","70","70","test","","","","9","",""
"null","284345","pSARL_v2","pSARL_v2q9r4qnz5","5dd31760fb7d41000c6610e3","fixation","img/fixation.png","null","","test","","","","","",""
"210.10000000009313","284567","pSARL_v2","pSARL_v2q9r4qnz5","5dd31760fb7d41000c6610e3","freq","img/orange_2bandit_a2.png","70","70","test","1","194","194","9","",""
"null","285169","pSARL_v2","pSARL_v2q9r4qnz5","5dd31760fb7d41000c6610e3","freq_resp","img/orange_2bandit_a.png","70","70","test","","","","9","",""
"null","285331","pSARL_v2","pSARL_v2q9r4qnz5","5dd31760fb7d41000c6610e3","fixation","img/fixation.png","null","","test","","","","","",""
"418.70000000006985","285762","pSARL_v2","pSARL_v2q9r4qnz5","5dd31760fb7d41000c6610e3","freq","img/orange_2bandit_a2.png","70","70","test","1","195","195","9","",""
"null","286156","pSARL_v2","pSARL_v2q9r4qnz5","5dd31760fb7d41000c6610e3","freq_resp","img/orange_2bandit_a.png","70","70","test","","","","9","",""
"null","286318","pSARL_v2","pSARL_v2q9r4qnz5","5dd31760fb7d41000c6610e3","fixation","img/fixation.png","null","","test","","","","","",""
"321.0999999999767","286652","pSARL_v2","pSARL_v2q9r4qnz5","5dd31760fb7d41000c6610e3","freq","img/orange_2bandit_a2.png","70","70","test","1","196","196","9","",""
"null","287143","pSARL_v2","pSARL_v2q9r4qnz5","5dd31760fb7d41000c6610e3","freq_resp","img/orange_2bandit_a.png","70","70","test","","","","9","",""
"null","287305","pSARL_v2","pSARL_v2q9r4qnz5","5dd31760fb7d41000c6610e3","fixation","img/fixation.png","null","","test","","","","","",""
"261.10000000009313","287578","pSARL_v2","pSARL_v2q9r4qnz5","5dd31760fb7d41000c6610e3","freq","img/orange_2bandit_a2.png","70","70","test","1","197","197","9","",""
"null","288132","pSARL_v2","pSARL_v2q9r4qnz5","5dd31760fb7d41000c6610e3","freq_resp","img/orange_2bandit_a.png","70","70","test","","","","9","",""
"null","288294","pSARL_v2","pSARL_v2q9r4qnz5","5dd31760fb7d41000c6610e3","fixation","img/fixation.png","null","","test","","","","","",""
"210","288516","pSARL_v2","pSARL_v2q9r4qnz5","5dd31760fb7d41000c6610e3","freq","img/orange_2bandit_a2.png","70","70","test","1","198","198","9","",""
"null","289118","pSARL_v2","pSARL_v2q9r4qnz5","5dd31760fb7d41000c6610e3","freq_resp","img/orange_2bandit_a.png","70","70","test","","","","9","",""
"null","289282","pSARL_v2","pSARL_v2q9r4qnz5","5dd31760fb7d41000c6610e3","fixation","img/fixation.png","null","","test","","","","","",""
"285.9000000000233","289579","pSARL_v2","pSARL_v2q9r4qnz5","5dd31760fb7d41000c6610e3","freq","img/orange_2bandit_a2.png","70","70","test","1","199","199","9","",""
"null","290106","pSARL_v2","pSARL_v2q9r4qnz5","5dd31760fb7d41000c6610e3","freq_resp","img/orange_2bandit_a.png","70","70","test","","","","9","",""
"null","290269","pSARL_v2","pSARL_v2q9r4qnz5","5dd31760fb7d41000c6610e3","fixation","img/fixation.png","null","","test","","","","","",""
"443.19999999995343","290724","pSARL_v2","pSARL_v2q9r4qnz5","5dd31760fb7d41000c6610e3","infreq","img/green_2bandit_a2.png","68","68","test","1","200","200","9","",""
"null","291092","pSARL_v2","pSARL_v2q9r4qnz5","5dd31760fb7d41000c6610e3","infreq_resp","img/green_2bandit_a.png","68","68","test","","","","9","",""
"null","291254","pSARL_v2","pSARL_v2q9r4qnz5","5dd31760fb7d41000c6610e3","fixation","img/fixation.png","null","","test","","","","","",""
"402.5999999999767","291669","pSARL_v2","pSARL_v2q9r4qnz5","5dd31760fb7d41000c6610e3","freq","img/orange_2bandit_a2.png","70","70","test","1","201","201","9","",""
"null","292078","pSARL_v2","pSARL_v2q9r4qnz5","5dd31760fb7d41000c6610e3","freq_resp","img/orange_2bandit_a.png","70","70","test","","","","9","",""
"null","292241","pSARL_v2","pSARL_v2q9r4qnz5","5dd31760fb7d41000c6610e3","fixation","img/fixation.png","null","","test","","","","","",""
"328","292580","pSARL_v2","pSARL_v2q9r4qnz5","5dd31760fb7d41000c6610e3","freq","img/orange_2bandit_a2.png","70","70","test","1","202","202","9","",""
"null","293065","pSARL_v2","pSARL_v2q9r4qnz5","5dd31760fb7d41000c6610e3","freq_resp","img/orange_2bandit_a.png","70","70","test","","","","9","",""
"null","293227","pSARL_v2","pSARL_v2q9r4qnz5","5dd31760fb7d41000c6610e3","fixation","img/fixation.png","null","","test","","","","","",""
"326.79999999993015","293565","pSARL_v2","pSARL_v2q9r4qnz5","5dd31760fb7d41000c6610e3","freq","img/orange_2bandit_a2.png","70","70","test","1","203","203","9","",""
"null","294051","pSARL_v2","pSARL_v2q9r4qnz5","5dd31760fb7d41000c6610e3","freq_resp","img/orange_2bandit_a.png","70","70","test","","","","9","",""
"null","294213","pSARL_v2","pSARL_v2q9r4qnz5","5dd31760fb7d41000c6610e3","fixation","img/fixation.png","null","","test","","","","","",""
"512.5","294738","pSARL_v2","pSARL_v2q9r4qnz5","5dd31760fb7d41000c6610e3","reward","img/slot.png","74","","test","","","","","",""
"null","295500","pSARL_v2","pSARL_v2q9r4qnz5","5dd31760fb7d41000c6610e3","points","<div class=""verylowPoints""> -3 </div>","null","na","test","","","","9","-3","8"
"404.4000000000233","295916","pSARL_v2","pSARL_v2q9r4qnz5","5dd31760fb7d41000c6610e3","freq","img/orange_2bandit_a2.png","70","70","test","1","204","204","10","",""
"null","296323","pSARL_v2","pSARL_v2q9r4qnz5","5dd31760fb7d41000c6610e3","freq_resp","img/orange_2bandit_a.png","70","70","test","","","","10","",""
"null","296486","pSARL_v2","pSARL_v2q9r4qnz5","5dd31760fb7d41000c6610e3","fixation","img/fixation.png","null","","test","","","","","",""
"350.5","296848","pSARL_v2","pSARL_v2q9r4qnz5","5dd31760fb7d41000c6610e3","freq","img/orange_2bandit_a2.png","70","70","test","1","205","205","10","",""
"null","297309","pSARL_v2","pSARL_v2q9r4qnz5","5dd31760fb7d41000c6610e3","freq_resp","img/orange_2bandit_a.png","70","70","test","","","","10","",""
