"rt","time_elapsed","expId","subject","prolificID","trialType","stimulus","key_press","corrresp","phase","corr","trialNum","attentionRunNum","blockNum","points","rlNum"
"120921.60000014305","120923","pSARL_v2","pSARL_v2up7obpvv","5e84bd7c34d5d9072128fac1","","","","","","","","","","",""
"","126155","pSARL_v2","pSARL_v2up7obpvv","5e84bd7c34d5d9072128fac1","fullscreen","","","","","","","","","",""
"105018.70000004768","231175","pSARL_v2","pSARL_v2up7obpvv","5e84bd7c34d5d9072128fac1","","","","","","","","","","",""
"714.8000001907349","231893","pSARL_v2","pSARL_v2up7obpvv","5e84bd7c34d5d9072128fac1","freqPrac","img/green_2bandit_a2.png","70","70","prac","1","","","","",""
"714.8000001907349","231989","pSARL_v2","pSARL_v2up7obpvv","5e84bd7c34d5d9072128fac1","freqPrac_resp","img/green_2bandit_a.png","70","70","prac","","","","","",""
"null","232152","pSARL_v2","pSARL_v2up7obpvv","5e84bd7c34d5d9072128fac1","fixation","img/fixation.png","null","","prac","","","","","",""
"424.2999999523163","232579","pSARL_v2","pSARL_v2up7obpvv","5e84bd7c34d5d9072128fac1","infreqPrac","img/orange_2bandit_a2.png","68","68","prac","1","","","","",""
"424.2999999523163","232961","pSARL_v2","pSARL_v2up7obpvv","5e84bd7c34d5d9072128fac1","infreqPrac_resp","img/orange_2bandit_a.png","68","68","prac","","","","","",""
"null","233117","pSARL_v2","pSARL_v2up7obpvv","5e84bd7c34d5d9072128fac1","fixation","img/fixation.png","null","","prac","","","","","",""
"385.7999999523163","233505","pSARL_v2","pSARL_v2up7obpvv","5e84bd7c34d5d9072128fac1","freqPrac","img/green_2bandit_a2.png","70","70","prac","1","","","","",""
"385.7999999523163","233934","pSARL_v2","pSARL_v2up7obpvv","5e84bd7c34d5d9072128fac1","freqPrac_resp","img/green_2bandit_a.png","70","70","prac","","","","","",""
"null","234090","pSARL_v2","pSARL_v2up7obpvv","5e84bd7c34d5d9072128fac1","fixation","img/fixation.png","null","","prac","","","","","",""
"341.2000000476837","234433","pSARL_v2","pSARL_v2up7obpvv","5e84bd7c34d5d9072128fac1","infreqPrac","img/orange_2bandit_a2.png","68","68","prac","1","","","","",""
"341.2000000476837","234897","pSARL_v2","pSARL_v2up7obpvv","5e84bd7c34d5d9072128fac1","infreqPrac_resp","img/orange_2bandit_a.png","68","68","prac","","","","","",""
"null","235050","pSARL_v2","pSARL_v2up7obpvv","5e84bd7c34d5d9072128fac1","fixation","img/fixation.png","null","","prac","","","","","",""
"346.69999980926514","235399","pSARL_v2","pSARL_v2up7obpvv","5e84bd7c34d5d9072128fac1","infreqPrac","img/orange_2bandit_a2.png","68","68","prac","1","","","","",""
"346.69999980926514","235869","pSARL_v2","pSARL_v2up7obpvv","5e84bd7c34d5d9072128fac1","infreqPrac_resp","img/orange_2bandit_a.png","68","68","prac","","","","","",""
"null","236022","pSARL_v2","pSARL_v2up7obpvv","5e84bd7c34d5d9072128fac1","fixation","img/fixation.png","null","","prac","","","","","",""
"250.59999990463257","236275","pSARL_v2","pSARL_v2up7obpvv","5e84bd7c34d5d9072128fac1","infreqPrac","img/orange_2bandit_a2.png","68","68","prac","1","","","","",""
"250.59999990463257","236830","pSARL_v2","pSARL_v2up7obpvv","5e84bd7c34d5d9072128fac1","infreqPrac_resp","img/orange_2bandit_a.png","68","68","prac","","","","","",""
"null","236985","pSARL_v2","pSARL_v2up7obpvv","5e84bd7c34d5d9072128fac1","fixation","img/fixation.png","null","","prac","","","","","",""
"324.2999999523163","237311","pSARL_v2","pSARL_v2up7obpvv","5e84bd7c34d5d9072128fac1","freqPrac","img/green_2bandit_a2.png","70","70","prac","1","","","","",""
"324.2999999523163","237790","pSARL_v2","pSARL_v2up7obpvv","5e84bd7c34d5d9072128fac1","freqPrac_resp","img/green_2bandit_a.png","70","70","prac","","","","","",""
"null","237944","pSARL_v2","pSARL_v2up7obpvv","5e84bd7c34d5d9072128fac1","fixation","img/fixation.png","null","","prac","","","","","",""
"399","238345","pSARL_v2","pSARL_v2up7obpvv","5e84bd7c34d5d9072128fac1","infreqPrac","img/orange_2bandit_a2.png","68","68","prac","1","","","","",""
"399","238750","pSARL_v2","pSARL_v2up7obpvv","5e84bd7c34d5d9072128fac1","infreqPrac_resp","img/orange_2bandit_a.png","68","68","prac","","","","","",""
"null","238906","pSARL_v2","pSARL_v2up7obpvv","5e84bd7c34d5d9072128fac1","fixation","img/fixation.png","null","","prac","","","","","",""
"350.2999999523163","239259","pSARL_v2","pSARL_v2up7obpvv","5e84bd7c34d5d9072128fac1","freqPrac","img/green_2bandit_a2.png","70","70","prac","1","","","","",""
"350.2999999523163","239714","pSARL_v2","pSARL_v2up7obpvv","5e84bd7c34d5d9072128fac1","freqPrac_resp","img/green_2bandit_a.png","70","70","prac","","","","","",""
"null","239869","pSARL_v2","pSARL_v2up7obpvv","5e84bd7c34d5d9072128fac1","fixation","img/fixation.png","null","","prac","","","","","",""
"277.7999999523163","240149","pSARL_v2","pSARL_v2up7obpvv","5e84bd7c34d5d9072128fac1","freqPrac","img/green_2bandit_a2.png","70","70","prac","1","","","","",""
"277.7999999523163","240675","pSARL_v2","pSARL_v2up7obpvv","5e84bd7c34d5d9072128fac1","freqPrac_resp","img/green_2bandit_a.png","70","70","prac","","","","","",""
"null","240829","pSARL_v2","pSARL_v2up7obpvv","5e84bd7c34d5d9072128fac1","fixation","img/fixation.png","null","","prac","","","","","",""
"31383.60000014305","272214","pSARL_v2","pSARL_v2up7obpvv","5e84bd7c34d5d9072128fac1","","","","","prac","","","","","",""
"504.10000014305115","272720","pSARL_v2","pSARL_v2up7obpvv","5e84bd7c34d5d9072128fac1","rewardPractice","img/slot.png","74","","prac","","","","","",""
"null","273475","pSARL_v2","pSARL_v2up7obpvv","5e84bd7c34d5d9072128fac1","feedback","<div class=""veryhighPoints""> +15 </div>","null","na","prac","","","","","",""
"null","273629","pSARL_v2","pSARL_v2up7obpvv","5e84bd7c34d5d9072128fac1","fixation","img/fixation.png","null","","prac","","","","","",""
"21399.099999904633","295030","pSARL_v2","pSARL_v2up7obpvv","5e84bd7c34d5d9072128fac1","","","","","prac","","","","","",""
"569.7999999523163","295602","pSARL_v2","pSARL_v2up7obpvv","5e84bd7c34d5d9072128fac1","freq","img/green_2bandit_a2.png","70","70","test","1","1","1","1","",""
"null","295846","pSARL_v2","pSARL_v2up7obpvv","5e84bd7c34d5d9072128fac1","freq_resp","img/green_2bandit_a.png","70","70","test","","","","1","",""
"null","296002","pSARL_v2","pSARL_v2up7obpvv","5e84bd7c34d5d9072128fac1","fixation","img/fixation.png","null","","test","","","","","",""
"277.60000014305115","296282","pSARL_v2","pSARL_v2up7obpvv","5e84bd7c34d5d9072128fac1","freq","img/green_2bandit_a2.png","70","70","test","1","2","2","1","",""
"null","296810","pSARL_v2","pSARL_v2up7obpvv","5e84bd7c34d5d9072128fac1","freq_resp","img/green_2bandit_a.png","70","70","test","","","","1","",""
"null","296968","pSARL_v2","pSARL_v2up7obpvv","5e84bd7c34d5d9072128fac1","fixation","img/fixation.png","null","","test","","","","","",""
"259","297230","pSARL_v2","pSARL_v2up7obpvv","5e84bd7c34d5d9072128fac1","infreq","img/orange_2bandit_a2.png","68","68","test","1","3","3","1","",""
"null","297775","pSARL_v2","pSARL_v2up7obpvv","5e84bd7c34d5d9072128fac1","infreq_resp","img/orange_2bandit_a.png","68","68","test","","","","1","",""
"null","297930","pSARL_v2","pSARL_v2up7obpvv","5e84bd7c34d5d9072128fac1","fixation","img/fixation.png","null","","test","","","","","",""
"261.2999999523163","298194","pSARL_v2","pSARL_v2up7obpvv","5e84bd7c34d5d9072128fac1","freq","img/green_2bandit_a2.png","68","70","test","0","4","4","1","",""
"null","298740","pSARL_v2","pSARL_v2up7obpvv","5e84bd7c34d5d9072128fac1","freq_resp","img/green_2bandit_a.png","68","70","test","","","","1","",""
"null","298895","pSARL_v2","pSARL_v2up7obpvv","5e84bd7c34d5d9072128fac1","fixation","img/fixation.png","null","","test","","","","","",""
"329","299226","pSARL_v2","pSARL_v2up7obpvv","5e84bd7c34d5d9072128fac1","freq","img/green_2bandit_a2.png","70","70","test","1","5","5","1","",""
"null","299702","pSARL_v2","pSARL_v2up7obpvv","5e84bd7c34d5d9072128fac1","freq_resp","img/green_2bandit_a.png","70","70","test","","","","1","",""
"null","299857","pSARL_v2","pSARL_v2up7obpvv","5e84bd7c34d5d9072128fac1","fixation","img/fixation.png","null","","test","","","","","",""
"266.69999980926514","300126","pSARL_v2","pSARL_v2up7obpvv","5e84bd7c34d5d9072128fac1","freq","img/green_2bandit_a2.png","70","70","test","1","6","6","1","",""
"null","300663","pSARL_v2","pSARL_v2up7obpvv","5e84bd7c34d5d9072128fac1","freq_resp","img/green_2bandit_a.png","70","70","test","","","","1","",""
"null","300820","pSARL_v2","pSARL_v2up7obpvv","5e84bd7c34d5d9072128fac1","fixation","img/fixation.png","null","","test","","","","","",""
"299.89999985694885","301122","pSARL_v2","pSARL_v2up7obpvv","5e84bd7c34d5d9072128fac1","freq","img/green_2bandit_a2.png","70","70","test","1","7","7","1","",""
"null","301624","pSARL_v2","pSARL_v2up7obpvv","5e84bd7c34d5d9072128fac1","freq_resp","img/green_2bandit_a.png","70","70","test","","","","1","",""
"null","301779","pSARL_v2","pSARL_v2up7obpvv","5e84bd7c34d5d9072128fac1","fixation","img/fixation.png","null","","test","","","","","",""
"226.20000004768372","302008","pSARL_v2","pSARL_v2up7obpvv","5e84bd7c34d5d9072128fac1","freq","img/green_2bandit_a2.png","70","70","test","1","8","8","1","",""
"null","302587","pSARL_v2","pSARL_v2up7obpvv","5e84bd7c34d5d9072128fac1","freq_resp","img/green_2bandit_a.png","70","70","test","","","","1","",""
"null","302741","pSARL_v2","pSARL_v2up7obpvv","5e84bd7c34d5d9072128fac1","fixation","img/fixation.png","null","","test","","","","","",""
"268.40000009536743","303011","pSARL_v2","pSARL_v2up7obpvv","5e84bd7c34d5d9072128fac1","freq","img/green_2bandit_a2.png","70","70","test","1","9","9","1","",""
"null","303554","pSARL_v2","pSARL_v2up7obpvv","5e84bd7c34d5d9072128fac1","freq_resp","img/green_2bandit_a.png","70","70","test","","","","1","",""
"null","303719","pSARL_v2","pSARL_v2up7obpvv","5e84bd7c34d5d9072128fac1","fixation","img/fixation.png","null","","test","","","","","",""
"188.40000009536743","303910","pSARL_v2","pSARL_v2up7obpvv","5e84bd7c34d5d9072128fac1","freq","img/green_2bandit_a2.png","70","70","test","1","10","10","1","",""
"null","304530","pSARL_v2","pSARL_v2up7obpvv","5e84bd7c34d5d9072128fac1","freq_resp","img/green_2bandit_a.png","70","70","test","","","","1","",""
"null","304686","pSARL_v2","pSARL_v2up7obpvv","5e84bd7c34d5d9072128fac1","fixation","img/fixation.png","null","","test","","","","","",""
"237.70000004768372","304925","pSARL_v2","pSARL_v2up7obpvv","5e84bd7c34d5d9072128fac1","freq","img/green_2bandit_a2.png","70","70","test","1","11","11","1","",""
"null","305492","pSARL_v2","pSARL_v2up7obpvv","5e84bd7c34d5d9072128fac1","freq_resp","img/green_2bandit_a.png","70","70","test","","","","1","",""
"null","305649","pSARL_v2","pSARL_v2up7obpvv","5e84bd7c34d5d9072128fac1","fixation","img/fixation.png","null","","test","","","","","",""
"265","305916","pSARL_v2","pSARL_v2up7obpvv","5e84bd7c34d5d9072128fac1","freq","img/green_2bandit_a2.png","70","70","test","1","12","12","1","",""
"null","306453","pSARL_v2","pSARL_v2up7obpvv","5e84bd7c34d5d9072128fac1","freq_resp","img/green_2bandit_a.png","70","70","test","","","","1","",""
"null","306608","pSARL_v2","pSARL_v2up7obpvv","5e84bd7c34d5d9072128fac1","fixation","img/fixation.png","null","","test","","","","","",""
"366","306976","pSARL_v2","pSARL_v2up7obpvv","5e84bd7c34d5d9072128fac1","infreq","img/orange_2bandit_a2.png","68","68","test","1","13","13","1","",""
"null","307417","pSARL_v2","pSARL_v2up7obpvv","5e84bd7c34d5d9072128fac1","infreq_resp","img/orange_2bandit_a.png","68","68","test","","","","1","",""
"null","307573","pSARL_v2","pSARL_v2up7obpvv","5e84bd7c34d5d9072128fac1","fixation","img/fixation.png","null","","test","","","","","",""
"320.2999999523163","307895","pSARL_v2","pSARL_v2up7obpvv","5e84bd7c34d5d9072128fac1","freq","img/green_2bandit_a2.png","70","70","test","1","14","14","1","",""
"null","308391","pSARL_v2","pSARL_v2up7obpvv","5e84bd7c34d5d9072128fac1","freq_resp","img/green_2bandit_a.png","70","70","test","","","","1","",""
"null","308548","pSARL_v2","pSARL_v2up7obpvv","5e84bd7c34d5d9072128fac1","fixation","img/fixation.png","null","","test","","","","","",""
"299.7999999523163","308849","pSARL_v2","pSARL_v2up7obpvv","5e84bd7c34d5d9072128fac1","freq","img/green_2bandit_a2.png","70","70","test","1","15","15","1","",""
"null","309354","pSARL_v2","pSARL_v2up7obpvv","5e84bd7c34d5d9072128fac1","freq_resp","img/green_2bandit_a.png","70","70","test","","","","1","",""
"null","309510","pSARL_v2","pSARL_v2up7obpvv","5e84bd7c34d5d9072128fac1","fixation","img/fixation.png","null","","test","","","","","",""
"304.2000000476837","309816","pSARL_v2","pSARL_v2up7obpvv","5e84bd7c34d5d9072128fac1","freq","img/green_2bandit_a2.png","70","70","test","1","16","16","1","",""
"null","310326","pSARL_v2","pSARL_v2up7obpvv","5e84bd7c34d5d9072128fac1","freq_resp","img/green_2bandit_a.png","70","70","test","","","","1","",""
"null","310480","pSARL_v2","pSARL_v2up7obpvv","5e84bd7c34d5d9072128fac1","fixation","img/fixation.png","null","","test","","","","","",""
"321.5","310803","pSARL_v2","pSARL_v2up7obpvv","5e84bd7c34d5d9072128fac1","freq","img/green_2bandit_a2.png","70","70","test","1","17","17","1","",""
"null","311286","pSARL_v2","pSARL_v2up7obpvv","5e84bd7c34d5d9072128fac1","freq_resp","img/green_2bandit_a.png","70","70","test","","","","1","",""
"null","311442","pSARL_v2","pSARL_v2up7obpvv","5e84bd7c34d5d9072128fac1","fixation","img/fixation.png","null","","test","","","","","",""
"293.7999999523163","311738","pSARL_v2","pSARL_v2up7obpvv","5e84bd7c34d5d9072128fac1","freq","img/green_2bandit_a2.png","70","70","test","1","18","18","1","",""
"null","312247","pSARL_v2","pSARL_v2up7obpvv","5e84bd7c34d5d9072128fac1","freq_resp","img/green_2bandit_a.png","70","70","test","","","","1","",""
"null","312404","pSARL_v2","pSARL_v2up7obpvv","5e84bd7c34d5d9072128fac1","fixation","img/fixation.png","null","","test","","","","","",""
"295.7000000476837","312701","pSARL_v2","pSARL_v2up7obpvv","5e84bd7c34d5d9072128fac1","freq","img/green_2bandit_a2.png","70","70","test","1","19","19","1","",""
"null","313210","pSARL_v2","pSARL_v2up7obpvv","5e84bd7c34d5d9072128fac1","freq_resp","img/green_2bandit_a.png","70","70","test","","","","1","",""
"null","313367","pSARL_v2","pSARL_v2up7obpvv","5e84bd7c34d5d9072128fac1","fixation","img/fixation.png","null","","test","","","","","",""
"628.7000000476837","313997","pSARL_v2","pSARL_v2up7obpvv","5e84bd7c34d5d9072128fac1","reward","img/slot.png","74","","test","","","","","",""
"null","314760","pSARL_v2","pSARL_v2up7obpvv","5e84bd7c34d5d9072128fac1","points","<div class=""verylowPoints""> -6 </div>","null","na","test","","","","1","-6","0"
"null","315566","pSARL_v2","pSARL_v2up7obpvv","5e84bd7c34d5d9072128fac1","freq","img/green_2bandit_a2.png","null","70","test","0","20","20","2","",""
"null","315722","pSARL_v2","pSARL_v2up7obpvv","5e84bd7c34d5d9072128fac1","fixation","img/fixation.png","null","","test","","","","","",""
"485","316209","pSARL_v2","pSARL_v2up7obpvv","5e84bd7c34d5d9072128fac1","freq","img/green_2bandit_a2.png","70","70","test","1","21","21","2","",""
"null","316531","pSARL_v2","pSARL_v2up7obpvv","5e84bd7c34d5d9072128fac1","freq_resp","img/green_2bandit_a.png","70","70","test","","","","2","",""
"null","316687","pSARL_v2","pSARL_v2up7obpvv","5e84bd7c34d5d9072128fac1","fixation","img/fixation.png","null","","test","","","","","",""
"312","317001","pSARL_v2","pSARL_v2up7obpvv","5e84bd7c34d5d9072128fac1","freq","img/green_2bandit_a2.png","70","70","test","1","22","22","2","",""
"null","317495","pSARL_v2","pSARL_v2up7obpvv","5e84bd7c34d5d9072128fac1","freq_resp","img/green_2bandit_a.png","70","70","test","","","","2","",""
"null","317649","pSARL_v2","pSARL_v2up7obpvv","5e84bd7c34d5d9072128fac1","fixation","img/fixation.png","null","","test","","","","","",""
"249.89999985694885","317901","pSARL_v2","pSARL_v2up7obpvv","5e84bd7c34d5d9072128fac1","freq","img/green_2bandit_a2.png","70","70","test","1","23","23","2","",""
"null","318469","pSARL_v2","pSARL_v2up7obpvv","5e84bd7c34d5d9072128fac1","freq_resp","img/green_2bandit_a.png","70","70","test","","","","2","",""
"null","318624","pSARL_v2","pSARL_v2up7obpvv","5e84bd7c34d5d9072128fac1","fixation","img/fixation.png","null","","test","","","","","",""
"243.39999985694885","318869","pSARL_v2","pSARL_v2up7obpvv","5e84bd7c34d5d9072128fac1","freq","img/green_2bandit_a2.png","70","70","test","1","24","24","2","",""
"null","319434","pSARL_v2","pSARL_v2up7obpvv","5e84bd7c34d5d9072128fac1","freq_resp","img/green_2bandit_a.png","70","70","test","","","","2","",""
"null","319589","pSARL_v2","pSARL_v2up7obpvv","5e84bd7c34d5d9072128fac1","fixation","img/fixation.png","null","","test","","","","","",""
"268.09999990463257","319860","pSARL_v2","pSARL_v2up7obpvv","5e84bd7c34d5d9072128fac1","freq","img/green_2bandit_a2.png","70","70","test","1","25","25","2","",""
"null","320396","pSARL_v2","pSARL_v2up7obpvv","5e84bd7c34d5d9072128fac1","freq_resp","img/green_2bandit_a.png","70","70","test","","","","2","",""
"null","320552","pSARL_v2","pSARL_v2up7obpvv","5e84bd7c34d5d9072128fac1","fixation","img/fixation.png","null","","test","","","","","",""
"259.69999980926514","320814","pSARL_v2","pSARL_v2up7obpvv","5e84bd7c34d5d9072128fac1","freq","img/green_2bandit_a2.png","70","70","test","1","26","26","2","",""
"null","321357","pSARL_v2","pSARL_v2up7obpvv","5e84bd7c34d5d9072128fac1","freq_resp","img/green_2bandit_a.png","70","70","test","","","","2","",""
"null","321524","pSARL_v2","pSARL_v2up7obpvv","5e84bd7c34d5d9072128fac1","fixation","img/fixation.png","null","","test","","","","","",""
"221.59999990463257","321748","pSARL_v2","pSARL_v2up7obpvv","5e84bd7c34d5d9072128fac1","freq","img/green_2bandit_a2.png","70","70","test","1","27","27","2","",""
"null","322342","pSARL_v2","pSARL_v2up7obpvv","5e84bd7c34d5d9072128fac1","freq_resp","img/green_2bandit_a.png","70","70","test","","","","2","",""
"null","322503","pSARL_v2","pSARL_v2up7obpvv","5e84bd7c34d5d9072128fac1","fixation","img/fixation.png","null","","test","","","","","",""
"308","322814","pSARL_v2","pSARL_v2up7obpvv","5e84bd7c34d5d9072128fac1","freq","img/green_2bandit_a2.png","70","70","test","1","28","28","2","",""
"null","323311","pSARL_v2","pSARL_v2up7obpvv","5e84bd7c34d5d9072128fac1","freq_resp","img/green_2bandit_a.png","70","70","test","","","","2","",""
"null","323467","pSARL_v2","pSARL_v2up7obpvv","5e84bd7c34d5d9072128fac1","fixation","img/fixation.png","null","","test","","","","","",""
"226.70000004768372","323695","pSARL_v2","pSARL_v2up7obpvv","5e84bd7c34d5d9072128fac1","freq","img/green_2bandit_a2.png","70","70","test","1","29","29","2","",""
"null","324274","pSARL_v2","pSARL_v2up7obpvv","5e84bd7c34d5d9072128fac1","freq_resp","img/green_2bandit_a.png","70","70","test","","","","2","",""
"null","324429","pSARL_v2","pSARL_v2up7obpvv","5e84bd7c34d5d9072128fac1","fixation","img/fixation.png","null","","test","","","","","",""
"366.7999999523163","324797","pSARL_v2","pSARL_v2up7obpvv","5e84bd7c34d5d9072128fac1","freq","img/green_2bandit_a2.png","70","70","test","1","30","30","2","",""
"null","325246","pSARL_v2","pSARL_v2up7obpvv","5e84bd7c34d5d9072128fac1","freq_resp","img/green_2bandit_a.png","70","70","test","","","","2","",""
"null","325401","pSARL_v2","pSARL_v2up7obpvv","5e84bd7c34d5d9072128fac1","fixation","img/fixation.png","null","","test","","","","","",""
"268.5","325671","pSARL_v2","pSARL_v2up7obpvv","5e84bd7c34d5d9072128fac1","freq","img/green_2bandit_a2.png","70","70","test","1","31","31","2","",""
"null","326212","pSARL_v2","pSARL_v2up7obpvv","5e84bd7c34d5d9072128fac1","freq_resp","img/green_2bandit_a.png","70","70","test","","","","2","",""
"null","326365","pSARL_v2","pSARL_v2up7obpvv","5e84bd7c34d5d9072128fac1","fixation","img/fixation.png","null","","test","","","","","",""
"246.29999995231628","326613","pSARL_v2","pSARL_v2up7obpvv","5e84bd7c34d5d9072128fac1","freq","img/green_2bandit_a2.png","70","70","test","1","32","32","2","",""
"null","327172","pSARL_v2","pSARL_v2up7obpvv","5e84bd7c34d5d9072128fac1","freq_resp","img/green_2bandit_a.png","70","70","test","","","","2","",""
"null","327327","pSARL_v2","pSARL_v2up7obpvv","5e84bd7c34d5d9072128fac1","fixation","img/fixation.png","null","","test","","","","","",""
"346.2000000476837","327675","pSARL_v2","pSARL_v2up7obpvv","5e84bd7c34d5d9072128fac1","infreq","img/orange_2bandit_a2.png","68","68","test","1","33","33","2","",""
"null","328134","pSARL_v2","pSARL_v2up7obpvv","5e84bd7c34d5d9072128fac1","infreq_resp","img/orange_2bandit_a.png","68","68","test","","","","2","",""
"null","328291","pSARL_v2","pSARL_v2up7obpvv","5e84bd7c34d5d9072128fac1","fixation","img/fixation.png","null","","test","","","","","",""
"372.7000000476837","328665","pSARL_v2","pSARL_v2up7obpvv","5e84bd7c34d5d9072128fac1","freq","img/green_2bandit_a2.png","70","70","test","1","34","34","2","",""
"null","329097","pSARL_v2","pSARL_v2up7obpvv","5e84bd7c34d5d9072128fac1","freq_resp","img/green_2bandit_a.png","70","70","test","","","","2","",""
"null","329252","pSARL_v2","pSARL_v2up7obpvv","5e84bd7c34d5d9072128fac1","fixation","img/fixation.png","null","","test","","","","","",""
"653.4000000953674","329907","pSARL_v2","pSARL_v2up7obpvv","5e84bd7c34d5d9072128fac1","freq","img/green_2bandit_a2.png","70","70","test","1","35","35","2","",""
"null","330060","pSARL_v2","pSARL_v2up7obpvv","5e84bd7c34d5d9072128fac1","freq_resp","img/green_2bandit_a.png","70","70","test","","","","2","",""
"null","330222","pSARL_v2","pSARL_v2up7obpvv","5e84bd7c34d5d9072128fac1","fixation","img/fixation.png","null","","test","","","","","",""
"371.7000000476837","330595","pSARL_v2","pSARL_v2up7obpvv","5e84bd7c34d5d9072128fac1","freq","img/green_2bandit_a2.png","70","70","test","1","36","36","2","",""
"null","331037","pSARL_v2","pSARL_v2up7obpvv","5e84bd7c34d5d9072128fac1","freq_resp","img/green_2bandit_a.png","70","70","test","","","","2","",""
"null","331200","pSARL_v2","pSARL_v2up7obpvv","5e84bd7c34d5d9072128fac1","fixation","img/fixation.png","null","","test","","","","","",""
"247","331450","pSARL_v2","pSARL_v2up7obpvv","5e84bd7c34d5d9072128fac1","freq","img/green_2bandit_a2.png","70","70","test","1","37","37","2","",""
"null","332018","pSARL_v2","pSARL_v2up7obpvv","5e84bd7c34d5d9072128fac1","freq_resp","img/green_2bandit_a.png","70","70","test","","","","2","",""
"null","332179","pSARL_v2","pSARL_v2up7obpvv","5e84bd7c34d5d9072128fac1","fixation","img/fixation.png","null","","test","","","","","",""
"686.7999999523163","332867","pSARL_v2","pSARL_v2up7obpvv","5e84bd7c34d5d9072128fac1","infreq","img/orange_2bandit_a2.png","68","68","test","1","38","38","2","",""
"null","332994","pSARL_v2","pSARL_v2up7obpvv","5e84bd7c34d5d9072128fac1","infreq_resp","img/orange_2bandit_a.png","68","68","test","","","","2","",""
"null","333148","pSARL_v2","pSARL_v2up7obpvv","5e84bd7c34d5d9072128fac1","fixation","img/fixation.png","null","","test","","","","","",""
"687.0999999046326","333837","pSARL_v2","pSARL_v2up7obpvv","5e84bd7c34d5d9072128fac1","freq","img/green_2bandit_a2.png","70","70","test","1","39","39","2","",""
"null","333955","pSARL_v2","pSARL_v2up7obpvv","5e84bd7c34d5d9072128fac1","freq_resp","img/green_2bandit_a.png","70","70","test","","","","2","",""
"null","334114","pSARL_v2","pSARL_v2up7obpvv","5e84bd7c34d5d9072128fac1","fixation","img/fixation.png","null","","test","","","","","",""
"621.6000001430511","334737","pSARL_v2","pSARL_v2up7obpvv","5e84bd7c34d5d9072128fac1","freq","img/green_2bandit_a2.png","70","70","test","1","40","40","2","",""
"null","334919","pSARL_v2","pSARL_v2up7obpvv","5e84bd7c34d5d9072128fac1","freq_resp","img/green_2bandit_a.png","70","70","test","","","","2","",""
"null","335072","pSARL_v2","pSARL_v2up7obpvv","5e84bd7c34d5d9072128fac1","fixation","img/fixation.png","null","","test","","","","","",""
"283.09999990463257","335357","pSARL_v2","pSARL_v2up7obpvv","5e84bd7c34d5d9072128fac1","freq","img/green_2bandit_a2.png","70","70","test","1","41","41","2","",""
"null","335878","pSARL_v2","pSARL_v2up7obpvv","5e84bd7c34d5d9072128fac1","freq_resp","img/green_2bandit_a.png","70","70","test","","","","2","",""
"null","336035","pSARL_v2","pSARL_v2up7obpvv","5e84bd7c34d5d9072128fac1","fixation","img/fixation.png","null","","test","","","","","",""
"272.89999985694885","336310","pSARL_v2","pSARL_v2up7obpvv","5e84bd7c34d5d9072128fac1","freq","img/green_2bandit_a2.png","70","70","test","1","42","42","2","",""
"null","336845","pSARL_v2","pSARL_v2up7obpvv","5e84bd7c34d5d9072128fac1","freq_resp","img/green_2bandit_a.png","70","70","test","","","","2","",""
"null","336999","pSARL_v2","pSARL_v2up7obpvv","5e84bd7c34d5d9072128fac1","fixation","img/fixation.png","null","","test","","","","","",""
"251.79999995231628","337253","pSARL_v2","pSARL_v2up7obpvv","5e84bd7c34d5d9072128fac1","freq","img/green_2bandit_a2.png","70","70","test","1","43","43","2","",""
"null","337808","pSARL_v2","pSARL_v2up7obpvv","5e84bd7c34d5d9072128fac1","freq_resp","img/green_2bandit_a.png","70","70","test","","","","2","",""
"null","337963","pSARL_v2","pSARL_v2up7obpvv","5e84bd7c34d5d9072128fac1","fixation","img/fixation.png","null","","test","","","","","",""
"250.20000004768372","338215","pSARL_v2","pSARL_v2up7obpvv","5e84bd7c34d5d9072128fac1","freq","img/green_2bandit_a2.png","70","70","test","1","44","44","2","",""
"null","338774","pSARL_v2","pSARL_v2up7obpvv","5e84bd7c34d5d9072128fac1","freq_resp","img/green_2bandit_a.png","70","70","test","","","","2","",""
"null","338930","pSARL_v2","pSARL_v2up7obpvv","5e84bd7c34d5d9072128fac1","fixation","img/fixation.png","null","","test","","","","","",""
"245","339177","pSARL_v2","pSARL_v2up7obpvv","5e84bd7c34d5d9072128fac1","freq","img/green_2bandit_a2.png","70","70","test","1","45","45","2","",""
"null","339736","pSARL_v2","pSARL_v2up7obpvv","5e84bd7c34d5d9072128fac1","freq_resp","img/green_2bandit_a.png","70","70","test","","","","2","",""
"null","339893","pSARL_v2","pSARL_v2up7obpvv","5e84bd7c34d5d9072128fac1","fixation","img/fixation.png","null","","test","","","","","",""
"446.7000000476837","340341","pSARL_v2","pSARL_v2up7obpvv","5e84bd7c34d5d9072128fac1","reward","img/slot.png","74","","test","","","","","",""
"null","341102","pSARL_v2","pSARL_v2up7obpvv","5e84bd7c34d5d9072128fac1","points","<div class=""verylowPoints""> -11 </div>","null","na","test","","","","2","-11","1"
"472.89999985694885","341577","pSARL_v2","pSARL_v2up7obpvv","5e84bd7c34d5d9072128fac1","freq","img/green_2bandit_a2.png","70","70","test","1","46","46","3","",""
"null","341922","pSARL_v2","pSARL_v2up7obpvv","5e84bd7c34d5d9072128fac1","freq_resp","img/green_2bandit_a.png","70","70","test","","","","3","",""
"null","342076","pSARL_v2","pSARL_v2up7obpvv","5e84bd7c34d5d9072128fac1","fixation","img/fixation.png","null","","test","","","","","",""
"265","342343","pSARL_v2","pSARL_v2up7obpvv","5e84bd7c34d5d9072128fac1","freq","img/green_2bandit_a2.png","70","70","test","1","47","47","3","",""
"null","342882","pSARL_v2","pSARL_v2up7obpvv","5e84bd7c34d5d9072128fac1","freq_resp","img/green_2bandit_a.png","70","70","test","","","","3","",""
"null","343037","pSARL_v2","pSARL_v2up7obpvv","5e84bd7c34d5d9072128fac1","fixation","img/fixation.png","null","","test","","","","","",""
"240.5","343279","pSARL_v2","pSARL_v2up7obpvv","5e84bd7c34d5d9072128fac1","freq","img/green_2bandit_a2.png","70","70","test","1","48","48","3","",""
"null","343844","pSARL_v2","pSARL_v2up7obpvv","5e84bd7c34d5d9072128fac1","freq_resp","img/green_2bandit_a.png","70","70","test","","","","3","",""
"null","344000","pSARL_v2","pSARL_v2up7obpvv","5e84bd7c34d5d9072128fac1","fixation","img/fixation.png","null","","test","","","","","",""
"310.7000000476837","344313","pSARL_v2","pSARL_v2up7obpvv","5e84bd7c34d5d9072128fac1","freq","img/green_2bandit_a2.png","70","70","test","1","49","49","3","",""
"null","344808","pSARL_v2","pSARL_v2up7obpvv","5e84bd7c34d5d9072128fac1","freq_resp","img/green_2bandit_a.png","70","70","test","","","","3","",""
"null","344969","pSARL_v2","pSARL_v2up7obpvv","5e84bd7c34d5d9072128fac1","fixation","img/fixation.png","null","","test","","","","","",""
"240.10000014305115","345211","pSARL_v2","pSARL_v2up7obpvv","5e84bd7c34d5d9072128fac1","freq","img/green_2bandit_a2.png","70","70","test","1","50","50","3","",""
"null","345780","pSARL_v2","pSARL_v2up7obpvv","5e84bd7c34d5d9072128fac1","freq_resp","img/green_2bandit_a.png","70","70","test","","","","3","",""
"null","345939","pSARL_v2","pSARL_v2up7obpvv","5e84bd7c34d5d9072128fac1","fixation","img/fixation.png","null","","test","","","","","",""
"332.09999990463257","346273","pSARL_v2","pSARL_v2up7obpvv","5e84bd7c34d5d9072128fac1","infreq","img/orange_2bandit_a2.png","68","68","test","1","51","51","3","",""
"null","346750","pSARL_v2","pSARL_v2up7obpvv","5e84bd7c34d5d9072128fac1","infreq_resp","img/orange_2bandit_a.png","68","68","test","","","","3","",""
"null","346905","pSARL_v2","pSARL_v2up7obpvv","5e84bd7c34d5d9072128fac1","fixation","img/fixation.png","null","","test","","","","","",""
"306.09999990463257","347213","pSARL_v2","pSARL_v2up7obpvv","5e84bd7c34d5d9072128fac1","freq","img/green_2bandit_a2.png","70","70","test","1","52","52","3","",""
"null","347719","pSARL_v2","pSARL_v2up7obpvv","5e84bd7c34d5d9072128fac1","freq_resp","img/green_2bandit_a.png","70","70","test","","","","3","",""
"null","347875","pSARL_v2","pSARL_v2up7obpvv","5e84bd7c34d5d9072128fac1","fixation","img/fixation.png","null","","test","","","","","",""
"281.89999985694885","348159","pSARL_v2","pSARL_v2up7obpvv","5e84bd7c34d5d9072128fac1","freq","img/green_2bandit_a2.png","70","70","test","1","53","53","3","",""
"null","348684","pSARL_v2","pSARL_v2up7obpvv","5e84bd7c34d5d9072128fac1","freq_resp","img/green_2bandit_a.png","70","70","test","","","","3","",""
"null","348839","pSARL_v2","pSARL_v2up7obpvv","5e84bd7c34d5d9072128fac1","fixation","img/fixation.png","null","","test","","","","","",""
"235.59999990463257","349077","pSARL_v2","pSARL_v2up7obpvv","5e84bd7c34d5d9072128fac1","freq","img/green_2bandit_a2.png","70","70","test","1","54","54","3","",""
"null","349649","pSARL_v2","pSARL_v2up7obpvv","5e84bd7c34d5d9072128fac1","freq_resp","img/green_2bandit_a.png","70","70","test","","","","3","",""
"null","349804","pSARL_v2","pSARL_v2up7obpvv","5e84bd7c34d5d9072128fac1","fixation","img/fixation.png","null","","test","","","","","",""
"231","350037","pSARL_v2","pSARL_v2up7obpvv","5e84bd7c34d5d9072128fac1","freq","img/green_2bandit_a2.png","70","70","test","1","55","55","3","",""
"null","350610","pSARL_v2","pSARL_v2up7obpvv","5e84bd7c34d5d9072128fac1","freq_resp","img/green_2bandit_a.png","70","70","test","","","","3","",""
"null","350767","pSARL_v2","pSARL_v2up7obpvv","5e84bd7c34d5d9072128fac1","fixation","img/fixation.png","null","","test","","","","","",""
"245.90000009536743","351015","pSARL_v2","pSARL_v2up7obpvv","5e84bd7c34d5d9072128fac1","freq","img/green_2bandit_a2.png","70","70","test","1","56","56","3","",""
"null","351584","pSARL_v2","pSARL_v2up7obpvv","5e84bd7c34d5d9072128fac1","freq_resp","img/green_2bandit_a.png","70","70","test","","","","3","",""
"null","351737","pSARL_v2","pSARL_v2up7obpvv","5e84bd7c34d5d9072128fac1","fixation","img/fixation.png","null","","test","","","","","",""
"212.29999995231628","351951","pSARL_v2","pSARL_v2up7obpvv","5e84bd7c34d5d9072128fac1","freq","img/green_2bandit_a2.png","70","70","test","1","57","57","3","",""
"null","352554","pSARL_v2","pSARL_v2up7obpvv","5e84bd7c34d5d9072128fac1","freq_resp","img/green_2bandit_a.png","70","70","test","","","","3","",""
"null","352710","pSARL_v2","pSARL_v2up7obpvv","5e84bd7c34d5d9072128fac1","fixation","img/fixation.png","null","","test","","","","","",""
"216.90000009536743","352929","pSARL_v2","pSARL_v2up7obpvv","5e84bd7c34d5d9072128fac1","freq","img/green_2bandit_a2.png","70","70","test","1","58","58","3","",""
"null","353523","pSARL_v2","pSARL_v2up7obpvv","5e84bd7c34d5d9072128fac1","freq_resp","img/green_2bandit_a.png","70","70","test","","","","3","",""
"null","353687","pSARL_v2","pSARL_v2up7obpvv","5e84bd7c34d5d9072128fac1","fixation","img/fixation.png","null","","test","","","","","",""
"268.2999999523163","353957","pSARL_v2","pSARL_v2up7obpvv","5e84bd7c34d5d9072128fac1","freq","img/green_2bandit_a2.png","70","70","test","1","59","59","3","",""
"null","354505","pSARL_v2","pSARL_v2up7obpvv","5e84bd7c34d5d9072128fac1","freq_resp","img/green_2bandit_a.png","70","70","test","","","","3","",""
"null","354666","pSARL_v2","pSARL_v2up7obpvv","5e84bd7c34d5d9072128fac1","fixation","img/fixation.png","null","","test","","","","","",""
"247.19999980926514","354915","pSARL_v2","pSARL_v2up7obpvv","5e84bd7c34d5d9072128fac1","freq","img/green_2bandit_a2.png","70","70","test","1","60","60","3","",""
"null","355471","pSARL_v2","pSARL_v2up7obpvv","5e84bd7c34d5d9072128fac1","freq_resp","img/green_2bandit_a.png","70","70","test","","","","3","",""
"null","355625","pSARL_v2","pSARL_v2up7obpvv","5e84bd7c34d5d9072128fac1","fixation","img/fixation.png","null","","test","","","","","",""
"332.2999999523163","355959","pSARL_v2","pSARL_v2up7obpvv","5e84bd7c34d5d9072128fac1","infreq","img/orange_2bandit_a2.png","68","68","test","1","61","61","3","",""
"null","356435","pSARL_v2","pSARL_v2up7obpvv","5e84bd7c34d5d9072128fac1","infreq_resp","img/orange_2bandit_a.png","68","68","test","","","","3","",""
"null","356589","pSARL_v2","pSARL_v2up7obpvv","5e84bd7c34d5d9072128fac1","fixation","img/fixation.png","null","","test","","","","","",""
"301.60000014305115","356893","pSARL_v2","pSARL_v2up7obpvv","5e84bd7c34d5d9072128fac1","freq","img/green_2bandit_a2.png","70","70","test","1","62","62","3","",""
"null","357397","pSARL_v2","pSARL_v2up7obpvv","5e84bd7c34d5d9072128fac1","freq_resp","img/green_2bandit_a.png","70","70","test","","","","3","",""
"null","357554","pSARL_v2","pSARL_v2up7obpvv","5e84bd7c34d5d9072128fac1","fixation","img/fixation.png","null","","test","","","","","",""
"343.2999999523163","357899","pSARL_v2","pSARL_v2up7obpvv","5e84bd7c34d5d9072128fac1","freq","img/green_2bandit_a2.png","70","70","test","1","63","63","3","",""
"null","358360","pSARL_v2","pSARL_v2up7obpvv","5e84bd7c34d5d9072128fac1","freq_resp","img/green_2bandit_a.png","70","70","test","","","","3","",""
"null","358515","pSARL_v2","pSARL_v2up7obpvv","5e84bd7c34d5d9072128fac1","fixation","img/fixation.png","null","","test","","","","","",""
"282.2999999523163","358799","pSARL_v2","pSARL_v2up7obpvv","5e84bd7c34d5d9072128fac1","freq","img/green_2bandit_a2.png","70","70","test","1","64","64","3","",""
"null","359320","pSARL_v2","pSARL_v2up7obpvv","5e84bd7c34d5d9072128fac1","freq_resp","img/green_2bandit_a.png","70","70","test","","","","3","",""
"null","359474","pSARL_v2","pSARL_v2up7obpvv","5e84bd7c34d5d9072128fac1","fixation","img/fixation.png","null","","test","","","","","",""
"239","359715","pSARL_v2","pSARL_v2up7obpvv","5e84bd7c34d5d9072128fac1","freq","img/green_2bandit_a2.png","70","70","test","1","65","65","3","",""
"null","360287","pSARL_v2","pSARL_v2up7obpvv","5e84bd7c34d5d9072128fac1","freq_resp","img/green_2bandit_a.png","70","70","test","","","","3","",""
"null","360443","pSARL_v2","pSARL_v2up7obpvv","5e84bd7c34d5d9072128fac1","fixation","img/fixation.png","null","","test","","","","","",""
"287.90000009536743","360733","pSARL_v2","pSARL_v2up7obpvv","5e84bd7c34d5d9072128fac1","freq","img/green_2bandit_a2.png","70","70","test","1","66","66","3","",""
"null","361251","pSARL_v2","pSARL_v2up7obpvv","5e84bd7c34d5d9072128fac1","freq_resp","img/green_2bandit_a.png","70","70","test","","","","3","",""
"null","361406","pSARL_v2","pSARL_v2up7obpvv","5e84bd7c34d5d9072128fac1","fixation","img/fixation.png","null","","test","","","","","",""
"504.39999985694885","361913","pSARL_v2","pSARL_v2up7obpvv","5e84bd7c34d5d9072128fac1","reward","img/slot.png","74","","test","","","","","",""
"null","362679","pSARL_v2","pSARL_v2up7obpvv","5e84bd7c34d5d9072128fac1","points","<div class=""verylowPoints""> -7 </div>","null","na","test","","","","3","-7","2"
"540.0999999046326","363221","pSARL_v2","pSARL_v2up7obpvv","5e84bd7c34d5d9072128fac1","freq","img/green_2bandit_a2.png","70","70","test","1","67","67","4","",""
"null","363484","pSARL_v2","pSARL_v2up7obpvv","5e84bd7c34d5d9072128fac1","freq_resp","img/green_2bandit_a.png","70","70","test","","","","4","",""
"null","363639","pSARL_v2","pSARL_v2up7obpvv","5e84bd7c34d5d9072128fac1","fixation","img/fixation.png","null","","test","","","","","",""
"391.2000000476837","364033","pSARL_v2","pSARL_v2up7obpvv","5e84bd7c34d5d9072128fac1","freq","img/green_2bandit_a2.png","70","70","test","1","68","68","4","",""
"null","364446","pSARL_v2","pSARL_v2up7obpvv","5e84bd7c34d5d9072128fac1","freq_resp","img/green_2bandit_a.png","70","70","test","","","","4","",""
"null","364599","pSARL_v2","pSARL_v2up7obpvv","5e84bd7c34d5d9072128fac1","fixation","img/fixation.png","null","","test","","","","","",""
"265.5","364867","pSARL_v2","pSARL_v2up7obpvv","5e84bd7c34d5d9072128fac1","freq","img/green_2bandit_a2.png","70","70","test","1","69","69","4","",""
"null","365414","pSARL_v2","pSARL_v2up7obpvv","5e84bd7c34d5d9072128fac1","freq_resp","img/green_2bandit_a.png","70","70","test","","","","4","",""
"null","365569","pSARL_v2","pSARL_v2up7obpvv","5e84bd7c34d5d9072128fac1","fixation","img/fixation.png","null","","test","","","","","",""
"232.29999995231628","365803","pSARL_v2","pSARL_v2up7obpvv","5e84bd7c34d5d9072128fac1","freq","img/green_2bandit_a2.png","70","70","test","1","70","70","4","",""
"null","366379","pSARL_v2","pSARL_v2up7obpvv","5e84bd7c34d5d9072128fac1","freq_resp","img/green_2bandit_a.png","70","70","test","","","","4","",""
"null","366534","pSARL_v2","pSARL_v2up7obpvv","5e84bd7c34d5d9072128fac1","fixation","img/fixation.png","null","","test","","","","","",""
"228.40000009536743","366765","pSARL_v2","pSARL_v2up7obpvv","5e84bd7c34d5d9072128fac1","freq","img/green_2bandit_a2.png","70","70","test","1","71","71","4","",""
"null","367350","pSARL_v2","pSARL_v2up7obpvv","5e84bd7c34d5d9072128fac1","freq_resp","img/green_2bandit_a.png","70","70","test","","","","4","",""
"null","367503","pSARL_v2","pSARL_v2up7obpvv","5e84bd7c34d5d9072128fac1","fixation","img/fixation.png","null","","test","","","","","",""
"217.29999995231628","367723","pSARL_v2","pSARL_v2up7obpvv","5e84bd7c34d5d9072128fac1","freq","img/green_2bandit_a2.png","70","70","test","1","72","72","4","",""
"null","368310","pSARL_v2","pSARL_v2up7obpvv","5e84bd7c34d5d9072128fac1","freq_resp","img/green_2bandit_a.png","70","70","test","","","","4","",""
"null","368464","pSARL_v2","pSARL_v2up7obpvv","5e84bd7c34d5d9072128fac1","fixation","img/fixation.png","null","","test","","","","","",""
"266.39999985694885","368733","pSARL_v2","pSARL_v2up7obpvv","5e84bd7c34d5d9072128fac1","freq","img/green_2bandit_a2.png","70","70","test","1","73","73","4","",""
"null","369272","pSARL_v2","pSARL_v2up7obpvv","5e84bd7c34d5d9072128fac1","freq_resp","img/green_2bandit_a.png","70","70","test","","","","4","",""
"null","369428","pSARL_v2","pSARL_v2up7obpvv","5e84bd7c34d5d9072128fac1","fixation","img/fixation.png","null","","test","","","","","",""
"228.59999990463257","369659","pSARL_v2","pSARL_v2up7obpvv","5e84bd7c34d5d9072128fac1","freq","img/green_2bandit_a2.png","70","70","test","1","74","74","4","",""
"null","370239","pSARL_v2","pSARL_v2up7obpvv","5e84bd7c34d5d9072128fac1","freq_resp","img/green_2bandit_a.png","70","70","test","","","","4","",""
"null","370396","pSARL_v2","pSARL_v2up7obpvv","5e84bd7c34d5d9072128fac1","fixation","img/fixation.png","null","","test","","","","","",""
"251.19999980926514","370649","pSARL_v2","pSARL_v2up7obpvv","5e84bd7c34d5d9072128fac1","freq","img/green_2bandit_a2.png","70","70","test","1","75","75","4","",""
"null","371203","pSARL_v2","pSARL_v2up7obpvv","5e84bd7c34d5d9072128fac1","freq_resp","img/green_2bandit_a.png","70","70","test","","","","4","",""
"null","371363","pSARL_v2","pSARL_v2up7obpvv","5e84bd7c34d5d9072128fac1","fixation","img/fixation.png","null","","test","","","","","",""
"231.69999980926514","371597","pSARL_v2","pSARL_v2up7obpvv","5e84bd7c34d5d9072128fac1","infreq","img/orange_2bandit_a2.png","70","68","test","0","76","76","4","",""
"null","372168","pSARL_v2","pSARL_v2up7obpvv","5e84bd7c34d5d9072128fac1","infreq_resp","img/orange_2bandit_a.png","70","68","test","","","","4","",""
"null","372325","pSARL_v2","pSARL_v2up7obpvv","5e84bd7c34d5d9072128fac1","fixation","img/fixation.png","null","","test","","","","","",""
"null","373141","pSARL_v2","pSARL_v2up7obpvv","5e84bd7c34d5d9072128fac1","freq","img/green_2bandit_a2.png","null","70","test","0","77","77","4","",""
"null","373296","pSARL_v2","pSARL_v2up7obpvv","5e84bd7c34d5d9072128fac1","fixation","img/fixation.png","null","","test","","","","","",""
"399.19999980926514","373697","pSARL_v2","pSARL_v2up7obpvv","5e84bd7c34d5d9072128fac1","infreq","img/orange_2bandit_a2.png","68","68","test","1","78","78","4","",""
"null","374104","pSARL_v2","pSARL_v2up7obpvv","5e84bd7c34d5d9072128fac1","infreq_resp","img/orange_2bandit_a.png","68","68","test","","","","4","",""
"null","374261","pSARL_v2","pSARL_v2up7obpvv","5e84bd7c34d5d9072128fac1","fixation","img/fixation.png","null","","test","","","","","",""
"294.10000014305115","374557","pSARL_v2","pSARL_v2up7obpvv","5e84bd7c34d5d9072128fac1","freq","img/green_2bandit_a2.png","70","70","test","1","79","79","4","",""
"null","375078","pSARL_v2","pSARL_v2up7obpvv","5e84bd7c34d5d9072128fac1","freq_resp","img/green_2bandit_a.png","70","70","test","","","","4","",""
"null","375233","pSARL_v2","pSARL_v2up7obpvv","5e84bd7c34d5d9072128fac1","fixation","img/fixation.png","null","","test","","","","","",""
"255.40000009536743","375491","pSARL_v2","pSARL_v2up7obpvv","5e84bd7c34d5d9072128fac1","freq","img/green_2bandit_a2.png","70","70","test","1","80","80","4","",""
"null","376045","pSARL_v2","pSARL_v2up7obpvv","5e84bd7c34d5d9072128fac1","freq_resp","img/green_2bandit_a.png","70","70","test","","","","4","",""
"null","376201","pSARL_v2","pSARL_v2up7obpvv","5e84bd7c34d5d9072128fac1","fixation","img/fixation.png","null","","test","","","","","",""
"213.29999995231628","376417","pSARL_v2","pSARL_v2up7obpvv","5e84bd7c34d5d9072128fac1","freq","img/green_2bandit_a2.png","70","70","test","1","81","81","4","",""
"null","377006","pSARL_v2","pSARL_v2up7obpvv","5e84bd7c34d5d9072128fac1","freq_resp","img/green_2bandit_a.png","70","70","test","","","","4","",""
"null","377160","pSARL_v2","pSARL_v2up7obpvv","5e84bd7c34d5d9072128fac1","fixation","img/fixation.png","null","","test","","","","","",""
"248.39999985694885","377411","pSARL_v2","pSARL_v2up7obpvv","5e84bd7c34d5d9072128fac1","freq","img/green_2bandit_a2.png","70","70","test","1","82","82","4","",""
"null","377970","pSARL_v2","pSARL_v2up7obpvv","5e84bd7c34d5d9072128fac1","freq_resp","img/green_2bandit_a.png","70","70","test","","","","4","",""
"null","378125","pSARL_v2","pSARL_v2up7obpvv","5e84bd7c34d5d9072128fac1","fixation","img/fixation.png","null","","test","","","","","",""
"240.20000004768372","378367","pSARL_v2","pSARL_v2up7obpvv","5e84bd7c34d5d9072128fac1","freq","img/green_2bandit_a2.png","70","70","test","1","83","83","4","",""
"null","378935","pSARL_v2","pSARL_v2up7obpvv","5e84bd7c34d5d9072128fac1","freq_resp","img/green_2bandit_a.png","70","70","test","","","","4","",""
"null","379089","pSARL_v2","pSARL_v2up7obpvv","5e84bd7c34d5d9072128fac1","fixation","img/fixation.png","null","","test","","","","","",""
"242","379333","pSARL_v2","pSARL_v2up7obpvv","5e84bd7c34d5d9072128fac1","freq","img/green_2bandit_a2.png","70","70","test","1","84","84","4","",""
"null","379904","pSARL_v2","pSARL_v2up7obpvv","5e84bd7c34d5d9072128fac1","freq_resp","img/green_2bandit_a.png","70","70","test","","","","4","",""
"null","380058","pSARL_v2","pSARL_v2up7obpvv","5e84bd7c34d5d9072128fac1","fixation","img/fixation.png","null","","test","","","","","",""
"245.09999990463257","380305","pSARL_v2","pSARL_v2up7obpvv","5e84bd7c34d5d9072128fac1","freq","img/green_2bandit_a2.png","70","70","test","1","85","85","4","",""
"null","380867","pSARL_v2","pSARL_v2up7obpvv","5e84bd7c34d5d9072128fac1","freq_resp","img/green_2bandit_a.png","70","70","test","","","","4","",""
"null","381023","pSARL_v2","pSARL_v2up7obpvv","5e84bd7c34d5d9072128fac1","fixation","img/fixation.png","null","","test","","","","","",""
"251.20000004768372","381276","pSARL_v2","pSARL_v2up7obpvv","5e84bd7c34d5d9072128fac1","freq","img/green_2bandit_a2.png","70","70","test","1","86","86","4","",""
"null","381830","pSARL_v2","pSARL_v2up7obpvv","5e84bd7c34d5d9072128fac1","freq_resp","img/green_2bandit_a.png","70","70","test","","","","4","",""
"null","381983","pSARL_v2","pSARL_v2up7obpvv","5e84bd7c34d5d9072128fac1","fixation","img/fixation.png","null","","test","","","","","",""
"383.40000009536743","382369","pSARL_v2","pSARL_v2up7obpvv","5e84bd7c34d5d9072128fac1","infreq","img/orange_2bandit_a2.png","70","68","test","0","87","87","4","",""
"null","382789","pSARL_v2","pSARL_v2up7obpvv","5e84bd7c34d5d9072128fac1","infreq_resp","img/orange_2bandit_a.png","70","68","test","","","","4","",""
"null","382943","pSARL_v2","pSARL_v2up7obpvv","5e84bd7c34d5d9072128fac1","fixation","img/fixation.png","null","","test","","","","","",""
"311.5","383257","pSARL_v2","pSARL_v2up7obpvv","5e84bd7c34d5d9072128fac1","freq","img/green_2bandit_a2.png","70","70","test","1","88","88","4","",""
"null","383748","pSARL_v2","pSARL_v2up7obpvv","5e84bd7c34d5d9072128fac1","freq_resp","img/green_2bandit_a.png","70","70","test","","","","4","",""
"null","383903","pSARL_v2","pSARL_v2up7obpvv","5e84bd7c34d5d9072128fac1","fixation","img/fixation.png","null","","test","","","","","",""
"277.7999999523163","384183","pSARL_v2","pSARL_v2up7obpvv","5e84bd7c34d5d9072128fac1","freq","img/green_2bandit_a2.png","70","70","test","1","89","89","4","",""
"null","384708","pSARL_v2","pSARL_v2up7obpvv","5e84bd7c34d5d9072128fac1","freq_resp","img/green_2bandit_a.png","70","70","test","","","","4","",""
"null","384862","pSARL_v2","pSARL_v2up7obpvv","5e84bd7c34d5d9072128fac1","fixation","img/fixation.png","null","","test","","","","","",""
"392.2000000476837","385257","pSARL_v2","pSARL_v2up7obpvv","5e84bd7c34d5d9072128fac1","reward","img/slot.png","74","","test","","","","","",""
"null","386014","pSARL_v2","pSARL_v2up7obpvv","5e84bd7c34d5d9072128fac1","points","<div class=""verylowPoints""> -3 </div>","null","na","test","","","","4","-3","3"
"400.10000014305115","386417","pSARL_v2","pSARL_v2up7obpvv","5e84bd7c34d5d9072128fac1","freq","img/green_2bandit_a2.png","70","70","test","1","90","90","5","",""
"null","386832","pSARL_v2","pSARL_v2up7obpvv","5e84bd7c34d5d9072128fac1","freq_resp","img/green_2bandit_a.png","70","70","test","","","","5","",""
"null","386991","pSARL_v2","pSARL_v2up7obpvv","5e84bd7c34d5d9072128fac1","fixation","img/fixation.png","null","","test","","","","","",""
"255.20000004768372","387249","pSARL_v2","pSARL_v2up7obpvv","5e84bd7c34d5d9072128fac1","freq","img/green_2bandit_a2.png","70","70","test","1","91","91","5","",""
"null","387806","pSARL_v2","pSARL_v2up7obpvv","5e84bd7c34d5d9072128fac1","freq_resp","img/green_2bandit_a.png","70","70","test","","","","5","",""
"null","387962","pSARL_v2","pSARL_v2up7obpvv","5e84bd7c34d5d9072128fac1","fixation","img/fixation.png","null","","test","","","","","",""
"234.79999995231628","388199","pSARL_v2","pSARL_v2up7obpvv","5e84bd7c34d5d9072128fac1","freq","img/green_2bandit_a2.png","70","70","test","1","92","92","5","",""
"null","388775","pSARL_v2","pSARL_v2up7obpvv","5e84bd7c34d5d9072128fac1","freq_resp","img/green_2bandit_a.png","70","70","test","","","","5","",""
"null","388930","pSARL_v2","pSARL_v2up7obpvv","5e84bd7c34d5d9072128fac1","fixation","img/fixation.png","null","","test","","","","","",""
"244.39999985694885","389177","pSARL_v2","pSARL_v2up7obpvv","5e84bd7c34d5d9072128fac1","freq","img/green_2bandit_a2.png","70","70","test","1","93","93","5","",""
"null","389739","pSARL_v2","pSARL_v2up7obpvv","5e84bd7c34d5d9072128fac1","freq_resp","img/green_2bandit_a.png","70","70","test","","","","5","",""
"null","389896","pSARL_v2","pSARL_v2up7obpvv","5e84bd7c34d5d9072128fac1","fixation","img/fixation.png","null","","test","","","","","",""
"222.10000014305115","390120","pSARL_v2","pSARL_v2up7obpvv","5e84bd7c34d5d9072128fac1","freq","img/green_2bandit_a2.png","70","70","test","1","94","94","5","",""
"null","390700","pSARL_v2","pSARL_v2up7obpvv","5e84bd7c34d5d9072128fac1","freq_resp","img/green_2bandit_a.png","70","70","test","","","","5","",""
"null","390855","pSARL_v2","pSARL_v2up7obpvv","5e84bd7c34d5d9072128fac1","fixation","img/fixation.png","null","","test","","","","","",""
"255.79999995231628","391113","pSARL_v2","pSARL_v2up7obpvv","5e84bd7c34d5d9072128fac1","freq","img/green_2bandit_a2.png","70","70","test","1","95","95","5","",""
"null","391674","pSARL_v2","pSARL_v2up7obpvv","5e84bd7c34d5d9072128fac1","freq_resp","img/green_2bandit_a.png","70","70","test","","","","5","",""
"null","391830","pSARL_v2","pSARL_v2up7obpvv","5e84bd7c34d5d9072128fac1","fixation","img/fixation.png","null","","test","","","","","",""
"274.39999985694885","392106","pSARL_v2","pSARL_v2up7obpvv","5e84bd7c34d5d9072128fac1","freq","img/green_2bandit_a2.png","70","70","test","1","96","96","5","",""
"null","392642","pSARL_v2","pSARL_v2up7obpvv","5e84bd7c34d5d9072128fac1","freq_resp","img/green_2bandit_a.png","70","70","test","","","","5","",""
"null","392795","pSARL_v2","pSARL_v2up7obpvv","5e84bd7c34d5d9072128fac1","fixation","img/fixation.png","null","","test","","","","","",""
"239","393037","pSARL_v2","pSARL_v2up7obpvv","5e84bd7c34d5d9072128fac1","freq","img/green_2bandit_a2.png","70","70","test","1","97","97","5","",""
"null","393614","pSARL_v2","pSARL_v2up7obpvv","5e84bd7c34d5d9072128fac1","freq_resp","img/green_2bandit_a.png","70","70","test","","","","5","",""
"null","393769","pSARL_v2","pSARL_v2up7obpvv","5e84bd7c34d5d9072128fac1","fixation","img/fixation.png","null","","test","","","","","",""
"259.5","394030","pSARL_v2","pSARL_v2up7obpvv","5e84bd7c34d5d9072128fac1","freq","img/green_2bandit_a2.png","70","70","test","1","98","98","5","",""
"null","394578","pSARL_v2","pSARL_v2up7obpvv","5e84bd7c34d5d9072128fac1","freq_resp","img/green_2bandit_a.png","70","70","test","","","","5","",""
"null","394734","pSARL_v2","pSARL_v2up7obpvv","5e84bd7c34d5d9072128fac1","fixation","img/fixation.png","null","","test","","","","","",""
"284.7000000476837","395020","pSARL_v2","pSARL_v2up7obpvv","5e84bd7c34d5d9072128fac1","freq","img/green_2bandit_a2.png","70","70","test","1","99","99","5","",""
"null","395542","pSARL_v2","pSARL_v2up7obpvv","5e84bd7c34d5d9072128fac1","freq_resp","img/green_2bandit_a.png","70","70","test","","","","5","",""
"null","395697","pSARL_v2","pSARL_v2up7obpvv","5e84bd7c34d5d9072128fac1","fixation","img/fixation.png","null","","test","","","","","",""
"299.2999999523163","395999","pSARL_v2","pSARL_v2up7obpvv","5e84bd7c34d5d9072128fac1","freq","img/green_2bandit_a2.png","70","70","test","1","100","100","5","",""
"null","396507","pSARL_v2","pSARL_v2up7obpvv","5e84bd7c34d5d9072128fac1","freq_resp","img/green_2bandit_a.png","70","70","test","","","","5","",""
"null","396661","pSARL_v2","pSARL_v2up7obpvv","5e84bd7c34d5d9072128fac1","fixation","img/fixation.png","null","","test","","","","","",""
"311.2000000476837","396975","pSARL_v2","pSARL_v2up7obpvv","5e84bd7c34d5d9072128fac1","freq","img/green_2bandit_a2.png","70","70","test","1","101","101","5","",""
"null","397468","pSARL_v2","pSARL_v2up7obpvv","5e84bd7c34d5d9072128fac1","freq_resp","img/green_2bandit_a.png","70","70","test","","","","5","",""
"null","397623","pSARL_v2","pSARL_v2up7obpvv","5e84bd7c34d5d9072128fac1","fixation","img/fixation.png","null","","test","","","","","",""
"331.7999999523163","397956","pSARL_v2","pSARL_v2up7obpvv","5e84bd7c34d5d9072128fac1","infreq","img/orange_2bandit_a2.png","68","68","test","1","102","102","5","",""
"null","398430","pSARL_v2","pSARL_v2up7obpvv","5e84bd7c34d5d9072128fac1","infreq_resp","img/orange_2bandit_a.png","68","68","test","","","","5","",""
"null","398584","pSARL_v2","pSARL_v2up7obpvv","5e84bd7c34d5d9072128fac1","fixation","img/fixation.png","null","","test","","","","","",""
"312.2000000476837","398898","pSARL_v2","pSARL_v2up7obpvv","5e84bd7c34d5d9072128fac1","freq","img/green_2bandit_a2.png","70","70","test","1","103","103","5","",""
"null","399392","pSARL_v2","pSARL_v2up7obpvv","5e84bd7c34d5d9072128fac1","freq_resp","img/green_2bandit_a.png","70","70","test","","","","5","",""
"null","399549","pSARL_v2","pSARL_v2up7obpvv","5e84bd7c34d5d9072128fac1","fixation","img/fixation.png","null","","test","","","","","",""
"299.2000000476837","399850","pSARL_v2","pSARL_v2up7obpvv","5e84bd7c34d5d9072128fac1","freq","img/green_2bandit_a2.png","70","70","test","1","104","104","5","",""
"null","400363","pSARL_v2","pSARL_v2up7obpvv","5e84bd7c34d5d9072128fac1","freq_resp","img/green_2bandit_a.png","70","70","test","","","","5","",""
"null","400524","pSARL_v2","pSARL_v2up7obpvv","5e84bd7c34d5d9072128fac1","fixation","img/fixation.png","null","","test","","","","","",""
"364.10000014305115","400890","pSARL_v2","pSARL_v2up7obpvv","5e84bd7c34d5d9072128fac1","freq","img/green_2bandit_a2.png","70","70","test","1","105","105","5","",""
"null","401332","pSARL_v2","pSARL_v2up7obpvv","5e84bd7c34d5d9072128fac1","freq_resp","img/green_2bandit_a.png","70","70","test","","","","5","",""
"null","401499","pSARL_v2","pSARL_v2up7obpvv","5e84bd7c34d5d9072128fac1","fixation","img/fixation.png","null","","test","","","","","",""
"425.2000000476837","401926","pSARL_v2","pSARL_v2up7obpvv","5e84bd7c34d5d9072128fac1","freq","img/green_2bandit_a2.png","70","70","test","1","106","106","5","",""
"null","402312","pSARL_v2","pSARL_v2up7obpvv","5e84bd7c34d5d9072128fac1","freq_resp","img/green_2bandit_a.png","70","70","test","","","","5","",""
"null","402465","pSARL_v2","pSARL_v2up7obpvv","5e84bd7c34d5d9072128fac1","fixation","img/fixation.png","null","","test","","","","","",""
"289.09999990463257","402756","pSARL_v2","pSARL_v2up7obpvv","5e84bd7c34d5d9072128fac1","freq","img/green_2bandit_a2.png","70","70","test","1","107","107","5","",""
"null","403272","pSARL_v2","pSARL_v2up7obpvv","5e84bd7c34d5d9072128fac1","freq_resp","img/green_2bandit_a.png","70","70","test","","","","5","",""
"null","403426","pSARL_v2","pSARL_v2up7obpvv","5e84bd7c34d5d9072128fac1","fixation","img/fixation.png","null","","test","","","","","",""
"294.69999980926514","403722","pSARL_v2","pSARL_v2up7obpvv","5e84bd7c34d5d9072128fac1","freq","img/green_2bandit_a2.png","70","70","test","1","108","108","5","",""
"null","404234","pSARL_v2","pSARL_v2up7obpvv","5e84bd7c34d5d9072128fac1","freq_resp","img/green_2bandit_a.png","70","70","test","","","","5","",""
"null","404388","pSARL_v2","pSARL_v2up7obpvv","5e84bd7c34d5d9072128fac1","fixation","img/fixation.png","null","","test","","","","","",""
"322.09999990463257","404712","pSARL_v2","pSARL_v2up7obpvv","5e84bd7c34d5d9072128fac1","freq","img/green_2bandit_a2.png","70","70","test","1","109","109","5","",""
"null","405197","pSARL_v2","pSARL_v2up7obpvv","5e84bd7c34d5d9072128fac1","freq_resp","img/green_2bandit_a.png","70","70","test","","","","5","",""
"null","405352","pSARL_v2","pSARL_v2up7obpvv","5e84bd7c34d5d9072128fac1","fixation","img/fixation.png","null","","test","","","","","",""
"270.7000000476837","405624","pSARL_v2","pSARL_v2up7obpvv","5e84bd7c34d5d9072128fac1","freq","img/green_2bandit_a2.png","70","70","test","1","110","110","5","",""
"null","406167","pSARL_v2","pSARL_v2up7obpvv","5e84bd7c34d5d9072128fac1","freq_resp","img/green_2bandit_a.png","70","70","test","","","","5","",""
"null","406322","pSARL_v2","pSARL_v2up7obpvv","5e84bd7c34d5d9072128fac1","fixation","img/fixation.png","null","","test","","","","","",""
"220.59999990463257","406544","pSARL_v2","pSARL_v2up7obpvv","5e84bd7c34d5d9072128fac1","freq","img/green_2bandit_a2.png","70","70","test","1","111","111","5","",""
"null","407128","pSARL_v2","pSARL_v2up7obpvv","5e84bd7c34d5d9072128fac1","freq_resp","img/green_2bandit_a.png","70","70","test","","","","5","",""
"null","407283","pSARL_v2","pSARL_v2up7obpvv","5e84bd7c34d5d9072128fac1","fixation","img/fixation.png","null","","test","","","","","",""
"257.7999999523163","407542","pSARL_v2","pSARL_v2up7obpvv","5e84bd7c34d5d9072128fac1","freq","img/green_2bandit_a2.png","70","70","test","1","112","112","5","",""
"null","408101","pSARL_v2","pSARL_v2up7obpvv","5e84bd7c34d5d9072128fac1","freq_resp","img/green_2bandit_a.png","70","70","test","","","","5","",""
"null","408258","pSARL_v2","pSARL_v2up7obpvv","5e84bd7c34d5d9072128fac1","fixation","img/fixation.png","null","","test","","","","","",""
"342.40000009536743","408602","pSARL_v2","pSARL_v2up7obpvv","5e84bd7c34d5d9072128fac1","infreq","img/orange_2bandit_a2.png","68","68","test","1","113","113","5","",""
"null","409068","pSARL_v2","pSARL_v2up7obpvv","5e84bd7c34d5d9072128fac1","infreq_resp","img/orange_2bandit_a.png","68","68","test","","","","5","",""
"null","409223","pSARL_v2","pSARL_v2up7obpvv","5e84bd7c34d5d9072128fac1","fixation","img/fixation.png","null","","test","","","","","",""
"327.69999980926514","409552","pSARL_v2","pSARL_v2up7obpvv","5e84bd7c34d5d9072128fac1","freq","img/green_2bandit_a2.png","70","70","test","1","114","114","5","",""
"null","410030","pSARL_v2","pSARL_v2up7obpvv","5e84bd7c34d5d9072128fac1","freq_resp","img/green_2bandit_a.png","70","70","test","","","","5","",""
"null","410185","pSARL_v2","pSARL_v2up7obpvv","5e84bd7c34d5d9072128fac1","fixation","img/fixation.png","null","","test","","","","","",""
"418.7999999523163","410606","pSARL_v2","pSARL_v2up7obpvv","5e84bd7c34d5d9072128fac1","reward","img/slot.png","74","","test","","","","","",""
"null","411370","pSARL_v2","pSARL_v2up7obpvv","5e84bd7c34d5d9072128fac1","points","<div class=""veryhighPoints""> +1 </div>","null","na","test","","","","5","1","4"
"471.7999999523163","411844","pSARL_v2","pSARL_v2up7obpvv","5e84bd7c34d5d9072128fac1","freq","img/green_2bandit_a2.png","70","70","test","1","115","115","6","",""
"null","412177","pSARL_v2","pSARL_v2up7obpvv","5e84bd7c34d5d9072128fac1","freq_resp","img/green_2bandit_a.png","70","70","test","","","","6","",""
"null","412336","pSARL_v2","pSARL_v2up7obpvv","5e84bd7c34d5d9072128fac1","fixation","img/fixation.png","null","","test","","","","","",""
"436.39999985694885","412774","pSARL_v2","pSARL_v2up7obpvv","5e84bd7c34d5d9072128fac1","infreq","img/orange_2bandit_a2.png","68","68","test","1","116","116","6","",""
"null","413147","pSARL_v2","pSARL_v2up7obpvv","5e84bd7c34d5d9072128fac1","infreq_resp","img/orange_2bandit_a.png","68","68","test","","","","6","",""
"null","413307","pSARL_v2","pSARL_v2up7obpvv","5e84bd7c34d5d9072128fac1","fixation","img/fixation.png","null","","test","","","","","",""
"387.59999990463257","413696","pSARL_v2","pSARL_v2up7obpvv","5e84bd7c34d5d9072128fac1","freq","img/green_2bandit_a2.png","70","70","test","1","117","117","6","",""
"null","414117","pSARL_v2","pSARL_v2up7obpvv","5e84bd7c34d5d9072128fac1","freq_resp","img/green_2bandit_a.png","70","70","test","","","","6","",""
"null","414274","pSARL_v2","pSARL_v2up7obpvv","5e84bd7c34d5d9072128fac1","fixation","img/fixation.png","null","","test","","","","","",""
"230.59999990463257","414506","pSARL_v2","pSARL_v2up7obpvv","5e84bd7c34d5d9072128fac1","freq","img/green_2bandit_a2.png","70","70","test","1","118","118","6","",""
"null","415078","pSARL_v2","pSARL_v2up7obpvv","5e84bd7c34d5d9072128fac1","freq_resp","img/green_2bandit_a.png","70","70","test","","","","6","",""
"null","415236","pSARL_v2","pSARL_v2up7obpvv","5e84bd7c34d5d9072128fac1","fixation","img/fixation.png","null","","test","","","","","",""
"252.69999980926514","415491","pSARL_v2","pSARL_v2up7obpvv","5e84bd7c34d5d9072128fac1","freq","img/green_2bandit_a2.png","70","70","test","1","119","119","6","",""
"null","416054","pSARL_v2","pSARL_v2up7obpvv","5e84bd7c34d5d9072128fac1","freq_resp","img/green_2bandit_a.png","70","70","test","","","","6","",""
"null","416208","pSARL_v2","pSARL_v2up7obpvv","5e84bd7c34d5d9072128fac1","fixation","img/fixation.png","null","","test","","","","","",""
"208.5","416419","pSARL_v2","pSARL_v2up7obpvv","5e84bd7c34d5d9072128fac1","freq","img/green_2bandit_a2.png","70","70","test","1","120","120","6","",""
"null","417016","pSARL_v2","pSARL_v2up7obpvv","5e84bd7c34d5d9072128fac1","freq_resp","img/green_2bandit_a.png","70","70","test","","","","6","",""
"null","417172","pSARL_v2","pSARL_v2up7obpvv","5e84bd7c34d5d9072128fac1","fixation","img/fixation.png","null","","test","","","","","",""
"106.79999995231628","417281","pSARL_v2","pSARL_v2up7obpvv","5e84bd7c34d5d9072128fac1","freq","img/green_2bandit_a2.png","70","70","test","1","121","121","6","",""
"null","417991","pSARL_v2","pSARL_v2up7obpvv","5e84bd7c34d5d9072128fac1","freq_resp","img/green_2bandit_a.png","70","70","test","","","","6","",""
"null","418146","pSARL_v2","pSARL_v2up7obpvv","5e84bd7c34d5d9072128fac1","fixation","img/fixation.png","null","","test","","","","","",""
"214.5","418363","pSARL_v2","pSARL_v2up7obpvv","5e84bd7c34d5d9072128fac1","freq","img/green_2bandit_a2.png","70","70","test","1","122","122","6","",""
"null","418963","pSARL_v2","pSARL_v2up7obpvv","5e84bd7c34d5d9072128fac1","freq_resp","img/green_2bandit_a.png","70","70","test","","","","6","",""
"null","419118","pSARL_v2","pSARL_v2up7obpvv","5e84bd7c34d5d9072128fac1","fixation","img/fixation.png","null","","test","","","","","",""
"242.79999995231628","419363","pSARL_v2","pSARL_v2up7obpvv","5e84bd7c34d5d9072128fac1","freq","img/green_2bandit_a2.png","70","70","test","1","123","123","6","",""
"null","419926","pSARL_v2","pSARL_v2up7obpvv","5e84bd7c34d5d9072128fac1","freq_resp","img/green_2bandit_a.png","70","70","test","","","","6","",""
"null","420082","pSARL_v2","pSARL_v2up7obpvv","5e84bd7c34d5d9072128fac1","fixation","img/fixation.png","null","","test","","","","","",""
"204.5","420289","pSARL_v2","pSARL_v2up7obpvv","5e84bd7c34d5d9072128fac1","freq","img/green_2bandit_a2.png","70","70","test","1","124","124","6","",""
"null","420889","pSARL_v2","pSARL_v2up7obpvv","5e84bd7c34d5d9072128fac1","freq_resp","img/green_2bandit_a.png","70","70","test","","","","6","",""
"null","421043","pSARL_v2","pSARL_v2up7obpvv","5e84bd7c34d5d9072128fac1","fixation","img/fixation.png","null","","test","","","","","",""
"null","421851","pSARL_v2","pSARL_v2up7obpvv","5e84bd7c34d5d9072128fac1","infreq","img/orange_2bandit_a2.png","null","68","test","0","125","125","6","",""
"null","422004","pSARL_v2","pSARL_v2up7obpvv","5e84bd7c34d5d9072128fac1","fixation","img/fixation.png","null","","test","","","","","",""
"null","422807","pSARL_v2","pSARL_v2up7obpvv","5e84bd7c34d5d9072128fac1","freq","img/green_2bandit_a2.png","null","70","test","0","126","126","6","",""
"null","422962","pSARL_v2","pSARL_v2up7obpvv","5e84bd7c34d5d9072128fac1","fixation","img/fixation.png","null","","test","","","","","",""
"424.7999999523163","423389","pSARL_v2","pSARL_v2up7obpvv","5e84bd7c34d5d9072128fac1","infreq","img/orange_2bandit_a2.png","68","68","test","1","127","127","6","",""
"null","423773","pSARL_v2","pSARL_v2up7obpvv","5e84bd7c34d5d9072128fac1","infreq_resp","img/orange_2bandit_a.png","68","68","test","","","","6","",""
"null","423935","pSARL_v2","pSARL_v2up7obpvv","5e84bd7c34d5d9072128fac1","fixation","img/fixation.png","null","","test","","","","","",""
"316.2999999523163","424253","pSARL_v2","pSARL_v2up7obpvv","5e84bd7c34d5d9072128fac1","freq","img/green_2bandit_a2.png","70","70","test","1","128","128","6","",""
"null","424744","pSARL_v2","pSARL_v2up7obpvv","5e84bd7c34d5d9072128fac1","freq_resp","img/green_2bandit_a.png","70","70","test","","","","6","",""
"null","424898","pSARL_v2","pSARL_v2up7obpvv","5e84bd7c34d5d9072128fac1","fixation","img/fixation.png","null","","test","","","","","",""
"360.90000009536743","425261","pSARL_v2","pSARL_v2up7obpvv","5e84bd7c34d5d9072128fac1","freq","img/green_2bandit_a2.png","70","70","test","1","129","129","6","",""
"null","425712","pSARL_v2","pSARL_v2up7obpvv","5e84bd7c34d5d9072128fac1","freq_resp","img/green_2bandit_a.png","70","70","test","","","","6","",""
"null","425868","pSARL_v2","pSARL_v2up7obpvv","5e84bd7c34d5d9072128fac1","fixation","img/fixation.png","null","","test","","","","","",""
"291","426161","pSARL_v2","pSARL_v2up7obpvv","5e84bd7c34d5d9072128fac1","freq","img/green_2bandit_a2.png","70","70","test","1","130","130","6","",""
"null","426685","pSARL_v2","pSARL_v2up7obpvv","5e84bd7c34d5d9072128fac1","freq_resp","img/green_2bandit_a.png","70","70","test","","","","6","",""
"null","426842","pSARL_v2","pSARL_v2up7obpvv","5e84bd7c34d5d9072128fac1","fixation","img/fixation.png","null","","test","","","","","",""
"240.90000009536743","427085","pSARL_v2","pSARL_v2up7obpvv","5e84bd7c34d5d9072128fac1","freq","img/green_2bandit_a2.png","70","70","test","1","131","131","6","",""
"null","427661","pSARL_v2","pSARL_v2up7obpvv","5e84bd7c34d5d9072128fac1","freq_resp","img/green_2bandit_a.png","70","70","test","","","","6","",""
"null","427815","pSARL_v2","pSARL_v2up7obpvv","5e84bd7c34d5d9072128fac1","fixation","img/fixation.png","null","","test","","","","","",""
"247.70000004768372","428065","pSARL_v2","pSARL_v2up7obpvv","5e84bd7c34d5d9072128fac1","freq","img/green_2bandit_a2.png","70","70","test","1","132","132","6","",""
"null","428620","pSARL_v2","pSARL_v2up7obpvv","5e84bd7c34d5d9072128fac1","freq_resp","img/green_2bandit_a.png","70","70","test","","","","6","",""
"null","428774","pSARL_v2","pSARL_v2up7obpvv","5e84bd7c34d5d9072128fac1","fixation","img/fixation.png","null","","test","","","","","",""
"250.80000019073486","429027","pSARL_v2","pSARL_v2up7obpvv","5e84bd7c34d5d9072128fac1","freq","img/green_2bandit_a2.png","70","70","test","1","133","133","6","",""
"null","429579","pSARL_v2","pSARL_v2up7obpvv","5e84bd7c34d5d9072128fac1","freq_resp","img/green_2bandit_a.png","70","70","test","","","","6","",""
"null","429735","pSARL_v2","pSARL_v2up7obpvv","5e84bd7c34d5d9072128fac1","fixation","img/fixation.png","null","","test","","","","","",""
"242.09999990463257","429979","pSARL_v2","pSARL_v2up7obpvv","5e84bd7c34d5d9072128fac1","freq","img/green_2bandit_a2.png","70","70","test","1","134","134","6","",""
"null","430540","pSARL_v2","pSARL_v2up7obpvv","5e84bd7c34d5d9072128fac1","freq_resp","img/green_2bandit_a.png","70","70","test","","","","6","",""
"null","430695","pSARL_v2","pSARL_v2up7obpvv","5e84bd7c34d5d9072128fac1","fixation","img/fixation.png","null","","test","","","","","",""
"239.29999995231628","430936","pSARL_v2","pSARL_v2up7obpvv","5e84bd7c34d5d9072128fac1","freq","img/green_2bandit_a2.png","70","70","test","1","135","135","6","",""
"null","431500","pSARL_v2","pSARL_v2up7obpvv","5e84bd7c34d5d9072128fac1","freq_resp","img/green_2bandit_a.png","70","70","test","","","","6","",""
"null","431657","pSARL_v2","pSARL_v2up7obpvv","5e84bd7c34d5d9072128fac1","fixation","img/fixation.png","null","","test","","","","","",""
"278.2000000476837","431937","pSARL_v2","pSARL_v2up7obpvv","5e84bd7c34d5d9072128fac1","freq","img/green_2bandit_a2.png","70","70","test","1","136","136","6","",""
"null","432473","pSARL_v2","pSARL_v2up7obpvv","5e84bd7c34d5d9072128fac1","freq_resp","img/green_2bandit_a.png","70","70","test","","","","6","",""
"null","432630","pSARL_v2","pSARL_v2up7obpvv","5e84bd7c34d5d9072128fac1","fixation","img/fixation.png","null","","test","","","","","",""
"238.5","432871","pSARL_v2","pSARL_v2up7obpvv","5e84bd7c34d5d9072128fac1","freq","img/green_2bandit_a2.png","70","70","test","1","137","137","6","",""
"null","433437","pSARL_v2","pSARL_v2up7obpvv","5e84bd7c34d5d9072128fac1","freq_resp","img/green_2bandit_a.png","70","70","test","","","","6","",""
"null","433592","pSARL_v2","pSARL_v2up7obpvv","5e84bd7c34d5d9072128fac1","fixation","img/fixation.png","null","","test","","","","","",""
"344.59999990463257","433938","pSARL_v2","pSARL_v2up7obpvv","5e84bd7c34d5d9072128fac1","freq","img/green_2bandit_a2.png","70","70","test","1","138","138","6","",""
"null","434397","pSARL_v2","pSARL_v2up7obpvv","5e84bd7c34d5d9072128fac1","freq_resp","img/green_2bandit_a.png","70","70","test","","","","6","",""
"null","434550","pSARL_v2","pSARL_v2up7obpvv","5e84bd7c34d5d9072128fac1","fixation","img/fixation.png","null","","test","","","","","",""
"420.59999990463257","434973","pSARL_v2","pSARL_v2up7obpvv","5e84bd7c34d5d9072128fac1","reward","img/slot.png","74","","test","","","","","",""
"null","435732","pSARL_v2","pSARL_v2up7obpvv","5e84bd7c34d5d9072128fac1","points","<div class=""verylowPoints""> -7 </div>","null","na","test","","","","6","-7","5"
"384.89999985694885","436119","pSARL_v2","pSARL_v2up7obpvv","5e84bd7c34d5d9072128fac1","freq","img/green_2bandit_a2.png","70","70","test","1","139","139","7","",""
"null","436541","pSARL_v2","pSARL_v2up7obpvv","5e84bd7c34d5d9072128fac1","freq_resp","img/green_2bandit_a.png","70","70","test","","","","7","",""
"null","436696","pSARL_v2","pSARL_v2up7obpvv","5e84bd7c34d5d9072128fac1","fixation","img/fixation.png","null","","test","","","","","",""
"276.89999985694885","436975","pSARL_v2","pSARL_v2up7obpvv","5e84bd7c34d5d9072128fac1","freq","img/green_2bandit_a2.png","70","70","test","1","140","140","7","",""
"null","437505","pSARL_v2","pSARL_v2up7obpvv","5e84bd7c34d5d9072128fac1","freq_resp","img/green_2bandit_a.png","70","70","test","","","","7","",""
"null","437658","pSARL_v2","pSARL_v2up7obpvv","5e84bd7c34d5d9072128fac1","fixation","img/fixation.png","null","","test","","","","","",""
"356.59999990463257","438017","pSARL_v2","pSARL_v2up7obpvv","5e84bd7c34d5d9072128fac1","infreq","img/orange_2bandit_a2.png","68","68","test","1","141","141","7","",""
"null","438465","pSARL_v2","pSARL_v2up7obpvv","5e84bd7c34d5d9072128fac1","infreq_resp","img/orange_2bandit_a.png","68","68","test","","","","7","",""
"null","438618","pSARL_v2","pSARL_v2up7obpvv","5e84bd7c34d5d9072128fac1","fixation","img/fixation.png","null","","test","","","","","",""
"314.09999990463257","438935","pSARL_v2","pSARL_v2up7obpvv","5e84bd7c34d5d9072128fac1","freq","img/green_2bandit_a2.png","70","70","test","1","142","142","7","",""
"null","439424","pSARL_v2","pSARL_v2up7obpvv","5e84bd7c34d5d9072128fac1","freq_resp","img/green_2bandit_a.png","70","70","test","","","","7","",""
"null","439578","pSARL_v2","pSARL_v2up7obpvv","5e84bd7c34d5d9072128fac1","fixation","img/fixation.png","null","","test","","","","","",""
"268.80000019073486","439849","pSARL_v2","pSARL_v2up7obpvv","5e84bd7c34d5d9072128fac1","freq","img/green_2bandit_a2.png","70","70","test","1","143","143","7","",""
"null","440391","pSARL_v2","pSARL_v2up7obpvv","5e84bd7c34d5d9072128fac1","freq_resp","img/green_2bandit_a.png","70","70","test","","","","7","",""
"null","440547","pSARL_v2","pSARL_v2up7obpvv","5e84bd7c34d5d9072128fac1","fixation","img/fixation.png","null","","test","","","","","",""
"285.7000000476837","440834","pSARL_v2","pSARL_v2up7obpvv","5e84bd7c34d5d9072128fac1","freq","img/green_2bandit_a2.png","70","70","test","1","144","144","7","",""
"null","441352","pSARL_v2","pSARL_v2up7obpvv","5e84bd7c34d5d9072128fac1","freq_resp","img/green_2bandit_a.png","70","70","test","","","","7","",""
"null","441507","pSARL_v2","pSARL_v2up7obpvv","5e84bd7c34d5d9072128fac1","fixation","img/fixation.png","null","","test","","","","","",""
"259.90000009536743","441769","pSARL_v2","pSARL_v2up7obpvv","5e84bd7c34d5d9072128fac1","freq","img/green_2bandit_a2.png","70","70","test","1","145","145","7","",""
"null","442315","pSARL_v2","pSARL_v2up7obpvv","5e84bd7c34d5d9072128fac1","freq_resp","img/green_2bandit_a.png","70","70","test","","","","7","",""
"null","442470","pSARL_v2","pSARL_v2up7obpvv","5e84bd7c34d5d9072128fac1","fixation","img/fixation.png","null","","test","","","","","",""
"287","442759","pSARL_v2","pSARL_v2up7obpvv","5e84bd7c34d5d9072128fac1","freq","img/green_2bandit_a2.png","70","70","test","1","146","146","7","",""
"null","443276","pSARL_v2","pSARL_v2up7obpvv","5e84bd7c34d5d9072128fac1","freq_resp","img/green_2bandit_a.png","70","70","test","","","","7","",""
"null","443430","pSARL_v2","pSARL_v2up7obpvv","5e84bd7c34d5d9072128fac1","fixation","img/fixation.png","null","","test","","","","","",""
"268.7999999523163","443701","pSARL_v2","pSARL_v2up7obpvv","5e84bd7c34d5d9072128fac1","freq","img/green_2bandit_a2.png","70","70","test","1","147","147","7","",""
"null","444241","pSARL_v2","pSARL_v2up7obpvv","5e84bd7c34d5d9072128fac1","freq_resp","img/green_2bandit_a.png","70","70","test","","","","7","",""
"null","444404","pSARL_v2","pSARL_v2up7obpvv","5e84bd7c34d5d9072128fac1","fixation","img/fixation.png","null","","test","","","","","",""
"166.5","444573","pSARL_v2","pSARL_v2up7obpvv","5e84bd7c34d5d9072128fac1","freq","img/green_2bandit_a2.png","68","70","test","0","148","148","7","",""
"null","445215","pSARL_v2","pSARL_v2up7obpvv","5e84bd7c34d5d9072128fac1","freq_resp","img/green_2bandit_a.png","68","70","test","","","","7","",""
"null","445382","pSARL_v2","pSARL_v2up7obpvv","5e84bd7c34d5d9072128fac1","fixation","img/fixation.png","null","","test","","","","","",""
"306.40000009536743","445690","pSARL_v2","pSARL_v2up7obpvv","5e84bd7c34d5d9072128fac1","freq","img/green_2bandit_a2.png","70","70","test","1","149","149","7","",""
"null","446191","pSARL_v2","pSARL_v2up7obpvv","5e84bd7c34d5d9072128fac1","freq_resp","img/green_2bandit_a.png","70","70","test","","","","7","",""
"null","446348","pSARL_v2","pSARL_v2up7obpvv","5e84bd7c34d5d9072128fac1","fixation","img/fixation.png","null","","test","","","","","",""
"448.2999999523163","446798","pSARL_v2","pSARL_v2up7obpvv","5e84bd7c34d5d9072128fac1","infreq","img/orange_2bandit_a2.png","68","68","test","1","150","150","7","",""
"null","447155","pSARL_v2","pSARL_v2up7obpvv","5e84bd7c34d5d9072128fac1","infreq_resp","img/orange_2bandit_a.png","68","68","test","","","","7","",""
"null","447310","pSARL_v2","pSARL_v2up7obpvv","5e84bd7c34d5d9072128fac1","fixation","img/fixation.png","null","","test","","","","","",""
"302.2000000476837","447615","pSARL_v2","pSARL_v2up7obpvv","5e84bd7c34d5d9072128fac1","freq","img/green_2bandit_a2.png","70","70","test","1","151","151","7","",""
"null","448118","pSARL_v2","pSARL_v2up7obpvv","5e84bd7c34d5d9072128fac1","freq_resp","img/green_2bandit_a.png","70","70","test","","","","7","",""
"null","448286","pSARL_v2","pSARL_v2up7obpvv","5e84bd7c34d5d9072128fac1","fixation","img/fixation.png","null","","test","","","","","",""
"272.90000009536743","448560","pSARL_v2","pSARL_v2up7obpvv","5e84bd7c34d5d9072128fac1","freq","img/green_2bandit_a2.png","70","70","test","1","152","152","7","",""
"null","449093","pSARL_v2","pSARL_v2up7obpvv","5e84bd7c34d5d9072128fac1","freq_resp","img/green_2bandit_a.png","70","70","test","","","","7","",""
"null","449248","pSARL_v2","pSARL_v2up7obpvv","5e84bd7c34d5d9072128fac1","fixation","img/fixation.png","null","","test","","","","","",""
"254.90000009536743","449504","pSARL_v2","pSARL_v2up7obpvv","5e84bd7c34d5d9072128fac1","freq","img/green_2bandit_a2.png","70","70","test","1","153","153","7","",""
"null","450054","pSARL_v2","pSARL_v2up7obpvv","5e84bd7c34d5d9072128fac1","freq_resp","img/green_2bandit_a.png","70","70","test","","","","7","",""
"null","450210","pSARL_v2","pSARL_v2up7obpvv","5e84bd7c34d5d9072128fac1","fixation","img/fixation.png","null","","test","","","","","",""
"278.90000009536743","450490","pSARL_v2","pSARL_v2up7obpvv","5e84bd7c34d5d9072128fac1","freq","img/green_2bandit_a2.png","70","70","test","1","154","154","7","",""
"null","451016","pSARL_v2","pSARL_v2up7obpvv","5e84bd7c34d5d9072128fac1","freq_resp","img/green_2bandit_a.png","70","70","test","","","","7","",""
"null","451172","pSARL_v2","pSARL_v2up7obpvv","5e84bd7c34d5d9072128fac1","fixation","img/fixation.png","null","","test","","","","","",""
"302.40000009536743","451476","pSARL_v2","pSARL_v2up7obpvv","5e84bd7c34d5d9072128fac1","freq","img/green_2bandit_a2.png","70","70","test","1","155","155","7","",""
"null","451979","pSARL_v2","pSARL_v2up7obpvv","5e84bd7c34d5d9072128fac1","freq_resp","img/green_2bandit_a.png","70","70","test","","","","7","",""
"null","452134","pSARL_v2","pSARL_v2up7obpvv","5e84bd7c34d5d9072128fac1","fixation","img/fixation.png","null","","test","","","","","",""
"266.2999999523163","452402","pSARL_v2","pSARL_v2up7obpvv","5e84bd7c34d5d9072128fac1","freq","img/green_2bandit_a2.png","70","70","test","1","156","156","7","",""
"null","452949","pSARL_v2","pSARL_v2up7obpvv","5e84bd7c34d5d9072128fac1","freq_resp","img/green_2bandit_a.png","70","70","test","","","","7","",""
"null","453105","pSARL_v2","pSARL_v2up7obpvv","5e84bd7c34d5d9072128fac1","fixation","img/fixation.png","null","","test","","","","","",""
"263","453370","pSARL_v2","pSARL_v2up7obpvv","5e84bd7c34d5d9072128fac1","freq","img/green_2bandit_a2.png","70","70","test","1","157","157","7","",""
"null","453912","pSARL_v2","pSARL_v2up7obpvv","5e84bd7c34d5d9072128fac1","freq_resp","img/green_2bandit_a.png","70","70","test","","","","7","",""
"null","454066","pSARL_v2","pSARL_v2up7obpvv","5e84bd7c34d5d9072128fac1","fixation","img/fixation.png","null","","test","","","","","",""
"254.19999980926514","454323","pSARL_v2","pSARL_v2up7obpvv","5e84bd7c34d5d9072128fac1","freq","img/green_2bandit_a2.png","70","70","test","1","158","158","7","",""
"null","454872","pSARL_v2","pSARL_v2up7obpvv","5e84bd7c34d5d9072128fac1","freq_resp","img/green_2bandit_a.png","70","70","test","","","","7","",""
"null","455032","pSARL_v2","pSARL_v2up7obpvv","5e84bd7c34d5d9072128fac1","fixation","img/fixation.png","null","","test","","","","","",""
"354.2999999523163","455388","pSARL_v2","pSARL_v2up7obpvv","5e84bd7c34d5d9072128fac1","freq","img/green_2bandit_a2.png","70","70","test","1","159","159","7","",""
"null","455848","pSARL_v2","pSARL_v2up7obpvv","5e84bd7c34d5d9072128fac1","freq_resp","img/green_2bandit_a.png","70","70","test","","","","7","",""
"null","456009","pSARL_v2","pSARL_v2up7obpvv","5e84bd7c34d5d9072128fac1","fixation","img/fixation.png","null","","test","","","","","",""
"239.09999990463257","456251","pSARL_v2","pSARL_v2up7obpvv","5e84bd7c34d5d9072128fac1","freq","img/green_2bandit_a2.png","70","70","test","1","160","160","7","",""
"null","456816","pSARL_v2","pSARL_v2up7obpvv","5e84bd7c34d5d9072128fac1","freq_resp","img/green_2bandit_a.png","70","70","test","","","","7","",""
"null","456973","pSARL_v2","pSARL_v2up7obpvv","5e84bd7c34d5d9072128fac1","fixation","img/fixation.png","null","","test","","","","","",""
"293","457268","pSARL_v2","pSARL_v2up7obpvv","5e84bd7c34d5d9072128fac1","freq","img/green_2bandit_a2.png","70","70","test","1","161","161","7","",""
"null","457793","pSARL_v2","pSARL_v2up7obpvv","5e84bd7c34d5d9072128fac1","freq_resp","img/green_2bandit_a.png","70","70","test","","","","7","",""
"null","457950","pSARL_v2","pSARL_v2up7obpvv","5e84bd7c34d5d9072128fac1","fixation","img/fixation.png","null","","test","","","","","",""
"252.40000009536743","458204","pSARL_v2","pSARL_v2up7obpvv","5e84bd7c34d5d9072128fac1","freq","img/green_2bandit_a2.png","70","70","test","1","162","162","7","",""
"null","458758","pSARL_v2","pSARL_v2up7obpvv","5e84bd7c34d5d9072128fac1","freq_resp","img/green_2bandit_a.png","70","70","test","","","","7","",""
"null","458912","pSARL_v2","pSARL_v2up7obpvv","5e84bd7c34d5d9072128fac1","fixation","img/fixation.png","null","","test","","","","","",""
"260.09999990463257","459174","pSARL_v2","pSARL_v2up7obpvv","5e84bd7c34d5d9072128fac1","freq","img/green_2bandit_a2.png","70","70","test","1","163","163","7","",""
"null","459716","pSARL_v2","pSARL_v2up7obpvv","5e84bd7c34d5d9072128fac1","freq_resp","img/green_2bandit_a.png","70","70","test","","","","7","",""
"null","459870","pSARL_v2","pSARL_v2up7obpvv","5e84bd7c34d5d9072128fac1","fixation","img/fixation.png","null","","test","","","","","",""
"284.59999990463257","460156","pSARL_v2","pSARL_v2up7obpvv","5e84bd7c34d5d9072128fac1","reward","img/slot.png","74","","test","","","","","",""
"null","460923","pSARL_v2","pSARL_v2up7obpvv","5e84bd7c34d5d9072128fac1","points","<div class=""verylowPoints""> -6 </div>","null","na","test","","","","7","-6","6"
"308.7999999523163","461234","pSARL_v2","pSARL_v2up7obpvv","5e84bd7c34d5d9072128fac1","freq","img/green_2bandit_a2.png","70","70","test","1","164","164","8","",""
"null","461734","pSARL_v2","pSARL_v2up7obpvv","5e84bd7c34d5d9072128fac1","freq_resp","img/green_2bandit_a.png","70","70","test","","","","8","",""
"null","461890","pSARL_v2","pSARL_v2up7obpvv","5e84bd7c34d5d9072128fac1","fixation","img/fixation.png","null","","test","","","","","",""
"248.79999995231628","462140","pSARL_v2","pSARL_v2up7obpvv","5e84bd7c34d5d9072128fac1","freq","img/green_2bandit_a2.png","70","70","test","1","165","165","8","",""
"null","462696","pSARL_v2","pSARL_v2up7obpvv","5e84bd7c34d5d9072128fac1","freq_resp","img/green_2bandit_a.png","70","70","test","","","","8","",""
"null","462850","pSARL_v2","pSARL_v2up7obpvv","5e84bd7c34d5d9072128fac1","fixation","img/fixation.png","null","","test","","","","","",""
"220.29999995231628","463072","pSARL_v2","pSARL_v2up7obpvv","5e84bd7c34d5d9072128fac1","freq","img/green_2bandit_a2.png","70","70","test","1","166","166","8","",""
"null","463656","pSARL_v2","pSARL_v2up7obpvv","5e84bd7c34d5d9072128fac1","freq_resp","img/green_2bandit_a.png","70","70","test","","","","8","",""
"null","463811","pSARL_v2","pSARL_v2up7obpvv","5e84bd7c34d5d9072128fac1","fixation","img/fixation.png","null","","test","","","","","",""
"219.5","464032","pSARL_v2","pSARL_v2up7obpvv","5e84bd7c34d5d9072128fac1","freq","img/green_2bandit_a2.png","70","70","test","1","167","167","8","",""
"null","464617","pSARL_v2","pSARL_v2up7obpvv","5e84bd7c34d5d9072128fac1","freq_resp","img/green_2bandit_a.png","70","70","test","","","","8","",""
"null","464773","pSARL_v2","pSARL_v2up7obpvv","5e84bd7c34d5d9072128fac1","fixation","img/fixation.png","null","","test","","","","","",""
"227.39999985694885","465002","pSARL_v2","pSARL_v2up7obpvv","5e84bd7c34d5d9072128fac1","freq","img/green_2bandit_a2.png","70","70","test","1","168","168","8","",""
"null","465589","pSARL_v2","pSARL_v2up7obpvv","5e84bd7c34d5d9072128fac1","freq_resp","img/green_2bandit_a.png","70","70","test","","","","8","",""
"null","465747","pSARL_v2","pSARL_v2up7obpvv","5e84bd7c34d5d9072128fac1","fixation","img/fixation.png","null","","test","","","","","",""
"233.69999980926514","465982","pSARL_v2","pSARL_v2up7obpvv","5e84bd7c34d5d9072128fac1","freq","img/green_2bandit_a2.png","70","70","test","1","169","169","8","",""
"null","466553","pSARL_v2","pSARL_v2up7obpvv","5e84bd7c34d5d9072128fac1","freq_resp","img/green_2bandit_a.png","70","70","test","","","","8","",""
"null","466710","pSARL_v2","pSARL_v2up7obpvv","5e84bd7c34d5d9072128fac1","fixation","img/fixation.png","null","","test","","","","","",""
"224.40000009536743","466936","pSARL_v2","pSARL_v2up7obpvv","5e84bd7c34d5d9072128fac1","freq","img/green_2bandit_a2.png","70","70","test","1","170","170","8","",""
"null","467527","pSARL_v2","pSARL_v2up7obpvv","5e84bd7c34d5d9072128fac1","freq_resp","img/green_2bandit_a.png","70","70","test","","","","8","",""
"null","467685","pSARL_v2","pSARL_v2up7obpvv","5e84bd7c34d5d9072128fac1","fixation","img/fixation.png","null","","test","","","","","",""
"229.5","467916","pSARL_v2","pSARL_v2up7obpvv","5e84bd7c34d5d9072128fac1","freq","img/green_2bandit_a2.png","70","70","test","1","171","171","8","",""
"null","468500","pSARL_v2","pSARL_v2up7obpvv","5e84bd7c34d5d9072128fac1","freq_resp","img/green_2bandit_a.png","70","70","test","","","","8","",""
"null","468658","pSARL_v2","pSARL_v2up7obpvv","5e84bd7c34d5d9072128fac1","fixation","img/fixation.png","null","","test","","","","","",""
"242.5","468902","pSARL_v2","pSARL_v2up7obpvv","5e84bd7c34d5d9072128fac1","freq","img/green_2bandit_a2.png","70","70","test","1","172","172","8","",""
"null","469477","pSARL_v2","pSARL_v2up7obpvv","5e84bd7c34d5d9072128fac1","freq_resp","img/green_2bandit_a.png","70","70","test","","","","8","",""
"null","469630","pSARL_v2","pSARL_v2up7obpvv","5e84bd7c34d5d9072128fac1","fixation","img/fixation.png","null","","test","","","","","",""
"232.59999990463257","469864","pSARL_v2","pSARL_v2up7obpvv","5e84bd7c34d5d9072128fac1","freq","img/green_2bandit_a2.png","70","70","test","1","173","173","8","",""
"null","470436","pSARL_v2","pSARL_v2up7obpvv","5e84bd7c34d5d9072128fac1","freq_resp","img/green_2bandit_a.png","70","70","test","","","","8","",""
"null","470591","pSARL_v2","pSARL_v2up7obpvv","5e84bd7c34d5d9072128fac1","fixation","img/fixation.png","null","","test","","","","","",""
"356.90000009536743","470950","pSARL_v2","pSARL_v2up7obpvv","5e84bd7c34d5d9072128fac1","infreq","img/orange_2bandit_a2.png","68","68","test","1","174","174","8","",""
"null","471399","pSARL_v2","pSARL_v2up7obpvv","5e84bd7c34d5d9072128fac1","infreq_resp","img/orange_2bandit_a.png","68","68","test","","","","8","",""
"null","471554","pSARL_v2","pSARL_v2up7obpvv","5e84bd7c34d5d9072128fac1","fixation","img/fixation.png","null","","test","","","","","",""
"274.2999999523163","471830","pSARL_v2","pSARL_v2up7obpvv","5e84bd7c34d5d9072128fac1","freq","img/green_2bandit_a2.png","70","70","test","1","175","175","8","",""
"null","472373","pSARL_v2","pSARL_v2up7obpvv","5e84bd7c34d5d9072128fac1","freq_resp","img/green_2bandit_a.png","70","70","test","","","","8","",""
"null","472526","pSARL_v2","pSARL_v2up7obpvv","5e84bd7c34d5d9072128fac1","fixation","img/fixation.png","null","","test","","","","","",""
"286.09999990463257","472814","pSARL_v2","pSARL_v2up7obpvv","5e84bd7c34d5d9072128fac1","freq","img/green_2bandit_a2.png","70","70","test","1","176","176","8","",""
"null","473334","pSARL_v2","pSARL_v2up7obpvv","5e84bd7c34d5d9072128fac1","freq_resp","img/green_2bandit_a.png","70","70","test","","","","8","",""
"null","473489","pSARL_v2","pSARL_v2up7obpvv","5e84bd7c34d5d9072128fac1","fixation","img/fixation.png","null","","test","","","","","",""
"241.20000004768372","473732","pSARL_v2","pSARL_v2up7obpvv","5e84bd7c34d5d9072128fac1","freq","img/green_2bandit_a2.png","70","70","test","1","177","177","8","",""
"null","474303","pSARL_v2","pSARL_v2up7obpvv","5e84bd7c34d5d9072128fac1","freq_resp","img/green_2bandit_a.png","70","70","test","","","","8","",""
"null","474459","pSARL_v2","pSARL_v2up7obpvv","5e84bd7c34d5d9072128fac1","fixation","img/fixation.png","null","","test","","","","","",""
"229.10000014305115","474690","pSARL_v2","pSARL_v2up7obpvv","5e84bd7c34d5d9072128fac1","freq","img/green_2bandit_a2.png","70","70","test","1","178","178","8","",""
"null","475264","pSARL_v2","pSARL_v2up7obpvv","5e84bd7c34d5d9072128fac1","freq_resp","img/green_2bandit_a.png","70","70","test","","","","8","",""
"null","475419","pSARL_v2","pSARL_v2up7obpvv","5e84bd7c34d5d9072128fac1","fixation","img/fixation.png","null","","test","","","","","",""
"239.40000009536743","475659","pSARL_v2","pSARL_v2up7obpvv","5e84bd7c34d5d9072128fac1","freq","img/green_2bandit_a2.png","70","70","test","1","179","179","8","",""
"null","476228","pSARL_v2","pSARL_v2up7obpvv","5e84bd7c34d5d9072128fac1","freq_resp","img/green_2bandit_a.png","70","70","test","","","","8","",""
"null","476383","pSARL_v2","pSARL_v2up7obpvv","5e84bd7c34d5d9072128fac1","fixation","img/fixation.png","null","","test","","","","","",""
"232.5","476618","pSARL_v2","pSARL_v2up7obpvv","5e84bd7c34d5d9072128fac1","freq","img/green_2bandit_a2.png","70","70","test","1","180","180","8","",""
"null","477198","pSARL_v2","pSARL_v2up7obpvv","5e84bd7c34d5d9072128fac1","freq_resp","img/green_2bandit_a.png","70","70","test","","","","8","",""
"null","477352","pSARL_v2","pSARL_v2up7obpvv","5e84bd7c34d5d9072128fac1","fixation","img/fixation.png","null","","test","","","","","",""
"233.09999990463257","477588","pSARL_v2","pSARL_v2up7obpvv","5e84bd7c34d5d9072128fac1","freq","img/green_2bandit_a2.png","70","70","test","1","181","181","8","",""
"null","478163","pSARL_v2","pSARL_v2up7obpvv","5e84bd7c34d5d9072128fac1","freq_resp","img/green_2bandit_a.png","70","70","test","","","","8","",""
"null","478319","pSARL_v2","pSARL_v2up7obpvv","5e84bd7c34d5d9072128fac1","fixation","img/fixation.png","null","","test","","","","","",""
"206.70000004768372","478527","pSARL_v2","pSARL_v2up7obpvv","5e84bd7c34d5d9072128fac1","freq","img/green_2bandit_a2.png","70","70","test","1","182","182","8","",""
"null","479130","pSARL_v2","pSARL_v2up7obpvv","5e84bd7c34d5d9072128fac1","freq_resp","img/green_2bandit_a.png","70","70","test","","","","8","",""
"null","479287","pSARL_v2","pSARL_v2up7obpvv","5e84bd7c34d5d9072128fac1","fixation","img/fixation.png","null","","test","","","","","",""
"367","479655","pSARL_v2","pSARL_v2up7obpvv","5e84bd7c34d5d9072128fac1","freq","img/green_2bandit_a2.png","70","70","test","1","183","183","8","",""
"null","480092","pSARL_v2","pSARL_v2up7obpvv","5e84bd7c34d5d9072128fac1","freq_resp","img/green_2bandit_a.png","70","70","test","","","","8","",""
"null","480248","pSARL_v2","pSARL_v2up7obpvv","5e84bd7c34d5d9072128fac1","fixation","img/fixation.png","null","","test","","","","","",""
"287.39999985694885","480538","pSARL_v2","pSARL_v2up7obpvv","5e84bd7c34d5d9072128fac1","freq","img/green_2bandit_a2.png","70","70","test","1","184","184","8","",""
"null","481066","pSARL_v2","pSARL_v2up7obpvv","5e84bd7c34d5d9072128fac1","freq_resp","img/green_2bandit_a.png","70","70","test","","","","8","",""
"null","481233","pSARL_v2","pSARL_v2up7obpvv","5e84bd7c34d5d9072128fac1","fixation","img/fixation.png","null","","test","","","","","",""
"230.59999990463257","481466","pSARL_v2","pSARL_v2up7obpvv","5e84bd7c34d5d9072128fac1","freq","img/green_2bandit_a2.png","70","70","test","1","185","185","8","",""
"null","482044","pSARL_v2","pSARL_v2up7obpvv","5e84bd7c34d5d9072128fac1","freq_resp","img/green_2bandit_a.png","70","70","test","","","","8","",""
"null","482199","pSARL_v2","pSARL_v2up7obpvv","5e84bd7c34d5d9072128fac1","fixation","img/fixation.png","null","","test","","","","","",""
"348.7000000476837","482549","pSARL_v2","pSARL_v2up7obpvv","5e84bd7c34d5d9072128fac1","infreq","img/orange_2bandit_a2.png","68","68","test","1","186","186","8","",""
"null","483017","pSARL_v2","pSARL_v2up7obpvv","5e84bd7c34d5d9072128fac1","infreq_resp","img/orange_2bandit_a.png","68","68","test","","","","8","",""
"null","483172","pSARL_v2","pSARL_v2up7obpvv","5e84bd7c34d5d9072128fac1","fixation","img/fixation.png","null","","test","","","","","",""
"279.5","483454","pSARL_v2","pSARL_v2up7obpvv","5e84bd7c34d5d9072128fac1","freq","img/green_2bandit_a2.png","70","70","test","1","187","187","8","",""
"null","483988","pSARL_v2","pSARL_v2up7obpvv","5e84bd7c34d5d9072128fac1","freq_resp","img/green_2bandit_a.png","70","70","test","","","","8","",""
"null","484142","pSARL_v2","pSARL_v2up7obpvv","5e84bd7c34d5d9072128fac1","fixation","img/fixation.png","null","","test","","","","","",""
"237.5","484382","pSARL_v2","pSARL_v2up7obpvv","5e84bd7c34d5d9072128fac1","freq","img/green_2bandit_a2.png","70","70","test","1","188","188","8","",""
"null","484955","pSARL_v2","pSARL_v2up7obpvv","5e84bd7c34d5d9072128fac1","freq_resp","img/green_2bandit_a.png","70","70","test","","","","8","",""
"null","485110","pSARL_v2","pSARL_v2up7obpvv","5e84bd7c34d5d9072128fac1","fixation","img/fixation.png","null","","test","","","","","",""
"211","485323","pSARL_v2","pSARL_v2up7obpvv","5e84bd7c34d5d9072128fac1","freq","img/green_2bandit_a2.png","70","70","test","1","189","189","8","",""
"null","485918","pSARL_v2","pSARL_v2up7obpvv","5e84bd7c34d5d9072128fac1","freq_resp","img/green_2bandit_a.png","70","70","test","","","","8","",""
"null","486074","pSARL_v2","pSARL_v2up7obpvv","5e84bd7c34d5d9072128fac1","fixation","img/fixation.png","null","","test","","","","","",""
"277.09999990463257","486353","pSARL_v2","pSARL_v2up7obpvv","5e84bd7c34d5d9072128fac1","reward","img/slot.png","74","","test","","","","","",""
"null","487116","pSARL_v2","pSARL_v2up7obpvv","5e84bd7c34d5d9072128fac1","points","<div class=""verylowPoints""> -4 </div>","null","na","test","","","","8","-4","7"
"261.5","487380","pSARL_v2","pSARL_v2up7obpvv","5e84bd7c34d5d9072128fac1","freq","img/green_2bandit_a2.png","70","70","test","1","190","190","9","",""
"null","487921","pSARL_v2","pSARL_v2up7obpvv","5e84bd7c34d5d9072128fac1","freq_resp","img/green_2bandit_a.png","70","70","test","","","","9","",""
"null","488075","pSARL_v2","pSARL_v2up7obpvv","5e84bd7c34d5d9072128fac1","fixation","img/fixation.png","null","","test","","","","","",""
"234.10000014305115","488311","pSARL_v2","pSARL_v2up7obpvv","5e84bd7c34d5d9072128fac1","freq","img/green_2bandit_a2.png","70","70","test","1","191","191","9","",""
"null","488882","pSARL_v2","pSARL_v2up7obpvv","5e84bd7c34d5d9072128fac1","freq_resp","img/green_2bandit_a.png","70","70","test","","","","9","",""
"null","489036","pSARL_v2","pSARL_v2up7obpvv","5e84bd7c34d5d9072128fac1","fixation","img/fixation.png","null","","test","","","","","",""
"237.79999995231628","489275","pSARL_v2","pSARL_v2up7obpvv","5e84bd7c34d5d9072128fac1","freq","img/green_2bandit_a2.png","70","70","test","1","192","192","9","",""
"null","489850","pSARL_v2","pSARL_v2up7obpvv","5e84bd7c34d5d9072128fac1","freq_resp","img/green_2bandit_a.png","70","70","test","","","","9","",""
"null","490007","pSARL_v2","pSARL_v2up7obpvv","5e84bd7c34d5d9072128fac1","fixation","img/fixation.png","null","","test","","","","","",""
"231","490240","pSARL_v2","pSARL_v2up7obpvv","5e84bd7c34d5d9072128fac1","freq","img/green_2bandit_a2.png","70","70","test","1","193","193","9","",""
"null","490825","pSARL_v2","pSARL_v2up7obpvv","5e84bd7c34d5d9072128fac1","freq_resp","img/green_2bandit_a.png","70","70","test","","","","9","",""
"null","490978","pSARL_v2","pSARL_v2up7obpvv","5e84bd7c34d5d9072128fac1","fixation","img/fixation.png","null","","test","","","","","",""
"240.79999995231628","491221","pSARL_v2","pSARL_v2up7obpvv","5e84bd7c34d5d9072128fac1","freq","img/green_2bandit_a2.png","70","70","test","1","194","194","9","",""
"null","491784","pSARL_v2","pSARL_v2up7obpvv","5e84bd7c34d5d9072128fac1","freq_resp","img/green_2bandit_a.png","70","70","test","","","","9","",""
"null","491941","pSARL_v2","pSARL_v2up7obpvv","5e84bd7c34d5d9072128fac1","fixation","img/fixation.png","null","","test","","","","","",""
"235.90000009536743","492179","pSARL_v2","pSARL_v2up7obpvv","5e84bd7c34d5d9072128fac1","freq","img/green_2bandit_a2.png","70","70","test","1","195","195","9","",""
"null","492751","pSARL_v2","pSARL_v2up7obpvv","5e84bd7c34d5d9072128fac1","freq_resp","img/green_2bandit_a.png","70","70","test","","","","9","",""
"null","492907","pSARL_v2","pSARL_v2up7obpvv","5e84bd7c34d5d9072128fac1","fixation","img/fixation.png","null","","test","","","","","",""
"234.79999995231628","493143","pSARL_v2","pSARL_v2up7obpvv","5e84bd7c34d5d9072128fac1","freq","img/green_2bandit_a2.png","70","70","test","1","196","196","9","",""
"null","493724","pSARL_v2","pSARL_v2up7obpvv","5e84bd7c34d5d9072128fac1","freq_resp","img/green_2bandit_a.png","70","70","test","","","","9","",""
"null","493880","pSARL_v2","pSARL_v2up7obpvv","5e84bd7c34d5d9072128fac1","fixation","img/fixation.png","null","","test","","","","","",""
"241.20000004768372","494123","pSARL_v2","pSARL_v2up7obpvv","5e84bd7c34d5d9072128fac1","freq","img/green_2bandit_a2.png","70","70","test","1","197","197","9","",""
"null","494685","pSARL_v2","pSARL_v2up7obpvv","5e84bd7c34d5d9072128fac1","freq_resp","img/green_2bandit_a.png","70","70","test","","","","9","",""
"null","494840","pSARL_v2","pSARL_v2up7obpvv","5e84bd7c34d5d9072128fac1","fixation","img/fixation.png","null","","test","","","","","",""
"252.90000009536743","495095","pSARL_v2","pSARL_v2up7obpvv","5e84bd7c34d5d9072128fac1","freq","img/green_2bandit_a2.png","70","70","test","1","198","198","9","",""
"null","495646","pSARL_v2","pSARL_v2up7obpvv","5e84bd7c34d5d9072128fac1","freq_resp","img/green_2bandit_a.png","70","70","test","","","","9","",""
"null","495800","pSARL_v2","pSARL_v2up7obpvv","5e84bd7c34d5d9072128fac1","fixation","img/fixation.png","null","","test","","","","","",""
"225","496027","pSARL_v2","pSARL_v2up7obpvv","5e84bd7c34d5d9072128fac1","freq","img/green_2bandit_a2.png","70","70","test","1","199","199","9","",""
"null","496608","pSARL_v2","pSARL_v2up7obpvv","5e84bd7c34d5d9072128fac1","freq_resp","img/green_2bandit_a.png","70","70","test","","","","9","",""
"null","496774","pSARL_v2","pSARL_v2up7obpvv","5e84bd7c34d5d9072128fac1","fixation","img/fixation.png","null","","test","","","","","",""
"217.10000014305115","496993","pSARL_v2","pSARL_v2up7obpvv","5e84bd7c34d5d9072128fac1","freq","img/green_2bandit_a2.png","70","70","test","1","200","200","9","",""
"null","497579","pSARL_v2","pSARL_v2up7obpvv","5e84bd7c34d5d9072128fac1","freq_resp","img/green_2bandit_a.png","70","70","test","","","","9","",""
"null","497734","pSARL_v2","pSARL_v2up7obpvv","5e84bd7c34d5d9072128fac1","fixation","img/fixation.png","null","","test","","","","","",""
"321.2999999523163","498057","pSARL_v2","pSARL_v2up7obpvv","5e84bd7c34d5d9072128fac1","infreq","img/orange_2bandit_a2.png","68","68","test","1","201","201","9","",""
"null","498552","pSARL_v2","pSARL_v2up7obpvv","5e84bd7c34d5d9072128fac1","infreq_resp","img/orange_2bandit_a.png","68","68","test","","","","9","",""
"null","498707","pSARL_v2","pSARL_v2up7obpvv","5e84bd7c34d5d9072128fac1","fixation","img/fixation.png","null","","test","","","","","",""
"302.7999999523163","499011","pSARL_v2","pSARL_v2up7obpvv","5e84bd7c34d5d9072128fac1","freq","img/green_2bandit_a2.png","70","70","test","1","202","202","9","",""
"null","499519","pSARL_v2","pSARL_v2up7obpvv","5e84bd7c34d5d9072128fac1","freq_resp","img/green_2bandit_a.png","70","70","test","","","","9","",""
"null","499675","pSARL_v2","pSARL_v2up7obpvv","5e84bd7c34d5d9072128fac1","fixation","img/fixation.png","null","","test","","","","","",""
"255.69999980926514","499933","pSARL_v2","pSARL_v2up7obpvv","5e84bd7c34d5d9072128fac1","freq","img/green_2bandit_a2.png","70","70","test","1","203","203","9","",""
"null","500489","pSARL_v2","pSARL_v2up7obpvv","5e84bd7c34d5d9072128fac1","freq_resp","img/green_2bandit_a.png","70","70","test","","","","9","",""
"null","500647","pSARL_v2","pSARL_v2up7obpvv","5e84bd7c34d5d9072128fac1","fixation","img/fixation.png","null","","test","","","","","",""
"236.19999980926514","500885","pSARL_v2","pSARL_v2up7obpvv","5e84bd7c34d5d9072128fac1","freq","img/green_2bandit_a2.png","70","70","test","1","204","204","9","",""
"null","501455","pSARL_v2","pSARL_v2up7obpvv","5e84bd7c34d5d9072128fac1","freq_resp","img/green_2bandit_a.png","70","70","test","","","","9","",""
"null","501608","pSARL_v2","pSARL_v2up7obpvv","5e84bd7c34d5d9072128fac1","fixation","img/fixation.png","null","","test","","","","","",""
"361.2999999523163","501971","pSARL_v2","pSARL_v2up7obpvv","5e84bd7c34d5d9072128fac1","infreq","img/orange_2bandit_a2.png","68","68","test","1","205","205","9","",""
"null","502417","pSARL_v2","pSARL_v2up7obpvv","5e84bd7c34d5d9072128fac1","infreq_resp","img/orange_2bandit_a.png","68","68","test","","","","9","",""
"null","502572","pSARL_v2","pSARL_v2up7obpvv","5e84bd7c34d5d9072128fac1","fixation","img/fixation.png","null","","test","","","","","",""
"313.5","502887","pSARL_v2","pSARL_v2up7obpvv","5e84bd7c34d5d9072128fac1","freq","img/green_2bandit_a2.png","70","70","test","1","206","206","9","",""
"null","503382","pSARL_v2","pSARL_v2up7obpvv","5e84bd7c34d5d9072128fac1","freq_resp","img/green_2bandit_a.png","70","70","test","","","","9","",""
"null","503537","pSARL_v2","pSARL_v2up7obpvv","5e84bd7c34d5d9072128fac1","fixation","img/fixation.png","null","","test","","","","","",""
"290.2999999523163","503829","pSARL_v2","pSARL_v2up7obpvv","5e84bd7c34d5d9072128fac1","freq","img/green_2bandit_a2.png","70","70","test","1","207","207","9","",""
"null","504350","pSARL_v2","pSARL_v2up7obpvv","5e84bd7c34d5d9072128fac1","freq_resp","img/green_2bandit_a.png","70","70","test","","","","9","",""
"null","504504","pSARL_v2","pSARL_v2up7obpvv","5e84bd7c34d5d9072128fac1","fixation","img/fixation.png","null","","test","","","","","",""
