"rt","time_elapsed","expId","subject","prolificID","trialType","stimulus","key_press","corrresp","phase","corr","trialNum","attentionRunNum","blockNum","points","rlNum"
"14519","14560","pSARL_v2","pSARL_v2c6gmf0y2","5aee59100ccc2e000185937c","","","","","","","","","","",""
"","23184","pSARL_v2","pSARL_v2c6gmf0y2","5aee59100ccc2e000185937c","fullscreen","","","","","","","","","",""
"173806","196999","pSARL_v2","pSARL_v2c6gmf0y2","5aee59100ccc2e000185937c","","","","","","","","","","",""
"708","197716","pSARL_v2","pSARL_v2c6gmf0y2","5aee59100ccc2e000185937c","freqPrac","img/orange_2bandit_b2.png","70","70","prac","1","","","","",""
"708","197826","pSARL_v2","pSARL_v2c6gmf0y2","5aee59100ccc2e000185937c","freqPrac_resp","img/orange_2bandit_b.png","70","70","prac","","","","","",""
"null","197992","pSARL_v2","pSARL_v2c6gmf0y2","5aee59100ccc2e000185937c","fixation","img/fixation.png","null","","prac","","","","","",""
"401","198402","pSARL_v2","pSARL_v2c6gmf0y2","5aee59100ccc2e000185937c","infreqPrac","img/green_2bandit_b2.png","68","68","prac","1","","","","",""
"401","198817","pSARL_v2","pSARL_v2c6gmf0y2","5aee59100ccc2e000185937c","infreqPrac_resp","img/green_2bandit_b.png","68","68","prac","","","","","",""
"null","198984","pSARL_v2","pSARL_v2c6gmf0y2","5aee59100ccc2e000185937c","fixation","img/fixation.png","null","","prac","","","","","",""
"428","199420","pSARL_v2","pSARL_v2c6gmf0y2","5aee59100ccc2e000185937c","freqPrac","img/orange_2bandit_b2.png","70","70","prac","1","","","","",""
"428","199804","pSARL_v2","pSARL_v2c6gmf0y2","5aee59100ccc2e000185937c","freqPrac_resp","img/orange_2bandit_b.png","70","70","prac","","","","","",""
"null","199966","pSARL_v2","pSARL_v2c6gmf0y2","5aee59100ccc2e000185937c","fixation","img/fixation.png","null","","prac","","","","","",""
"393","200368","pSARL_v2","pSARL_v2c6gmf0y2","5aee59100ccc2e000185937c","infreqPrac","img/green_2bandit_b2.png","68","68","prac","1","","","","",""
"393","200795","pSARL_v2","pSARL_v2c6gmf0y2","5aee59100ccc2e000185937c","infreqPrac_resp","img/green_2bandit_b.png","68","68","prac","","","","","",""
"null","200959","pSARL_v2","pSARL_v2c6gmf0y2","5aee59100ccc2e000185937c","fixation","img/fixation.png","null","","prac","","","","","",""
"443","201411","pSARL_v2","pSARL_v2c6gmf0y2","5aee59100ccc2e000185937c","infreqPrac","img/green_2bandit_b2.png","68","68","prac","1","","","","",""
"443","201775","pSARL_v2","pSARL_v2c6gmf0y2","5aee59100ccc2e000185937c","infreqPrac_resp","img/green_2bandit_b.png","68","68","prac","","","","","",""
"null","201944","pSARL_v2","pSARL_v2c6gmf0y2","5aee59100ccc2e000185937c","fixation","img/fixation.png","null","","prac","","","","","",""
"306","202256","pSARL_v2","pSARL_v2c6gmf0y2","5aee59100ccc2e000185937c","infreqPrac","img/green_2bandit_b2.png","68","68","prac","1","","","","",""
"306","202765","pSARL_v2","pSARL_v2c6gmf0y2","5aee59100ccc2e000185937c","infreqPrac_resp","img/green_2bandit_b.png","68","68","prac","","","","","",""
"null","202923","pSARL_v2","pSARL_v2c6gmf0y2","5aee59100ccc2e000185937c","fixation","img/fixation.png","null","","prac","","","","","",""
"346","203274","pSARL_v2","pSARL_v2c6gmf0y2","5aee59100ccc2e000185937c","freqPrac","img/orange_2bandit_b2.png","68","70","prac","0","","","","",""
"346","203750","pSARL_v2","pSARL_v2c6gmf0y2","5aee59100ccc2e000185937c","freqPrac_resp","img/orange_2bandit_b.png","68","70","prac","","","","","",""
"null","204785","pSARL_v2","pSARL_v2c6gmf0y2","5aee59100ccc2e000185937c","feedback","img/wrongKey.png","null","na","prac","","","","","",""
"null","204957","pSARL_v2","pSARL_v2c6gmf0y2","5aee59100ccc2e000185937c","fixation","img/fixation.png","null","","prac","","","","","",""
"509","205473","pSARL_v2","pSARL_v2c6gmf0y2","5aee59100ccc2e000185937c","infreqPrac","img/green_2bandit_b2.png","70","68","prac","0","","","","",""
"509","205785","pSARL_v2","pSARL_v2c6gmf0y2","5aee59100ccc2e000185937c","infreqPrac_resp","img/green_2bandit_b.png","70","68","prac","","","","","",""
"null","206795","pSARL_v2","pSARL_v2c6gmf0y2","5aee59100ccc2e000185937c","feedback","img/wrongKey.png","null","na","prac","","","","","",""
"null","206967","pSARL_v2","pSARL_v2c6gmf0y2","5aee59100ccc2e000185937c","fixation","img/fixation.png","null","","prac","","","","","",""
"532","207505","pSARL_v2","pSARL_v2c6gmf0y2","5aee59100ccc2e000185937c","freqPrac","img/orange_2bandit_b2.png","70","70","prac","1","","","","",""
"532","207785","pSARL_v2","pSARL_v2c6gmf0y2","5aee59100ccc2e000185937c","freqPrac_resp","img/orange_2bandit_b.png","70","70","prac","","","","","",""
"null","207949","pSARL_v2","pSARL_v2c6gmf0y2","5aee59100ccc2e000185937c","fixation","img/fixation.png","null","","prac","","","","","",""
"603","208559","pSARL_v2","pSARL_v2c6gmf0y2","5aee59100ccc2e000185937c","freqPrac","img/orange_2bandit_b2.png","70","70","prac","1","","","","",""
"603","208770","pSARL_v2","pSARL_v2c6gmf0y2","5aee59100ccc2e000185937c","freqPrac_resp","img/orange_2bandit_b.png","70","70","prac","","","","","",""
"null","208937","pSARL_v2","pSARL_v2c6gmf0y2","5aee59100ccc2e000185937c","fixation","img/fixation.png","null","","prac","","","","","",""
"37697","246643","pSARL_v2","pSARL_v2c6gmf0y2","5aee59100ccc2e000185937c","","","","","prac","","","","","",""
"688","247339","pSARL_v2","pSARL_v2c6gmf0y2","5aee59100ccc2e000185937c","rewardPractice","img/slot.png","74","","prac","","","","","",""
"null","248112","pSARL_v2","pSARL_v2c6gmf0y2","5aee59100ccc2e000185937c","feedback","<div class=""veryhighPoints""> +15 </div>","null","na","prac","","","","","",""
"null","248281","pSARL_v2","pSARL_v2c6gmf0y2","5aee59100ccc2e000185937c","fixation","img/fixation.png","null","","prac","","","","","",""
"27886","276176","pSARL_v2","pSARL_v2c6gmf0y2","5aee59100ccc2e000185937c","","","","","prac","","","","","",""
"484","276668","pSARL_v2","pSARL_v2c6gmf0y2","5aee59100ccc2e000185937c","freq","img/orange_2bandit_b2.png","70","70","test","1","1","1","1","",""
"null","276998","pSARL_v2","pSARL_v2c6gmf0y2","5aee59100ccc2e000185937c","freq_resp","img/orange_2bandit_b.png","70","70","test","","","","1","",""
"null","277164","pSARL_v2","pSARL_v2c6gmf0y2","5aee59100ccc2e000185937c","fixation","img/fixation.png","null","","test","","","","","",""
"516","277688","pSARL_v2","pSARL_v2c6gmf0y2","5aee59100ccc2e000185937c","freq","img/orange_2bandit_b2.png","70","70","test","1","2","2","1","",""
"null","277982","pSARL_v2","pSARL_v2c6gmf0y2","5aee59100ccc2e000185937c","freq_resp","img/orange_2bandit_b.png","70","70","test","","","","1","",""
"null","278141","pSARL_v2","pSARL_v2c6gmf0y2","5aee59100ccc2e000185937c","fixation","img/fixation.png","null","","test","","","","","",""
"567","278715","pSARL_v2","pSARL_v2c6gmf0y2","5aee59100ccc2e000185937c","freq","img/orange_2bandit_b2.png","70","70","test","1","3","3","1","",""
"null","278962","pSARL_v2","pSARL_v2c6gmf0y2","5aee59100ccc2e000185937c","freq_resp","img/orange_2bandit_b.png","70","70","test","","","","1","",""
"null","279125","pSARL_v2","pSARL_v2c6gmf0y2","5aee59100ccc2e000185937c","fixation","img/fixation.png","null","","test","","","","","",""
"600","279734","pSARL_v2","pSARL_v2c6gmf0y2","5aee59100ccc2e000185937c","freq","img/orange_2bandit_b2.png","70","70","test","1","4","4","1","",""
"null","279954","pSARL_v2","pSARL_v2c6gmf0y2","5aee59100ccc2e000185937c","freq_resp","img/orange_2bandit_b.png","70","70","test","","","","1","",""
"null","280119","pSARL_v2","pSARL_v2c6gmf0y2","5aee59100ccc2e000185937c","fixation","img/fixation.png","null","","test","","","","","",""
"510","280637","pSARL_v2","pSARL_v2c6gmf0y2","5aee59100ccc2e000185937c","freq","img/orange_2bandit_b2.png","70","70","test","1","5","5","1","",""
"null","280934","pSARL_v2","pSARL_v2c6gmf0y2","5aee59100ccc2e000185937c","freq_resp","img/orange_2bandit_b.png","70","70","test","","","","1","",""
"null","281106","pSARL_v2","pSARL_v2c6gmf0y2","5aee59100ccc2e000185937c","fixation","img/fixation.png","null","","test","","","","","",""
"386","281499","pSARL_v2","pSARL_v2c6gmf0y2","5aee59100ccc2e000185937c","freq","img/orange_2bandit_b2.png","70","70","test","1","6","6","1","",""
"null","281928","pSARL_v2","pSARL_v2c6gmf0y2","5aee59100ccc2e000185937c","freq_resp","img/orange_2bandit_b.png","70","70","test","","","","1","",""
"null","282096","pSARL_v2","pSARL_v2c6gmf0y2","5aee59100ccc2e000185937c","fixation","img/fixation.png","null","","test","","","","","",""
"329","282432","pSARL_v2","pSARL_v2c6gmf0y2","5aee59100ccc2e000185937c","freq","img/orange_2bandit_b2.png","70","70","test","1","7","7","1","",""
"null","282920","pSARL_v2","pSARL_v2c6gmf0y2","5aee59100ccc2e000185937c","freq_resp","img/orange_2bandit_b.png","70","70","test","","","","1","",""
"null","283090","pSARL_v2","pSARL_v2c6gmf0y2","5aee59100ccc2e000185937c","fixation","img/fixation.png","null","","test","","","","","",""
"324","283421","pSARL_v2","pSARL_v2c6gmf0y2","5aee59100ccc2e000185937c","infreq","img/green_2bandit_b2.png","70","68","test","0","8","8","1","",""
"null","283912","pSARL_v2","pSARL_v2c6gmf0y2","5aee59100ccc2e000185937c","infreq_resp","img/green_2bandit_b.png","70","68","test","","","","1","",""
"null","284077","pSARL_v2","pSARL_v2c6gmf0y2","5aee59100ccc2e000185937c","fixation","img/fixation.png","null","","test","","","","","",""
"616","284702","pSARL_v2","pSARL_v2c6gmf0y2","5aee59100ccc2e000185937c","freq","img/orange_2bandit_b2.png","70","70","test","1","9","9","1","",""
"null","284904","pSARL_v2","pSARL_v2c6gmf0y2","5aee59100ccc2e000185937c","freq_resp","img/orange_2bandit_b.png","70","70","test","","","","1","",""
"null","285076","pSARL_v2","pSARL_v2c6gmf0y2","5aee59100ccc2e000185937c","fixation","img/fixation.png","null","","test","","","","","",""
"438","285521","pSARL_v2","pSARL_v2c6gmf0y2","5aee59100ccc2e000185937c","freq","img/orange_2bandit_b2.png","70","70","test","1","10","10","1","",""
"null","285898","pSARL_v2","pSARL_v2c6gmf0y2","5aee59100ccc2e000185937c","freq_resp","img/orange_2bandit_b.png","70","70","test","","","","1","",""
"null","286068","pSARL_v2","pSARL_v2c6gmf0y2","5aee59100ccc2e000185937c","fixation","img/fixation.png","null","","test","","","","","",""
"485","286562","pSARL_v2","pSARL_v2c6gmf0y2","5aee59100ccc2e000185937c","freq","img/orange_2bandit_b2.png","70","70","test","1","11","11","1","",""
"null","286893","pSARL_v2","pSARL_v2c6gmf0y2","5aee59100ccc2e000185937c","freq_resp","img/orange_2bandit_b.png","70","70","test","","","","1","",""
"null","287067","pSARL_v2","pSARL_v2c6gmf0y2","5aee59100ccc2e000185937c","fixation","img/fixation.png","null","","test","","","","","",""
"385","287460","pSARL_v2","pSARL_v2c6gmf0y2","5aee59100ccc2e000185937c","freq","img/orange_2bandit_b2.png","70","70","test","1","12","12","1","",""
"null","287890","pSARL_v2","pSARL_v2c6gmf0y2","5aee59100ccc2e000185937c","freq_resp","img/orange_2bandit_b.png","70","70","test","","","","1","",""
"null","288060","pSARL_v2","pSARL_v2c6gmf0y2","5aee59100ccc2e000185937c","fixation","img/fixation.png","null","","test","","","","","",""
"389","288457","pSARL_v2","pSARL_v2c6gmf0y2","5aee59100ccc2e000185937c","freq","img/orange_2bandit_b2.png","70","70","test","1","13","13","1","",""
"null","288881","pSARL_v2","pSARL_v2c6gmf0y2","5aee59100ccc2e000185937c","freq_resp","img/orange_2bandit_b.png","70","70","test","","","","1","",""
"null","289052","pSARL_v2","pSARL_v2c6gmf0y2","5aee59100ccc2e000185937c","fixation","img/fixation.png","null","","test","","","","","",""
"443","289501","pSARL_v2","pSARL_v2c6gmf0y2","5aee59100ccc2e000185937c","freq","img/orange_2bandit_b2.png","70","70","test","1","14","14","1","",""
"null","289876","pSARL_v2","pSARL_v2c6gmf0y2","5aee59100ccc2e000185937c","freq_resp","img/orange_2bandit_b.png","70","70","test","","","","1","",""
"null","290051","pSARL_v2","pSARL_v2c6gmf0y2","5aee59100ccc2e000185937c","fixation","img/fixation.png","null","","test","","","","","",""
"341","290399","pSARL_v2","pSARL_v2c6gmf0y2","5aee59100ccc2e000185937c","freq","img/orange_2bandit_b2.png","70","70","test","1","15","15","1","",""
"null","290870","pSARL_v2","pSARL_v2c6gmf0y2","5aee59100ccc2e000185937c","freq_resp","img/orange_2bandit_b.png","70","70","test","","","","1","",""
"null","291038","pSARL_v2","pSARL_v2c6gmf0y2","5aee59100ccc2e000185937c","fixation","img/fixation.png","null","","test","","","","","",""
"346","291391","pSARL_v2","pSARL_v2c6gmf0y2","5aee59100ccc2e000185937c","freq","img/orange_2bandit_b2.png","70","70","test","1","16","16","1","",""
"null","291864","pSARL_v2","pSARL_v2c6gmf0y2","5aee59100ccc2e000185937c","freq_resp","img/orange_2bandit_b.png","70","70","test","","","","1","",""
"null","292035","pSARL_v2","pSARL_v2c6gmf0y2","5aee59100ccc2e000185937c","fixation","img/fixation.png","null","","test","","","","","",""
"427","292470","pSARL_v2","pSARL_v2c6gmf0y2","5aee59100ccc2e000185937c","freq","img/orange_2bandit_b2.png","70","70","test","1","17","17","1","",""
"null","292861","pSARL_v2","pSARL_v2c6gmf0y2","5aee59100ccc2e000185937c","freq_resp","img/orange_2bandit_b.png","70","70","test","","","","1","",""
"null","293031","pSARL_v2","pSARL_v2c6gmf0y2","5aee59100ccc2e000185937c","fixation","img/fixation.png","null","","test","","","","","",""
"471","293508","pSARL_v2","pSARL_v2c6gmf0y2","5aee59100ccc2e000185937c","freq","img/orange_2bandit_b2.png","70","70","test","1","18","18","1","",""
"null","293844","pSARL_v2","pSARL_v2c6gmf0y2","5aee59100ccc2e000185937c","freq_resp","img/orange_2bandit_b.png","70","70","test","","","","1","",""
"null","294002","pSARL_v2","pSARL_v2c6gmf0y2","5aee59100ccc2e000185937c","fixation","img/fixation.png","null","","test","","","","","",""
"512","294521","pSARL_v2","pSARL_v2c6gmf0y2","5aee59100ccc2e000185937c","freq","img/orange_2bandit_b2.png","70","70","test","1","19","19","1","",""
"null","294830","pSARL_v2","pSARL_v2c6gmf0y2","5aee59100ccc2e000185937c","freq_resp","img/orange_2bandit_b.png","70","70","test","","","","1","",""
"null","295001","pSARL_v2","pSARL_v2c6gmf0y2","5aee59100ccc2e000185937c","fixation","img/fixation.png","null","","test","","","","","",""
"502","295511","pSARL_v2","pSARL_v2c6gmf0y2","5aee59100ccc2e000185937c","freq","img/orange_2bandit_b2.png","70","70","test","1","20","20","1","",""
"null","295828","pSARL_v2","pSARL_v2c6gmf0y2","5aee59100ccc2e000185937c","freq_resp","img/orange_2bandit_b.png","70","70","test","","","","1","",""
"null","296001","pSARL_v2","pSARL_v2c6gmf0y2","5aee59100ccc2e000185937c","fixation","img/fixation.png","null","","test","","","","","",""
"448","296459","pSARL_v2","pSARL_v2c6gmf0y2","5aee59100ccc2e000185937c","freq","img/orange_2bandit_b2.png","70","70","test","1","21","21","1","",""
"null","296825","pSARL_v2","pSARL_v2c6gmf0y2","5aee59100ccc2e000185937c","freq_resp","img/orange_2bandit_b.png","70","70","test","","","","1","",""
"null","297000","pSARL_v2","pSARL_v2c6gmf0y2","5aee59100ccc2e000185937c","fixation","img/fixation.png","null","","test","","","","","",""
"394","297403","pSARL_v2","pSARL_v2c6gmf0y2","5aee59100ccc2e000185937c","freq","img/orange_2bandit_b2.png","70","70","test","1","22","22","1","",""
"null","297822","pSARL_v2","pSARL_v2c6gmf0y2","5aee59100ccc2e000185937c","freq_resp","img/orange_2bandit_b.png","70","70","test","","","","1","",""
"null","297996","pSARL_v2","pSARL_v2c6gmf0y2","5aee59100ccc2e000185937c","fixation","img/fixation.png","null","","test","","","","","",""
"446","298449","pSARL_v2","pSARL_v2c6gmf0y2","5aee59100ccc2e000185937c","infreq","img/green_2bandit_b2.png","68","68","test","1","23","23","1","",""
"null","298850","pSARL_v2","pSARL_v2c6gmf0y2","5aee59100ccc2e000185937c","infreq_resp","img/green_2bandit_b.png","68","68","test","","","","1","",""
"null","299020","pSARL_v2","pSARL_v2c6gmf0y2","5aee59100ccc2e000185937c","fixation","img/fixation.png","null","","test","","","","","",""
"375","299403","pSARL_v2","pSARL_v2c6gmf0y2","5aee59100ccc2e000185937c","freq","img/orange_2bandit_b2.png","70","70","test","1","24","24","1","",""
"null","299844","pSARL_v2","pSARL_v2c6gmf0y2","5aee59100ccc2e000185937c","freq_resp","img/orange_2bandit_b.png","70","70","test","","","","1","",""
"null","300014","pSARL_v2","pSARL_v2c6gmf0y2","5aee59100ccc2e000185937c","fixation","img/fixation.png","null","","test","","","","","",""
"336","300357","pSARL_v2","pSARL_v2c6gmf0y2","5aee59100ccc2e000185937c","freq","img/orange_2bandit_b2.png","70","70","test","1","25","25","1","",""
"null","300832","pSARL_v2","pSARL_v2c6gmf0y2","5aee59100ccc2e000185937c","freq_resp","img/orange_2bandit_b.png","70","70","test","","","","1","",""
"null","301005","pSARL_v2","pSARL_v2c6gmf0y2","5aee59100ccc2e000185937c","fixation","img/fixation.png","null","","test","","","","","",""
"351","301364","pSARL_v2","pSARL_v2c6gmf0y2","5aee59100ccc2e000185937c","freq","img/orange_2bandit_b2.png","70","70","test","1","26","26","1","",""
"null","301855","pSARL_v2","pSARL_v2c6gmf0y2","5aee59100ccc2e000185937c","freq_resp","img/orange_2bandit_b.png","70","70","test","","","","1","",""
"null","302020","pSARL_v2","pSARL_v2c6gmf0y2","5aee59100ccc2e000185937c","fixation","img/fixation.png","null","","test","","","","","",""
"605","302633","pSARL_v2","pSARL_v2c6gmf0y2","5aee59100ccc2e000185937c","reward","img/slot.png","74","","test","","","","","",""
"null","303398","pSARL_v2","pSARL_v2c6gmf0y2","5aee59100ccc2e000185937c","points","<div class=""verylowPoints""> -6 </div>","null","na","test","","","","1","-6","0"
"null","304211","pSARL_v2","pSARL_v2c6gmf0y2","5aee59100ccc2e000185937c","freq","img/orange_2bandit_b2.png","null","70","test","0","27","27","2","",""
"null","304375","pSARL_v2","pSARL_v2c6gmf0y2","5aee59100ccc2e000185937c","fixation","img/fixation.png","null","","test","","","","","",""
"57","304439","pSARL_v2","pSARL_v2c6gmf0y2","5aee59100ccc2e000185937c","freq","img/orange_2bandit_b2.png","70","70","test","1","28","28","2","",""
"null","305199","pSARL_v2","pSARL_v2c6gmf0y2","5aee59100ccc2e000185937c","freq_resp","img/orange_2bandit_b.png","70","70","test","","","","2","",""
"null","305364","pSARL_v2","pSARL_v2c6gmf0y2","5aee59100ccc2e000185937c","fixation","img/fixation.png","null","","test","","","","","",""
"281","305652","pSARL_v2","pSARL_v2c6gmf0y2","5aee59100ccc2e000185937c","freq","img/orange_2bandit_b2.png","70","70","test","1","29","29","2","",""
"null","306230","pSARL_v2","pSARL_v2c6gmf0y2","5aee59100ccc2e000185937c","freq_resp","img/orange_2bandit_b.png","70","70","test","","","","2","",""
"null","306402","pSARL_v2","pSARL_v2c6gmf0y2","5aee59100ccc2e000185937c","fixation","img/fixation.png","null","","test","","","","","",""
"469","306877","pSARL_v2","pSARL_v2c6gmf0y2","5aee59100ccc2e000185937c","infreq","img/green_2bandit_b2.png","68","68","test","1","30","30","2","",""
"null","307226","pSARL_v2","pSARL_v2c6gmf0y2","5aee59100ccc2e000185937c","infreq_resp","img/green_2bandit_b.png","68","68","test","","","","2","",""
"null","307395","pSARL_v2","pSARL_v2c6gmf0y2","5aee59100ccc2e000185937c","fixation","img/fixation.png","null","","test","","","","","",""
"451","307853","pSARL_v2","pSARL_v2c6gmf0y2","5aee59100ccc2e000185937c","freq","img/orange_2bandit_b2.png","70","70","test","1","31","31","2","",""
"null","308214","pSARL_v2","pSARL_v2c6gmf0y2","5aee59100ccc2e000185937c","freq_resp","img/orange_2bandit_b.png","70","70","test","","","","2","",""
"null","308381","pSARL_v2","pSARL_v2c6gmf0y2","5aee59100ccc2e000185937c","fixation","img/fixation.png","null","","test","","","","","",""
"460","308847","pSARL_v2","pSARL_v2c6gmf0y2","5aee59100ccc2e000185937c","freq","img/orange_2bandit_b2.png","70","70","test","1","32","32","2","",""
"null","309198","pSARL_v2","pSARL_v2c6gmf0y2","5aee59100ccc2e000185937c","freq_resp","img/orange_2bandit_b.png","70","70","test","","","","2","",""
"null","309368","pSARL_v2","pSARL_v2c6gmf0y2","5aee59100ccc2e000185937c","fixation","img/fixation.png","null","","test","","","","","",""
"408","309782","pSARL_v2","pSARL_v2c6gmf0y2","5aee59100ccc2e000185937c","freq","img/orange_2bandit_b2.png","70","70","test","1","33","33","2","",""
"null","310185","pSARL_v2","pSARL_v2c6gmf0y2","5aee59100ccc2e000185937c","freq_resp","img/orange_2bandit_b.png","70","70","test","","","","2","",""
"null","310355","pSARL_v2","pSARL_v2c6gmf0y2","5aee59100ccc2e000185937c","fixation","img/fixation.png","null","","test","","","","","",""
"446","310806","pSARL_v2","pSARL_v2c6gmf0y2","5aee59100ccc2e000185937c","infreq","img/green_2bandit_b2.png","68","68","test","1","34","34","2","",""
"null","311183","pSARL_v2","pSARL_v2c6gmf0y2","5aee59100ccc2e000185937c","infreq_resp","img/green_2bandit_b.png","68","68","test","","","","2","",""
"null","311342","pSARL_v2","pSARL_v2c6gmf0y2","5aee59100ccc2e000185937c","fixation","img/fixation.png","null","","test","","","","","",""
"428","311778","pSARL_v2","pSARL_v2c6gmf0y2","5aee59100ccc2e000185937c","freq","img/orange_2bandit_b2.png","70","70","test","1","35","35","2","",""
"null","312168","pSARL_v2","pSARL_v2c6gmf0y2","5aee59100ccc2e000185937c","freq_resp","img/orange_2bandit_b.png","70","70","test","","","","2","",""
"null","312329","pSARL_v2","pSARL_v2c6gmf0y2","5aee59100ccc2e000185937c","fixation","img/fixation.png","null","","test","","","","","",""
"369","312704","pSARL_v2","pSARL_v2c6gmf0y2","5aee59100ccc2e000185937c","freq","img/orange_2bandit_b2.png","70","70","test","1","36","36","2","",""
"null","313152","pSARL_v2","pSARL_v2c6gmf0y2","5aee59100ccc2e000185937c","freq_resp","img/orange_2bandit_b.png","70","70","test","","","","2","",""
"null","313316","pSARL_v2","pSARL_v2c6gmf0y2","5aee59100ccc2e000185937c","fixation","img/fixation.png","null","","test","","","","","",""
"338","313660","pSARL_v2","pSARL_v2c6gmf0y2","5aee59100ccc2e000185937c","freq","img/orange_2bandit_b2.png","70","70","test","1","37","37","2","",""
"null","314145","pSARL_v2","pSARL_v2c6gmf0y2","5aee59100ccc2e000185937c","freq_resp","img/orange_2bandit_b.png","70","70","test","","","","2","",""
"null","314318","pSARL_v2","pSARL_v2c6gmf0y2","5aee59100ccc2e000185937c","fixation","img/fixation.png","null","","test","","","","","",""
"361","314686","pSARL_v2","pSARL_v2c6gmf0y2","5aee59100ccc2e000185937c","freq","img/orange_2bandit_b2.png","70","70","test","1","38","38","2","",""
"null","315144","pSARL_v2","pSARL_v2c6gmf0y2","5aee59100ccc2e000185937c","freq_resp","img/orange_2bandit_b.png","70","70","test","","","","2","",""
"null","315316","pSARL_v2","pSARL_v2c6gmf0y2","5aee59100ccc2e000185937c","fixation","img/fixation.png","null","","test","","","","","",""
"356","315679","pSARL_v2","pSARL_v2c6gmf0y2","5aee59100ccc2e000185937c","freq","img/orange_2bandit_b2.png","70","70","test","1","39","39","2","",""
"null","316136","pSARL_v2","pSARL_v2c6gmf0y2","5aee59100ccc2e000185937c","freq_resp","img/orange_2bandit_b.png","70","70","test","","","","2","",""
"null","316308","pSARL_v2","pSARL_v2c6gmf0y2","5aee59100ccc2e000185937c","fixation","img/fixation.png","null","","test","","","","","",""
"319","316633","pSARL_v2","pSARL_v2c6gmf0y2","5aee59100ccc2e000185937c","freq","img/orange_2bandit_b2.png","70","70","test","1","40","40","2","",""
"null","317130","pSARL_v2","pSARL_v2c6gmf0y2","5aee59100ccc2e000185937c","freq_resp","img/orange_2bandit_b.png","70","70","test","","","","2","",""
"null","317301","pSARL_v2","pSARL_v2c6gmf0y2","5aee59100ccc2e000185937c","fixation","img/fixation.png","null","","test","","","","","",""
"409","317717","pSARL_v2","pSARL_v2c6gmf0y2","5aee59100ccc2e000185937c","freq","img/orange_2bandit_b2.png","70","70","test","1","41","41","2","",""
"null","318121","pSARL_v2","pSARL_v2c6gmf0y2","5aee59100ccc2e000185937c","freq_resp","img/orange_2bandit_b.png","70","70","test","","","","2","",""
"null","318294","pSARL_v2","pSARL_v2c6gmf0y2","5aee59100ccc2e000185937c","fixation","img/fixation.png","null","","test","","","","","",""
"388","318688","pSARL_v2","pSARL_v2c6gmf0y2","5aee59100ccc2e000185937c","freq","img/orange_2bandit_b2.png","70","70","test","1","42","42","2","",""
"null","319118","pSARL_v2","pSARL_v2c6gmf0y2","5aee59100ccc2e000185937c","freq_resp","img/orange_2bandit_b.png","70","70","test","","","","2","",""
"null","319290","pSARL_v2","pSARL_v2c6gmf0y2","5aee59100ccc2e000185937c","fixation","img/fixation.png","null","","test","","","","","",""
"375","319673","pSARL_v2","pSARL_v2c6gmf0y2","5aee59100ccc2e000185937c","freq","img/orange_2bandit_b2.png","70","70","test","1","43","43","2","",""
"null","320112","pSARL_v2","pSARL_v2c6gmf0y2","5aee59100ccc2e000185937c","freq_resp","img/orange_2bandit_b.png","70","70","test","","","","2","",""
"null","320285","pSARL_v2","pSARL_v2c6gmf0y2","5aee59100ccc2e000185937c","fixation","img/fixation.png","null","","test","","","","","",""
"360","320653","pSARL_v2","pSARL_v2c6gmf0y2","5aee59100ccc2e000185937c","freq","img/orange_2bandit_b2.png","70","70","test","1","44","44","2","",""
"null","321111","pSARL_v2","pSARL_v2c6gmf0y2","5aee59100ccc2e000185937c","freq_resp","img/orange_2bandit_b.png","70","70","test","","","","2","",""
"null","321280","pSARL_v2","pSARL_v2c6gmf0y2","5aee59100ccc2e000185937c","fixation","img/fixation.png","null","","test","","","","","",""
"317","321606","pSARL_v2","pSARL_v2c6gmf0y2","5aee59100ccc2e000185937c","freq","img/orange_2bandit_b2.png","70","70","test","1","45","45","2","",""
"null","322108","pSARL_v2","pSARL_v2c6gmf0y2","5aee59100ccc2e000185937c","freq_resp","img/orange_2bandit_b.png","70","70","test","","","","2","",""
"null","322278","pSARL_v2","pSARL_v2c6gmf0y2","5aee59100ccc2e000185937c","fixation","img/fixation.png","null","","test","","","","","",""
"342","322627","pSARL_v2","pSARL_v2c6gmf0y2","5aee59100ccc2e000185937c","freq","img/orange_2bandit_b2.png","70","70","test","1","46","46","2","",""
"null","323133","pSARL_v2","pSARL_v2c6gmf0y2","5aee59100ccc2e000185937c","freq_resp","img/orange_2bandit_b.png","70","70","test","","","","2","",""
"null","323302","pSARL_v2","pSARL_v2c6gmf0y2","5aee59100ccc2e000185937c","fixation","img/fixation.png","null","","test","","","","","",""
"319","323627","pSARL_v2","pSARL_v2c6gmf0y2","5aee59100ccc2e000185937c","freq","img/orange_2bandit_b2.png","70","70","test","1","47","47","2","",""
"null","324128","pSARL_v2","pSARL_v2c6gmf0y2","5aee59100ccc2e000185937c","freq_resp","img/orange_2bandit_b.png","70","70","test","","","","2","",""
"null","324301","pSARL_v2","pSARL_v2c6gmf0y2","5aee59100ccc2e000185937c","fixation","img/fixation.png","null","","test","","","","","",""
"225","324535","pSARL_v2","pSARL_v2c6gmf0y2","5aee59100ccc2e000185937c","freq","img/orange_2bandit_b2.png","70","70","test","1","48","48","2","",""
"null","325152","pSARL_v2","pSARL_v2c6gmf0y2","5aee59100ccc2e000185937c","freq_resp","img/orange_2bandit_b.png","70","70","test","","","","2","",""
"null","325324","pSARL_v2","pSARL_v2c6gmf0y2","5aee59100ccc2e000185937c","fixation","img/fixation.png","null","","test","","","","","",""
"653","325984","pSARL_v2","pSARL_v2c6gmf0y2","5aee59100ccc2e000185937c","reward","img/slot.png","74","","test","","","","","",""
"null","326741","pSARL_v2","pSARL_v2c6gmf0y2","5aee59100ccc2e000185937c","points","<div class=""verylowPoints""> -11 </div>","null","na","test","","","","2","-11","1"
"609","327358","pSARL_v2","pSARL_v2c6gmf0y2","5aee59100ccc2e000185937c","freq","img/orange_2bandit_b2.png","70","70","test","1","49","49","3","",""
"null","327566","pSARL_v2","pSARL_v2c6gmf0y2","5aee59100ccc2e000185937c","freq_resp","img/orange_2bandit_b.png","70","70","test","","","","3","",""
"null","327737","pSARL_v2","pSARL_v2c6gmf0y2","5aee59100ccc2e000185937c","fixation","img/fixation.png","null","","test","","","","","",""
"522","328266","pSARL_v2","pSARL_v2c6gmf0y2","5aee59100ccc2e000185937c","freq","img/orange_2bandit_b2.png","70","70","test","1","50","50","3","",""
"null","328561","pSARL_v2","pSARL_v2c6gmf0y2","5aee59100ccc2e000185937c","freq_resp","img/orange_2bandit_b.png","70","70","test","","","","3","",""
"null","328734","pSARL_v2","pSARL_v2c6gmf0y2","5aee59100ccc2e000185937c","fixation","img/fixation.png","null","","test","","","","","",""
"548","329289","pSARL_v2","pSARL_v2c6gmf0y2","5aee59100ccc2e000185937c","freq","img/orange_2bandit_b2.png","70","70","test","1","51","51","3","",""
"null","329557","pSARL_v2","pSARL_v2c6gmf0y2","5aee59100ccc2e000185937c","freq_resp","img/orange_2bandit_b.png","70","70","test","","","","3","",""
"null","329728","pSARL_v2","pSARL_v2c6gmf0y2","5aee59100ccc2e000185937c","fixation","img/fixation.png","null","","test","","","","","",""
"542","330277","pSARL_v2","pSARL_v2c6gmf0y2","5aee59100ccc2e000185937c","freq","img/orange_2bandit_b2.png","70","70","test","1","52","52","3","",""
"null","330543","pSARL_v2","pSARL_v2c6gmf0y2","5aee59100ccc2e000185937c","freq_resp","img/orange_2bandit_b.png","70","70","test","","","","3","",""
"null","330707","pSARL_v2","pSARL_v2c6gmf0y2","5aee59100ccc2e000185937c","fixation","img/fixation.png","null","","test","","","","","",""
"481","331195","pSARL_v2","pSARL_v2c6gmf0y2","5aee59100ccc2e000185937c","freq","img/orange_2bandit_b2.png","70","70","test","1","53","53","3","",""
"null","331534","pSARL_v2","pSARL_v2c6gmf0y2","5aee59100ccc2e000185937c","freq_resp","img/orange_2bandit_b.png","70","70","test","","","","3","",""
"null","331702","pSARL_v2","pSARL_v2c6gmf0y2","5aee59100ccc2e000185937c","fixation","img/fixation.png","null","","test","","","","","",""
"604","332313","pSARL_v2","pSARL_v2c6gmf0y2","5aee59100ccc2e000185937c","freq","img/orange_2bandit_b2.png","70","70","test","1","54","54","3","",""
"null","332524","pSARL_v2","pSARL_v2c6gmf0y2","5aee59100ccc2e000185937c","freq_resp","img/orange_2bandit_b.png","70","70","test","","","","3","",""
"null","332693","pSARL_v2","pSARL_v2c6gmf0y2","5aee59100ccc2e000185937c","fixation","img/fixation.png","null","","test","","","","","",""
"null","333543","pSARL_v2","pSARL_v2c6gmf0y2","5aee59100ccc2e000185937c","infreq","img/green_2bandit_b2.png","null","68","test","0","55","55","3","",""
"null","333707","pSARL_v2","pSARL_v2c6gmf0y2","5aee59100ccc2e000185937c","fixation","img/fixation.png","null","","test","","","","","",""
"670","334386","pSARL_v2","pSARL_v2c6gmf0y2","5aee59100ccc2e000185937c","freq","img/orange_2bandit_b2.png","70","70","test","1","56","56","3","",""
"null","334536","pSARL_v2","pSARL_v2c6gmf0y2","5aee59100ccc2e000185937c","freq_resp","img/orange_2bandit_b.png","70","70","test","","","","3","",""
"null","334699","pSARL_v2","pSARL_v2c6gmf0y2","5aee59100ccc2e000185937c","fixation","img/fixation.png","null","","test","","","","","",""
"476","335183","pSARL_v2","pSARL_v2c6gmf0y2","5aee59100ccc2e000185937c","freq","img/orange_2bandit_b2.png","70","70","test","1","57","57","3","",""
"null","335521","pSARL_v2","pSARL_v2c6gmf0y2","5aee59100ccc2e000185937c","freq_resp","img/orange_2bandit_b.png","70","70","test","","","","3","",""
"null","335682","pSARL_v2","pSARL_v2c6gmf0y2","5aee59100ccc2e000185937c","fixation","img/fixation.png","null","","test","","","","","",""
"427","336116","pSARL_v2","pSARL_v2c6gmf0y2","5aee59100ccc2e000185937c","freq","img/orange_2bandit_b2.png","70","70","test","1","58","58","3","",""
"null","336500","pSARL_v2","pSARL_v2c6gmf0y2","5aee59100ccc2e000185937c","freq_resp","img/orange_2bandit_b.png","70","70","test","","","","3","",""
"null","336662","pSARL_v2","pSARL_v2c6gmf0y2","5aee59100ccc2e000185937c","fixation","img/fixation.png","null","","test","","","","","",""
"455","337124","pSARL_v2","pSARL_v2c6gmf0y2","5aee59100ccc2e000185937c","infreq","img/green_2bandit_b2.png","68","68","test","1","59","59","3","",""
"null","337476","pSARL_v2","pSARL_v2c6gmf0y2","5aee59100ccc2e000185937c","infreq_resp","img/green_2bandit_b.png","68","68","test","","","","3","",""
"null","337635","pSARL_v2","pSARL_v2c6gmf0y2","5aee59100ccc2e000185937c","fixation","img/fixation.png","null","","test","","","","","",""
"338","337981","pSARL_v2","pSARL_v2c6gmf0y2","5aee59100ccc2e000185937c","freq","img/orange_2bandit_b2.png","70","70","test","1","60","60","3","",""
"null","338457","pSARL_v2","pSARL_v2c6gmf0y2","5aee59100ccc2e000185937c","freq_resp","img/orange_2bandit_b.png","70","70","test","","","","3","",""
"null","338627","pSARL_v2","pSARL_v2c6gmf0y2","5aee59100ccc2e000185937c","fixation","img/fixation.png","null","","test","","","","","",""
"321","338955","pSARL_v2","pSARL_v2c6gmf0y2","5aee59100ccc2e000185937c","freq","img/orange_2bandit_b2.png","70","70","test","1","61","61","3","",""
"null","339449","pSARL_v2","pSARL_v2c6gmf0y2","5aee59100ccc2e000185937c","freq_resp","img/orange_2bandit_b.png","70","70","test","","","","3","",""
"null","339621","pSARL_v2","pSARL_v2c6gmf0y2","5aee59100ccc2e000185937c","fixation","img/fixation.png","null","","test","","","","","",""
"321","339947","pSARL_v2","pSARL_v2c6gmf0y2","5aee59100ccc2e000185937c","freq","img/orange_2bandit_b2.png","70","70","test","1","62","62","3","",""
"null","340448","pSARL_v2","pSARL_v2c6gmf0y2","5aee59100ccc2e000185937c","freq_resp","img/orange_2bandit_b.png","70","70","test","","","","3","",""
"null","340610","pSARL_v2","pSARL_v2c6gmf0y2","5aee59100ccc2e000185937c","fixation","img/fixation.png","null","","test","","","","","",""
"371","340987","pSARL_v2","pSARL_v2c6gmf0y2","5aee59100ccc2e000185937c","freq","img/orange_2bandit_b2.png","70","70","test","1","63","63","3","",""
"null","341437","pSARL_v2","pSARL_v2c6gmf0y2","5aee59100ccc2e000185937c","freq_resp","img/orange_2bandit_b.png","70","70","test","","","","3","",""
"null","341609","pSARL_v2","pSARL_v2c6gmf0y2","5aee59100ccc2e000185937c","fixation","img/fixation.png","null","","test","","","","","",""
"263","341881","pSARL_v2","pSARL_v2c6gmf0y2","5aee59100ccc2e000185937c","freq","img/orange_2bandit_b2.png","70","70","test","1","64","64","3","",""
"null","342439","pSARL_v2","pSARL_v2c6gmf0y2","5aee59100ccc2e000185937c","freq_resp","img/orange_2bandit_b.png","70","70","test","","","","3","",""
"null","342607","pSARL_v2","pSARL_v2c6gmf0y2","5aee59100ccc2e000185937c","fixation","img/fixation.png","null","","test","","","","","",""
"312","342925","pSARL_v2","pSARL_v2c6gmf0y2","5aee59100ccc2e000185937c","freq","img/orange_2bandit_b2.png","70","70","test","1","65","65","3","",""
"null","343428","pSARL_v2","pSARL_v2c6gmf0y2","5aee59100ccc2e000185937c","freq_resp","img/orange_2bandit_b.png","70","70","test","","","","3","",""
"null","343596","pSARL_v2","pSARL_v2c6gmf0y2","5aee59100ccc2e000185937c","fixation","img/fixation.png","null","","test","","","","","",""
"293","343900","pSARL_v2","pSARL_v2c6gmf0y2","5aee59100ccc2e000185937c","freq","img/orange_2bandit_b2.png","70","70","test","1","66","66","3","",""
"null","344418","pSARL_v2","pSARL_v2c6gmf0y2","5aee59100ccc2e000185937c","freq_resp","img/orange_2bandit_b.png","70","70","test","","","","3","",""
"null","344589","pSARL_v2","pSARL_v2c6gmf0y2","5aee59100ccc2e000185937c","fixation","img/fixation.png","null","","test","","","","","",""
"283","344882","pSARL_v2","pSARL_v2c6gmf0y2","5aee59100ccc2e000185937c","freq","img/orange_2bandit_b2.png","70","70","test","1","67","67","3","",""
"null","345409","pSARL_v2","pSARL_v2c6gmf0y2","5aee59100ccc2e000185937c","freq_resp","img/orange_2bandit_b.png","70","70","test","","","","3","",""
"null","345581","pSARL_v2","pSARL_v2c6gmf0y2","5aee59100ccc2e000185937c","fixation","img/fixation.png","null","","test","","","","","",""
"311","345900","pSARL_v2","pSARL_v2c6gmf0y2","5aee59100ccc2e000185937c","freq","img/orange_2bandit_b2.png","70","70","test","1","68","68","3","",""
"null","346441","pSARL_v2","pSARL_v2c6gmf0y2","5aee59100ccc2e000185937c","freq_resp","img/orange_2bandit_b.png","70","70","test","","","","3","",""
"null","346606","pSARL_v2","pSARL_v2c6gmf0y2","5aee59100ccc2e000185937c","fixation","img/fixation.png","null","","test","","","","","",""
"293","346907","pSARL_v2","pSARL_v2c6gmf0y2","5aee59100ccc2e000185937c","freq","img/orange_2bandit_b2.png","70","70","test","1","69","69","3","",""
"null","347433","pSARL_v2","pSARL_v2c6gmf0y2","5aee59100ccc2e000185937c","freq_resp","img/orange_2bandit_b.png","70","70","test","","","","3","",""
"null","347600","pSARL_v2","pSARL_v2c6gmf0y2","5aee59100ccc2e000185937c","fixation","img/fixation.png","null","","test","","","","","",""
"332","347939","pSARL_v2","pSARL_v2c6gmf0y2","5aee59100ccc2e000185937c","freq","img/orange_2bandit_b2.png","70","70","test","1","70","70","3","",""
"null","348470","pSARL_v2","pSARL_v2c6gmf0y2","5aee59100ccc2e000185937c","freq_resp","img/orange_2bandit_b.png","70","70","test","","","","3","",""
"null","348637","pSARL_v2","pSARL_v2c6gmf0y2","5aee59100ccc2e000185937c","fixation","img/fixation.png","null","","test","","","","","",""
"378","349023","pSARL_v2","pSARL_v2c6gmf0y2","5aee59100ccc2e000185937c","freq","img/orange_2bandit_b2.png","70","70","test","1","71","71","3","",""
"null","349462","pSARL_v2","pSARL_v2c6gmf0y2","5aee59100ccc2e000185937c","freq_resp","img/orange_2bandit_b.png","70","70","test","","","","3","",""
"null","349628","pSARL_v2","pSARL_v2c6gmf0y2","5aee59100ccc2e000185937c","fixation","img/fixation.png","null","","test","","","","","",""
"712","350349","pSARL_v2","pSARL_v2c6gmf0y2","5aee59100ccc2e000185937c","reward","img/slot.png","74","","test","","","","","",""
"null","351109","pSARL_v2","pSARL_v2c6gmf0y2","5aee59100ccc2e000185937c","points","<div class=""verylowPoints""> -7 </div>","null","na","test","","","","3","-7","2"
"525","351641","pSARL_v2","pSARL_v2c6gmf0y2","5aee59100ccc2e000185937c","freq","img/orange_2bandit_b2.png","70","70","test","1","72","72","4","",""
"null","351926","pSARL_v2","pSARL_v2c6gmf0y2","5aee59100ccc2e000185937c","freq_resp","img/orange_2bandit_b.png","70","70","test","","","","4","",""
"null","352098","pSARL_v2","pSARL_v2c6gmf0y2","5aee59100ccc2e000185937c","fixation","img/fixation.png","null","","test","","","","","",""
"408","352515","pSARL_v2","pSARL_v2c6gmf0y2","5aee59100ccc2e000185937c","freq","img/orange_2bandit_b2.png","70","70","test","1","73","73","4","",""
"null","352921","pSARL_v2","pSARL_v2c6gmf0y2","5aee59100ccc2e000185937c","freq_resp","img/orange_2bandit_b.png","70","70","test","","","","4","",""
"null","353088","pSARL_v2","pSARL_v2c6gmf0y2","5aee59100ccc2e000185937c","fixation","img/fixation.png","null","","test","","","","","",""
"383","353477","pSARL_v2","pSARL_v2c6gmf0y2","5aee59100ccc2e000185937c","freq","img/orange_2bandit_b2.png","70","70","test","1","74","74","4","",""
"null","353912","pSARL_v2","pSARL_v2c6gmf0y2","5aee59100ccc2e000185937c","freq_resp","img/orange_2bandit_b.png","70","70","test","","","","4","",""
"null","354075","pSARL_v2","pSARL_v2c6gmf0y2","5aee59100ccc2e000185937c","fixation","img/fixation.png","null","","test","","","","","",""
"494","354576","pSARL_v2","pSARL_v2c6gmf0y2","5aee59100ccc2e000185937c","freq","img/orange_2bandit_b2.png","70","70","test","1","75","75","4","",""
"null","354892","pSARL_v2","pSARL_v2c6gmf0y2","5aee59100ccc2e000185937c","freq_resp","img/orange_2bandit_b.png","70","70","test","","","","4","",""
"null","355050","pSARL_v2","pSARL_v2c6gmf0y2","5aee59100ccc2e000185937c","fixation","img/fixation.png","null","","test","","","","","",""
"543","355600","pSARL_v2","pSARL_v2c6gmf0y2","5aee59100ccc2e000185937c","freq","img/orange_2bandit_b2.png","70","70","test","1","76","76","4","",""
"null","355875","pSARL_v2","pSARL_v2c6gmf0y2","5aee59100ccc2e000185937c","freq_resp","img/orange_2bandit_b.png","70","70","test","","","","4","",""
"null","356035","pSARL_v2","pSARL_v2c6gmf0y2","5aee59100ccc2e000185937c","fixation","img/fixation.png","null","","test","","","","","",""
"585","356625","pSARL_v2","pSARL_v2c6gmf0y2","5aee59100ccc2e000185937c","freq","img/orange_2bandit_b2.png","70","70","test","1","77","77","4","",""
"null","356860","pSARL_v2","pSARL_v2c6gmf0y2","5aee59100ccc2e000185937c","freq_resp","img/orange_2bandit_b.png","70","70","test","","","","4","",""
"null","357021","pSARL_v2","pSARL_v2c6gmf0y2","5aee59100ccc2e000185937c","fixation","img/fixation.png","null","","test","","","","","",""
"632","357660","pSARL_v2","pSARL_v2c6gmf0y2","5aee59100ccc2e000185937c","freq","img/orange_2bandit_b2.png","70","70","test","1","78","78","4","",""
"null","357842","pSARL_v2","pSARL_v2c6gmf0y2","5aee59100ccc2e000185937c","freq_resp","img/orange_2bandit_b.png","70","70","test","","","","4","",""
"null","358014","pSARL_v2","pSARL_v2c6gmf0y2","5aee59100ccc2e000185937c","fixation","img/fixation.png","null","","test","","","","","",""
"603","358626","pSARL_v2","pSARL_v2c6gmf0y2","5aee59100ccc2e000185937c","freq","img/orange_2bandit_b2.png","70","70","test","1","79","79","4","",""
"null","358831","pSARL_v2","pSARL_v2c6gmf0y2","5aee59100ccc2e000185937c","freq_resp","img/orange_2bandit_b.png","70","70","test","","","","4","",""
"null","358993","pSARL_v2","pSARL_v2c6gmf0y2","5aee59100ccc2e000185937c","fixation","img/fixation.png","null","","test","","","","","",""
"787","359787","pSARL_v2","pSARL_v2c6gmf0y2","5aee59100ccc2e000185937c","infreq","img/green_2bandit_b2.png","68","68","test","1","80","80","4","",""
"null","359809","pSARL_v2","pSARL_v2c6gmf0y2","5aee59100ccc2e000185937c","infreq_resp","img/green_2bandit_b.png","68","68","test","","","","4","",""
"null","359979","pSARL_v2","pSARL_v2c6gmf0y2","5aee59100ccc2e000185937c","fixation","img/fixation.png","null","","test","","","","","",""
"null","360794","pSARL_v2","pSARL_v2c6gmf0y2","5aee59100ccc2e000185937c","freq","img/orange_2bandit_b2.png","null","70","test","0","81","81","4","",""
"null","360952","pSARL_v2","pSARL_v2c6gmf0y2","5aee59100ccc2e000185937c","fixation","img/fixation.png","null","","test","","","","","",""
"559","361519","pSARL_v2","pSARL_v2c6gmf0y2","5aee59100ccc2e000185937c","freq","img/orange_2bandit_b2.png","70","70","test","1","82","82","4","",""
"null","361780","pSARL_v2","pSARL_v2c6gmf0y2","5aee59100ccc2e000185937c","freq_resp","img/orange_2bandit_b.png","70","70","test","","","","4","",""
"null","361942","pSARL_v2","pSARL_v2c6gmf0y2","5aee59100ccc2e000185937c","fixation","img/fixation.png","null","","test","","","","","",""
"327","362276","pSARL_v2","pSARL_v2c6gmf0y2","5aee59100ccc2e000185937c","freq","img/orange_2bandit_b2.png","70","70","test","1","83","83","4","",""
"null","362768","pSARL_v2","pSARL_v2c6gmf0y2","5aee59100ccc2e000185937c","freq_resp","img/orange_2bandit_b.png","70","70","test","","","","4","",""
"null","362942","pSARL_v2","pSARL_v2c6gmf0y2","5aee59100ccc2e000185937c","fixation","img/fixation.png","null","","test","","","","","",""
"342","363290","pSARL_v2","pSARL_v2c6gmf0y2","5aee59100ccc2e000185937c","freq","img/orange_2bandit_b2.png","70","70","test","1","84","84","4","",""
"null","363765","pSARL_v2","pSARL_v2c6gmf0y2","5aee59100ccc2e000185937c","freq_resp","img/orange_2bandit_b.png","70","70","test","","","","4","",""
"null","363936","pSARL_v2","pSARL_v2c6gmf0y2","5aee59100ccc2e000185937c","fixation","img/fixation.png","null","","test","","","","","",""
"335","364280","pSARL_v2","pSARL_v2c6gmf0y2","5aee59100ccc2e000185937c","freq","img/orange_2bandit_b2.png","70","70","test","1","85","85","4","",""
"null","364783","pSARL_v2","pSARL_v2c6gmf0y2","5aee59100ccc2e000185937c","freq_resp","img/orange_2bandit_b.png","70","70","test","","","","4","",""
"null","364954","pSARL_v2","pSARL_v2c6gmf0y2","5aee59100ccc2e000185937c","fixation","img/fixation.png","null","","test","","","","","",""
"360","365321","pSARL_v2","pSARL_v2c6gmf0y2","5aee59100ccc2e000185937c","freq","img/orange_2bandit_b2.png","70","70","test","1","86","86","4","",""
"null","365768","pSARL_v2","pSARL_v2c6gmf0y2","5aee59100ccc2e000185937c","freq_resp","img/orange_2bandit_b.png","70","70","test","","","","4","",""
"null","365924","pSARL_v2","pSARL_v2c6gmf0y2","5aee59100ccc2e000185937c","fixation","img/fixation.png","null","","test","","","","","",""
"485","366416","pSARL_v2","pSARL_v2c6gmf0y2","5aee59100ccc2e000185937c","infreq","img/green_2bandit_b2.png","68","68","test","1","87","87","4","",""
"null","366743","pSARL_v2","pSARL_v2c6gmf0y2","5aee59100ccc2e000185937c","infreq_resp","img/green_2bandit_b.png","68","68","test","","","","4","",""
"null","366912","pSARL_v2","pSARL_v2c6gmf0y2","5aee59100ccc2e000185937c","fixation","img/fixation.png","null","","test","","","","","",""
"373","367291","pSARL_v2","pSARL_v2c6gmf0y2","5aee59100ccc2e000185937c","freq","img/orange_2bandit_b2.png","70","70","test","1","88","88","4","",""
"null","367735","pSARL_v2","pSARL_v2c6gmf0y2","5aee59100ccc2e000185937c","freq_resp","img/orange_2bandit_b.png","70","70","test","","","","4","",""
"null","367906","pSARL_v2","pSARL_v2c6gmf0y2","5aee59100ccc2e000185937c","fixation","img/fixation.png","null","","test","","","","","",""
"327","368241","pSARL_v2","pSARL_v2c6gmf0y2","5aee59100ccc2e000185937c","freq","img/orange_2bandit_b2.png","70","70","test","1","89","89","4","",""
"null","368721","pSARL_v2","pSARL_v2c6gmf0y2","5aee59100ccc2e000185937c","freq_resp","img/orange_2bandit_b.png","70","70","test","","","","4","",""
"null","368880","pSARL_v2","pSARL_v2c6gmf0y2","5aee59100ccc2e000185937c","fixation","img/fixation.png","null","","test","","","","","",""
"302","369189","pSARL_v2","pSARL_v2c6gmf0y2","5aee59100ccc2e000185937c","freq","img/orange_2bandit_b2.png","70","70","test","1","90","90","4","",""
"null","369706","pSARL_v2","pSARL_v2c6gmf0y2","5aee59100ccc2e000185937c","freq_resp","img/orange_2bandit_b.png","70","70","test","","","","4","",""
"null","369871","pSARL_v2","pSARL_v2c6gmf0y2","5aee59100ccc2e000185937c","fixation","img/fixation.png","null","","test","","","","","",""
"514","370394","pSARL_v2","pSARL_v2c6gmf0y2","5aee59100ccc2e000185937c","reward","img/slot.png","74","","test","","","","","",""
"null","371191","pSARL_v2","pSARL_v2c6gmf0y2","5aee59100ccc2e000185937c","points","<div class=""verylowPoints""> -3 </div>","null","na","test","","","","4","-3","3"
"485","371684","pSARL_v2","pSARL_v2c6gmf0y2","5aee59100ccc2e000185937c","freq","img/orange_2bandit_b2.png","70","70","test","1","91","91","5","",""
"null","372010","pSARL_v2","pSARL_v2c6gmf0y2","5aee59100ccc2e000185937c","freq_resp","img/orange_2bandit_b.png","70","70","test","","","","5","",""
"null","372167","pSARL_v2","pSARL_v2c6gmf0y2","5aee59100ccc2e000185937c","fixation","img/fixation.png","null","","test","","","","","",""
"387","372561","pSARL_v2","pSARL_v2c6gmf0y2","5aee59100ccc2e000185937c","freq","img/orange_2bandit_b2.png","70","70","test","1","92","92","5","",""
"null","372983","pSARL_v2","pSARL_v2c6gmf0y2","5aee59100ccc2e000185937c","freq_resp","img/orange_2bandit_b.png","70","70","test","","","","5","",""
"null","373147","pSARL_v2","pSARL_v2c6gmf0y2","5aee59100ccc2e000185937c","fixation","img/fixation.png","null","","test","","","","","",""
"384","373538","pSARL_v2","pSARL_v2c6gmf0y2","5aee59100ccc2e000185937c","freq","img/orange_2bandit_b2.png","70","70","test","1","93","93","5","",""
"null","373975","pSARL_v2","pSARL_v2c6gmf0y2","5aee59100ccc2e000185937c","freq_resp","img/orange_2bandit_b.png","70","70","test","","","","5","",""
"null","374139","pSARL_v2","pSARL_v2c6gmf0y2","5aee59100ccc2e000185937c","fixation","img/fixation.png","null","","test","","","","","",""
"335","374479","pSARL_v2","pSARL_v2c6gmf0y2","5aee59100ccc2e000185937c","freq","img/orange_2bandit_b2.png","70","70","test","1","94","94","5","",""
"null","374964","pSARL_v2","pSARL_v2c6gmf0y2","5aee59100ccc2e000185937c","freq_resp","img/orange_2bandit_b.png","70","70","test","","","","5","",""
"null","375130","pSARL_v2","pSARL_v2c6gmf0y2","5aee59100ccc2e000185937c","fixation","img/fixation.png","null","","test","","","","","",""
"299","375436","pSARL_v2","pSARL_v2c6gmf0y2","5aee59100ccc2e000185937c","freq","img/orange_2bandit_b2.png","70","70","test","1","95","95","5","",""
"null","375956","pSARL_v2","pSARL_v2c6gmf0y2","5aee59100ccc2e000185937c","freq_resp","img/orange_2bandit_b.png","70","70","test","","","","5","",""
"null","376128","pSARL_v2","pSARL_v2c6gmf0y2","5aee59100ccc2e000185937c","fixation","img/fixation.png","null","","test","","","","","",""
"269","376404","pSARL_v2","pSARL_v2c6gmf0y2","5aee59100ccc2e000185937c","freq","img/orange_2bandit_b2.png","70","70","test","1","96","96","5","",""
"null","376964","pSARL_v2","pSARL_v2c6gmf0y2","5aee59100ccc2e000185937c","freq_resp","img/orange_2bandit_b.png","70","70","test","","","","5","",""
"null","377132","pSARL_v2","pSARL_v2c6gmf0y2","5aee59100ccc2e000185937c","fixation","img/fixation.png","null","","test","","","","","",""
"273","377412","pSARL_v2","pSARL_v2c6gmf0y2","5aee59100ccc2e000185937c","freq","img/orange_2bandit_b2.png","70","70","test","1","97","97","5","",""
"null","377963","pSARL_v2","pSARL_v2c6gmf0y2","5aee59100ccc2e000185937c","freq_resp","img/orange_2bandit_b.png","70","70","test","","","","5","",""
"null","378124","pSARL_v2","pSARL_v2c6gmf0y2","5aee59100ccc2e000185937c","fixation","img/fixation.png","null","","test","","","","","",""
"320","378450","pSARL_v2","pSARL_v2c6gmf0y2","5aee59100ccc2e000185937c","freq","img/orange_2bandit_b2.png","70","70","test","1","98","98","5","",""
"null","378948","pSARL_v2","pSARL_v2c6gmf0y2","5aee59100ccc2e000185937c","freq_resp","img/orange_2bandit_b.png","70","70","test","","","","5","",""
"null","379111","pSARL_v2","pSARL_v2c6gmf0y2","5aee59100ccc2e000185937c","fixation","img/fixation.png","null","","test","","","","","",""
"336","379454","pSARL_v2","pSARL_v2c6gmf0y2","5aee59100ccc2e000185937c","freq","img/orange_2bandit_b2.png","70","70","test","1","99","99","5","",""
"null","379933","pSARL_v2","pSARL_v2c6gmf0y2","5aee59100ccc2e000185937c","freq_resp","img/orange_2bandit_b.png","70","70","test","","","","5","",""
"null","380100","pSARL_v2","pSARL_v2c6gmf0y2","5aee59100ccc2e000185937c","fixation","img/fixation.png","null","","test","","","","","",""
"318","380425","pSARL_v2","pSARL_v2c6gmf0y2","5aee59100ccc2e000185937c","freq","img/orange_2bandit_b2.png","70","70","test","1","100","100","5","",""
"null","380923","pSARL_v2","pSARL_v2c6gmf0y2","5aee59100ccc2e000185937c","freq_resp","img/orange_2bandit_b.png","70","70","test","","","","5","",""
"null","381082","pSARL_v2","pSARL_v2c6gmf0y2","5aee59100ccc2e000185937c","fixation","img/fixation.png","null","","test","","","","","",""
"304","381397","pSARL_v2","pSARL_v2c6gmf0y2","5aee59100ccc2e000185937c","freq","img/orange_2bandit_b2.png","70","70","test","1","101","101","5","",""
"null","381917","pSARL_v2","pSARL_v2c6gmf0y2","5aee59100ccc2e000185937c","freq_resp","img/orange_2bandit_b.png","70","70","test","","","","5","",""
"null","382076","pSARL_v2","pSARL_v2c6gmf0y2","5aee59100ccc2e000185937c","fixation","img/fixation.png","null","","test","","","","","",""
"242","382323","pSARL_v2","pSARL_v2c6gmf0y2","5aee59100ccc2e000185937c","freq","img/orange_2bandit_b2.png","70","70","test","1","102","102","5","",""
"null","382895","pSARL_v2","pSARL_v2c6gmf0y2","5aee59100ccc2e000185937c","freq_resp","img/orange_2bandit_b.png","70","70","test","","","","5","",""
"null","383067","pSARL_v2","pSARL_v2c6gmf0y2","5aee59100ccc2e000185937c","fixation","img/fixation.png","null","","test","","","","","",""
"274","383348","pSARL_v2","pSARL_v2c6gmf0y2","5aee59100ccc2e000185937c","infreq","img/green_2bandit_b2.png","70","68","test","0","103","103","5","",""
"null","383884","pSARL_v2","pSARL_v2c6gmf0y2","5aee59100ccc2e000185937c","infreq_resp","img/green_2bandit_b.png","70","68","test","","","","5","",""
"null","384048","pSARL_v2","pSARL_v2c6gmf0y2","5aee59100ccc2e000185937c","fixation","img/fixation.png","null","","test","","","","","",""
"785","384842","pSARL_v2","pSARL_v2c6gmf0y2","5aee59100ccc2e000185937c","freq","img/orange_2bandit_b2.png","70","70","test","1","104","104","5","",""
"null","384869","pSARL_v2","pSARL_v2c6gmf0y2","5aee59100ccc2e000185937c","freq_resp","img/orange_2bandit_b.png","70","70","test","","","","5","",""
"null","385040","pSARL_v2","pSARL_v2c6gmf0y2","5aee59100ccc2e000185937c","fixation","img/fixation.png","null","","test","","","","","",""
"467","385514","pSARL_v2","pSARL_v2c6gmf0y2","5aee59100ccc2e000185937c","freq","img/orange_2bandit_b2.png","70","70","test","1","105","105","5","",""
"null","385861","pSARL_v2","pSARL_v2c6gmf0y2","5aee59100ccc2e000185937c","freq_resp","img/orange_2bandit_b.png","70","70","test","","","","5","",""
"null","386027","pSARL_v2","pSARL_v2c6gmf0y2","5aee59100ccc2e000185937c","fixation","img/fixation.png","null","","test","","","","","",""
"361","386395","pSARL_v2","pSARL_v2c6gmf0y2","5aee59100ccc2e000185937c","freq","img/orange_2bandit_b2.png","70","70","test","1","106","106","5","",""
"null","386847","pSARL_v2","pSARL_v2c6gmf0y2","5aee59100ccc2e000185937c","freq_resp","img/orange_2bandit_b.png","70","70","test","","","","5","",""
"null","387010","pSARL_v2","pSARL_v2c6gmf0y2","5aee59100ccc2e000185937c","fixation","img/fixation.png","null","","test","","","","","",""
"347","387366","pSARL_v2","pSARL_v2c6gmf0y2","5aee59100ccc2e000185937c","freq","img/orange_2bandit_b2.png","70","70","test","1","107","107","5","",""
"null","387839","pSARL_v2","pSARL_v2c6gmf0y2","5aee59100ccc2e000185937c","freq_resp","img/orange_2bandit_b.png","70","70","test","","","","5","",""
"null","388002","pSARL_v2","pSARL_v2c6gmf0y2","5aee59100ccc2e000185937c","fixation","img/fixation.png","null","","test","","","","","",""
"350","388360","pSARL_v2","pSARL_v2c6gmf0y2","5aee59100ccc2e000185937c","freq","img/orange_2bandit_b2.png","70","70","test","1","108","108","5","",""
"null","388860","pSARL_v2","pSARL_v2c6gmf0y2","5aee59100ccc2e000185937c","freq_resp","img/orange_2bandit_b.png","70","70","test","","","","5","",""
"null","389025","pSARL_v2","pSARL_v2c6gmf0y2","5aee59100ccc2e000185937c","fixation","img/fixation.png","null","","test","","","","","",""
"349","389381","pSARL_v2","pSARL_v2c6gmf0y2","5aee59100ccc2e000185937c","freq","img/orange_2bandit_b2.png","70","70","test","1","109","109","5","",""
"null","389845","pSARL_v2","pSARL_v2c6gmf0y2","5aee59100ccc2e000185937c","freq_resp","img/orange_2bandit_b.png","70","70","test","","","","5","",""
"null","390008","pSARL_v2","pSARL_v2c6gmf0y2","5aee59100ccc2e000185937c","fixation","img/fixation.png","null","","test","","","","","",""
"520","390535","pSARL_v2","pSARL_v2c6gmf0y2","5aee59100ccc2e000185937c","freq","img/orange_2bandit_b2.png","70","70","test","1","110","110","5","",""
"null","390824","pSARL_v2","pSARL_v2c6gmf0y2","5aee59100ccc2e000185937c","freq_resp","img/orange_2bandit_b.png","70","70","test","","","","5","",""
"null","390990","pSARL_v2","pSARL_v2c6gmf0y2","5aee59100ccc2e000185937c","fixation","img/fixation.png","null","","test","","","","","",""
"490","391488","pSARL_v2","pSARL_v2c6gmf0y2","5aee59100ccc2e000185937c","infreq","img/green_2bandit_b2.png","68","68","test","1","111","111","5","",""
"null","391807","pSARL_v2","pSARL_v2c6gmf0y2","5aee59100ccc2e000185937c","infreq_resp","img/green_2bandit_b.png","68","68","test","","","","5","",""
"null","391966","pSARL_v2","pSARL_v2c6gmf0y2","5aee59100ccc2e000185937c","fixation","img/fixation.png","null","","test","","","","","",""
"444","392417","pSARL_v2","pSARL_v2c6gmf0y2","5aee59100ccc2e000185937c","freq","img/orange_2bandit_b2.png","70","70","test","1","112","112","5","",""
"null","392786","pSARL_v2","pSARL_v2c6gmf0y2","5aee59100ccc2e000185937c","freq_resp","img/orange_2bandit_b.png","70","70","test","","","","5","",""
"null","392950","pSARL_v2","pSARL_v2c6gmf0y2","5aee59100ccc2e000185937c","fixation","img/fixation.png","null","","test","","","","","",""
"436","393395","pSARL_v2","pSARL_v2c6gmf0y2","5aee59100ccc2e000185937c","freq","img/orange_2bandit_b2.png","70","70","test","1","113","113","5","",""
"null","393783","pSARL_v2","pSARL_v2c6gmf0y2","5aee59100ccc2e000185937c","freq_resp","img/orange_2bandit_b.png","70","70","test","","","","5","",""
"null","393944","pSARL_v2","pSARL_v2c6gmf0y2","5aee59100ccc2e000185937c","fixation","img/fixation.png","null","","test","","","","","",""
"396","394348","pSARL_v2","pSARL_v2c6gmf0y2","5aee59100ccc2e000185937c","freq","img/orange_2bandit_b2.png","70","70","test","1","114","114","5","",""
"null","394767","pSARL_v2","pSARL_v2c6gmf0y2","5aee59100ccc2e000185937c","freq_resp","img/orange_2bandit_b.png","70","70","test","","","","5","",""
"null","394936","pSARL_v2","pSARL_v2c6gmf0y2","5aee59100ccc2e000185937c","fixation","img/fixation.png","null","","test","","","","","",""
"409","395351","pSARL_v2","pSARL_v2c6gmf0y2","5aee59100ccc2e000185937c","freq","img/orange_2bandit_b2.png","70","70","test","1","115","115","5","",""
"null","395762","pSARL_v2","pSARL_v2c6gmf0y2","5aee59100ccc2e000185937c","freq_resp","img/orange_2bandit_b.png","70","70","test","","","","5","",""
"null","395925","pSARL_v2","pSARL_v2c6gmf0y2","5aee59100ccc2e000185937c","fixation","img/fixation.png","null","","test","","","","","",""
"628","396559","pSARL_v2","pSARL_v2c6gmf0y2","5aee59100ccc2e000185937c","reward","img/slot.png","74","","test","","","","","",""
"null","397330","pSARL_v2","pSARL_v2c6gmf0y2","5aee59100ccc2e000185937c","points","<div class=""veryhighPoints""> +1 </div>","null","na","test","","","","5","1","4"
"688","398025","pSARL_v2","pSARL_v2c6gmf0y2","5aee59100ccc2e000185937c","freq","img/orange_2bandit_b2.png","70","70","test","1","116","116","6","",""
"null","398154","pSARL_v2","pSARL_v2c6gmf0y2","5aee59100ccc2e000185937c","freq_resp","img/orange_2bandit_b.png","70","70","test","","","","6","",""
"null","398317","pSARL_v2","pSARL_v2c6gmf0y2","5aee59100ccc2e000185937c","fixation","img/fixation.png","null","","test","","","","","",""
"393","398716","pSARL_v2","pSARL_v2c6gmf0y2","5aee59100ccc2e000185937c","freq","img/orange_2bandit_b2.png","70","70","test","1","117","117","6","",""
"null","399131","pSARL_v2","pSARL_v2c6gmf0y2","5aee59100ccc2e000185937c","freq_resp","img/orange_2bandit_b.png","70","70","test","","","","6","",""
"null","399299","pSARL_v2","pSARL_v2c6gmf0y2","5aee59100ccc2e000185937c","fixation","img/fixation.png","null","","test","","","","","",""
"384","399691","pSARL_v2","pSARL_v2c6gmf0y2","5aee59100ccc2e000185937c","freq","img/orange_2bandit_b2.png","70","70","test","1","118","118","6","",""
"null","400129","pSARL_v2","pSARL_v2c6gmf0y2","5aee59100ccc2e000185937c","freq_resp","img/orange_2bandit_b.png","70","70","test","","","","6","",""
"null","400298","pSARL_v2","pSARL_v2c6gmf0y2","5aee59100ccc2e000185937c","fixation","img/fixation.png","null","","test","","","","","",""
"357","400662","pSARL_v2","pSARL_v2c6gmf0y2","5aee59100ccc2e000185937c","freq","img/orange_2bandit_b2.png","70","70","test","1","119","119","6","",""
"null","401122","pSARL_v2","pSARL_v2c6gmf0y2","5aee59100ccc2e000185937c","freq_resp","img/orange_2bandit_b.png","70","70","test","","","","6","",""
"null","401290","pSARL_v2","pSARL_v2c6gmf0y2","5aee59100ccc2e000185937c","fixation","img/fixation.png","null","","test","","","","","",""
"274","401569","pSARL_v2","pSARL_v2c6gmf0y2","5aee59100ccc2e000185937c","freq","img/orange_2bandit_b2.png","70","70","test","1","120","120","6","",""
"null","402148","pSARL_v2","pSARL_v2c6gmf0y2","5aee59100ccc2e000185937c","freq_resp","img/orange_2bandit_b.png","70","70","test","","","","6","",""
"null","402315","pSARL_v2","pSARL_v2c6gmf0y2","5aee59100ccc2e000185937c","fixation","img/fixation.png","null","","test","","","","","",""
"288","402611","pSARL_v2","pSARL_v2c6gmf0y2","5aee59100ccc2e000185937c","freq","img/orange_2bandit_b2.png","70","70","test","1","121","121","6","",""
"null","403137","pSARL_v2","pSARL_v2c6gmf0y2","5aee59100ccc2e000185937c","freq_resp","img/orange_2bandit_b.png","70","70","test","","","","6","",""
"null","403298","pSARL_v2","pSARL_v2c6gmf0y2","5aee59100ccc2e000185937c","fixation","img/fixation.png","null","","test","","","","","",""
"267","403576","pSARL_v2","pSARL_v2c6gmf0y2","5aee59100ccc2e000185937c","freq","img/orange_2bandit_b2.png","70","70","test","1","122","122","6","",""
"null","404167","pSARL_v2","pSARL_v2c6gmf0y2","5aee59100ccc2e000185937c","freq_resp","img/orange_2bandit_b.png","70","70","test","","","","6","",""
"null","404340","pSARL_v2","pSARL_v2c6gmf0y2","5aee59100ccc2e000185937c","fixation","img/fixation.png","null","","test","","","","","",""
"315","404662","pSARL_v2","pSARL_v2c6gmf0y2","5aee59100ccc2e000185937c","freq","img/orange_2bandit_b2.png","70","70","test","1","123","123","6","",""
"null","405160","pSARL_v2","pSARL_v2c6gmf0y2","5aee59100ccc2e000185937c","freq_resp","img/orange_2bandit_b.png","70","70","test","","","","6","",""
"null","405329","pSARL_v2","pSARL_v2c6gmf0y2","5aee59100ccc2e000185937c","fixation","img/fixation.png","null","","test","","","","","",""
"324","405660","pSARL_v2","pSARL_v2c6gmf0y2","5aee59100ccc2e000185937c","freq","img/orange_2bandit_b2.png","70","70","test","1","124","124","6","",""
"null","406186","pSARL_v2","pSARL_v2c6gmf0y2","5aee59100ccc2e000185937c","freq_resp","img/orange_2bandit_b.png","70","70","test","","","","6","",""
"null","406359","pSARL_v2","pSARL_v2c6gmf0y2","5aee59100ccc2e000185937c","fixation","img/fixation.png","null","","test","","","","","",""
"311","406680","pSARL_v2","pSARL_v2c6gmf0y2","5aee59100ccc2e000185937c","freq","img/orange_2bandit_b2.png","70","70","test","1","125","125","6","",""
"null","407183","pSARL_v2","pSARL_v2c6gmf0y2","5aee59100ccc2e000185937c","freq_resp","img/orange_2bandit_b.png","70","70","test","","","","6","",""
"null","407356","pSARL_v2","pSARL_v2c6gmf0y2","5aee59100ccc2e000185937c","fixation","img/fixation.png","null","","test","","","","","",""
"354","407718","pSARL_v2","pSARL_v2c6gmf0y2","5aee59100ccc2e000185937c","freq","img/orange_2bandit_b2.png","70","70","test","1","126","126","6","",""
"null","408210","pSARL_v2","pSARL_v2c6gmf0y2","5aee59100ccc2e000185937c","freq_resp","img/orange_2bandit_b.png","70","70","test","","","","6","",""
"null","408380","pSARL_v2","pSARL_v2c6gmf0y2","5aee59100ccc2e000185937c","fixation","img/fixation.png","null","","test","","","","","",""
"399","408786","pSARL_v2","pSARL_v2c6gmf0y2","5aee59100ccc2e000185937c","freq","img/orange_2bandit_b2.png","70","70","test","1","127","127","6","",""
"null","409206","pSARL_v2","pSARL_v2c6gmf0y2","5aee59100ccc2e000185937c","freq_resp","img/orange_2bandit_b.png","70","70","test","","","","6","",""
"null","409379","pSARL_v2","pSARL_v2c6gmf0y2","5aee59100ccc2e000185937c","fixation","img/fixation.png","null","","test","","","","","",""
"352","409738","pSARL_v2","pSARL_v2c6gmf0y2","5aee59100ccc2e000185937c","freq","img/orange_2bandit_b2.png","70","70","test","1","128","128","6","",""
"null","410236","pSARL_v2","pSARL_v2c6gmf0y2","5aee59100ccc2e000185937c","freq_resp","img/orange_2bandit_b.png","70","70","test","","","","6","",""
"null","410410","pSARL_v2","pSARL_v2c6gmf0y2","5aee59100ccc2e000185937c","fixation","img/fixation.png","null","","test","","","","","",""
"304","410721","pSARL_v2","pSARL_v2c6gmf0y2","5aee59100ccc2e000185937c","freq","img/orange_2bandit_b2.png","70","70","test","1","129","129","6","",""
"null","411232","pSARL_v2","pSARL_v2c6gmf0y2","5aee59100ccc2e000185937c","freq_resp","img/orange_2bandit_b.png","70","70","test","","","","6","",""
"null","411402","pSARL_v2","pSARL_v2c6gmf0y2","5aee59100ccc2e000185937c","fixation","img/fixation.png","null","","test","","","","","",""
"276","411686","pSARL_v2","pSARL_v2c6gmf0y2","5aee59100ccc2e000185937c","infreq","img/green_2bandit_b2.png","70","68","test","0","130","130","6","",""
"null","412253","pSARL_v2","pSARL_v2c6gmf0y2","5aee59100ccc2e000185937c","infreq_resp","img/green_2bandit_b.png","70","68","test","","","","6","",""
"null","412424","pSARL_v2","pSARL_v2c6gmf0y2","5aee59100ccc2e000185937c","fixation","img/fixation.png","null","","test","","","","","",""
"462","412894","pSARL_v2","pSARL_v2c6gmf0y2","5aee59100ccc2e000185937c","freq","img/orange_2bandit_b2.png","70","70","test","1","131","131","6","",""
"null","413251","pSARL_v2","pSARL_v2c6gmf0y2","5aee59100ccc2e000185937c","freq_resp","img/orange_2bandit_b.png","70","70","test","","","","6","",""
"null","413421","pSARL_v2","pSARL_v2c6gmf0y2","5aee59100ccc2e000185937c","fixation","img/fixation.png","null","","test","","","","","",""
"403","413833","pSARL_v2","pSARL_v2c6gmf0y2","5aee59100ccc2e000185937c","freq","img/orange_2bandit_b2.png","70","70","test","1","132","132","6","",""
"null","414288","pSARL_v2","pSARL_v2c6gmf0y2","5aee59100ccc2e000185937c","freq_resp","img/orange_2bandit_b.png","70","70","test","","","","6","",""
"null","414462","pSARL_v2","pSARL_v2c6gmf0y2","5aee59100ccc2e000185937c","fixation","img/fixation.png","null","","test","","","","","",""
"460","414928","pSARL_v2","pSARL_v2c6gmf0y2","5aee59100ccc2e000185937c","infreq","img/green_2bandit_b2.png","68","68","test","1","133","133","6","",""
"null","415285","pSARL_v2","pSARL_v2c6gmf0y2","5aee59100ccc2e000185937c","infreq_resp","img/green_2bandit_b.png","68","68","test","","","","6","",""
"null","415458","pSARL_v2","pSARL_v2c6gmf0y2","5aee59100ccc2e000185937c","fixation","img/fixation.png","null","","test","","","","","",""
"323","415788","pSARL_v2","pSARL_v2c6gmf0y2","5aee59100ccc2e000185937c","freq","img/orange_2bandit_b2.png","70","70","test","1","134","134","6","",""
"null","416316","pSARL_v2","pSARL_v2c6gmf0y2","5aee59100ccc2e000185937c","freq_resp","img/orange_2bandit_b.png","70","70","test","","","","6","",""
"null","416489","pSARL_v2","pSARL_v2c6gmf0y2","5aee59100ccc2e000185937c","fixation","img/fixation.png","null","","test","","","","","",""
"315","416811","pSARL_v2","pSARL_v2c6gmf0y2","5aee59100ccc2e000185937c","freq","img/orange_2bandit_b2.png","70","70","test","1","135","135","6","",""
"null","417357","pSARL_v2","pSARL_v2c6gmf0y2","5aee59100ccc2e000185937c","freq_resp","img/orange_2bandit_b.png","70","70","test","","","","6","",""
"null","417516","pSARL_v2","pSARL_v2c6gmf0y2","5aee59100ccc2e000185937c","fixation","img/fixation.png","null","","test","","","","","",""
"447","417971","pSARL_v2","pSARL_v2c6gmf0y2","5aee59100ccc2e000185937c","reward","img/slot.png","74","","test","","","","","",""
"null","418730","pSARL_v2","pSARL_v2c6gmf0y2","5aee59100ccc2e000185937c","points","<div class=""verylowPoints""> -7 </div>","null","na","test","","","","6","-7","5"
"457","419194","pSARL_v2","pSARL_v2c6gmf0y2","5aee59100ccc2e000185937c","freq","img/orange_2bandit_b2.png","70","70","test","1","136","136","7","",""
"null","419548","pSARL_v2","pSARL_v2c6gmf0y2","5aee59100ccc2e000185937c","freq_resp","img/orange_2bandit_b.png","70","70","test","","","","7","",""
"null","419716","pSARL_v2","pSARL_v2c6gmf0y2","5aee59100ccc2e000185937c","fixation","img/fixation.png","null","","test","","","","","",""
"467","420191","pSARL_v2","pSARL_v2c6gmf0y2","5aee59100ccc2e000185937c","infreq","img/green_2bandit_b2.png","68","68","test","1","137","137","7","",""
"null","420544","pSARL_v2","pSARL_v2c6gmf0y2","5aee59100ccc2e000185937c","infreq_resp","img/green_2bandit_b.png","68","68","test","","","","7","",""
"null","420714","pSARL_v2","pSARL_v2c6gmf0y2","5aee59100ccc2e000185937c","fixation","img/fixation.png","null","","test","","","","","",""
"360","421081","pSARL_v2","pSARL_v2c6gmf0y2","5aee59100ccc2e000185937c","freq","img/orange_2bandit_b2.png","70","70","test","1","138","138","7","",""
"null","421532","pSARL_v2","pSARL_v2c6gmf0y2","5aee59100ccc2e000185937c","freq_resp","img/orange_2bandit_b.png","70","70","test","","","","7","",""
"null","421703","pSARL_v2","pSARL_v2c6gmf0y2","5aee59100ccc2e000185937c","fixation","img/fixation.png","null","","test","","","","","",""
"439","422151","pSARL_v2","pSARL_v2c6gmf0y2","5aee59100ccc2e000185937c","infreq","img/green_2bandit_b2.png","68","68","test","1","139","139","7","",""
"null","422531","pSARL_v2","pSARL_v2c6gmf0y2","5aee59100ccc2e000185937c","infreq_resp","img/green_2bandit_b.png","68","68","test","","","","7","",""
"null","422692","pSARL_v2","pSARL_v2c6gmf0y2","5aee59100ccc2e000185937c","fixation","img/fixation.png","null","","test","","","","","",""
"363","423064","pSARL_v2","pSARL_v2c6gmf0y2","5aee59100ccc2e000185937c","freq","img/orange_2bandit_b2.png","70","70","test","1","140","140","7","",""
"null","423513","pSARL_v2","pSARL_v2c6gmf0y2","5aee59100ccc2e000185937c","freq_resp","img/orange_2bandit_b.png","70","70","test","","","","7","",""
"null","423682","pSARL_v2","pSARL_v2c6gmf0y2","5aee59100ccc2e000185937c","fixation","img/fixation.png","null","","test","","","","","",""
"455","424144","pSARL_v2","pSARL_v2c6gmf0y2","5aee59100ccc2e000185937c","freq","img/orange_2bandit_b2.png","70","70","test","1","141","141","7","",""
"null","424511","pSARL_v2","pSARL_v2c6gmf0y2","5aee59100ccc2e000185937c","freq_resp","img/orange_2bandit_b.png","70","70","test","","","","7","",""
"null","424676","pSARL_v2","pSARL_v2c6gmf0y2","5aee59100ccc2e000185937c","fixation","img/fixation.png","null","","test","","","","","",""
"373","425054","pSARL_v2","pSARL_v2c6gmf0y2","5aee59100ccc2e000185937c","freq","img/orange_2bandit_b2.png","70","70","test","1","142","142","7","",""
"null","425498","pSARL_v2","pSARL_v2c6gmf0y2","5aee59100ccc2e000185937c","freq_resp","img/orange_2bandit_b.png","70","70","test","","","","7","",""
"null","425664","pSARL_v2","pSARL_v2c6gmf0y2","5aee59100ccc2e000185937c","fixation","img/fixation.png","null","","test","","","","","",""
"402","426076","pSARL_v2","pSARL_v2c6gmf0y2","5aee59100ccc2e000185937c","freq","img/orange_2bandit_b2.png","70","70","test","1","143","143","7","",""
"null","426482","pSARL_v2","pSARL_v2c6gmf0y2","5aee59100ccc2e000185937c","freq_resp","img/orange_2bandit_b.png","70","70","test","","","","7","",""
"null","426653","pSARL_v2","pSARL_v2c6gmf0y2","5aee59100ccc2e000185937c","fixation","img/fixation.png","null","","test","","","","","",""
"394","427055","pSARL_v2","pSARL_v2c6gmf0y2","5aee59100ccc2e000185937c","freq","img/orange_2bandit_b2.png","70","70","test","1","144","144","7","",""
"null","427473","pSARL_v2","pSARL_v2c6gmf0y2","5aee59100ccc2e000185937c","freq_resp","img/orange_2bandit_b.png","70","70","test","","","","7","",""
"null","427634","pSARL_v2","pSARL_v2c6gmf0y2","5aee59100ccc2e000185937c","fixation","img/fixation.png","null","","test","","","","","",""
"396","428036","pSARL_v2","pSARL_v2c6gmf0y2","5aee59100ccc2e000185937c","freq","img/orange_2bandit_b2.png","70","70","test","1","145","145","7","",""
"null","428452","pSARL_v2","pSARL_v2c6gmf0y2","5aee59100ccc2e000185937c","freq_resp","img/orange_2bandit_b.png","70","70","test","","","","7","",""
"null","428609","pSARL_v2","pSARL_v2c6gmf0y2","5aee59100ccc2e000185937c","fixation","img/fixation.png","null","","test","","","","","",""
"440","429054","pSARL_v2","pSARL_v2c6gmf0y2","5aee59100ccc2e000185937c","freq","img/orange_2bandit_b2.png","70","70","test","1","146","146","7","",""
"null","429435","pSARL_v2","pSARL_v2c6gmf0y2","5aee59100ccc2e000185937c","freq_resp","img/orange_2bandit_b.png","70","70","test","","","","7","",""
"null","429606","pSARL_v2","pSARL_v2c6gmf0y2","5aee59100ccc2e000185937c","fixation","img/fixation.png","null","","test","","","","","",""
"362","429977","pSARL_v2","pSARL_v2c6gmf0y2","5aee59100ccc2e000185937c","freq","img/orange_2bandit_b2.png","70","70","test","1","147","147","7","",""
"null","430434","pSARL_v2","pSARL_v2c6gmf0y2","5aee59100ccc2e000185937c","freq_resp","img/orange_2bandit_b.png","70","70","test","","","","7","",""
"null","430597","pSARL_v2","pSARL_v2c6gmf0y2","5aee59100ccc2e000185937c","fixation","img/fixation.png","null","","test","","","","","",""
"354","430959","pSARL_v2","pSARL_v2c6gmf0y2","5aee59100ccc2e000185937c","freq","img/orange_2bandit_b2.png","70","70","test","1","148","148","7","",""
"null","431418","pSARL_v2","pSARL_v2c6gmf0y2","5aee59100ccc2e000185937c","freq_resp","img/orange_2bandit_b.png","70","70","test","","","","7","",""
"null","431590","pSARL_v2","pSARL_v2c6gmf0y2","5aee59100ccc2e000185937c","fixation","img/fixation.png","null","","test","","","","","",""
"380","431977","pSARL_v2","pSARL_v2c6gmf0y2","5aee59100ccc2e000185937c","freq","img/orange_2bandit_b2.png","70","70","test","1","149","149","7","",""
"null","432416","pSARL_v2","pSARL_v2c6gmf0y2","5aee59100ccc2e000185937c","freq_resp","img/orange_2bandit_b.png","70","70","test","","","","7","",""
"null","432582","pSARL_v2","pSARL_v2c6gmf0y2","5aee59100ccc2e000185937c","fixation","img/fixation.png","null","","test","","","","","",""
"371","432959","pSARL_v2","pSARL_v2c6gmf0y2","5aee59100ccc2e000185937c","freq","img/orange_2bandit_b2.png","70","70","test","1","150","150","7","",""
"null","433437","pSARL_v2","pSARL_v2c6gmf0y2","5aee59100ccc2e000185937c","freq_resp","img/orange_2bandit_b.png","70","70","test","","","","7","",""
"null","433600","pSARL_v2","pSARL_v2c6gmf0y2","5aee59100ccc2e000185937c","fixation","img/fixation.png","null","","test","","","","","",""
"366","433974","pSARL_v2","pSARL_v2c6gmf0y2","5aee59100ccc2e000185937c","freq","img/orange_2bandit_b2.png","70","70","test","1","151","151","7","",""
"null","434421","pSARL_v2","pSARL_v2c6gmf0y2","5aee59100ccc2e000185937c","freq_resp","img/orange_2bandit_b.png","70","70","test","","","","7","",""
"null","434584","pSARL_v2","pSARL_v2c6gmf0y2","5aee59100ccc2e000185937c","fixation","img/fixation.png","null","","test","","","","","",""
"371","434962","pSARL_v2","pSARL_v2c6gmf0y2","5aee59100ccc2e000185937c","freq","img/orange_2bandit_b2.png","70","70","test","1","152","152","7","",""
"null","435412","pSARL_v2","pSARL_v2c6gmf0y2","5aee59100ccc2e000185937c","freq_resp","img/orange_2bandit_b.png","70","70","test","","","","7","",""
"null","435577","pSARL_v2","pSARL_v2c6gmf0y2","5aee59100ccc2e000185937c","fixation","img/fixation.png","null","","test","","","","","",""
"386","435970","pSARL_v2","pSARL_v2c6gmf0y2","5aee59100ccc2e000185937c","freq","img/orange_2bandit_b2.png","70","70","test","1","153","153","7","",""
"null","436397","pSARL_v2","pSARL_v2c6gmf0y2","5aee59100ccc2e000185937c","freq_resp","img/orange_2bandit_b.png","70","70","test","","","","7","",""
"null","436567","pSARL_v2","pSARL_v2c6gmf0y2","5aee59100ccc2e000185937c","fixation","img/fixation.png","null","","test","","","","","",""
"373","436949","pSARL_v2","pSARL_v2c6gmf0y2","5aee59100ccc2e000185937c","freq","img/orange_2bandit_b2.png","70","70","test","1","154","154","7","",""
"null","437391","pSARL_v2","pSARL_v2c6gmf0y2","5aee59100ccc2e000185937c","freq_resp","img/orange_2bandit_b.png","70","70","test","","","","7","",""
"null","437552","pSARL_v2","pSARL_v2c6gmf0y2","5aee59100ccc2e000185937c","fixation","img/fixation.png","null","","test","","","","","",""
"546","438105","pSARL_v2","pSARL_v2c6gmf0y2","5aee59100ccc2e000185937c","freq","img/orange_2bandit_b2.png","70","70","test","1","155","155","7","",""
"null","438371","pSARL_v2","pSARL_v2c6gmf0y2","5aee59100ccc2e000185937c","freq_resp","img/orange_2bandit_b.png","70","70","test","","","","7","",""
"null","438530","pSARL_v2","pSARL_v2c6gmf0y2","5aee59100ccc2e000185937c","fixation","img/fixation.png","null","","test","","","","","",""
"437","438975","pSARL_v2","pSARL_v2c6gmf0y2","5aee59100ccc2e000185937c","reward","img/slot.png","74","","test","","","","","",""
"null","439737","pSARL_v2","pSARL_v2c6gmf0y2","5aee59100ccc2e000185937c","points","<div class=""verylowPoints""> -6 </div>","null","na","test","","","","7","-6","6"
"425","440169","pSARL_v2","pSARL_v2c6gmf0y2","5aee59100ccc2e000185937c","freq","img/orange_2bandit_b2.png","70","70","test","1","156","156","8","",""
"null","440564","pSARL_v2","pSARL_v2c6gmf0y2","5aee59100ccc2e000185937c","freq_resp","img/orange_2bandit_b.png","70","70","test","","","","8","",""
"null","440735","pSARL_v2","pSARL_v2c6gmf0y2","5aee59100ccc2e000185937c","fixation","img/fixation.png","null","","test","","","","","",""
"410","441152","pSARL_v2","pSARL_v2c6gmf0y2","5aee59100ccc2e000185937c","freq","img/orange_2bandit_b2.png","70","70","test","1","157","157","8","",""
"null","441555","pSARL_v2","pSARL_v2c6gmf0y2","5aee59100ccc2e000185937c","freq_resp","img/orange_2bandit_b.png","70","70","test","","","","8","",""
"null","441717","pSARL_v2","pSARL_v2c6gmf0y2","5aee59100ccc2e000185937c","fixation","img/fixation.png","null","","test","","","","","",""
"376","442100","pSARL_v2","pSARL_v2c6gmf0y2","5aee59100ccc2e000185937c","freq","img/orange_2bandit_b2.png","70","70","test","1","158","158","8","",""
"null","442532","pSARL_v2","pSARL_v2c6gmf0y2","5aee59100ccc2e000185937c","freq_resp","img/orange_2bandit_b.png","70","70","test","","","","8","",""
"null","442701","pSARL_v2","pSARL_v2c6gmf0y2","5aee59100ccc2e000185937c","fixation","img/fixation.png","null","","test","","","","","",""
"341","443049","pSARL_v2","pSARL_v2c6gmf0y2","5aee59100ccc2e000185937c","freq","img/orange_2bandit_b2.png","70","70","test","1","159","159","8","",""
"null","443526","pSARL_v2","pSARL_v2c6gmf0y2","5aee59100ccc2e000185937c","freq_resp","img/orange_2bandit_b.png","70","70","test","","","","8","",""
"null","443698","pSARL_v2","pSARL_v2c6gmf0y2","5aee59100ccc2e000185937c","fixation","img/fixation.png","null","","test","","","","","",""
"346","444052","pSARL_v2","pSARL_v2c6gmf0y2","5aee59100ccc2e000185937c","freq","img/orange_2bandit_b2.png","70","70","test","1","160","160","8","",""
"null","444527","pSARL_v2","pSARL_v2c6gmf0y2","5aee59100ccc2e000185937c","freq_resp","img/orange_2bandit_b.png","70","70","test","","","","8","",""
"null","444688","pSARL_v2","pSARL_v2c6gmf0y2","5aee59100ccc2e000185937c","fixation","img/fixation.png","null","","test","","","","","",""
"319","445016","pSARL_v2","pSARL_v2c6gmf0y2","5aee59100ccc2e000185937c","freq","img/orange_2bandit_b2.png","70","70","test","1","161","161","8","",""
"null","445506","pSARL_v2","pSARL_v2c6gmf0y2","5aee59100ccc2e000185937c","freq_resp","img/orange_2bandit_b.png","70","70","test","","","","8","",""
"null","445670","pSARL_v2","pSARL_v2c6gmf0y2","5aee59100ccc2e000185937c","fixation","img/fixation.png","null","","test","","","","","",""
"652","446332","pSARL_v2","pSARL_v2c6gmf0y2","5aee59100ccc2e000185937c","infreq","img/green_2bandit_b2.png","68","68","test","1","162","162","8","",""
"null","446501","pSARL_v2","pSARL_v2c6gmf0y2","5aee59100ccc2e000185937c","infreq_resp","img/green_2bandit_b.png","68","68","test","","","","8","",""
"null","446665","pSARL_v2","pSARL_v2c6gmf0y2","5aee59100ccc2e000185937c","fixation","img/fixation.png","null","","test","","","","","",""
"430","447104","pSARL_v2","pSARL_v2c6gmf0y2","5aee59100ccc2e000185937c","freq","img/orange_2bandit_b2.png","70","70","test","1","163","163","8","",""
"null","447491","pSARL_v2","pSARL_v2c6gmf0y2","5aee59100ccc2e000185937c","freq_resp","img/orange_2bandit_b.png","70","70","test","","","","8","",""
"null","447676","pSARL_v2","pSARL_v2c6gmf0y2","5aee59100ccc2e000185937c","fixation","img/fixation.png","null","","test","","","","","",""
"518","448200","pSARL_v2","pSARL_v2c6gmf0y2","5aee59100ccc2e000185937c","freq","img/orange_2bandit_b2.png","70","70","test","1","164","164","8","",""
"null","448504","pSARL_v2","pSARL_v2c6gmf0y2","5aee59100ccc2e000185937c","freq_resp","img/orange_2bandit_b.png","70","70","test","","","","8","",""
"null","448683","pSARL_v2","pSARL_v2c6gmf0y2","5aee59100ccc2e000185937c","fixation","img/fixation.png","null","","test","","","","","",""
"409","449100","pSARL_v2","pSARL_v2c6gmf0y2","5aee59100ccc2e000185937c","freq","img/orange_2bandit_b2.png","70","70","test","1","165","165","8","",""
"null","449506","pSARL_v2","pSARL_v2c6gmf0y2","5aee59100ccc2e000185937c","freq_resp","img/orange_2bandit_b.png","70","70","test","","","","8","",""
"null","449673","pSARL_v2","pSARL_v2c6gmf0y2","5aee59100ccc2e000185937c","fixation","img/fixation.png","null","","test","","","","","",""
"452","450133","pSARL_v2","pSARL_v2c6gmf0y2","5aee59100ccc2e000185937c","infreq","img/green_2bandit_b2.png","68","68","test","1","166","166","8","",""
"null","450499","pSARL_v2","pSARL_v2c6gmf0y2","5aee59100ccc2e000185937c","infreq_resp","img/green_2bandit_b.png","68","68","test","","","","8","",""
"null","450661","pSARL_v2","pSARL_v2c6gmf0y2","5aee59100ccc2e000185937c","fixation","img/fixation.png","null","","test","","","","","",""
"288","450956","pSARL_v2","pSARL_v2c6gmf0y2","5aee59100ccc2e000185937c","freq","img/orange_2bandit_b2.png","70","70","test","1","167","167","8","",""
"null","451491","pSARL_v2","pSARL_v2c6gmf0y2","5aee59100ccc2e000185937c","freq_resp","img/orange_2bandit_b.png","70","70","test","","","","8","",""
"null","451659","pSARL_v2","pSARL_v2c6gmf0y2","5aee59100ccc2e000185937c","fixation","img/fixation.png","null","","test","","","","","",""
"333","452002","pSARL_v2","pSARL_v2c6gmf0y2","5aee59100ccc2e000185937c","freq","img/orange_2bandit_b2.png","70","70","test","1","168","168","8","",""
"null","452488","pSARL_v2","pSARL_v2c6gmf0y2","5aee59100ccc2e000185937c","freq_resp","img/orange_2bandit_b.png","70","70","test","","","","8","",""
"null","452650","pSARL_v2","pSARL_v2c6gmf0y2","5aee59100ccc2e000185937c","fixation","img/fixation.png","null","","test","","","","","",""
"344","453003","pSARL_v2","pSARL_v2c6gmf0y2","5aee59100ccc2e000185937c","freq","img/orange_2bandit_b2.png","70","70","test","1","169","169","8","",""
"null","453480","pSARL_v2","pSARL_v2c6gmf0y2","5aee59100ccc2e000185937c","freq_resp","img/orange_2bandit_b.png","70","70","test","","","","8","",""
"null","453649","pSARL_v2","pSARL_v2c6gmf0y2","5aee59100ccc2e000185937c","fixation","img/fixation.png","null","","test","","","","","",""
"305","453960","pSARL_v2","pSARL_v2c6gmf0y2","5aee59100ccc2e000185937c","freq","img/orange_2bandit_b2.png","70","70","test","1","170","170","8","",""
"null","454470","pSARL_v2","pSARL_v2c6gmf0y2","5aee59100ccc2e000185937c","freq_resp","img/orange_2bandit_b.png","70","70","test","","","","8","",""
"null","454638","pSARL_v2","pSARL_v2c6gmf0y2","5aee59100ccc2e000185937c","fixation","img/fixation.png","null","","test","","","","","",""
"292","454938","pSARL_v2","pSARL_v2c6gmf0y2","5aee59100ccc2e000185937c","freq","img/orange_2bandit_b2.png","70","70","test","1","171","171","8","",""
"null","455466","pSARL_v2","pSARL_v2c6gmf0y2","5aee59100ccc2e000185937c","freq_resp","img/orange_2bandit_b.png","70","70","test","","","","8","",""
"null","455624","pSARL_v2","pSARL_v2c6gmf0y2","5aee59100ccc2e000185937c","fixation","img/fixation.png","null","","test","","","","","",""
"337","455969","pSARL_v2","pSARL_v2c6gmf0y2","5aee59100ccc2e000185937c","freq","img/orange_2bandit_b2.png","70","70","test","1","172","172","8","",""
"null","456453","pSARL_v2","pSARL_v2c6gmf0y2","5aee59100ccc2e000185937c","freq_resp","img/orange_2bandit_b.png","70","70","test","","","","8","",""
"null","456619","pSARL_v2","pSARL_v2c6gmf0y2","5aee59100ccc2e000185937c","fixation","img/fixation.png","null","","test","","","","","",""
"404","457031","pSARL_v2","pSARL_v2c6gmf0y2","5aee59100ccc2e000185937c","freq","img/orange_2bandit_b2.png","70","70","test","1","173","173","8","",""
"null","457447","pSARL_v2","pSARL_v2c6gmf0y2","5aee59100ccc2e000185937c","freq_resp","img/orange_2bandit_b.png","70","70","test","","","","8","",""
"null","457616","pSARL_v2","pSARL_v2c6gmf0y2","5aee59100ccc2e000185937c","fixation","img/fixation.png","null","","test","","","","","",""
"483","458106","pSARL_v2","pSARL_v2c6gmf0y2","5aee59100ccc2e000185937c","freq","img/orange_2bandit_b2.png","70","70","test","1","174","174","8","",""
"null","458431","pSARL_v2","pSARL_v2c6gmf0y2","5aee59100ccc2e000185937c","freq_resp","img/orange_2bandit_b.png","70","70","test","","","","8","",""
"null","458592","pSARL_v2","pSARL_v2c6gmf0y2","5aee59100ccc2e000185937c","fixation","img/fixation.png","null","","test","","","","","",""
"509","459107","pSARL_v2","pSARL_v2c6gmf0y2","5aee59100ccc2e000185937c","reward","img/slot.png","74","","test","","","","","",""
"null","459869","pSARL_v2","pSARL_v2c6gmf0y2","5aee59100ccc2e000185937c","points","<div class=""verylowPoints""> -4 </div>","null","na","test","","","","8","-4","7"
"305","460183","pSARL_v2","pSARL_v2c6gmf0y2","5aee59100ccc2e000185937c","freq","img/orange_2bandit_b2.png","70","70","test","1","175","175","9","",""
"null","460695","pSARL_v2","pSARL_v2c6gmf0y2","5aee59100ccc2e000185937c","freq_resp","img/orange_2bandit_b.png","70","70","test","","","","9","",""
"null","460858","pSARL_v2","pSARL_v2c6gmf0y2","5aee59100ccc2e000185937c","fixation","img/fixation.png","null","","test","","","","","",""
"492","461356","pSARL_v2","pSARL_v2c6gmf0y2","5aee59100ccc2e000185937c","infreq","img/green_2bandit_b2.png","68","68","test","1","176","176","9","",""
"null","461681","pSARL_v2","pSARL_v2c6gmf0y2","5aee59100ccc2e000185937c","infreq_resp","img/green_2bandit_b.png","68","68","test","","","","9","",""
"null","461850","pSARL_v2","pSARL_v2c6gmf0y2","5aee59100ccc2e000185937c","fixation","img/fixation.png","null","","test","","","","","",""
"380","462237","pSARL_v2","pSARL_v2c6gmf0y2","5aee59100ccc2e000185937c","freq","img/orange_2bandit_b2.png","70","70","test","1","177","177","9","",""
"null","462680","pSARL_v2","pSARL_v2c6gmf0y2","5aee59100ccc2e000185937c","freq_resp","img/orange_2bandit_b.png","70","70","test","","","","9","",""
"null","462841","pSARL_v2","pSARL_v2c6gmf0y2","5aee59100ccc2e000185937c","fixation","img/fixation.png","null","","test","","","","","",""
"363","463211","pSARL_v2","pSARL_v2c6gmf0y2","5aee59100ccc2e000185937c","freq","img/orange_2bandit_b2.png","70","70","test","1","178","178","9","",""
"null","463661","pSARL_v2","pSARL_v2c6gmf0y2","5aee59100ccc2e000185937c","freq_resp","img/orange_2bandit_b.png","70","70","test","","","","9","",""
"null","463824","pSARL_v2","pSARL_v2c6gmf0y2","5aee59100ccc2e000185937c","fixation","img/fixation.png","null","","test","","","","","",""
"343","464174","pSARL_v2","pSARL_v2c6gmf0y2","5aee59100ccc2e000185937c","freq","img/orange_2bandit_b2.png","70","70","test","1","179","179","9","",""
"null","464652","pSARL_v2","pSARL_v2c6gmf0y2","5aee59100ccc2e000185937c","freq_resp","img/orange_2bandit_b.png","70","70","test","","","","9","",""
"null","464821","pSARL_v2","pSARL_v2c6gmf0y2","5aee59100ccc2e000185937c","fixation","img/fixation.png","null","","test","","","","","",""
"389","465217","pSARL_v2","pSARL_v2c6gmf0y2","5aee59100ccc2e000185937c","freq","img/orange_2bandit_b2.png","70","70","test","1","180","180","9","",""
"null","465680","pSARL_v2","pSARL_v2c6gmf0y2","5aee59100ccc2e000185937c","freq_resp","img/orange_2bandit_b.png","70","70","test","","","","9","",""
"null","465844","pSARL_v2","pSARL_v2c6gmf0y2","5aee59100ccc2e000185937c","fixation","img/fixation.png","null","","test","","","","","",""
"393","466245","pSARL_v2","pSARL_v2c6gmf0y2","5aee59100ccc2e000185937c","freq","img/orange_2bandit_b2.png","70","70","test","1","181","181","9","",""
"null","466663","pSARL_v2","pSARL_v2c6gmf0y2","5aee59100ccc2e000185937c","freq_resp","img/orange_2bandit_b.png","70","70","test","","","","9","",""
"null","466828","pSARL_v2","pSARL_v2c6gmf0y2","5aee59100ccc2e000185937c","fixation","img/fixation.png","null","","test","","","","","",""
"434","467271","pSARL_v2","pSARL_v2c6gmf0y2","5aee59100ccc2e000185937c","freq","img/orange_2bandit_b2.png","70","70","test","1","182","182","9","",""
"null","467652","pSARL_v2","pSARL_v2c6gmf0y2","5aee59100ccc2e000185937c","freq_resp","img/orange_2bandit_b.png","70","70","test","","","","9","",""
"null","467814","pSARL_v2","pSARL_v2c6gmf0y2","5aee59100ccc2e000185937c","fixation","img/fixation.png","null","","test","","","","","",""
"400","468222","pSARL_v2","pSARL_v2c6gmf0y2","5aee59100ccc2e000185937c","freq","img/orange_2bandit_b2.png","70","70","test","1","183","183","9","",""
"null","468636","pSARL_v2","pSARL_v2c6gmf0y2","5aee59100ccc2e000185937c","freq_resp","img/orange_2bandit_b.png","70","70","test","","","","9","",""
"null","468796","pSARL_v2","pSARL_v2c6gmf0y2","5aee59100ccc2e000185937c","fixation","img/fixation.png","null","","test","","","","","",""
"423","469228","pSARL_v2","pSARL_v2c6gmf0y2","5aee59100ccc2e000185937c","freq","img/orange_2bandit_b2.png","70","70","test","1","184","184","9","",""
"null","469621","pSARL_v2","pSARL_v2c6gmf0y2","5aee59100ccc2e000185937c","freq_resp","img/orange_2bandit_b.png","70","70","test","","","","9","",""
"null","469782","pSARL_v2","pSARL_v2c6gmf0y2","5aee59100ccc2e000185937c","fixation","img/fixation.png","null","","test","","","","","",""
"414","470204","pSARL_v2","pSARL_v2c6gmf0y2","5aee59100ccc2e000185937c","freq","img/orange_2bandit_b2.png","70","70","test","1","185","185","9","",""
"null","470607","pSARL_v2","pSARL_v2c6gmf0y2","5aee59100ccc2e000185937c","freq_resp","img/orange_2bandit_b.png","70","70","test","","","","9","",""
"null","470775","pSARL_v2","pSARL_v2c6gmf0y2","5aee59100ccc2e000185937c","fixation","img/fixation.png","null","","test","","","","","",""
"376","471156","pSARL_v2","pSARL_v2c6gmf0y2","5aee59100ccc2e000185937c","freq","img/orange_2bandit_b2.png","70","70","test","1","186","186","9","",""
"null","471593","pSARL_v2","pSARL_v2c6gmf0y2","5aee59100ccc2e000185937c","freq_resp","img/orange_2bandit_b.png","70","70","test","","","","9","",""
"null","471757","pSARL_v2","pSARL_v2c6gmf0y2","5aee59100ccc2e000185937c","fixation","img/fixation.png","null","","test","","","","","",""
"421","472185","pSARL_v2","pSARL_v2c6gmf0y2","5aee59100ccc2e000185937c","freq","img/orange_2bandit_b2.png","70","70","test","1","187","187","9","",""
"null","472582","pSARL_v2","pSARL_v2c6gmf0y2","5aee59100ccc2e000185937c","freq_resp","img/orange_2bandit_b.png","70","70","test","","","","9","",""
"null","472741","pSARL_v2","pSARL_v2c6gmf0y2","5aee59100ccc2e000185937c","fixation","img/fixation.png","null","","test","","","","","",""
"460","473209","pSARL_v2","pSARL_v2c6gmf0y2","5aee59100ccc2e000185937c","freq","img/orange_2bandit_b2.png","70","70","test","1","188","188","9","",""
"null","473562","pSARL_v2","pSARL_v2c6gmf0y2","5aee59100ccc2e000185937c","freq_resp","img/orange_2bandit_b.png","70","70","test","","","","9","",""
"null","473720","pSARL_v2","pSARL_v2c6gmf0y2","5aee59100ccc2e000185937c","fixation","img/fixation.png","null","","test","","","","","",""
"426","474153","pSARL_v2","pSARL_v2c6gmf0y2","5aee59100ccc2e000185937c","infreq","img/green_2bandit_b2.png","68","68","test","1","189","189","9","",""
"null","474538","pSARL_v2","pSARL_v2c6gmf0y2","5aee59100ccc2e000185937c","infreq_resp","img/green_2bandit_b.png","68","68","test","","","","9","",""
"null","474706","pSARL_v2","pSARL_v2c6gmf0y2","5aee59100ccc2e000185937c","fixation","img/fixation.png","null","","test","","","","","",""
"373","475087","pSARL_v2","pSARL_v2c6gmf0y2","5aee59100ccc2e000185937c","freq","img/orange_2bandit_b2.png","70","70","test","1","190","190","9","",""
"null","475536","pSARL_v2","pSARL_v2c6gmf0y2","5aee59100ccc2e000185937c","freq_resp","img/orange_2bandit_b.png","70","70","test","","","","9","",""
"null","475703","pSARL_v2","pSARL_v2c6gmf0y2","5aee59100ccc2e000185937c","fixation","img/fixation.png","null","","test","","","","","",""
"317","476031","pSARL_v2","pSARL_v2c6gmf0y2","5aee59100ccc2e000185937c","freq","img/orange_2bandit_b2.png","70","70","test","1","191","191","9","",""
"null","476532","pSARL_v2","pSARL_v2c6gmf0y2","5aee59100ccc2e000185937c","freq_resp","img/orange_2bandit_b.png","70","70","test","","","","9","",""
"null","476701","pSARL_v2","pSARL_v2c6gmf0y2","5aee59100ccc2e000185937c","fixation","img/fixation.png","null","","test","","","","","",""
"293","477001","pSARL_v2","pSARL_v2c6gmf0y2","5aee59100ccc2e000185937c","freq","img/orange_2bandit_b2.png","70","70","test","1","192","192","9","",""
"null","477520","pSARL_v2","pSARL_v2c6gmf0y2","5aee59100ccc2e000185937c","freq_resp","img/orange_2bandit_b.png","70","70","test","","","","9","",""
"null","477685","pSARL_v2","pSARL_v2c6gmf0y2","5aee59100ccc2e000185937c","fixation","img/fixation.png","null","","test","","","","","",""
"307","477999","pSARL_v2","pSARL_v2c6gmf0y2","5aee59100ccc2e000185937c","freq","img/orange_2bandit_b2.png","70","70","test","1","193","193","9","",""
"null","478539","pSARL_v2","pSARL_v2c6gmf0y2","5aee59100ccc2e000185937c","freq_resp","img/orange_2bandit_b.png","70","70","test","","","","9","",""
"null","478704","pSARL_v2","pSARL_v2c6gmf0y2","5aee59100ccc2e000185937c","fixation","img/fixation.png","null","","test","","","","","",""
"321","479033","pSARL_v2","pSARL_v2c6gmf0y2","5aee59100ccc2e000185937c","freq","img/orange_2bandit_b2.png","70","70","test","1","194","194","9","",""
"null","479521","pSARL_v2","pSARL_v2c6gmf0y2","5aee59100ccc2e000185937c","freq_resp","img/orange_2bandit_b.png","70","70","test","","","","9","",""
"null","479684","pSARL_v2","pSARL_v2c6gmf0y2","5aee59100ccc2e000185937c","fixation","img/fixation.png","null","","test","","","","","",""
"313","480006","pSARL_v2","pSARL_v2c6gmf0y2","5aee59100ccc2e000185937c","freq","img/orange_2bandit_b2.png","70","70","test","1","195","195","9","",""
"null","480560","pSARL_v2","pSARL_v2c6gmf0y2","5aee59100ccc2e000185937c","freq_resp","img/orange_2bandit_b.png","70","70","test","","","","9","",""
"null","480725","pSARL_v2","pSARL_v2c6gmf0y2","5aee59100ccc2e000185937c","fixation","img/fixation.png","null","","test","","","","","",""
"348","481080","pSARL_v2","pSARL_v2c6gmf0y2","5aee59100ccc2e000185937c","freq","img/orange_2bandit_b2.png","70","70","test","1","196","196","9","",""
"null","481542","pSARL_v2","pSARL_v2c6gmf0y2","5aee59100ccc2e000185937c","freq_resp","img/orange_2bandit_b.png","70","70","test","","","","9","",""
"null","481707","pSARL_v2","pSARL_v2c6gmf0y2","5aee59100ccc2e000185937c","fixation","img/fixation.png","null","","test","","","","","",""
"327","482042","pSARL_v2","pSARL_v2c6gmf0y2","5aee59100ccc2e000185937c","freq","img/orange_2bandit_b2.png","70","70","test","1","197","197","9","",""
"null","482588","pSARL_v2","pSARL_v2c6gmf0y2","5aee59100ccc2e000185937c","freq_resp","img/orange_2bandit_b.png","70","70","test","","","","9","",""
"null","482753","pSARL_v2","pSARL_v2c6gmf0y2","5aee59100ccc2e000185937c","fixation","img/fixation.png","null","","test","","","","","",""
"332","483092","pSARL_v2","pSARL_v2c6gmf0y2","5aee59100ccc2e000185937c","freq","img/orange_2bandit_b2.png","70","70","test","1","198","198","9","",""
"null","483572","pSARL_v2","pSARL_v2c6gmf0y2","5aee59100ccc2e000185937c","freq_resp","img/orange_2bandit_b.png","70","70","test","","","","9","",""
"null","483742","pSARL_v2","pSARL_v2c6gmf0y2","5aee59100ccc2e000185937c","fixation","img/fixation.png","null","","test","","","","","",""
"341","484093","pSARL_v2","pSARL_v2c6gmf0y2","5aee59100ccc2e000185937c","freq","img/orange_2bandit_b2.png","70","70","test","1","199","199","9","",""
"null","484610","pSARL_v2","pSARL_v2c6gmf0y2","5aee59100ccc2e000185937c","freq_resp","img/orange_2bandit_b.png","70","70","test","","","","9","",""
"null","484771","pSARL_v2","pSARL_v2c6gmf0y2","5aee59100ccc2e000185937c","fixation","img/fixation.png","null","","test","","","","","",""
"551","485329","pSARL_v2","pSARL_v2c6gmf0y2","5aee59100ccc2e000185937c","reward","img/slot.png","74","","test","","","","","",""
"null","486090","pSARL_v2","pSARL_v2c6gmf0y2","5aee59100ccc2e000185937c","points","<div class=""verylowPoints""> -3 </div>","null","na","test","","","","9","-3","8"
"330","486426","pSARL_v2","pSARL_v2c6gmf0y2","5aee59100ccc2e000185937c","freq","img/orange_2bandit_b2.png","70","70","test","1","200","200","10","",""
"null","486912","pSARL_v2","pSARL_v2c6gmf0y2","5aee59100ccc2e000185937c","freq_resp","img/orange_2bandit_b.png","70","70","test","","","","10","",""
"null","487074","pSARL_v2","pSARL_v2c6gmf0y2","5aee59100ccc2e000185937c","fixation","img/fixation.png","null","","test","","","","","",""
"276","487355","pSARL_v2","pSARL_v2c6gmf0y2","5aee59100ccc2e000185937c","infreq","img/green_2bandit_b2.png","70","68","test","0","201","201","10","",""
"null","487894","pSARL_v2","pSARL_v2c6gmf0y2","5aee59100ccc2e000185937c","infreq_resp","img/green_2bandit_b.png","70","68","test","","","","10","",""
"null","488054","pSARL_v2","pSARL_v2c6gmf0y2","5aee59100ccc2e000185937c","fixation","img/fixation.png","null","","test","","","","","",""
"674","488734","pSARL_v2","pSARL_v2c6gmf0y2","5aee59100ccc2e000185937c","infreq","img/green_2bandit_b2.png","68","68","test","1","202","202","10","",""
"null","488880","pSARL_v2","pSARL_v2c6gmf0y2","5aee59100ccc2e000185937c","infreq_resp","img/green_2bandit_b.png","68","68","test","","","","10","",""
"null","489050","pSARL_v2","pSARL_v2c6gmf0y2","5aee59100ccc2e000185937c","fixation","img/fixation.png","null","","test","","","","","",""
"470","489526","pSARL_v2","pSARL_v2c6gmf0y2","5aee59100ccc2e000185937c","freq","img/orange_2bandit_b2.png","70","70","test","1","203","203","10","",""
"null","489870","pSARL_v2","pSARL_v2c6gmf0y2","5aee59100ccc2e000185937c","freq_resp","img/orange_2bandit_b.png","70","70","test","","","","10","",""
"null","490035","pSARL_v2","pSARL_v2c6gmf0y2","5aee59100ccc2e000185937c","fixation","img/fixation.png","null","","test","","","","","",""
"463","490504","pSARL_v2","pSARL_v2c6gmf0y2","5aee59100ccc2e000185937c","freq","img/orange_2bandit_b2.png","70","70","test","1","204","204","10","",""
"null","490859","pSARL_v2","pSARL_v2c6gmf0y2","5aee59100ccc2e000185937c","freq_resp","img/orange_2bandit_b.png","70","70","test","","","","10","",""
"null","491019","pSARL_v2","pSARL_v2c6gmf0y2","5aee59100ccc2e000185937c","fixation","img/fixation.png","null","","test","","","","","",""
"467","491493","pSARL_v2","pSARL_v2c6gmf0y2","5aee59100ccc2e000185937c","freq","img/orange_2bandit_b2.png","70","70","test","1","205","205","10","",""
"null","491840","pSARL_v2","pSARL_v2c6gmf0y2","5aee59100ccc2e000185937c","freq_resp","img/orange_2bandit_b.png","70","70","test","","","","10","",""
"null","492008","pSARL_v2","pSARL_v2c6gmf0y2","5aee59100ccc2e000185937c","fixation","img/fixation.png","null","","test","","","","","",""
"555","492570","pSARL_v2","pSARL_v2c6gmf0y2","5aee59100ccc2e000185937c","freq","img/orange_2bandit_b2.png","70","70","test","1","206","206","10","",""
"null","492821","pSARL_v2","pSARL_v2c6gmf0y2","5aee59100ccc2e000185937c","freq_resp","img/orange_2bandit_b.png","70","70","test","","","","10","",""
"null","492992","pSARL_v2","pSARL_v2c6gmf0y2","5aee59100ccc2e000185937c","fixation","img/fixation.png","null","","test","","","","","",""
"450","493451","pSARL_v2","pSARL_v2c6gmf0y2","5aee59100ccc2e000185937c","freq","img/orange_2bandit_b2.png","70","70","test","1","207","207","10","",""
"null","493813","pSARL_v2","pSARL_v2c6gmf0y2","5aee59100ccc2e000185937c","freq_resp","img/orange_2bandit_b.png","70","70","test","","","","10","",""
"null","493980","pSARL_v2","pSARL_v2c6gmf0y2","5aee59100ccc2e000185937c","fixation","img/fixation.png","null","","test","","","","","",""
"407","494398","pSARL_v2","pSARL_v2c6gmf0y2","5aee59100ccc2e000185937c","freq","img/orange_2bandit_b2.png","70","70","test","1","208","208","10","",""
"null","494808","pSARL_v2","pSARL_v2c6gmf0y2","5aee59100ccc2e000185937c","freq_resp","img/orange_2bandit_b.png","70","70","test","","","","10","",""
"null","494972","pSARL_v2","pSARL_v2c6gmf0y2","5aee59100ccc2e000185937c","fixation","img/fixation.png","null","","test","","","","","",""
"362","495345","pSARL_v2","pSARL_v2c6gmf0y2","5aee59100ccc2e000185937c","freq","img/orange_2bandit_b2.png","70","70","test","1","209","209","10","",""
"null","495797","pSARL_v2","pSARL_v2c6gmf0y2","5aee59100ccc2e000185937c","freq_resp","img/orange_2bandit_b.png","70","70","test","","","","10","",""
"null","495971","pSARL_v2","pSARL_v2c6gmf0y2","5aee59100ccc2e000185937c","fixation","img/fixation.png","null","","test","","","","","",""
"376","496356","pSARL_v2","pSARL_v2c6gmf0y2","5aee59100ccc2e000185937c","freq","img/orange_2bandit_b2.png","70","70","test","1","210","210","10","",""
"null","496794","pSARL_v2","pSARL_v2c6gmf0y2","5aee59100ccc2e000185937c","freq_resp","img/orange_2bandit_b.png","70","70","test","","","","10","",""
"null","496964","pSARL_v2","pSARL_v2c6gmf0y2","5aee59100ccc2e000185937c","fixation","img/fixation.png","null","","test","","","","","",""
"351","497326","pSARL_v2","pSARL_v2c6gmf0y2","5aee59100ccc2e000185937c","freq","img/orange_2bandit_b2.png","70","70","test","1","211","211","10","",""
"null","497814","pSARL_v2","pSARL_v2c6gmf0y2","5aee59100ccc2e000185937c","freq_resp","img/orange_2bandit_b.png","70","70","test","","","","10","",""
"null","497983","pSARL_v2","pSARL_v2c6gmf0y2","5aee59100ccc2e000185937c","fixation","img/fixation.png","null","","test","","","","","",""
