"rt","time_elapsed","expId","subject","prolificID","trialType","stimulus","key_press","corrresp","phase","corr","trialNum","attentionRunNum","blockNum","points","rlNum"
"8789.299999952316","8800","pSARL_v2","pSARL_v23mbnnol8","5fb69cacddba6408f81a9564","","","","","","","","","","",""
"","11851","pSARL_v2","pSARL_v23mbnnol8","5fb69cacddba6408f81a9564","fullscreen","","","","","","","","","",""
"105073.59999990463","116926","pSARL_v2","pSARL_v23mbnnol8","5fb69cacddba6408f81a9564","","","","","","","","","","",""
"null","117737","pSARL_v2","pSARL_v23mbnnol8","5fb69cacddba6408f81a9564","freqPrac","img/green_2bandit_a2.png","null","70","prac","0","","","","",""
"null","118759","pSARL_v2","pSARL_v23mbnnol8","5fb69cacddba6408f81a9564","feedback","img/tooSlow.png","null","na","prac","","","","","",""
"null","118926","pSARL_v2","pSARL_v23mbnnol8","5fb69cacddba6408f81a9564","fixation","img/fixation.png","null","","prac","","","","","",""
"580.1000000238419","119511","pSARL_v2","pSARL_v23mbnnol8","5fb69cacddba6408f81a9564","infreqPrac","img/orange_2bandit_a2.png","68","68","prac","1","","","","",""
"580.1000000238419","119747","pSARL_v2","pSARL_v23mbnnol8","5fb69cacddba6408f81a9564","infreqPrac_resp","img/orange_2bandit_a.png","68","68","prac","","","","","",""
"null","119909","pSARL_v2","pSARL_v23mbnnol8","5fb69cacddba6408f81a9564","fixation","img/fixation.png","null","","prac","","","","","",""
"null","120723","pSARL_v2","pSARL_v23mbnnol8","5fb69cacddba6408f81a9564","freqPrac","img/green_2bandit_a2.png","null","70","prac","0","","","","",""
"null","121740","pSARL_v2","pSARL_v23mbnnol8","5fb69cacddba6408f81a9564","feedback","img/tooSlow.png","null","na","prac","","","","","",""
"null","121903","pSARL_v2","pSARL_v23mbnnol8","5fb69cacddba6408f81a9564","fixation","img/fixation.png","null","","prac","","","","","",""
"584.5","122492","pSARL_v2","pSARL_v23mbnnol8","5fb69cacddba6408f81a9564","infreqPrac","img/orange_2bandit_a2.png","70","68","prac","0","","","","",""
"584.5","122722","pSARL_v2","pSARL_v23mbnnol8","5fb69cacddba6408f81a9564","infreqPrac_resp","img/orange_2bandit_a.png","70","68","prac","","","","","",""
"null","123742","pSARL_v2","pSARL_v23mbnnol8","5fb69cacddba6408f81a9564","feedback","img/wrongKey.png","null","na","prac","","","","","",""
"null","123906","pSARL_v2","pSARL_v23mbnnol8","5fb69cacddba6408f81a9564","fixation","img/fixation.png","null","","prac","","","","","",""
"730.6000000238419","124641","pSARL_v2","pSARL_v23mbnnol8","5fb69cacddba6408f81a9564","infreqPrac","img/orange_2bandit_a2.png","68","68","prac","1","","","","",""
"730.6000000238419","124722","pSARL_v2","pSARL_v23mbnnol8","5fb69cacddba6408f81a9564","infreqPrac_resp","img/orange_2bandit_a.png","68","68","prac","","","","","",""
"null","124881","pSARL_v2","pSARL_v23mbnnol8","5fb69cacddba6408f81a9564","fixation","img/fixation.png","null","","prac","","","","","",""
"627","125512","pSARL_v2","pSARL_v23mbnnol8","5fb69cacddba6408f81a9564","infreqPrac","img/orange_2bandit_a2.png","68","68","prac","1","","","","",""
"627","125695","pSARL_v2","pSARL_v23mbnnol8","5fb69cacddba6408f81a9564","infreqPrac_resp","img/orange_2bandit_a.png","68","68","prac","","","","","",""
"null","125860","pSARL_v2","pSARL_v23mbnnol8","5fb69cacddba6408f81a9564","fixation","img/fixation.png","null","","prac","","","","","",""
"455.5","126320","pSARL_v2","pSARL_v23mbnnol8","5fb69cacddba6408f81a9564","freqPrac","img/green_2bandit_a2.png","70","70","prac","1","","","","",""
"455.5","126676","pSARL_v2","pSARL_v23mbnnol8","5fb69cacddba6408f81a9564","freqPrac_resp","img/green_2bandit_a.png","70","70","prac","","","","","",""
"null","126842","pSARL_v2","pSARL_v23mbnnol8","5fb69cacddba6408f81a9564","fixation","img/fixation.png","null","","prac","","","","","",""
"496","127344","pSARL_v2","pSARL_v23mbnnol8","5fb69cacddba6408f81a9564","infreqPrac","img/orange_2bandit_a2.png","68","68","prac","1","","","","",""
"496","127656","pSARL_v2","pSARL_v23mbnnol8","5fb69cacddba6408f81a9564","infreqPrac_resp","img/orange_2bandit_a.png","68","68","prac","","","","","",""
"null","127814","pSARL_v2","pSARL_v23mbnnol8","5fb69cacddba6408f81a9564","fixation","img/fixation.png","null","","prac","","","","","",""
"524.7000000476837","128343","pSARL_v2","pSARL_v23mbnnol8","5fb69cacddba6408f81a9564","freqPrac","img/green_2bandit_a2.png","70","70","prac","1","","","","",""
"524.7000000476837","128631","pSARL_v2","pSARL_v23mbnnol8","5fb69cacddba6408f81a9564","freqPrac_resp","img/green_2bandit_a.png","70","70","prac","","","","","",""
"null","128796","pSARL_v2","pSARL_v23mbnnol8","5fb69cacddba6408f81a9564","fixation","img/fixation.png","null","","prac","","","","","",""
"432.3000000715256","129233","pSARL_v2","pSARL_v23mbnnol8","5fb69cacddba6408f81a9564","freqPrac","img/green_2bandit_a2.png","70","70","prac","1","","","","",""
"432.3000000715256","129609","pSARL_v2","pSARL_v23mbnnol8","5fb69cacddba6408f81a9564","freqPrac_resp","img/green_2bandit_a.png","70","70","prac","","","","","",""
"null","129772","pSARL_v2","pSARL_v23mbnnol8","5fb69cacddba6408f81a9564","fixation","img/fixation.png","null","","prac","","","","","",""
"25167.899999976158","154943","pSARL_v2","pSARL_v23mbnnol8","5fb69cacddba6408f81a9564","","","","","prac","","","","","",""
"1668.3999999761581","156615","pSARL_v2","pSARL_v23mbnnol8","5fb69cacddba6408f81a9564","rewardPractice","img/slot.png","74","","prac","","","","","",""
"null","157374","pSARL_v2","pSARL_v23mbnnol8","5fb69cacddba6408f81a9564","feedback","<div class=""veryhighPoints""> +15 </div>","null","na","prac","","","","","",""
"null","157535","pSARL_v2","pSARL_v23mbnnol8","5fb69cacddba6408f81a9564","fixation","img/fixation.png","null","","prac","","","","","",""
"7741","165279","pSARL_v2","pSARL_v23mbnnol8","5fb69cacddba6408f81a9564","","","","","prac","","","","","",""
"699.1000000238419","165983","pSARL_v2","pSARL_v23mbnnol8","5fb69cacddba6408f81a9564","freq","img/green_2bandit_a2.png","70","70","test","1","1","1","1","",""
"null","166090","pSARL_v2","pSARL_v23mbnnol8","5fb69cacddba6408f81a9564","freq_resp","img/green_2bandit_a.png","70","70","test","","","","1","",""
"null","166259","pSARL_v2","pSARL_v23mbnnol8","5fb69cacddba6408f81a9564","fixation","img/fixation.png","null","","test","","","","","",""
"425.60000002384186","166689","pSARL_v2","pSARL_v23mbnnol8","5fb69cacddba6408f81a9564","freq","img/green_2bandit_a2.png","70","70","test","1","2","2","1","",""
"null","167069","pSARL_v2","pSARL_v23mbnnol8","5fb69cacddba6408f81a9564","freq_resp","img/green_2bandit_a.png","70","70","test","","","","1","",""
"null","167230","pSARL_v2","pSARL_v23mbnnol8","5fb69cacddba6408f81a9564","fixation","img/fixation.png","null","","test","","","","","",""
"390.7000000476837","167625","pSARL_v2","pSARL_v23mbnnol8","5fb69cacddba6408f81a9564","freq","img/green_2bandit_a2.png","70","70","test","1","3","3","1","",""
"null","168047","pSARL_v2","pSARL_v23mbnnol8","5fb69cacddba6408f81a9564","freq_resp","img/green_2bandit_a.png","70","70","test","","","","1","",""
"null","168213","pSARL_v2","pSARL_v23mbnnol8","5fb69cacddba6408f81a9564","fixation","img/fixation.png","null","","test","","","","","",""
"382","168599","pSARL_v2","pSARL_v23mbnnol8","5fb69cacddba6408f81a9564","freq","img/green_2bandit_a2.png","70","70","test","1","4","4","1","",""
"null","169034","pSARL_v2","pSARL_v23mbnnol8","5fb69cacddba6408f81a9564","freq_resp","img/green_2bandit_a.png","70","70","test","","","","1","",""
"null","169201","pSARL_v2","pSARL_v23mbnnol8","5fb69cacddba6408f81a9564","fixation","img/fixation.png","null","","test","","","","","",""
"390.39999997615814","169596","pSARL_v2","pSARL_v23mbnnol8","5fb69cacddba6408f81a9564","freq","img/green_2bandit_a2.png","70","70","test","1","5","5","1","",""
"null","170017","pSARL_v2","pSARL_v23mbnnol8","5fb69cacddba6408f81a9564","freq_resp","img/green_2bandit_a.png","70","70","test","","","","1","",""
"null","170176","pSARL_v2","pSARL_v23mbnnol8","5fb69cacddba6408f81a9564","fixation","img/fixation.png","null","","test","","","","","",""
"349.5","170530","pSARL_v2","pSARL_v23mbnnol8","5fb69cacddba6408f81a9564","freq","img/green_2bandit_a2.png","70","70","test","1","6","6","1","",""
"null","170992","pSARL_v2","pSARL_v23mbnnol8","5fb69cacddba6408f81a9564","freq_resp","img/green_2bandit_a.png","70","70","test","","","","1","",""
"null","171157","pSARL_v2","pSARL_v23mbnnol8","5fb69cacddba6408f81a9564","fixation","img/fixation.png","null","","test","","","","","",""
"332.90000009536743","171494","pSARL_v2","pSARL_v23mbnnol8","5fb69cacddba6408f81a9564","freq","img/green_2bandit_a2.png","70","70","test","1","7","7","1","",""
"null","171972","pSARL_v2","pSARL_v23mbnnol8","5fb69cacddba6408f81a9564","freq_resp","img/green_2bandit_a.png","70","70","test","","","","1","",""
"null","172138","pSARL_v2","pSARL_v23mbnnol8","5fb69cacddba6408f81a9564","fixation","img/fixation.png","null","","test","","","","","",""
"439.2999999523163","172583","pSARL_v2","pSARL_v23mbnnol8","5fb69cacddba6408f81a9564","infreq","img/orange_2bandit_a2.png","68","68","test","1","8","8","1","",""
"null","172950","pSARL_v2","pSARL_v23mbnnol8","5fb69cacddba6408f81a9564","infreq_resp","img/orange_2bandit_a.png","68","68","test","","","","1","",""
"null","173111","pSARL_v2","pSARL_v23mbnnol8","5fb69cacddba6408f81a9564","fixation","img/fixation.png","null","","test","","","","","",""
"417.10000002384186","173533","pSARL_v2","pSARL_v23mbnnol8","5fb69cacddba6408f81a9564","freq","img/green_2bandit_a2.png","70","70","test","1","9","9","1","",""
"null","173929","pSARL_v2","pSARL_v23mbnnol8","5fb69cacddba6408f81a9564","freq_resp","img/green_2bandit_a.png","70","70","test","","","","1","",""
"null","174091","pSARL_v2","pSARL_v23mbnnol8","5fb69cacddba6408f81a9564","fixation","img/fixation.png","null","","test","","","","","",""
"339.1999999284744","174435","pSARL_v2","pSARL_v23mbnnol8","5fb69cacddba6408f81a9564","freq","img/green_2bandit_a2.png","70","70","test","1","10","10","1","",""
"null","174904","pSARL_v2","pSARL_v23mbnnol8","5fb69cacddba6408f81a9564","freq_resp","img/green_2bandit_a.png","70","70","test","","","","1","",""
"null","175062","pSARL_v2","pSARL_v23mbnnol8","5fb69cacddba6408f81a9564","fixation","img/fixation.png","null","","test","","","","","",""
"289.7999999523163","175356","pSARL_v2","pSARL_v23mbnnol8","5fb69cacddba6408f81a9564","freq","img/green_2bandit_a2.png","70","70","test","1","11","11","1","",""
"null","175881","pSARL_v2","pSARL_v23mbnnol8","5fb69cacddba6408f81a9564","freq_resp","img/green_2bandit_a.png","70","70","test","","","","1","",""
"null","176041","pSARL_v2","pSARL_v23mbnnol8","5fb69cacddba6408f81a9564","fixation","img/fixation.png","null","","test","","","","","",""
"328.89999997615814","176374","pSARL_v2","pSARL_v23mbnnol8","5fb69cacddba6408f81a9564","freq","img/green_2bandit_a2.png","70","70","test","1","12","12","1","",""
"null","176855","pSARL_v2","pSARL_v23mbnnol8","5fb69cacddba6408f81a9564","freq_resp","img/green_2bandit_a.png","70","70","test","","","","1","",""
"null","177014","pSARL_v2","pSARL_v23mbnnol8","5fb69cacddba6408f81a9564","fixation","img/fixation.png","null","","test","","","","","",""
"311.5","177330","pSARL_v2","pSARL_v23mbnnol8","5fb69cacddba6408f81a9564","freq","img/green_2bandit_a2.png","70","70","test","1","13","13","1","",""
"null","177830","pSARL_v2","pSARL_v23mbnnol8","5fb69cacddba6408f81a9564","freq_resp","img/green_2bandit_a.png","70","70","test","","","","1","",""
"null","177994","pSARL_v2","pSARL_v23mbnnol8","5fb69cacddba6408f81a9564","fixation","img/fixation.png","null","","test","","","","","",""
"290.1999999284744","178288","pSARL_v2","pSARL_v23mbnnol8","5fb69cacddba6408f81a9564","freq","img/green_2bandit_a2.png","70","70","test","1","14","14","1","",""
"null","178805","pSARL_v2","pSARL_v23mbnnol8","5fb69cacddba6408f81a9564","freq_resp","img/green_2bandit_a.png","70","70","test","","","","1","",""
"null","178973","pSARL_v2","pSARL_v23mbnnol8","5fb69cacddba6408f81a9564","fixation","img/fixation.png","null","","test","","","","","",""
"276.39999997615814","179255","pSARL_v2","pSARL_v23mbnnol8","5fb69cacddba6408f81a9564","freq","img/green_2bandit_a2.png","70","70","test","1","15","15","1","",""
"null","179791","pSARL_v2","pSARL_v23mbnnol8","5fb69cacddba6408f81a9564","freq_resp","img/green_2bandit_a.png","70","70","test","","","","1","",""
"null","179950","pSARL_v2","pSARL_v23mbnnol8","5fb69cacddba6408f81a9564","fixation","img/fixation.png","null","","test","","","","","",""
"299","180253","pSARL_v2","pSARL_v23mbnnol8","5fb69cacddba6408f81a9564","freq","img/green_2bandit_a2.png","70","70","test","1","16","16","1","",""
"null","180760","pSARL_v2","pSARL_v23mbnnol8","5fb69cacddba6408f81a9564","freq_resp","img/green_2bandit_a.png","70","70","test","","","","1","",""
"null","180919","pSARL_v2","pSARL_v23mbnnol8","5fb69cacddba6408f81a9564","fixation","img/fixation.png","null","","test","","","","","",""
"297.8000000715256","181222","pSARL_v2","pSARL_v23mbnnol8","5fb69cacddba6408f81a9564","freq","img/green_2bandit_a2.png","70","70","test","1","17","17","1","",""
"null","181733","pSARL_v2","pSARL_v23mbnnol8","5fb69cacddba6408f81a9564","freq_resp","img/green_2bandit_a.png","70","70","test","","","","1","",""
"null","181897","pSARL_v2","pSARL_v23mbnnol8","5fb69cacddba6408f81a9564","fixation","img/fixation.png","null","","test","","","","","",""
"266.2000000476837","182168","pSARL_v2","pSARL_v23mbnnol8","5fb69cacddba6408f81a9564","freq","img/green_2bandit_a2.png","70","70","test","1","18","18","1","",""
"null","182709","pSARL_v2","pSARL_v23mbnnol8","5fb69cacddba6408f81a9564","freq_resp","img/green_2bandit_a.png","70","70","test","","","","1","",""
"null","182871","pSARL_v2","pSARL_v23mbnnol8","5fb69cacddba6408f81a9564","fixation","img/fixation.png","null","","test","","","","","",""
"246.79999995231628","183123","pSARL_v2","pSARL_v23mbnnol8","5fb69cacddba6408f81a9564","freq","img/green_2bandit_a2.png","70","70","test","1","19","19","1","",""
"null","183685","pSARL_v2","pSARL_v23mbnnol8","5fb69cacddba6408f81a9564","freq_resp","img/green_2bandit_a.png","70","70","test","","","","1","",""
"null","183846","pSARL_v2","pSARL_v23mbnnol8","5fb69cacddba6408f81a9564","fixation","img/fixation.png","null","","test","","","","","",""
"402.10000002384186","184253","pSARL_v2","pSARL_v23mbnnol8","5fb69cacddba6408f81a9564","infreq","img/orange_2bandit_a2.png","68","68","test","1","20","20","1","",""
"null","184663","pSARL_v2","pSARL_v23mbnnol8","5fb69cacddba6408f81a9564","infreq_resp","img/orange_2bandit_a.png","68","68","test","","","","1","",""
"null","184824","pSARL_v2","pSARL_v23mbnnol8","5fb69cacddba6408f81a9564","fixation","img/fixation.png","null","","test","","","","","",""
"412.8000000715256","185242","pSARL_v2","pSARL_v23mbnnol8","5fb69cacddba6408f81a9564","freq","img/green_2bandit_a2.png","70","70","test","1","21","21","1","",""
"null","185642","pSARL_v2","pSARL_v23mbnnol8","5fb69cacddba6408f81a9564","freq_resp","img/green_2bandit_a.png","70","70","test","","","","1","",""
"null","185809","pSARL_v2","pSARL_v23mbnnol8","5fb69cacddba6408f81a9564","fixation","img/fixation.png","null","","test","","","","","",""
"492.6999999284744","186307","pSARL_v2","pSARL_v23mbnnol8","5fb69cacddba6408f81a9564","reward","img/slot.png","74","","test","","","","","",""
"null","187074","pSARL_v2","pSARL_v23mbnnol8","5fb69cacddba6408f81a9564","points","<div class=""verylowPoints""> -6 </div>","null","na","test","","","","1","-6","0"
"417.09999990463257","187496","pSARL_v2","pSARL_v23mbnnol8","5fb69cacddba6408f81a9564","freq","img/green_2bandit_a2.png","70","70","test","1","22","22","2","",""
"null","187890","pSARL_v2","pSARL_v23mbnnol8","5fb69cacddba6408f81a9564","freq_resp","img/green_2bandit_a.png","70","70","test","","","","2","",""
"null","188056","pSARL_v2","pSARL_v23mbnnol8","5fb69cacddba6408f81a9564","fixation","img/fixation.png","null","","test","","","","","",""
"356.2999999523163","188417","pSARL_v2","pSARL_v23mbnnol8","5fb69cacddba6408f81a9564","freq","img/green_2bandit_a2.png","70","70","test","1","23","23","2","",""
"null","188871","pSARL_v2","pSARL_v23mbnnol8","5fb69cacddba6408f81a9564","freq_resp","img/green_2bandit_a.png","70","70","test","","","","2","",""
"null","189034","pSARL_v2","pSARL_v23mbnnol8","5fb69cacddba6408f81a9564","fixation","img/fixation.png","null","","test","","","","","",""
"404.89999997615814","189443","pSARL_v2","pSARL_v23mbnnol8","5fb69cacddba6408f81a9564","infreq","img/orange_2bandit_a2.png","68","68","test","1","24","24","2","",""
"null","189846","pSARL_v2","pSARL_v23mbnnol8","5fb69cacddba6408f81a9564","infreq_resp","img/orange_2bandit_a.png","68","68","test","","","","2","",""
"null","190009","pSARL_v2","pSARL_v23mbnnol8","5fb69cacddba6408f81a9564","fixation","img/fixation.png","null","","test","","","","","",""
"361.2999999523163","190375","pSARL_v2","pSARL_v23mbnnol8","5fb69cacddba6408f81a9564","freq","img/green_2bandit_a2.png","70","70","test","1","25","25","2","",""
"null","190827","pSARL_v2","pSARL_v23mbnnol8","5fb69cacddba6408f81a9564","freq_resp","img/green_2bandit_a.png","70","70","test","","","","2","",""
"null","190994","pSARL_v2","pSARL_v23mbnnol8","5fb69cacddba6408f81a9564","fixation","img/fixation.png","null","","test","","","","","",""
"689","191687","pSARL_v2","pSARL_v23mbnnol8","5fb69cacddba6408f81a9564","infreq","img/orange_2bandit_a2.png","68","68","test","1","26","26","2","",""
"null","191806","pSARL_v2","pSARL_v23mbnnol8","5fb69cacddba6408f81a9564","infreq_resp","img/orange_2bandit_a.png","68","68","test","","","","2","",""
"null","191970","pSARL_v2","pSARL_v23mbnnol8","5fb69cacddba6408f81a9564","fixation","img/fixation.png","null","","test","","","","","",""
"422.7999999523163","192397","pSARL_v2","pSARL_v23mbnnol8","5fb69cacddba6408f81a9564","freq","img/green_2bandit_a2.png","70","70","test","1","27","27","2","",""
"null","192785","pSARL_v2","pSARL_v23mbnnol8","5fb69cacddba6408f81a9564","freq_resp","img/green_2bandit_a.png","70","70","test","","","","2","",""
"null","192954","pSARL_v2","pSARL_v23mbnnol8","5fb69cacddba6408f81a9564","fixation","img/fixation.png","null","","test","","","","","",""
"408.60000002384186","193367","pSARL_v2","pSARL_v23mbnnol8","5fb69cacddba6408f81a9564","freq","img/green_2bandit_a2.png","70","70","test","1","28","28","2","",""
"null","193769","pSARL_v2","pSARL_v23mbnnol8","5fb69cacddba6408f81a9564","freq_resp","img/green_2bandit_a.png","70","70","test","","","","2","",""
"null","193939","pSARL_v2","pSARL_v23mbnnol8","5fb69cacddba6408f81a9564","fixation","img/fixation.png","null","","test","","","","","",""
"333.60000002384186","194277","pSARL_v2","pSARL_v23mbnnol8","5fb69cacddba6408f81a9564","freq","img/green_2bandit_a2.png","70","70","test","1","29","29","2","",""
"null","194756","pSARL_v2","pSARL_v23mbnnol8","5fb69cacddba6408f81a9564","freq_resp","img/green_2bandit_a.png","70","70","test","","","","2","",""
"null","194922","pSARL_v2","pSARL_v23mbnnol8","5fb69cacddba6408f81a9564","fixation","img/fixation.png","null","","test","","","","","",""
"416","195343","pSARL_v2","pSARL_v23mbnnol8","5fb69cacddba6408f81a9564","freq","img/green_2bandit_a2.png","70","70","test","1","30","30","2","",""
"null","195744","pSARL_v2","pSARL_v23mbnnol8","5fb69cacddba6408f81a9564","freq_resp","img/green_2bandit_a.png","70","70","test","","","","2","",""
"null","195905","pSARL_v2","pSARL_v23mbnnol8","5fb69cacddba6408f81a9564","fixation","img/fixation.png","null","","test","","","","","",""
"321.09999990463257","196232","pSARL_v2","pSARL_v23mbnnol8","5fb69cacddba6408f81a9564","freq","img/green_2bandit_a2.png","70","70","test","1","31","31","2","",""
"null","196719","pSARL_v2","pSARL_v23mbnnol8","5fb69cacddba6408f81a9564","freq_resp","img/green_2bandit_a.png","70","70","test","","","","2","",""
"null","196883","pSARL_v2","pSARL_v23mbnnol8","5fb69cacddba6408f81a9564","fixation","img/fixation.png","null","","test","","","","","",""
"303.5","197191","pSARL_v2","pSARL_v23mbnnol8","5fb69cacddba6408f81a9564","freq","img/green_2bandit_a2.png","70","70","test","1","32","32","2","",""
"null","197707","pSARL_v2","pSARL_v23mbnnol8","5fb69cacddba6408f81a9564","freq_resp","img/green_2bandit_a.png","70","70","test","","","","2","",""
"null","197875","pSARL_v2","pSARL_v23mbnnol8","5fb69cacddba6408f81a9564","fixation","img/fixation.png","null","","test","","","","","",""
"268.89999997615814","198149","pSARL_v2","pSARL_v23mbnnol8","5fb69cacddba6408f81a9564","freq","img/green_2bandit_a2.png","70","70","test","1","33","33","2","",""
"null","198694","pSARL_v2","pSARL_v23mbnnol8","5fb69cacddba6408f81a9564","freq_resp","img/green_2bandit_a.png","70","70","test","","","","2","",""
"null","198860","pSARL_v2","pSARL_v23mbnnol8","5fb69cacddba6408f81a9564","fixation","img/fixation.png","null","","test","","","","","",""
"240.19999992847443","199104","pSARL_v2","pSARL_v23mbnnol8","5fb69cacddba6408f81a9564","freq","img/green_2bandit_a2.png","70","70","test","1","34","34","2","",""
"null","199678","pSARL_v2","pSARL_v23mbnnol8","5fb69cacddba6408f81a9564","freq_resp","img/green_2bandit_a.png","70","70","test","","","","2","",""
"null","199839","pSARL_v2","pSARL_v23mbnnol8","5fb69cacddba6408f81a9564","fixation","img/fixation.png","null","","test","","","","","",""
"263.5","200107","pSARL_v2","pSARL_v23mbnnol8","5fb69cacddba6408f81a9564","freq","img/green_2bandit_a2.png","70","70","test","1","35","35","2","",""
"null","200654","pSARL_v2","pSARL_v23mbnnol8","5fb69cacddba6408f81a9564","freq_resp","img/green_2bandit_a.png","70","70","test","","","","2","",""
"null","200817","pSARL_v2","pSARL_v23mbnnol8","5fb69cacddba6408f81a9564","fixation","img/fixation.png","null","","test","","","","","",""
"246.59999990463257","201069","pSARL_v2","pSARL_v23mbnnol8","5fb69cacddba6408f81a9564","freq","img/green_2bandit_a2.png","70","70","test","1","36","36","2","",""
"null","201634","pSARL_v2","pSARL_v23mbnnol8","5fb69cacddba6408f81a9564","freq_resp","img/green_2bandit_a.png","70","70","test","","","","2","",""
"null","201800","pSARL_v2","pSARL_v23mbnnol8","5fb69cacddba6408f81a9564","fixation","img/fixation.png","null","","test","","","","","",""
"135.39999997615814","201940","pSARL_v2","pSARL_v23mbnnol8","5fb69cacddba6408f81a9564","freq","img/green_2bandit_a2.png","70","70","test","1","37","37","2","",""
"null","202617","pSARL_v2","pSARL_v23mbnnol8","5fb69cacddba6408f81a9564","freq_resp","img/green_2bandit_a.png","70","70","test","","","","2","",""
"null","202786","pSARL_v2","pSARL_v23mbnnol8","5fb69cacddba6408f81a9564","fixation","img/fixation.png","null","","test","","","","","",""
"276.3000000715256","203067","pSARL_v2","pSARL_v23mbnnol8","5fb69cacddba6408f81a9564","freq","img/green_2bandit_a2.png","70","70","test","1","38","38","2","",""
"null","203599","pSARL_v2","pSARL_v23mbnnol8","5fb69cacddba6408f81a9564","freq_resp","img/green_2bandit_a.png","70","70","test","","","","2","",""
"null","203758","pSARL_v2","pSARL_v23mbnnol8","5fb69cacddba6408f81a9564","fixation","img/fixation.png","null","","test","","","","","",""
"269.7000000476837","204032","pSARL_v2","pSARL_v23mbnnol8","5fb69cacddba6408f81a9564","freq","img/green_2bandit_a2.png","70","70","test","1","39","39","2","",""
"null","204573","pSARL_v2","pSARL_v23mbnnol8","5fb69cacddba6408f81a9564","freq_resp","img/green_2bandit_a.png","70","70","test","","","","2","",""
"null","204739","pSARL_v2","pSARL_v23mbnnol8","5fb69cacddba6408f81a9564","fixation","img/fixation.png","null","","test","","","","","",""
"284.2000000476837","205029","pSARL_v2","pSARL_v23mbnnol8","5fb69cacddba6408f81a9564","freq","img/green_2bandit_a2.png","70","70","test","1","40","40","2","",""
"null","205557","pSARL_v2","pSARL_v23mbnnol8","5fb69cacddba6408f81a9564","freq_resp","img/green_2bandit_a.png","70","70","test","","","","2","",""
"null","205718","pSARL_v2","pSARL_v23mbnnol8","5fb69cacddba6408f81a9564","fixation","img/fixation.png","null","","test","","","","","",""
"556.6000000238419","206279","pSARL_v2","pSARL_v23mbnnol8","5fb69cacddba6408f81a9564","reward","img/slot.png","74","","test","","","","","",""
"null","207037","pSARL_v2","pSARL_v23mbnnol8","5fb69cacddba6408f81a9564","points","<div class=""verylowPoints""> -11 </div>","null","na","test","","","","2","-11","1"
"350.89999997615814","207393","pSARL_v2","pSARL_v23mbnnol8","5fb69cacddba6408f81a9564","freq","img/green_2bandit_a2.png","70","70","test","1","41","41","3","",""
"null","207853","pSARL_v2","pSARL_v23mbnnol8","5fb69cacddba6408f81a9564","freq_resp","img/green_2bandit_a.png","70","70","test","","","","3","",""
"null","208015","pSARL_v2","pSARL_v23mbnnol8","5fb69cacddba6408f81a9564","fixation","img/fixation.png","null","","test","","","","","",""
"250.69999992847443","208270","pSARL_v2","pSARL_v23mbnnol8","5fb69cacddba6408f81a9564","freq","img/green_2bandit_a2.png","70","70","test","1","42","42","3","",""
"null","208835","pSARL_v2","pSARL_v23mbnnol8","5fb69cacddba6408f81a9564","freq_resp","img/green_2bandit_a.png","70","70","test","","","","3","",""
"null","209003","pSARL_v2","pSARL_v23mbnnol8","5fb69cacddba6408f81a9564","fixation","img/fixation.png","null","","test","","","","","",""
"267.6999999284744","209274","pSARL_v2","pSARL_v23mbnnol8","5fb69cacddba6408f81a9564","freq","img/green_2bandit_a2.png","70","70","test","1","43","43","3","",""
"null","209823","pSARL_v2","pSARL_v23mbnnol8","5fb69cacddba6408f81a9564","freq_resp","img/green_2bandit_a.png","70","70","test","","","","3","",""
"null","209985","pSARL_v2","pSARL_v23mbnnol8","5fb69cacddba6408f81a9564","fixation","img/fixation.png","null","","test","","","","","",""
"248.09999990463257","210238","pSARL_v2","pSARL_v23mbnnol8","5fb69cacddba6408f81a9564","freq","img/green_2bandit_a2.png","70","70","test","1","44","44","3","",""
"null","210798","pSARL_v2","pSARL_v23mbnnol8","5fb69cacddba6408f81a9564","freq_resp","img/green_2bandit_a.png","70","70","test","","","","3","",""
"null","210963","pSARL_v2","pSARL_v23mbnnol8","5fb69cacddba6408f81a9564","fixation","img/fixation.png","null","","test","","","","","",""
"258.10000002384186","211226","pSARL_v2","pSARL_v23mbnnol8","5fb69cacddba6408f81a9564","freq","img/green_2bandit_a2.png","70","70","test","1","45","45","3","",""
"null","211785","pSARL_v2","pSARL_v23mbnnol8","5fb69cacddba6408f81a9564","freq_resp","img/green_2bandit_a.png","70","70","test","","","","3","",""
"null","211955","pSARL_v2","pSARL_v23mbnnol8","5fb69cacddba6408f81a9564","fixation","img/fixation.png","null","","test","","","","","",""
"261.5","212221","pSARL_v2","pSARL_v23mbnnol8","5fb69cacddba6408f81a9564","freq","img/green_2bandit_a2.png","70","70","test","1","46","46","3","",""
"null","212779","pSARL_v2","pSARL_v23mbnnol8","5fb69cacddba6408f81a9564","freq_resp","img/green_2bandit_a.png","70","70","test","","","","3","",""
"null","212944","pSARL_v2","pSARL_v23mbnnol8","5fb69cacddba6408f81a9564","fixation","img/fixation.png","null","","test","","","","","",""
"263.1999999284744","213212","pSARL_v2","pSARL_v23mbnnol8","5fb69cacddba6408f81a9564","freq","img/green_2bandit_a2.png","70","70","test","1","47","47","3","",""
"null","213755","pSARL_v2","pSARL_v23mbnnol8","5fb69cacddba6408f81a9564","freq_resp","img/green_2bandit_a.png","70","70","test","","","","3","",""
"null","213923","pSARL_v2","pSARL_v23mbnnol8","5fb69cacddba6408f81a9564","fixation","img/fixation.png","null","","test","","","","","",""
"333.60000002384186","214261","pSARL_v2","pSARL_v23mbnnol8","5fb69cacddba6408f81a9564","freq","img/green_2bandit_a2.png","70","70","test","1","48","48","3","",""
"null","214743","pSARL_v2","pSARL_v23mbnnol8","5fb69cacddba6408f81a9564","freq_resp","img/green_2bandit_a.png","70","70","test","","","","3","",""
"null","214907","pSARL_v2","pSARL_v23mbnnol8","5fb69cacddba6408f81a9564","fixation","img/fixation.png","null","","test","","","","","",""
"256.7999999523163","215168","pSARL_v2","pSARL_v23mbnnol8","5fb69cacddba6408f81a9564","freq","img/green_2bandit_a2.png","70","70","test","1","49","49","3","",""
"null","215731","pSARL_v2","pSARL_v23mbnnol8","5fb69cacddba6408f81a9564","freq_resp","img/green_2bandit_a.png","70","70","test","","","","3","",""
"null","215893","pSARL_v2","pSARL_v23mbnnol8","5fb69cacddba6408f81a9564","fixation","img/fixation.png","null","","test","","","","","",""
"299.09999990463257","216197","pSARL_v2","pSARL_v23mbnnol8","5fb69cacddba6408f81a9564","freq","img/green_2bandit_a2.png","70","70","test","1","50","50","3","",""
"null","216703","pSARL_v2","pSARL_v23mbnnol8","5fb69cacddba6408f81a9564","freq_resp","img/green_2bandit_a.png","70","70","test","","","","3","",""
"null","216859","pSARL_v2","pSARL_v23mbnnol8","5fb69cacddba6408f81a9564","fixation","img/fixation.png","null","","test","","","","","",""
"346.40000009536743","217210","pSARL_v2","pSARL_v23mbnnol8","5fb69cacddba6408f81a9564","freq","img/green_2bandit_a2.png","70","70","test","1","51","51","3","",""
"null","217678","pSARL_v2","pSARL_v23mbnnol8","5fb69cacddba6408f81a9564","freq_resp","img/green_2bandit_a.png","70","70","test","","","","3","",""
"null","217841","pSARL_v2","pSARL_v23mbnnol8","5fb69cacddba6408f81a9564","fixation","img/fixation.png","null","","test","","","","","",""
"308.3000000715256","218155","pSARL_v2","pSARL_v23mbnnol8","5fb69cacddba6408f81a9564","freq","img/green_2bandit_a2.png","70","70","test","1","52","52","3","",""
"null","218653","pSARL_v2","pSARL_v23mbnnol8","5fb69cacddba6408f81a9564","freq_resp","img/green_2bandit_a.png","70","70","test","","","","3","",""
"null","218817","pSARL_v2","pSARL_v23mbnnol8","5fb69cacddba6408f81a9564","fixation","img/fixation.png","null","","test","","","","","",""
"275.7999999523163","219097","pSARL_v2","pSARL_v23mbnnol8","5fb69cacddba6408f81a9564","freq","img/green_2bandit_a2.png","70","70","test","1","53","53","3","",""
"null","219632","pSARL_v2","pSARL_v23mbnnol8","5fb69cacddba6408f81a9564","freq_resp","img/green_2bandit_a.png","70","70","test","","","","3","",""
"null","219800","pSARL_v2","pSARL_v23mbnnol8","5fb69cacddba6408f81a9564","fixation","img/fixation.png","null","","test","","","","","",""
"283.60000002384186","220090","pSARL_v2","pSARL_v23mbnnol8","5fb69cacddba6408f81a9564","freq","img/green_2bandit_a2.png","70","70","test","1","54","54","3","",""
"null","220616","pSARL_v2","pSARL_v23mbnnol8","5fb69cacddba6408f81a9564","freq_resp","img/green_2bandit_a.png","70","70","test","","","","3","",""
"null","220775","pSARL_v2","pSARL_v23mbnnol8","5fb69cacddba6408f81a9564","fixation","img/fixation.png","null","","test","","","","","",""
"244.39999997615814","221024","pSARL_v2","pSARL_v23mbnnol8","5fb69cacddba6408f81a9564","freq","img/green_2bandit_a2.png","70","70","test","1","55","55","3","",""
"null","221588","pSARL_v2","pSARL_v23mbnnol8","5fb69cacddba6408f81a9564","freq_resp","img/green_2bandit_a.png","70","70","test","","","","3","",""
"null","221748","pSARL_v2","pSARL_v23mbnnol8","5fb69cacddba6408f81a9564","fixation","img/fixation.png","null","","test","","","","","",""
"361.7999999523163","222114","pSARL_v2","pSARL_v23mbnnol8","5fb69cacddba6408f81a9564","infreq","img/orange_2bandit_a2.png","68","68","test","1","56","56","3","",""
"null","222568","pSARL_v2","pSARL_v23mbnnol8","5fb69cacddba6408f81a9564","infreq_resp","img/orange_2bandit_a.png","68","68","test","","","","3","",""
"null","222736","pSARL_v2","pSARL_v23mbnnol8","5fb69cacddba6408f81a9564","fixation","img/fixation.png","null","","test","","","","","",""
"334.10000002384186","223074","pSARL_v2","pSARL_v23mbnnol8","5fb69cacddba6408f81a9564","freq","img/green_2bandit_a2.png","70","70","test","1","57","57","3","",""
"null","223546","pSARL_v2","pSARL_v23mbnnol8","5fb69cacddba6408f81a9564","freq_resp","img/green_2bandit_a.png","70","70","test","","","","3","",""
"null","223716","pSARL_v2","pSARL_v23mbnnol8","5fb69cacddba6408f81a9564","fixation","img/fixation.png","null","","test","","","","","",""
"305.89999997615814","224026","pSARL_v2","pSARL_v23mbnnol8","5fb69cacddba6408f81a9564","freq","img/green_2bandit_a2.png","70","70","test","1","58","58","3","",""
"null","224536","pSARL_v2","pSARL_v23mbnnol8","5fb69cacddba6408f81a9564","freq_resp","img/green_2bandit_a.png","70","70","test","","","","3","",""
"null","224707","pSARL_v2","pSARL_v23mbnnol8","5fb69cacddba6408f81a9564","fixation","img/fixation.png","null","","test","","","","","",""
"298.7000000476837","225010","pSARL_v2","pSARL_v23mbnnol8","5fb69cacddba6408f81a9564","freq","img/green_2bandit_a2.png","70","70","test","1","59","59","3","",""
"null","225521","pSARL_v2","pSARL_v23mbnnol8","5fb69cacddba6408f81a9564","freq_resp","img/green_2bandit_a.png","70","70","test","","","","3","",""
"null","225688","pSARL_v2","pSARL_v23mbnnol8","5fb69cacddba6408f81a9564","fixation","img/fixation.png","null","","test","","","","","",""
"445.6999999284744","226138","pSARL_v2","pSARL_v23mbnnol8","5fb69cacddba6408f81a9564","infreq","img/orange_2bandit_a2.png","68","68","test","1","60","60","3","",""
"null","226500","pSARL_v2","pSARL_v23mbnnol8","5fb69cacddba6408f81a9564","infreq_resp","img/orange_2bandit_a.png","68","68","test","","","","3","",""
"null","226663","pSARL_v2","pSARL_v23mbnnol8","5fb69cacddba6408f81a9564","fixation","img/fixation.png","null","","test","","","","","",""
"294.5","226961","pSARL_v2","pSARL_v23mbnnol8","5fb69cacddba6408f81a9564","freq","img/green_2bandit_a2.png","70","70","test","1","61","61","3","",""
"null","227473","pSARL_v2","pSARL_v23mbnnol8","5fb69cacddba6408f81a9564","freq_resp","img/green_2bandit_a.png","70","70","test","","","","3","",""
"null","227635","pSARL_v2","pSARL_v23mbnnol8","5fb69cacddba6408f81a9564","fixation","img/fixation.png","null","","test","","","","","",""
"348.7000000476837","227989","pSARL_v2","pSARL_v23mbnnol8","5fb69cacddba6408f81a9564","freq","img/green_2bandit_a2.png","70","70","test","1","62","62","3","",""
"null","228448","pSARL_v2","pSARL_v23mbnnol8","5fb69cacddba6408f81a9564","freq_resp","img/green_2bandit_a.png","70","70","test","","","","3","",""
"null","228612","pSARL_v2","pSARL_v23mbnnol8","5fb69cacddba6408f81a9564","fixation","img/fixation.png","null","","test","","","","","",""
"355.5","228972","pSARL_v2","pSARL_v23mbnnol8","5fb69cacddba6408f81a9564","reward","img/slot.png","74","","test","","","","","",""
"null","229733","pSARL_v2","pSARL_v23mbnnol8","5fb69cacddba6408f81a9564","points","<div class=""verylowPoints""> -7 </div>","null","na","test","","","","3","-7","2"
"251.70000004768372","229989","pSARL_v2","pSARL_v23mbnnol8","5fb69cacddba6408f81a9564","freq","img/green_2bandit_a2.png","70","70","test","1","63","63","4","",""
"null","230550","pSARL_v2","pSARL_v23mbnnol8","5fb69cacddba6408f81a9564","freq_resp","img/green_2bandit_a.png","70","70","test","","","","4","",""
"null","230711","pSARL_v2","pSARL_v23mbnnol8","5fb69cacddba6408f81a9564","fixation","img/fixation.png","null","","test","","","","","",""
"430.60000002384186","231147","pSARL_v2","pSARL_v23mbnnol8","5fb69cacddba6408f81a9564","infreq","img/orange_2bandit_a2.png","68","68","test","1","64","64","4","",""
"null","231526","pSARL_v2","pSARL_v23mbnnol8","5fb69cacddba6408f81a9564","infreq_resp","img/orange_2bandit_a.png","68","68","test","","","","4","",""
"null","231690","pSARL_v2","pSARL_v23mbnnol8","5fb69cacddba6408f81a9564","fixation","img/fixation.png","null","","test","","","","","",""
"392.39999997615814","232088","pSARL_v2","pSARL_v23mbnnol8","5fb69cacddba6408f81a9564","freq","img/green_2bandit_a2.png","70","70","test","1","65","65","4","",""
"null","232511","pSARL_v2","pSARL_v23mbnnol8","5fb69cacddba6408f81a9564","freq_resp","img/green_2bandit_a.png","70","70","test","","","","4","",""
"null","232673","pSARL_v2","pSARL_v23mbnnol8","5fb69cacddba6408f81a9564","fixation","img/fixation.png","null","","test","","","","","",""
"310.10000002384186","232987","pSARL_v2","pSARL_v23mbnnol8","5fb69cacddba6408f81a9564","freq","img/green_2bandit_a2.png","70","70","test","1","66","66","4","",""
"null","233491","pSARL_v2","pSARL_v23mbnnol8","5fb69cacddba6408f81a9564","freq_resp","img/green_2bandit_a.png","70","70","test","","","","4","",""
"null","233653","pSARL_v2","pSARL_v23mbnnol8","5fb69cacddba6408f81a9564","fixation","img/fixation.png","null","","test","","","","","",""
"255.30000007152557","233913","pSARL_v2","pSARL_v23mbnnol8","5fb69cacddba6408f81a9564","freq","img/green_2bandit_a2.png","70","70","test","1","67","67","4","",""
"null","234473","pSARL_v2","pSARL_v23mbnnol8","5fb69cacddba6408f81a9564","freq_resp","img/green_2bandit_a.png","70","70","test","","","","4","",""
"null","234641","pSARL_v2","pSARL_v23mbnnol8","5fb69cacddba6408f81a9564","fixation","img/fixation.png","null","","test","","","","","",""
"421.7000000476837","235067","pSARL_v2","pSARL_v23mbnnol8","5fb69cacddba6408f81a9564","infreq","img/orange_2bandit_a2.png","68","68","test","1","68","68","4","",""
"null","235452","pSARL_v2","pSARL_v23mbnnol8","5fb69cacddba6408f81a9564","infreq_resp","img/orange_2bandit_a.png","68","68","test","","","","4","",""
"null","235612","pSARL_v2","pSARL_v23mbnnol8","5fb69cacddba6408f81a9564","fixation","img/fixation.png","null","","test","","","","","",""
"294","235911","pSARL_v2","pSARL_v23mbnnol8","5fb69cacddba6408f81a9564","freq","img/green_2bandit_a2.png","70","70","test","1","69","69","4","",""
"null","236424","pSARL_v2","pSARL_v23mbnnol8","5fb69cacddba6408f81a9564","freq_resp","img/green_2bandit_a.png","70","70","test","","","","4","",""
"null","236588","pSARL_v2","pSARL_v23mbnnol8","5fb69cacddba6408f81a9564","fixation","img/fixation.png","null","","test","","","","","",""
"295.10000002384186","236887","pSARL_v2","pSARL_v23mbnnol8","5fb69cacddba6408f81a9564","freq","img/green_2bandit_a2.png","70","70","test","1","70","70","4","",""
"null","237402","pSARL_v2","pSARL_v23mbnnol8","5fb69cacddba6408f81a9564","freq_resp","img/green_2bandit_a.png","70","70","test","","","","4","",""
"null","237568","pSARL_v2","pSARL_v23mbnnol8","5fb69cacddba6408f81a9564","fixation","img/fixation.png","null","","test","","","","","",""
"247.5","237820","pSARL_v2","pSARL_v23mbnnol8","5fb69cacddba6408f81a9564","freq","img/green_2bandit_a2.png","70","70","test","1","71","71","4","",""
"null","238386","pSARL_v2","pSARL_v23mbnnol8","5fb69cacddba6408f81a9564","freq_resp","img/green_2bandit_a.png","70","70","test","","","","4","",""
"null","238553","pSARL_v2","pSARL_v23mbnnol8","5fb69cacddba6408f81a9564","fixation","img/fixation.png","null","","test","","","","","",""
"214.10000002384186","238773","pSARL_v2","pSARL_v23mbnnol8","5fb69cacddba6408f81a9564","freq","img/green_2bandit_a2.png","70","70","test","1","72","72","4","",""
"null","239378","pSARL_v2","pSARL_v23mbnnol8","5fb69cacddba6408f81a9564","freq_resp","img/green_2bandit_a.png","70","70","test","","","","4","",""
"null","239538","pSARL_v2","pSARL_v23mbnnol8","5fb69cacddba6408f81a9564","fixation","img/fixation.png","null","","test","","","","","",""
"286.7000000476837","239830","pSARL_v2","pSARL_v23mbnnol8","5fb69cacddba6408f81a9564","freq","img/green_2bandit_a2.png","70","70","test","1","73","73","4","",""
"null","240359","pSARL_v2","pSARL_v23mbnnol8","5fb69cacddba6408f81a9564","freq_resp","img/green_2bandit_a.png","70","70","test","","","","4","",""
"null","240528","pSARL_v2","pSARL_v23mbnnol8","5fb69cacddba6408f81a9564","fixation","img/fixation.png","null","","test","","","","","",""
"274","240807","pSARL_v2","pSARL_v23mbnnol8","5fb69cacddba6408f81a9564","freq","img/green_2bandit_a2.png","70","70","test","1","74","74","4","",""
"null","241343","pSARL_v2","pSARL_v23mbnnol8","5fb69cacddba6408f81a9564","freq_resp","img/green_2bandit_a.png","70","70","test","","","","4","",""
"null","241504","pSARL_v2","pSARL_v23mbnnol8","5fb69cacddba6408f81a9564","fixation","img/fixation.png","null","","test","","","","","",""
"270","241779","pSARL_v2","pSARL_v23mbnnol8","5fb69cacddba6408f81a9564","freq","img/green_2bandit_a2.png","70","70","test","1","75","75","4","",""
"null","242316","pSARL_v2","pSARL_v23mbnnol8","5fb69cacddba6408f81a9564","freq_resp","img/green_2bandit_a.png","70","70","test","","","","4","",""
"null","242479","pSARL_v2","pSARL_v23mbnnol8","5fb69cacddba6408f81a9564","fixation","img/fixation.png","null","","test","","","","","",""
"259.2999999523163","242743","pSARL_v2","pSARL_v23mbnnol8","5fb69cacddba6408f81a9564","freq","img/green_2bandit_a2.png","70","70","test","1","76","76","4","",""
"null","243293","pSARL_v2","pSARL_v23mbnnol8","5fb69cacddba6408f81a9564","freq_resp","img/green_2bandit_a.png","70","70","test","","","","4","",""
"null","243456","pSARL_v2","pSARL_v23mbnnol8","5fb69cacddba6408f81a9564","fixation","img/fixation.png","null","","test","","","","","",""
"279.89999997615814","243741","pSARL_v2","pSARL_v23mbnnol8","5fb69cacddba6408f81a9564","freq","img/green_2bandit_a2.png","70","70","test","1","77","77","4","",""
"null","244267","pSARL_v2","pSARL_v23mbnnol8","5fb69cacddba6408f81a9564","freq_resp","img/green_2bandit_a.png","70","70","test","","","","4","",""
"null","244429","pSARL_v2","pSARL_v23mbnnol8","5fb69cacddba6408f81a9564","fixation","img/fixation.png","null","","test","","","","","",""
"296.7000000476837","244730","pSARL_v2","pSARL_v23mbnnol8","5fb69cacddba6408f81a9564","freq","img/green_2bandit_a2.png","70","70","test","1","78","78","4","",""
"null","245240","pSARL_v2","pSARL_v23mbnnol8","5fb69cacddba6408f81a9564","freq_resp","img/green_2bandit_a.png","70","70","test","","","","4","",""
"null","245408","pSARL_v2","pSARL_v23mbnnol8","5fb69cacddba6408f81a9564","fixation","img/fixation.png","null","","test","","","","","",""
"236.20000004768372","245648","pSARL_v2","pSARL_v23mbnnol8","5fb69cacddba6408f81a9564","freq","img/green_2bandit_a2.png","70","70","test","1","79","79","4","",""
"null","246222","pSARL_v2","pSARL_v23mbnnol8","5fb69cacddba6408f81a9564","freq_resp","img/green_2bandit_a.png","70","70","test","","","","4","",""
"null","246386","pSARL_v2","pSARL_v23mbnnol8","5fb69cacddba6408f81a9564","fixation","img/fixation.png","null","","test","","","","","",""
"268.40000009536743","246660","pSARL_v2","pSARL_v23mbnnol8","5fb69cacddba6408f81a9564","freq","img/green_2bandit_a2.png","70","70","test","1","80","80","4","",""
"null","247210","pSARL_v2","pSARL_v23mbnnol8","5fb69cacddba6408f81a9564","freq_resp","img/green_2bandit_a.png","70","70","test","","","","4","",""
"null","247371","pSARL_v2","pSARL_v23mbnnol8","5fb69cacddba6408f81a9564","fixation","img/fixation.png","null","","test","","","","","",""
"295.89999997615814","247671","pSARL_v2","pSARL_v23mbnnol8","5fb69cacddba6408f81a9564","freq","img/green_2bandit_a2.png","70","70","test","1","81","81","4","",""
"null","248181","pSARL_v2","pSARL_v23mbnnol8","5fb69cacddba6408f81a9564","freq_resp","img/green_2bandit_a.png","70","70","test","","","","4","",""
"null","248342","pSARL_v2","pSARL_v23mbnnol8","5fb69cacddba6408f81a9564","fixation","img/fixation.png","null","","test","","","","","",""
"331.2999999523163","248678","pSARL_v2","pSARL_v23mbnnol8","5fb69cacddba6408f81a9564","freq","img/green_2bandit_a2.png","70","70","test","1","82","82","4","",""
"null","249154","pSARL_v2","pSARL_v23mbnnol8","5fb69cacddba6408f81a9564","freq_resp","img/green_2bandit_a.png","70","70","test","","","","4","",""
"null","249322","pSARL_v2","pSARL_v23mbnnol8","5fb69cacddba6408f81a9564","fixation","img/fixation.png","null","","test","","","","","",""
"337.60000002384186","249664","pSARL_v2","pSARL_v23mbnnol8","5fb69cacddba6408f81a9564","freq","img/green_2bandit_a2.png","70","70","test","1","83","83","4","",""
"null","250145","pSARL_v2","pSARL_v23mbnnol8","5fb69cacddba6408f81a9564","freq_resp","img/green_2bandit_a.png","70","70","test","","","","4","",""
"null","250314","pSARL_v2","pSARL_v23mbnnol8","5fb69cacddba6408f81a9564","fixation","img/fixation.png","null","","test","","","","","",""
"630.7999999523163","250950","pSARL_v2","pSARL_v23mbnnol8","5fb69cacddba6408f81a9564","reward","img/slot.png","74","","test","","","","","",""
"null","251710","pSARL_v2","pSARL_v23mbnnol8","5fb69cacddba6408f81a9564","points","<div class=""verylowPoints""> -3 </div>","null","na","test","","","","4","-3","3"
"385.90000009536743","252101","pSARL_v2","pSARL_v23mbnnol8","5fb69cacddba6408f81a9564","freq","img/green_2bandit_a2.png","70","70","test","1","84","84","5","",""
"null","252528","pSARL_v2","pSARL_v23mbnnol8","5fb69cacddba6408f81a9564","freq_resp","img/green_2bandit_a.png","70","70","test","","","","5","",""
"null","252692","pSARL_v2","pSARL_v23mbnnol8","5fb69cacddba6408f81a9564","fixation","img/fixation.png","null","","test","","","","","",""
"251.10000002384186","252948","pSARL_v2","pSARL_v23mbnnol8","5fb69cacddba6408f81a9564","freq","img/green_2bandit_a2.png","70","70","test","1","85","85","5","",""
"null","253511","pSARL_v2","pSARL_v23mbnnol8","5fb69cacddba6408f81a9564","freq_resp","img/green_2bandit_a.png","70","70","test","","","","5","",""
"null","253671","pSARL_v2","pSARL_v23mbnnol8","5fb69cacddba6408f81a9564","fixation","img/fixation.png","null","","test","","","","","",""
"181.60000002384186","253857","pSARL_v2","pSARL_v23mbnnol8","5fb69cacddba6408f81a9564","freq","img/green_2bandit_a2.png","70","70","test","1","86","86","5","",""
"null","254486","pSARL_v2","pSARL_v23mbnnol8","5fb69cacddba6408f81a9564","freq_resp","img/green_2bandit_a.png","70","70","test","","","","5","",""
"null","254643","pSARL_v2","pSARL_v23mbnnol8","5fb69cacddba6408f81a9564","fixation","img/fixation.png","null","","test","","","","","",""
"633.0999999046326","255282","pSARL_v2","pSARL_v23mbnnol8","5fb69cacddba6408f81a9564","freq","img/green_2bandit_a2.png","70","70","test","1","87","87","5","",""
"null","255462","pSARL_v2","pSARL_v23mbnnol8","5fb69cacddba6408f81a9564","freq_resp","img/green_2bandit_a.png","70","70","test","","","","5","",""
"null","255629","pSARL_v2","pSARL_v23mbnnol8","5fb69cacddba6408f81a9564","fixation","img/fixation.png","null","","test","","","","","",""
"318.40000009536743","255952","pSARL_v2","pSARL_v23mbnnol8","5fb69cacddba6408f81a9564","freq","img/green_2bandit_a2.png","70","70","test","1","88","88","5","",""
"null","256448","pSARL_v2","pSARL_v23mbnnol8","5fb69cacddba6408f81a9564","freq_resp","img/green_2bandit_a.png","70","70","test","","","","5","",""
"null","256616","pSARL_v2","pSARL_v23mbnnol8","5fb69cacddba6408f81a9564","fixation","img/fixation.png","null","","test","","","","","",""
"143.79999995231628","256765","pSARL_v2","pSARL_v23mbnnol8","5fb69cacddba6408f81a9564","freq","img/green_2bandit_a2.png","70","70","test","1","89","89","5","",""
"null","257438","pSARL_v2","pSARL_v23mbnnol8","5fb69cacddba6408f81a9564","freq_resp","img/green_2bandit_a.png","70","70","test","","","","5","",""
"null","257597","pSARL_v2","pSARL_v23mbnnol8","5fb69cacddba6408f81a9564","fixation","img/fixation.png","null","","test","","","","","",""
"118.10000002384186","257720","pSARL_v2","pSARL_v23mbnnol8","5fb69cacddba6408f81a9564","freq","img/green_2bandit_a2.png","70","70","test","1","90","90","5","",""
"null","258415","pSARL_v2","pSARL_v23mbnnol8","5fb69cacddba6408f81a9564","freq_resp","img/green_2bandit_a.png","70","70","test","","","","5","",""
"null","258582","pSARL_v2","pSARL_v23mbnnol8","5fb69cacddba6408f81a9564","fixation","img/fixation.png","null","","test","","","","","",""
"2.399999976158142","258589","pSARL_v2","pSARL_v23mbnnol8","5fb69cacddba6408f81a9564","freq","img/green_2bandit_a2.png","70","70","test","1","91","91","5","",""
"null","259396","pSARL_v2","pSARL_v23mbnnol8","5fb69cacddba6408f81a9564","freq_resp","img/green_2bandit_a.png","70","70","test","","","","5","",""
"null","259557","pSARL_v2","pSARL_v23mbnnol8","5fb69cacddba6408f81a9564","fixation","img/fixation.png","null","","test","","","","","",""
"121.79999995231628","259684","pSARL_v2","pSARL_v23mbnnol8","5fb69cacddba6408f81a9564","freq","img/green_2bandit_a2.png","70","70","test","1","92","92","5","",""
"null","260371","pSARL_v2","pSARL_v23mbnnol8","5fb69cacddba6408f81a9564","freq_resp","img/green_2bandit_a.png","70","70","test","","","","5","",""
"null","260538","pSARL_v2","pSARL_v23mbnnol8","5fb69cacddba6408f81a9564","fixation","img/fixation.png","null","","test","","","","","",""
"110.5","260653","pSARL_v2","pSARL_v23mbnnol8","5fb69cacddba6408f81a9564","freq","img/green_2bandit_a2.png","70","70","test","1","93","93","5","",""
"null","261355","pSARL_v2","pSARL_v23mbnnol8","5fb69cacddba6408f81a9564","freq_resp","img/green_2bandit_a.png","70","70","test","","","","5","",""
"null","261517","pSARL_v2","pSARL_v23mbnnol8","5fb69cacddba6408f81a9564","fixation","img/fixation.png","null","","test","","","","","",""
"104.29999995231628","261626","pSARL_v2","pSARL_v23mbnnol8","5fb69cacddba6408f81a9564","freq","img/green_2bandit_a2.png","70","70","test","1","94","94","5","",""
"null","262335","pSARL_v2","pSARL_v23mbnnol8","5fb69cacddba6408f81a9564","freq_resp","img/green_2bandit_a.png","70","70","test","","","","5","",""
"null","262498","pSARL_v2","pSARL_v23mbnnol8","5fb69cacddba6408f81a9564","fixation","img/fixation.png","null","","test","","","","","",""
"150.79999995231628","262653","pSARL_v2","pSARL_v23mbnnol8","5fb69cacddba6408f81a9564","freq","img/green_2bandit_a2.png","70","70","test","1","95","95","5","",""
"null","263315","pSARL_v2","pSARL_v23mbnnol8","5fb69cacddba6408f81a9564","freq_resp","img/green_2bandit_a.png","70","70","test","","","","5","",""
"null","263475","pSARL_v2","pSARL_v23mbnnol8","5fb69cacddba6408f81a9564","fixation","img/fixation.png","null","","test","","","","","",""
"155.60000002384186","263635","pSARL_v2","pSARL_v23mbnnol8","5fb69cacddba6408f81a9564","freq","img/green_2bandit_a2.png","70","70","test","1","96","96","5","",""
"null","264293","pSARL_v2","pSARL_v23mbnnol8","5fb69cacddba6408f81a9564","freq_resp","img/green_2bandit_a.png","70","70","test","","","","5","",""
"null","264455","pSARL_v2","pSARL_v23mbnnol8","5fb69cacddba6408f81a9564","fixation","img/fixation.png","null","","test","","","","","",""
"265.09999990463257","264725","pSARL_v2","pSARL_v23mbnnol8","5fb69cacddba6408f81a9564","freq","img/green_2bandit_a2.png","70","70","test","1","97","97","5","",""
"null","265269","pSARL_v2","pSARL_v23mbnnol8","5fb69cacddba6408f81a9564","freq_resp","img/green_2bandit_a.png","70","70","test","","","","5","",""
"null","265428","pSARL_v2","pSARL_v23mbnnol8","5fb69cacddba6408f81a9564","fixation","img/fixation.png","null","","test","","","","","",""
"288.8000000715256","265722","pSARL_v2","pSARL_v23mbnnol8","5fb69cacddba6408f81a9564","freq","img/green_2bandit_a2.png","70","70","test","1","98","98","5","",""
"null","266245","pSARL_v2","pSARL_v23mbnnol8","5fb69cacddba6408f81a9564","freq_resp","img/green_2bandit_a.png","70","70","test","","","","5","",""
"null","266404","pSARL_v2","pSARL_v23mbnnol8","5fb69cacddba6408f81a9564","fixation","img/fixation.png","null","","test","","","","","",""
"149.40000009536743","266558","pSARL_v2","pSARL_v23mbnnol8","5fb69cacddba6408f81a9564","freq","img/green_2bandit_a2.png","70","70","test","1","99","99","5","",""
"null","267223","pSARL_v2","pSARL_v23mbnnol8","5fb69cacddba6408f81a9564","freq_resp","img/green_2bandit_a.png","70","70","test","","","","5","",""
"null","267394","pSARL_v2","pSARL_v23mbnnol8","5fb69cacddba6408f81a9564","fixation","img/fixation.png","null","","test","","","","","",""
"372.10000002384186","267770","pSARL_v2","pSARL_v23mbnnol8","5fb69cacddba6408f81a9564","infreq","img/orange_2bandit_a2.png","68","68","test","1","100","100","5","",""
"null","268217","pSARL_v2","pSARL_v23mbnnol8","5fb69cacddba6408f81a9564","infreq_resp","img/orange_2bandit_a.png","68","68","test","","","","5","",""
"null","268379","pSARL_v2","pSARL_v23mbnnol8","5fb69cacddba6408f81a9564","fixation","img/fixation.png","null","","test","","","","","",""
"370.09999990463257","268753","pSARL_v2","pSARL_v23mbnnol8","5fb69cacddba6408f81a9564","infreq","img/orange_2bandit_a2.png","68","68","test","1","101","101","5","",""
"null","269199","pSARL_v2","pSARL_v23mbnnol8","5fb69cacddba6408f81a9564","infreq_resp","img/orange_2bandit_a.png","68","68","test","","","","5","",""
"null","269363","pSARL_v2","pSARL_v23mbnnol8","5fb69cacddba6408f81a9564","fixation","img/fixation.png","null","","test","","","","","",""
"347.6999999284744","269715","pSARL_v2","pSARL_v23mbnnol8","5fb69cacddba6408f81a9564","freq","img/green_2bandit_a2.png","70","70","test","1","102","102","5","",""
"null","270185","pSARL_v2","pSARL_v23mbnnol8","5fb69cacddba6408f81a9564","freq_resp","img/green_2bandit_a.png","70","70","test","","","","5","",""
"null","270349","pSARL_v2","pSARL_v23mbnnol8","5fb69cacddba6408f81a9564","fixation","img/fixation.png","null","","test","","","","","",""
"470.60000002384186","270824","pSARL_v2","pSARL_v23mbnnol8","5fb69cacddba6408f81a9564","infreq","img/orange_2bandit_a2.png","68","68","test","1","103","103","5","",""
"null","271168","pSARL_v2","pSARL_v23mbnnol8","5fb69cacddba6408f81a9564","infreq_resp","img/orange_2bandit_a.png","68","68","test","","","","5","",""
"null","271331","pSARL_v2","pSARL_v23mbnnol8","5fb69cacddba6408f81a9564","fixation","img/fixation.png","null","","test","","","","","",""
"355.7000000476837","271691","pSARL_v2","pSARL_v23mbnnol8","5fb69cacddba6408f81a9564","freq","img/green_2bandit_a2.png","70","70","test","1","104","104","5","",""
"null","272151","pSARL_v2","pSARL_v23mbnnol8","5fb69cacddba6408f81a9564","freq_resp","img/green_2bandit_a.png","70","70","test","","","","5","",""
"null","272317","pSARL_v2","pSARL_v23mbnnol8","5fb69cacddba6408f81a9564","fixation","img/fixation.png","null","","test","","","","","",""
"355.39999997615814","272677","pSARL_v2","pSARL_v23mbnnol8","5fb69cacddba6408f81a9564","freq","img/green_2bandit_a2.png","68","70","test","0","105","105","5","",""
"null","273134","pSARL_v2","pSARL_v23mbnnol8","5fb69cacddba6408f81a9564","freq_resp","img/green_2bandit_a.png","68","70","test","","","","5","",""
"null","273295","pSARL_v2","pSARL_v23mbnnol8","5fb69cacddba6408f81a9564","fixation","img/fixation.png","null","","test","","","","","",""
"510.3000000715256","273810","pSARL_v2","pSARL_v23mbnnol8","5fb69cacddba6408f81a9564","freq","img/green_2bandit_a2.png","70","70","test","1","106","106","5","",""
"null","274108","pSARL_v2","pSARL_v23mbnnol8","5fb69cacddba6408f81a9564","freq_resp","img/green_2bandit_a.png","70","70","test","","","","5","",""
"null","274272","pSARL_v2","pSARL_v23mbnnol8","5fb69cacddba6408f81a9564","fixation","img/fixation.png","null","","test","","","","","",""
"532.5","274809","pSARL_v2","pSARL_v23mbnnol8","5fb69cacddba6408f81a9564","reward","img/slot.png","74","","test","","","","","",""
"null","275570","pSARL_v2","pSARL_v23mbnnol8","5fb69cacddba6408f81a9564","points","<div class=""veryhighPoints""> +1 </div>","null","na","test","","","","5","1","4"
"240.5","275815","pSARL_v2","pSARL_v23mbnnol8","5fb69cacddba6408f81a9564","freq","img/green_2bandit_a2.png","70","70","test","1","107","107","6","",""
"null","276389","pSARL_v2","pSARL_v23mbnnol8","5fb69cacddba6408f81a9564","freq_resp","img/green_2bandit_a.png","70","70","test","","","","6","",""
"null","276551","pSARL_v2","pSARL_v23mbnnol8","5fb69cacddba6408f81a9564","fixation","img/fixation.png","null","","test","","","","","",""
"328.7999999523163","276884","pSARL_v2","pSARL_v23mbnnol8","5fb69cacddba6408f81a9564","freq","img/green_2bandit_a2.png","70","70","test","1","108","108","6","",""
"null","277367","pSARL_v2","pSARL_v23mbnnol8","5fb69cacddba6408f81a9564","freq_resp","img/green_2bandit_a.png","70","70","test","","","","6","",""
"null","277535","pSARL_v2","pSARL_v23mbnnol8","5fb69cacddba6408f81a9564","fixation","img/fixation.png","null","","test","","","","","",""
"270.60000002384186","277810","pSARL_v2","pSARL_v23mbnnol8","5fb69cacddba6408f81a9564","freq","img/green_2bandit_a2.png","70","70","test","1","109","109","6","",""
"null","278346","pSARL_v2","pSARL_v23mbnnol8","5fb69cacddba6408f81a9564","freq_resp","img/green_2bandit_a.png","70","70","test","","","","6","",""
"null","278505","pSARL_v2","pSARL_v23mbnnol8","5fb69cacddba6408f81a9564","fixation","img/fixation.png","null","","test","","","","","",""
"112.5","278622","pSARL_v2","pSARL_v23mbnnol8","5fb69cacddba6408f81a9564","freq","img/green_2bandit_a2.png","70","70","test","1","110","110","6","",""
"null","279327","pSARL_v2","pSARL_v23mbnnol8","5fb69cacddba6408f81a9564","freq_resp","img/green_2bandit_a.png","70","70","test","","","","6","",""
"null","279491","pSARL_v2","pSARL_v23mbnnol8","5fb69cacddba6408f81a9564","fixation","img/fixation.png","null","","test","","","","","",""
"271.6999999284744","279767","pSARL_v2","pSARL_v23mbnnol8","5fb69cacddba6408f81a9564","freq","img/green_2bandit_a2.png","70","70","test","1","111","111","6","",""
"null","280309","pSARL_v2","pSARL_v23mbnnol8","5fb69cacddba6408f81a9564","freq_resp","img/green_2bandit_a.png","70","70","test","","","","6","",""
"null","280466","pSARL_v2","pSARL_v23mbnnol8","5fb69cacddba6408f81a9564","fixation","img/fixation.png","null","","test","","","","","",""
"287.5","280758","pSARL_v2","pSARL_v23mbnnol8","5fb69cacddba6408f81a9564","freq","img/green_2bandit_a2.png","70","70","test","1","112","112","6","",""
"null","281283","pSARL_v2","pSARL_v23mbnnol8","5fb69cacddba6408f81a9564","freq_resp","img/green_2bandit_a.png","70","70","test","","","","6","",""
"null","281446","pSARL_v2","pSARL_v23mbnnol8","5fb69cacddba6408f81a9564","fixation","img/fixation.png","null","","test","","","","","",""
"250.5","281701","pSARL_v2","pSARL_v23mbnnol8","5fb69cacddba6408f81a9564","freq","img/green_2bandit_a2.png","70","70","test","1","113","113","6","",""
"null","282265","pSARL_v2","pSARL_v23mbnnol8","5fb69cacddba6408f81a9564","freq_resp","img/green_2bandit_a.png","70","70","test","","","","6","",""
"null","282433","pSARL_v2","pSARL_v23mbnnol8","5fb69cacddba6408f81a9564","fixation","img/fixation.png","null","","test","","","","","",""
"119.29999995231628","282556","pSARL_v2","pSARL_v23mbnnol8","5fb69cacddba6408f81a9564","freq","img/green_2bandit_a2.png","70","70","test","1","114","114","6","",""
"null","283254","pSARL_v2","pSARL_v23mbnnol8","5fb69cacddba6408f81a9564","freq_resp","img/green_2bandit_a.png","70","70","test","","","","6","",""
"null","283422","pSARL_v2","pSARL_v23mbnnol8","5fb69cacddba6408f81a9564","fixation","img/fixation.png","null","","test","","","","","",""
"263.39999997615814","283689","pSARL_v2","pSARL_v23mbnnol8","5fb69cacddba6408f81a9564","freq","img/green_2bandit_a2.png","70","70","test","1","115","115","6","",""
"null","284238","pSARL_v2","pSARL_v23mbnnol8","5fb69cacddba6408f81a9564","freq_resp","img/green_2bandit_a.png","70","70","test","","","","6","",""
"null","284402","pSARL_v2","pSARL_v23mbnnol8","5fb69cacddba6408f81a9564","fixation","img/fixation.png","null","","test","","","","","",""
"595","285001","pSARL_v2","pSARL_v23mbnnol8","5fb69cacddba6408f81a9564","infreq","img/orange_2bandit_a2.png","68","68","test","1","116","116","6","",""
"null","285221","pSARL_v2","pSARL_v23mbnnol8","5fb69cacddba6408f81a9564","infreq_resp","img/orange_2bandit_a.png","68","68","test","","","","6","",""
"null","285380","pSARL_v2","pSARL_v23mbnnol8","5fb69cacddba6408f81a9564","fixation","img/fixation.png","null","","test","","","","","",""
"397.7000000476837","285782","pSARL_v2","pSARL_v23mbnnol8","5fb69cacddba6408f81a9564","freq","img/green_2bandit_a2.png","70","70","test","1","117","117","6","",""
"null","286197","pSARL_v2","pSARL_v23mbnnol8","5fb69cacddba6408f81a9564","freq_resp","img/green_2bandit_a.png","70","70","test","","","","6","",""
"null","286357","pSARL_v2","pSARL_v23mbnnol8","5fb69cacddba6408f81a9564","fixation","img/fixation.png","null","","test","","","","","",""
"432.60000002384186","286794","pSARL_v2","pSARL_v23mbnnol8","5fb69cacddba6408f81a9564","infreq","img/orange_2bandit_a2.png","68","68","test","1","118","118","6","",""
"null","287172","pSARL_v2","pSARL_v23mbnnol8","5fb69cacddba6408f81a9564","infreq_resp","img/orange_2bandit_a.png","68","68","test","","","","6","",""
"null","287333","pSARL_v2","pSARL_v23mbnnol8","5fb69cacddba6408f81a9564","fixation","img/fixation.png","null","","test","","","","","",""
"289","287626","pSARL_v2","pSARL_v23mbnnol8","5fb69cacddba6408f81a9564","freq","img/green_2bandit_a2.png","70","70","test","1","119","119","6","",""
"null","288149","pSARL_v2","pSARL_v23mbnnol8","5fb69cacddba6408f81a9564","freq_resp","img/green_2bandit_a.png","70","70","test","","","","6","",""
"null","288310","pSARL_v2","pSARL_v23mbnnol8","5fb69cacddba6408f81a9564","fixation","img/fixation.png","null","","test","","","","","",""
"287.5","288602","pSARL_v2","pSARL_v23mbnnol8","5fb69cacddba6408f81a9564","freq","img/green_2bandit_a2.png","70","70","test","1","120","120","6","",""
"null","289124","pSARL_v2","pSARL_v23mbnnol8","5fb69cacddba6408f81a9564","freq_resp","img/green_2bandit_a.png","70","70","test","","","","6","",""
"null","289289","pSARL_v2","pSARL_v23mbnnol8","5fb69cacddba6408f81a9564","fixation","img/fixation.png","null","","test","","","","","",""
"313.2000000476837","289607","pSARL_v2","pSARL_v23mbnnol8","5fb69cacddba6408f81a9564","freq","img/green_2bandit_a2.png","70","70","test","1","121","121","6","",""
"null","290109","pSARL_v2","pSARL_v23mbnnol8","5fb69cacddba6408f81a9564","freq_resp","img/green_2bandit_a.png","70","70","test","","","","6","",""
"null","290267","pSARL_v2","pSARL_v23mbnnol8","5fb69cacddba6408f81a9564","fixation","img/fixation.png","null","","test","","","","","",""
"277.10000002384186","290547","pSARL_v2","pSARL_v23mbnnol8","5fb69cacddba6408f81a9564","freq","img/green_2bandit_a2.png","70","70","test","1","122","122","6","",""
"null","291085","pSARL_v2","pSARL_v23mbnnol8","5fb69cacddba6408f81a9564","freq_resp","img/green_2bandit_a.png","70","70","test","","","","6","",""
"null","291241","pSARL_v2","pSARL_v23mbnnol8","5fb69cacddba6408f81a9564","fixation","img/fixation.png","null","","test","","","","","",""
"290.60000002384186","291536","pSARL_v2","pSARL_v23mbnnol8","5fb69cacddba6408f81a9564","freq","img/green_2bandit_a2.png","70","70","test","1","123","123","6","",""
"null","292061","pSARL_v2","pSARL_v23mbnnol8","5fb69cacddba6408f81a9564","freq_resp","img/green_2bandit_a.png","70","70","test","","","","6","",""
"null","292225","pSARL_v2","pSARL_v23mbnnol8","5fb69cacddba6408f81a9564","fixation","img/fixation.png","null","","test","","","","","",""
"299.8000000715256","292529","pSARL_v2","pSARL_v23mbnnol8","5fb69cacddba6408f81a9564","freq","img/green_2bandit_a2.png","70","70","test","1","124","124","6","",""
"null","293038","pSARL_v2","pSARL_v23mbnnol8","5fb69cacddba6408f81a9564","freq_resp","img/green_2bandit_a.png","70","70","test","","","","6","",""
"null","293202","pSARL_v2","pSARL_v23mbnnol8","5fb69cacddba6408f81a9564","fixation","img/fixation.png","null","","test","","","","","",""
"274.90000009536743","293481","pSARL_v2","pSARL_v23mbnnol8","5fb69cacddba6408f81a9564","freq","img/green_2bandit_a2.png","70","70","test","1","125","125","6","",""
"null","294017","pSARL_v2","pSARL_v23mbnnol8","5fb69cacddba6408f81a9564","freq_resp","img/green_2bandit_a.png","70","70","test","","","","6","",""
"null","294179","pSARL_v2","pSARL_v23mbnnol8","5fb69cacddba6408f81a9564","fixation","img/fixation.png","null","","test","","","","","",""
"265.7999999523163","294449","pSARL_v2","pSARL_v23mbnnol8","5fb69cacddba6408f81a9564","freq","img/green_2bandit_a2.png","70","70","test","1","126","126","6","",""
"null","294994","pSARL_v2","pSARL_v23mbnnol8","5fb69cacddba6408f81a9564","freq_resp","img/green_2bandit_a.png","70","70","test","","","","6","",""
"null","295157","pSARL_v2","pSARL_v23mbnnol8","5fb69cacddba6408f81a9564","fixation","img/fixation.png","null","","test","","","","","",""
"284","295447","pSARL_v2","pSARL_v23mbnnol8","5fb69cacddba6408f81a9564","freq","img/green_2bandit_a2.png","70","70","test","1","127","127","6","",""
"null","295970","pSARL_v2","pSARL_v23mbnnol8","5fb69cacddba6408f81a9564","freq_resp","img/green_2bandit_a.png","70","70","test","","","","6","",""
"null","296137","pSARL_v2","pSARL_v23mbnnol8","5fb69cacddba6408f81a9564","fixation","img/fixation.png","null","","test","","","","","",""
"284.1999999284744","296425","pSARL_v2","pSARL_v23mbnnol8","5fb69cacddba6408f81a9564","freq","img/green_2bandit_a2.png","70","70","test","1","128","128","6","",""
"null","296959","pSARL_v2","pSARL_v23mbnnol8","5fb69cacddba6408f81a9564","freq_resp","img/green_2bandit_a.png","70","70","test","","","","6","",""
"null","297129","pSARL_v2","pSARL_v23mbnnol8","5fb69cacddba6408f81a9564","fixation","img/fixation.png","null","","test","","","","","",""
"292.7000000476837","297426","pSARL_v2","pSARL_v23mbnnol8","5fb69cacddba6408f81a9564","freq","img/green_2bandit_a2.png","70","70","test","1","129","129","6","",""
"null","297946","pSARL_v2","pSARL_v23mbnnol8","5fb69cacddba6408f81a9564","freq_resp","img/green_2bandit_a.png","70","70","test","","","","6","",""
"null","298112","pSARL_v2","pSARL_v23mbnnol8","5fb69cacddba6408f81a9564","fixation","img/fixation.png","null","","test","","","","","",""
"538.9000000953674","298655","pSARL_v2","pSARL_v23mbnnol8","5fb69cacddba6408f81a9564","reward","img/slot.png","74","","test","","","","","",""
"null","299423","pSARL_v2","pSARL_v23mbnnol8","5fb69cacddba6408f81a9564","points","<div class=""verylowPoints""> -7 </div>","null","na","test","","","","6","-7","5"
"97.19999992847443","299525","pSARL_v2","pSARL_v23mbnnol8","5fb69cacddba6408f81a9564","freq","img/green_2bandit_a2.png","70","70","test","1","130","130","7","",""
"null","300246","pSARL_v2","pSARL_v23mbnnol8","5fb69cacddba6408f81a9564","freq_resp","img/green_2bandit_a.png","70","70","test","","","","7","",""
"null","300411","pSARL_v2","pSARL_v23mbnnol8","5fb69cacddba6408f81a9564","fixation","img/fixation.png","null","","test","","","","","",""
"460.5","300875","pSARL_v2","pSARL_v23mbnnol8","5fb69cacddba6408f81a9564","freq","img/green_2bandit_a2.png","70","70","test","1","131","131","7","",""
"null","301225","pSARL_v2","pSARL_v23mbnnol8","5fb69cacddba6408f81a9564","freq_resp","img/green_2bandit_a.png","70","70","test","","","","7","",""
"null","301388","pSARL_v2","pSARL_v23mbnnol8","5fb69cacddba6408f81a9564","fixation","img/fixation.png","null","","test","","","","","",""
"257.3000000715256","301650","pSARL_v2","pSARL_v23mbnnol8","5fb69cacddba6408f81a9564","freq","img/green_2bandit_a2.png","70","70","test","1","132","132","7","",""
"null","302204","pSARL_v2","pSARL_v23mbnnol8","5fb69cacddba6408f81a9564","freq_resp","img/green_2bandit_a.png","70","70","test","","","","7","",""
"null","302362","pSARL_v2","pSARL_v23mbnnol8","5fb69cacddba6408f81a9564","fixation","img/fixation.png","null","","test","","","","","",""
"118.70000004768372","302485","pSARL_v2","pSARL_v23mbnnol8","5fb69cacddba6408f81a9564","freq","img/green_2bandit_a2.png","70","70","test","1","133","133","7","",""
"null","303176","pSARL_v2","pSARL_v23mbnnol8","5fb69cacddba6408f81a9564","freq_resp","img/green_2bandit_a.png","70","70","test","","","","7","",""
"null","303340","pSARL_v2","pSARL_v23mbnnol8","5fb69cacddba6408f81a9564","fixation","img/fixation.png","null","","test","","","","","",""
"3.200000047683716","303347","pSARL_v2","pSARL_v23mbnnol8","5fb69cacddba6408f81a9564","freq","img/green_2bandit_a2.png","70","70","test","1","134","134","7","",""
"null","304153","pSARL_v2","pSARL_v23mbnnol8","5fb69cacddba6408f81a9564","freq_resp","img/green_2bandit_a.png","70","70","test","","","","7","",""
"null","304313","pSARL_v2","pSARL_v23mbnnol8","5fb69cacddba6408f81a9564","fixation","img/fixation.png","null","","test","","","","","",""
"101.89999997615814","304419","pSARL_v2","pSARL_v23mbnnol8","5fb69cacddba6408f81a9564","freq","img/green_2bandit_a2.png","70","70","test","1","135","135","7","",""
"null","305127","pSARL_v2","pSARL_v23mbnnol8","5fb69cacddba6408f81a9564","freq_resp","img/green_2bandit_a.png","70","70","test","","","","7","",""
"null","305291","pSARL_v2","pSARL_v23mbnnol8","5fb69cacddba6408f81a9564","fixation","img/fixation.png","null","","test","","","","","",""
"295.3000000715256","305590","pSARL_v2","pSARL_v23mbnnol8","5fb69cacddba6408f81a9564","freq","img/green_2bandit_a2.png","70","70","test","1","136","136","7","",""
"null","306098","pSARL_v2","pSARL_v23mbnnol8","5fb69cacddba6408f81a9564","freq_resp","img/green_2bandit_a.png","70","70","test","","","","7","",""
"null","306255","pSARL_v2","pSARL_v23mbnnol8","5fb69cacddba6408f81a9564","fixation","img/fixation.png","null","","test","","","","","",""
"303.7999999523163","306564","pSARL_v2","pSARL_v23mbnnol8","5fb69cacddba6408f81a9564","freq","img/green_2bandit_a2.png","70","70","test","1","137","137","7","",""
"null","307065","pSARL_v2","pSARL_v23mbnnol8","5fb69cacddba6408f81a9564","freq_resp","img/green_2bandit_a.png","70","70","test","","","","7","",""
"null","307226","pSARL_v2","pSARL_v23mbnnol8","5fb69cacddba6408f81a9564","fixation","img/fixation.png","null","","test","","","","","",""
"339.10000002384186","307569","pSARL_v2","pSARL_v23mbnnol8","5fb69cacddba6408f81a9564","infreq","img/orange_2bandit_a2.png","68","68","test","1","138","138","7","",""
"null","308042","pSARL_v2","pSARL_v23mbnnol8","5fb69cacddba6408f81a9564","infreq_resp","img/orange_2bandit_a.png","68","68","test","","","","7","",""
"null","308200","pSARL_v2","pSARL_v23mbnnol8","5fb69cacddba6408f81a9564","fixation","img/fixation.png","null","","test","","","","","",""
"310.2999999523163","308514","pSARL_v2","pSARL_v23mbnnol8","5fb69cacddba6408f81a9564","freq","img/green_2bandit_a2.png","70","70","test","1","139","139","7","",""
"null","309018","pSARL_v2","pSARL_v23mbnnol8","5fb69cacddba6408f81a9564","freq_resp","img/green_2bandit_a.png","70","70","test","","","","7","",""
"null","309181","pSARL_v2","pSARL_v23mbnnol8","5fb69cacddba6408f81a9564","fixation","img/fixation.png","null","","test","","","","","",""
"409.3000000715256","309595","pSARL_v2","pSARL_v23mbnnol8","5fb69cacddba6408f81a9564","freq","img/green_2bandit_a2.png","70","70","test","1","140","140","7","",""
"null","309997","pSARL_v2","pSARL_v23mbnnol8","5fb69cacddba6408f81a9564","freq_resp","img/green_2bandit_a.png","70","70","test","","","","7","",""
"null","310161","pSARL_v2","pSARL_v23mbnnol8","5fb69cacddba6408f81a9564","fixation","img/fixation.png","null","","test","","","","","",""
"303.7999999523163","310470","pSARL_v2","pSARL_v23mbnnol8","5fb69cacddba6408f81a9564","freq","img/green_2bandit_a2.png","70","70","test","1","141","141","7","",""
"null","310978","pSARL_v2","pSARL_v23mbnnol8","5fb69cacddba6408f81a9564","freq_resp","img/green_2bandit_a.png","70","70","test","","","","7","",""
"null","311140","pSARL_v2","pSARL_v23mbnnol8","5fb69cacddba6408f81a9564","fixation","img/fixation.png","null","","test","","","","","",""
"293.2000000476837","311437","pSARL_v2","pSARL_v23mbnnol8","5fb69cacddba6408f81a9564","freq","img/green_2bandit_a2.png","70","70","test","1","142","142","7","",""
"null","311949","pSARL_v2","pSARL_v23mbnnol8","5fb69cacddba6408f81a9564","freq_resp","img/green_2bandit_a.png","70","70","test","","","","7","",""
"null","312116","pSARL_v2","pSARL_v23mbnnol8","5fb69cacddba6408f81a9564","fixation","img/fixation.png","null","","test","","","","","",""
"262.5","312383","pSARL_v2","pSARL_v23mbnnol8","5fb69cacddba6408f81a9564","freq","img/green_2bandit_a2.png","70","70","test","1","143","143","7","",""
"null","312932","pSARL_v2","pSARL_v23mbnnol8","5fb69cacddba6408f81a9564","freq_resp","img/green_2bandit_a.png","70","70","test","","","","7","",""
"null","313090","pSARL_v2","pSARL_v23mbnnol8","5fb69cacddba6408f81a9564","fixation","img/fixation.png","null","","test","","","","","",""
"259.60000002384186","313354","pSARL_v2","pSARL_v23mbnnol8","5fb69cacddba6408f81a9564","freq","img/green_2bandit_a2.png","70","70","test","1","144","144","7","",""
"null","313903","pSARL_v2","pSARL_v23mbnnol8","5fb69cacddba6408f81a9564","freq_resp","img/green_2bandit_a.png","70","70","test","","","","7","",""
"null","314067","pSARL_v2","pSARL_v23mbnnol8","5fb69cacddba6408f81a9564","fixation","img/fixation.png","null","","test","","","","","",""
"286.39999997615814","314358","pSARL_v2","pSARL_v23mbnnol8","5fb69cacddba6408f81a9564","freq","img/green_2bandit_a2.png","70","70","test","1","145","145","7","",""
"null","314882","pSARL_v2","pSARL_v23mbnnol8","5fb69cacddba6408f81a9564","freq_resp","img/green_2bandit_a.png","70","70","test","","","","7","",""
"null","315044","pSARL_v2","pSARL_v23mbnnol8","5fb69cacddba6408f81a9564","fixation","img/fixation.png","null","","test","","","","","",""
"279.2000000476837","315327","pSARL_v2","pSARL_v23mbnnol8","5fb69cacddba6408f81a9564","freq","img/green_2bandit_a2.png","70","70","test","1","146","146","7","",""
"null","315857","pSARL_v2","pSARL_v23mbnnol8","5fb69cacddba6408f81a9564","freq_resp","img/green_2bandit_a.png","70","70","test","","","","7","",""
"null","316018","pSARL_v2","pSARL_v23mbnnol8","5fb69cacddba6408f81a9564","fixation","img/fixation.png","null","","test","","","","","",""
"283.60000002384186","316306","pSARL_v2","pSARL_v23mbnnol8","5fb69cacddba6408f81a9564","freq","img/green_2bandit_a2.png","70","70","test","1","147","147","7","",""
"null","316833","pSARL_v2","pSARL_v23mbnnol8","5fb69cacddba6408f81a9564","freq_resp","img/green_2bandit_a.png","70","70","test","","","","7","",""
"null","316997","pSARL_v2","pSARL_v23mbnnol8","5fb69cacddba6408f81a9564","fixation","img/fixation.png","null","","test","","","","","",""
"101.29999995231628","317103","pSARL_v2","pSARL_v23mbnnol8","5fb69cacddba6408f81a9564","freq","img/green_2bandit_a2.png","70","70","test","1","148","148","7","",""
"null","317810","pSARL_v2","pSARL_v23mbnnol8","5fb69cacddba6408f81a9564","freq_resp","img/green_2bandit_a.png","70","70","test","","","","7","",""
"null","317972","pSARL_v2","pSARL_v23mbnnol8","5fb69cacddba6408f81a9564","fixation","img/fixation.png","null","","test","","","","","",""
"110.70000004768372","318088","pSARL_v2","pSARL_v23mbnnol8","5fb69cacddba6408f81a9564","freq","img/green_2bandit_a2.png","70","70","test","1","149","149","7","",""
"null","318785","pSARL_v2","pSARL_v23mbnnol8","5fb69cacddba6408f81a9564","freq_resp","img/green_2bandit_a.png","70","70","test","","","","7","",""
"null","318948","pSARL_v2","pSARL_v23mbnnol8","5fb69cacddba6408f81a9564","fixation","img/fixation.png","null","","test","","","","","",""
"133.89999997615814","319086","pSARL_v2","pSARL_v23mbnnol8","5fb69cacddba6408f81a9564","freq","img/green_2bandit_a2.png","70","70","test","1","150","150","7","",""
"null","319764","pSARL_v2","pSARL_v23mbnnol8","5fb69cacddba6408f81a9564","freq_resp","img/green_2bandit_a.png","70","70","test","","","","7","",""
"null","319924","pSARL_v2","pSARL_v23mbnnol8","5fb69cacddba6408f81a9564","fixation","img/fixation.png","null","","test","","","","","",""
"145.70000004768372","320073","pSARL_v2","pSARL_v23mbnnol8","5fb69cacddba6408f81a9564","freq","img/green_2bandit_a2.png","70","70","test","1","151","151","7","",""
"null","320740","pSARL_v2","pSARL_v23mbnnol8","5fb69cacddba6408f81a9564","freq_resp","img/green_2bandit_a.png","70","70","test","","","","7","",""
"null","320899","pSARL_v2","pSARL_v23mbnnol8","5fb69cacddba6408f81a9564","fixation","img/fixation.png","null","","test","","","","","",""
"110.20000004768372","321014","pSARL_v2","pSARL_v23mbnnol8","5fb69cacddba6408f81a9564","infreq","img/orange_2bandit_a2.png","70","68","test","0","152","152","7","",""
"null","321714","pSARL_v2","pSARL_v23mbnnol8","5fb69cacddba6408f81a9564","infreq_resp","img/orange_2bandit_a.png","70","68","test","","","","7","",""
"null","321872","pSARL_v2","pSARL_v23mbnnol8","5fb69cacddba6408f81a9564","fixation","img/fixation.png","null","","test","","","","","",""
"305.2999999523163","322182","pSARL_v2","pSARL_v23mbnnol8","5fb69cacddba6408f81a9564","freq","img/green_2bandit_a2.png","70","70","test","1","153","153","7","",""
"null","322682","pSARL_v2","pSARL_v23mbnnol8","5fb69cacddba6408f81a9564","freq_resp","img/green_2bandit_a.png","70","70","test","","","","7","",""
"null","322844","pSARL_v2","pSARL_v23mbnnol8","5fb69cacddba6408f81a9564","fixation","img/fixation.png","null","","test","","","","","",""
"142.80000007152557","322991","pSARL_v2","pSARL_v23mbnnol8","5fb69cacddba6408f81a9564","freq","img/green_2bandit_a2.png","70","70","test","1","154","154","7","",""
"null","323658","pSARL_v2","pSARL_v23mbnnol8","5fb69cacddba6408f81a9564","freq_resp","img/green_2bandit_a.png","70","70","test","","","","7","",""
"null","323817","pSARL_v2","pSARL_v23mbnnol8","5fb69cacddba6408f81a9564","fixation","img/fixation.png","null","","test","","","","","",""
"188","324011","pSARL_v2","pSARL_v23mbnnol8","5fb69cacddba6408f81a9564","freq","img/green_2bandit_a2.png","70","70","test","1","155","155","7","",""
"null","324634","pSARL_v2","pSARL_v23mbnnol8","5fb69cacddba6408f81a9564","freq_resp","img/green_2bandit_a.png","70","70","test","","","","7","",""
"null","324793","pSARL_v2","pSARL_v23mbnnol8","5fb69cacddba6408f81a9564","fixation","img/fixation.png","null","","test","","","","","",""
"514.5","325312","pSARL_v2","pSARL_v23mbnnol8","5fb69cacddba6408f81a9564","reward","img/slot.png","74","","test","","","","","",""
"null","326075","pSARL_v2","pSARL_v23mbnnol8","5fb69cacddba6408f81a9564","points","<div class=""verylowPoints""> -6 </div>","null","na","test","","","","7","-6","6"
"315","326393","pSARL_v2","pSARL_v23mbnnol8","5fb69cacddba6408f81a9564","freq","img/green_2bandit_a2.png","70","70","test","1","156","156","8","",""
"null","326889","pSARL_v2","pSARL_v23mbnnol8","5fb69cacddba6408f81a9564","freq_resp","img/green_2bandit_a.png","70","70","test","","","","8","",""
"null","327049","pSARL_v2","pSARL_v23mbnnol8","5fb69cacddba6408f81a9564","fixation","img/fixation.png","null","","test","","","","","",""
"268.6999999284744","327322","pSARL_v2","pSARL_v23mbnnol8","5fb69cacddba6408f81a9564","freq","img/green_2bandit_a2.png","70","70","test","1","157","157","8","",""
"null","327865","pSARL_v2","pSARL_v23mbnnol8","5fb69cacddba6408f81a9564","freq_resp","img/green_2bandit_a.png","70","70","test","","","","8","",""
"null","328027","pSARL_v2","pSARL_v23mbnnol8","5fb69cacddba6408f81a9564","fixation","img/fixation.png","null","","test","","","","","",""
"152.19999992847443","328184","pSARL_v2","pSARL_v23mbnnol8","5fb69cacddba6408f81a9564","freq","img/green_2bandit_a2.png","70","70","test","1","158","158","8","",""
"null","328843","pSARL_v2","pSARL_v23mbnnol8","5fb69cacddba6408f81a9564","freq_resp","img/green_2bandit_a.png","70","70","test","","","","8","",""
"null","329004","pSARL_v2","pSARL_v23mbnnol8","5fb69cacddba6408f81a9564","fixation","img/fixation.png","null","","test","","","","","",""
"298.7999999523163","329307","pSARL_v2","pSARL_v23mbnnol8","5fb69cacddba6408f81a9564","freq","img/green_2bandit_a2.png","70","70","test","1","159","159","8","",""
"null","329817","pSARL_v2","pSARL_v23mbnnol8","5fb69cacddba6408f81a9564","freq_resp","img/green_2bandit_a.png","70","70","test","","","","8","",""
"null","329976","pSARL_v2","pSARL_v23mbnnol8","5fb69cacddba6408f81a9564","fixation","img/fixation.png","null","","test","","","","","",""
"277.10000002384186","330258","pSARL_v2","pSARL_v23mbnnol8","5fb69cacddba6408f81a9564","freq","img/green_2bandit_a2.png","70","70","test","1","160","160","8","",""
"null","330793","pSARL_v2","pSARL_v23mbnnol8","5fb69cacddba6408f81a9564","freq_resp","img/green_2bandit_a.png","70","70","test","","","","8","",""
"null","330957","pSARL_v2","pSARL_v23mbnnol8","5fb69cacddba6408f81a9564","fixation","img/fixation.png","null","","test","","","","","",""
"191.5","331153","pSARL_v2","pSARL_v23mbnnol8","5fb69cacddba6408f81a9564","freq","img/green_2bandit_a2.png","70","70","test","1","161","161","8","",""
"null","331768","pSARL_v2","pSARL_v23mbnnol8","5fb69cacddba6408f81a9564","freq_resp","img/green_2bandit_a.png","70","70","test","","","","8","",""
"null","331929","pSARL_v2","pSARL_v23mbnnol8","5fb69cacddba6408f81a9564","fixation","img/fixation.png","null","","test","","","","","",""
"273.7000000476837","332207","pSARL_v2","pSARL_v23mbnnol8","5fb69cacddba6408f81a9564","freq","img/green_2bandit_a2.png","70","70","test","1","162","162","8","",""
"null","332745","pSARL_v2","pSARL_v23mbnnol8","5fb69cacddba6408f81a9564","freq_resp","img/green_2bandit_a.png","70","70","test","","","","8","",""
"null","332907","pSARL_v2","pSARL_v23mbnnol8","5fb69cacddba6408f81a9564","fixation","img/fixation.png","null","","test","","","","","",""
"268.3000000715256","333180","pSARL_v2","pSARL_v23mbnnol8","5fb69cacddba6408f81a9564","freq","img/green_2bandit_a2.png","70","70","test","1","163","163","8","",""
"null","333721","pSARL_v2","pSARL_v23mbnnol8","5fb69cacddba6408f81a9564","freq_resp","img/green_2bandit_a.png","70","70","test","","","","8","",""
"null","333884","pSARL_v2","pSARL_v23mbnnol8","5fb69cacddba6408f81a9564","fixation","img/fixation.png","null","","test","","","","","",""
"290.5","334179","pSARL_v2","pSARL_v23mbnnol8","5fb69cacddba6408f81a9564","freq","img/green_2bandit_a2.png","70","70","test","1","164","164","8","",""
"null","334696","pSARL_v2","pSARL_v23mbnnol8","5fb69cacddba6408f81a9564","freq_resp","img/green_2bandit_a.png","70","70","test","","","","8","",""
"null","334861","pSARL_v2","pSARL_v23mbnnol8","5fb69cacddba6408f81a9564","fixation","img/fixation.png","null","","test","","","","","",""
"436.5","335303","pSARL_v2","pSARL_v23mbnnol8","5fb69cacddba6408f81a9564","infreq","img/orange_2bandit_a2.png","68","68","test","1","165","165","8","",""
"null","335684","pSARL_v2","pSARL_v23mbnnol8","5fb69cacddba6408f81a9564","infreq_resp","img/orange_2bandit_a.png","68","68","test","","","","8","",""
"null","335854","pSARL_v2","pSARL_v23mbnnol8","5fb69cacddba6408f81a9564","fixation","img/fixation.png","null","","test","","","","","",""
"269","336128","pSARL_v2","pSARL_v23mbnnol8","5fb69cacddba6408f81a9564","freq","img/green_2bandit_a2.png","70","70","test","1","166","166","8","",""
"null","336673","pSARL_v2","pSARL_v23mbnnol8","5fb69cacddba6408f81a9564","freq_resp","img/green_2bandit_a.png","70","70","test","","","","8","",""
"null","336835","pSARL_v2","pSARL_v23mbnnol8","5fb69cacddba6408f81a9564","fixation","img/fixation.png","null","","test","","","","","",""
"134.5","336974","pSARL_v2","pSARL_v23mbnnol8","5fb69cacddba6408f81a9564","infreq","img/orange_2bandit_a2.png","70","68","test","0","167","167","8","",""
"null","337649","pSARL_v2","pSARL_v23mbnnol8","5fb69cacddba6408f81a9564","infreq_resp","img/orange_2bandit_a.png","70","68","test","","","","8","",""
"null","337806","pSARL_v2","pSARL_v23mbnnol8","5fb69cacddba6408f81a9564","fixation","img/fixation.png","null","","test","","","","","",""
"301.5","338114","pSARL_v2","pSARL_v23mbnnol8","5fb69cacddba6408f81a9564","freq","img/green_2bandit_a2.png","70","70","test","1","168","168","8","",""
"null","338624","pSARL_v2","pSARL_v23mbnnol8","5fb69cacddba6408f81a9564","freq_resp","img/green_2bandit_a.png","70","70","test","","","","8","",""
"null","338788","pSARL_v2","pSARL_v23mbnnol8","5fb69cacddba6408f81a9564","fixation","img/fixation.png","null","","test","","","","","",""
"176.10000002384186","338968","pSARL_v2","pSARL_v23mbnnol8","5fb69cacddba6408f81a9564","freq","img/green_2bandit_a2.png","70","70","test","1","169","169","8","",""
"null","339603","pSARL_v2","pSARL_v23mbnnol8","5fb69cacddba6408f81a9564","freq_resp","img/green_2bandit_a.png","70","70","test","","","","8","",""
"null","339763","pSARL_v2","pSARL_v23mbnnol8","5fb69cacddba6408f81a9564","fixation","img/fixation.png","null","","test","","","","","",""
"152.70000004768372","339920","pSARL_v2","pSARL_v23mbnnol8","5fb69cacddba6408f81a9564","freq","img/green_2bandit_a2.png","70","70","test","1","170","170","8","",""
"null","340577","pSARL_v2","pSARL_v23mbnnol8","5fb69cacddba6408f81a9564","freq_resp","img/green_2bandit_a.png","70","70","test","","","","8","",""
"null","340739","pSARL_v2","pSARL_v23mbnnol8","5fb69cacddba6408f81a9564","fixation","img/fixation.png","null","","test","","","","","",""
"309.5","341052","pSARL_v2","pSARL_v23mbnnol8","5fb69cacddba6408f81a9564","freq","img/green_2bandit_a2.png","70","70","test","1","171","171","8","",""
"null","341553","pSARL_v2","pSARL_v23mbnnol8","5fb69cacddba6408f81a9564","freq_resp","img/green_2bandit_a.png","70","70","test","","","","8","",""
"null","341715","pSARL_v2","pSARL_v23mbnnol8","5fb69cacddba6408f81a9564","fixation","img/fixation.png","null","","test","","","","","",""
"286.2999999523163","342006","pSARL_v2","pSARL_v23mbnnol8","5fb69cacddba6408f81a9564","freq","img/green_2bandit_a2.png","70","70","test","1","172","172","8","",""
"null","342529","pSARL_v2","pSARL_v23mbnnol8","5fb69cacddba6408f81a9564","freq_resp","img/green_2bandit_a.png","70","70","test","","","","8","",""
"null","342691","pSARL_v2","pSARL_v23mbnnol8","5fb69cacddba6408f81a9564","fixation","img/fixation.png","null","","test","","","","","",""
"251.70000004768372","342946","pSARL_v2","pSARL_v23mbnnol8","5fb69cacddba6408f81a9564","freq","img/green_2bandit_a2.png","70","70","test","1","173","173","8","",""
"null","343503","pSARL_v2","pSARL_v23mbnnol8","5fb69cacddba6408f81a9564","freq_resp","img/green_2bandit_a.png","70","70","test","","","","8","",""
"null","343665","pSARL_v2","pSARL_v23mbnnol8","5fb69cacddba6408f81a9564","fixation","img/fixation.png","null","","test","","","","","",""
"292.10000002384186","343962","pSARL_v2","pSARL_v23mbnnol8","5fb69cacddba6408f81a9564","freq","img/green_2bandit_a2.png","70","70","test","1","174","174","8","",""
"null","344482","pSARL_v2","pSARL_v23mbnnol8","5fb69cacddba6408f81a9564","freq_resp","img/green_2bandit_a.png","70","70","test","","","","8","",""
"null","344641","pSARL_v2","pSARL_v23mbnnol8","5fb69cacddba6408f81a9564","fixation","img/fixation.png","null","","test","","","","","",""
"267.7999999523163","344913","pSARL_v2","pSARL_v23mbnnol8","5fb69cacddba6408f81a9564","freq","img/green_2bandit_a2.png","70","70","test","1","175","175","8","",""
"null","345456","pSARL_v2","pSARL_v23mbnnol8","5fb69cacddba6408f81a9564","freq_resp","img/green_2bandit_a.png","70","70","test","","","","8","",""
"null","345615","pSARL_v2","pSARL_v23mbnnol8","5fb69cacddba6408f81a9564","fixation","img/fixation.png","null","","test","","","","","",""
"568","346187","pSARL_v2","pSARL_v23mbnnol8","5fb69cacddba6408f81a9564","reward","img/slot.png","74","","test","","","","","",""
"null","346946","pSARL_v2","pSARL_v23mbnnol8","5fb69cacddba6408f81a9564","points","<div class=""verylowPoints""> -4 </div>","null","na","test","","","","8","-4","7"
"251.39999997615814","347202","pSARL_v2","pSARL_v23mbnnol8","5fb69cacddba6408f81a9564","freq","img/green_2bandit_a2.png","70","70","test","1","176","176","9","",""
"null","347761","pSARL_v2","pSARL_v23mbnnol8","5fb69cacddba6408f81a9564","freq_resp","img/green_2bandit_a.png","70","70","test","","","","9","",""
"null","347924","pSARL_v2","pSARL_v23mbnnol8","5fb69cacddba6408f81a9564","fixation","img/fixation.png","null","","test","","","","","",""
"90.69999992847443","348019","pSARL_v2","pSARL_v23mbnnol8","5fb69cacddba6408f81a9564","freq","img/green_2bandit_a2.png","70","70","test","1","177","177","9","",""
"null","348739","pSARL_v2","pSARL_v23mbnnol8","5fb69cacddba6408f81a9564","freq_resp","img/green_2bandit_a.png","70","70","test","","","","9","",""
"null","348907","pSARL_v2","pSARL_v23mbnnol8","5fb69cacddba6408f81a9564","fixation","img/fixation.png","null","","test","","","","","",""
"122.70000004768372","349034","pSARL_v2","pSARL_v23mbnnol8","5fb69cacddba6408f81a9564","freq","img/green_2bandit_a2.png","70","70","test","1","178","178","9","",""
"null","349723","pSARL_v2","pSARL_v23mbnnol8","5fb69cacddba6408f81a9564","freq_resp","img/green_2bandit_a.png","70","70","test","","","","9","",""
"null","349878","pSARL_v2","pSARL_v23mbnnol8","5fb69cacddba6408f81a9564","fixation","img/fixation.png","null","","test","","","","","",""
"107.79999995231628","349990","pSARL_v2","pSARL_v23mbnnol8","5fb69cacddba6408f81a9564","infreq","img/orange_2bandit_a2.png","70","68","test","0","179","179","9","",""
"null","350698","pSARL_v2","pSARL_v23mbnnol8","5fb69cacddba6408f81a9564","infreq_resp","img/orange_2bandit_a.png","70","68","test","","","","9","",""
"null","350858","pSARL_v2","pSARL_v23mbnnol8","5fb69cacddba6408f81a9564","fixation","img/fixation.png","null","","test","","","","","",""
"268.2999999523163","351132","pSARL_v2","pSARL_v23mbnnol8","5fb69cacddba6408f81a9564","freq","img/green_2bandit_a2.png","70","70","test","1","180","180","9","",""
"null","351674","pSARL_v2","pSARL_v23mbnnol8","5fb69cacddba6408f81a9564","freq_resp","img/green_2bandit_a.png","70","70","test","","","","9","",""
"null","351836","pSARL_v2","pSARL_v23mbnnol8","5fb69cacddba6408f81a9564","fixation","img/fixation.png","null","","test","","","","","",""
"268.7000000476837","352110","pSARL_v2","pSARL_v23mbnnol8","5fb69cacddba6408f81a9564","freq","img/green_2bandit_a2.png","70","70","test","1","181","181","9","",""
"null","352649","pSARL_v2","pSARL_v23mbnnol8","5fb69cacddba6408f81a9564","freq_resp","img/green_2bandit_a.png","70","70","test","","","","9","",""
"null","352811","pSARL_v2","pSARL_v23mbnnol8","5fb69cacddba6408f81a9564","fixation","img/fixation.png","null","","test","","","","","",""
"272.5","353089","pSARL_v2","pSARL_v23mbnnol8","5fb69cacddba6408f81a9564","freq","img/green_2bandit_a2.png","70","70","test","1","182","182","9","",""
"null","353623","pSARL_v2","pSARL_v23mbnnol8","5fb69cacddba6408f81a9564","freq_resp","img/green_2bandit_a.png","70","70","test","","","","9","",""
"null","353784","pSARL_v2","pSARL_v23mbnnol8","5fb69cacddba6408f81a9564","fixation","img/fixation.png","null","","test","","","","","",""
"308.1999999284744","354096","pSARL_v2","pSARL_v23mbnnol8","5fb69cacddba6408f81a9564","freq","img/green_2bandit_a2.png","70","70","test","1","183","183","9","",""
"null","354603","pSARL_v2","pSARL_v23mbnnol8","5fb69cacddba6408f81a9564","freq_resp","img/green_2bandit_a.png","70","70","test","","","","9","",""
"null","354769","pSARL_v2","pSARL_v23mbnnol8","5fb69cacddba6408f81a9564","fixation","img/fixation.png","null","","test","","","","","",""
"281.8000000715256","355055","pSARL_v2","pSARL_v23mbnnol8","5fb69cacddba6408f81a9564","freq","img/green_2bandit_a2.png","70","70","test","1","184","184","9","",""
"null","355586","pSARL_v2","pSARL_v23mbnnol8","5fb69cacddba6408f81a9564","freq_resp","img/green_2bandit_a.png","70","70","test","","","","9","",""
"null","355746","pSARL_v2","pSARL_v23mbnnol8","5fb69cacddba6408f81a9564","fixation","img/fixation.png","null","","test","","","","","",""
"298.2000000476837","356049","pSARL_v2","pSARL_v23mbnnol8","5fb69cacddba6408f81a9564","freq","img/green_2bandit_a2.png","70","70","test","1","185","185","9","",""
"null","356559","pSARL_v2","pSARL_v23mbnnol8","5fb69cacddba6408f81a9564","freq_resp","img/green_2bandit_a.png","70","70","test","","","","9","",""
"null","356724","pSARL_v2","pSARL_v23mbnnol8","5fb69cacddba6408f81a9564","fixation","img/fixation.png","null","","test","","","","","",""
"287.8000000715256","357018","pSARL_v2","pSARL_v23mbnnol8","5fb69cacddba6408f81a9564","freq","img/green_2bandit_a2.png","70","70","test","1","186","186","9","",""
"null","357545","pSARL_v2","pSARL_v23mbnnol8","5fb69cacddba6408f81a9564","freq_resp","img/green_2bandit_a.png","70","70","test","","","","9","",""
"null","357705","pSARL_v2","pSARL_v23mbnnol8","5fb69cacddba6408f81a9564","fixation","img/fixation.png","null","","test","","","","","",""
"300.7999999523163","358010","pSARL_v2","pSARL_v23mbnnol8","5fb69cacddba6408f81a9564","freq","img/green_2bandit_a2.png","70","70","test","1","187","187","9","",""
"null","358521","pSARL_v2","pSARL_v23mbnnol8","5fb69cacddba6408f81a9564","freq_resp","img/green_2bandit_a.png","70","70","test","","","","9","",""
"null","358681","pSARL_v2","pSARL_v23mbnnol8","5fb69cacddba6408f81a9564","fixation","img/fixation.png","null","","test","","","","","",""
"330.39999997615814","359015","pSARL_v2","pSARL_v23mbnnol8","5fb69cacddba6408f81a9564","freq","img/green_2bandit_a2.png","70","70","test","1","188","188","9","",""
"null","359498","pSARL_v2","pSARL_v23mbnnol8","5fb69cacddba6408f81a9564","freq_resp","img/green_2bandit_a.png","70","70","test","","","","9","",""
"null","359660","pSARL_v2","pSARL_v23mbnnol8","5fb69cacddba6408f81a9564","fixation","img/fixation.png","null","","test","","","","","",""
"313.89999997615814","359978","pSARL_v2","pSARL_v23mbnnol8","5fb69cacddba6408f81a9564","freq","img/green_2bandit_a2.png","70","70","test","1","189","189","9","",""
"null","360469","pSARL_v2","pSARL_v23mbnnol8","5fb69cacddba6408f81a9564","freq_resp","img/green_2bandit_a.png","70","70","test","","","","9","",""
"null","360629","pSARL_v2","pSARL_v23mbnnol8","5fb69cacddba6408f81a9564","fixation","img/fixation.png","null","","test","","","","","",""
"434.39999997615814","361068","pSARL_v2","pSARL_v23mbnnol8","5fb69cacddba6408f81a9564","infreq","img/orange_2bandit_a2.png","68","68","test","1","190","190","9","",""
"null","361452","pSARL_v2","pSARL_v23mbnnol8","5fb69cacddba6408f81a9564","infreq_resp","img/orange_2bandit_a.png","68","68","test","","","","9","",""
"null","361614","pSARL_v2","pSARL_v23mbnnol8","5fb69cacddba6408f81a9564","fixation","img/fixation.png","null","","test","","","","","",""
"255","361872","pSARL_v2","pSARL_v23mbnnol8","5fb69cacddba6408f81a9564","freq","img/green_2bandit_a2.png","70","70","test","1","191","191","9","",""
"null","362425","pSARL_v2","pSARL_v23mbnnol8","5fb69cacddba6408f81a9564","freq_resp","img/green_2bandit_a.png","70","70","test","","","","9","",""
"null","362588","pSARL_v2","pSARL_v23mbnnol8","5fb69cacddba6408f81a9564","fixation","img/fixation.png","null","","test","","","","","",""
"304.40000009536743","362895","pSARL_v2","pSARL_v23mbnnol8","5fb69cacddba6408f81a9564","freq","img/green_2bandit_a2.png","70","70","test","1","192","192","9","",""
"null","363400","pSARL_v2","pSARL_v23mbnnol8","5fb69cacddba6408f81a9564","freq_resp","img/green_2bandit_a.png","70","70","test","","","","9","",""
"null","363563","pSARL_v2","pSARL_v23mbnnol8","5fb69cacddba6408f81a9564","fixation","img/fixation.png","null","","test","","","","","",""
"533.6000000238419","364100","pSARL_v2","pSARL_v23mbnnol8","5fb69cacddba6408f81a9564","infreq","img/orange_2bandit_a2.png","68","68","test","1","193","193","9","",""
"null","364381","pSARL_v2","pSARL_v23mbnnol8","5fb69cacddba6408f81a9564","infreq_resp","img/orange_2bandit_a.png","68","68","test","","","","9","",""
"null","364548","pSARL_v2","pSARL_v23mbnnol8","5fb69cacddba6408f81a9564","fixation","img/fixation.png","null","","test","","","","","",""
"299.2000000476837","364852","pSARL_v2","pSARL_v23mbnnol8","5fb69cacddba6408f81a9564","freq","img/green_2bandit_a2.png","70","70","test","1","194","194","9","",""
"null","365358","pSARL_v2","pSARL_v23mbnnol8","5fb69cacddba6408f81a9564","freq_resp","img/green_2bandit_a.png","70","70","test","","","","9","",""
"null","365517","pSARL_v2","pSARL_v23mbnnol8","5fb69cacddba6408f81a9564","fixation","img/fixation.png","null","","test","","","","","",""
"384.60000002384186","365905","pSARL_v2","pSARL_v23mbnnol8","5fb69cacddba6408f81a9564","freq","img/green_2bandit_a2.png","70","70","test","1","195","195","9","",""
"null","366329","pSARL_v2","pSARL_v23mbnnol8","5fb69cacddba6408f81a9564","freq_resp","img/green_2bandit_a.png","70","70","test","","","","9","",""
"null","366488","pSARL_v2","pSARL_v23mbnnol8","5fb69cacddba6408f81a9564","fixation","img/fixation.png","null","","test","","","","","",""
"367.5","366860","pSARL_v2","pSARL_v23mbnnol8","5fb69cacddba6408f81a9564","freq","img/green_2bandit_a2.png","70","70","test","1","196","196","9","",""
"null","367304","pSARL_v2","pSARL_v23mbnnol8","5fb69cacddba6408f81a9564","freq_resp","img/green_2bandit_a.png","70","70","test","","","","9","",""
"null","367463","pSARL_v2","pSARL_v23mbnnol8","5fb69cacddba6408f81a9564","fixation","img/fixation.png","null","","test","","","","","",""
"372.10000002384186","367840","pSARL_v2","pSARL_v23mbnnol8","5fb69cacddba6408f81a9564","freq","img/green_2bandit_a2.png","70","70","test","1","197","197","9","",""
"null","368284","pSARL_v2","pSARL_v23mbnnol8","5fb69cacddba6408f81a9564","freq_resp","img/green_2bandit_a.png","70","70","test","","","","9","",""
"null","368448","pSARL_v2","pSARL_v23mbnnol8","5fb69cacddba6408f81a9564","fixation","img/fixation.png","null","","test","","","","","",""
"396.90000009536743","368849","pSARL_v2","pSARL_v23mbnnol8","5fb69cacddba6408f81a9564","reward","img/slot.png","74","","test","","","","","",""
"null","369607","pSARL_v2","pSARL_v23mbnnol8","5fb69cacddba6408f81a9564","points","<div class=""verylowPoints""> -3 </div>","null","na","test","","","","9","-3","8"
"198.20000004768372","369810","pSARL_v2","pSARL_v23mbnnol8","5fb69cacddba6408f81a9564","freq","img/green_2bandit_a2.png","70","70","test","1","198","198","10","",""
"null","370423","pSARL_v2","pSARL_v23mbnnol8","5fb69cacddba6408f81a9564","freq_resp","img/green_2bandit_a.png","70","70","test","","","","10","",""
"null","370585","pSARL_v2","pSARL_v23mbnnol8","5fb69cacddba6408f81a9564","fixation","img/fixation.png","null","","test","","","","","",""
"316.60000002384186","370906","pSARL_v2","pSARL_v23mbnnol8","5fb69cacddba6408f81a9564","freq","img/green_2bandit_a2.png","70","70","test","1","199","199","10","",""
"null","371403","pSARL_v2","pSARL_v23mbnnol8","5fb69cacddba6408f81a9564","freq_resp","img/green_2bandit_a.png","70","70","test","","","","10","",""
"null","371570","pSARL_v2","pSARL_v23mbnnol8","5fb69cacddba6408f81a9564","fixation","img/fixation.png","null","","test","","","","","",""
"115.10000002384186","371690","pSARL_v2","pSARL_v23mbnnol8","5fb69cacddba6408f81a9564","freq","img/green_2bandit_a2.png","70","70","test","1","200","200","10","",""
"null","372388","pSARL_v2","pSARL_v23mbnnol8","5fb69cacddba6408f81a9564","freq_resp","img/green_2bandit_a.png","70","70","test","","","","10","",""
"null","372552","pSARL_v2","pSARL_v23mbnnol8","5fb69cacddba6408f81a9564","fixation","img/fixation.png","null","","test","","","","","",""
"100","372656","pSARL_v2","pSARL_v23mbnnol8","5fb69cacddba6408f81a9564","freq","img/green_2bandit_a2.png","70","70","test","1","201","201","10","",""
"null","373368","pSARL_v2","pSARL_v23mbnnol8","5fb69cacddba6408f81a9564","freq_resp","img/green_2bandit_a.png","70","70","test","","","","10","",""
"null","373529","pSARL_v2","pSARL_v23mbnnol8","5fb69cacddba6408f81a9564","fixation","img/fixation.png","null","","test","","","","","",""
"277.3000000715256","373811","pSARL_v2","pSARL_v23mbnnol8","5fb69cacddba6408f81a9564","freq","img/green_2bandit_a2.png","70","70","test","1","202","202","10","",""
"null","374350","pSARL_v2","pSARL_v23mbnnol8","5fb69cacddba6408f81a9564","freq_resp","img/green_2bandit_a.png","70","70","test","","","","10","",""
"null","374516","pSARL_v2","pSARL_v23mbnnol8","5fb69cacddba6408f81a9564","fixation","img/fixation.png","null","","test","","","","","",""
"303.2999999523163","374824","pSARL_v2","pSARL_v23mbnnol8","5fb69cacddba6408f81a9564","freq","img/green_2bandit_a2.png","70","70","test","1","203","203","10","",""
"null","375330","pSARL_v2","pSARL_v23mbnnol8","5fb69cacddba6408f81a9564","freq_resp","img/green_2bandit_a.png","70","70","test","","","","10","",""
"null","375488","pSARL_v2","pSARL_v23mbnnol8","5fb69cacddba6408f81a9564","fixation","img/fixation.png","null","","test","","","","","",""
"297.8000000715256","375792","pSARL_v2","pSARL_v23mbnnol8","5fb69cacddba6408f81a9564","freq","img/green_2bandit_a2.png","70","70","test","1","204","204","10","",""
"null","376304","pSARL_v2","pSARL_v23mbnnol8","5fb69cacddba6408f81a9564","freq_resp","img/green_2bandit_a.png","70","70","test","","","","10","",""
"null","376466","pSARL_v2","pSARL_v23mbnnol8","5fb69cacddba6408f81a9564","fixation","img/fixation.png","null","","test","","","","","",""
"280.10000002384186","376750","pSARL_v2","pSARL_v23mbnnol8","5fb69cacddba6408f81a9564","freq","img/green_2bandit_a2.png","70","70","test","1","205","205","10","",""
"null","377278","pSARL_v2","pSARL_v23mbnnol8","5fb69cacddba6408f81a9564","freq_resp","img/green_2bandit_a.png","70","70","test","","","","10","",""
"null","377443","pSARL_v2","pSARL_v23mbnnol8","5fb69cacddba6408f81a9564","fixation","img/fixation.png","null","","test","","","","","",""
