"rt","time_elapsed","expId","subject","prolificID","trialType","stimulus","key_press","corrresp","phase","corr","trialNum","attentionRunNum","blockNum","points","rlNum"
"53379.799999952316","53383","pSARL_v2","pSARL_v2ff1t1wab","5ff591cba89e1b000bfb9852","","","","","","","","","","",""
"","56370","pSARL_v2","pSARL_v2ff1t1wab","5ff591cba89e1b000bfb9852","fullscreen","","","","","","","","","",""
"15348.400000095367","71722","pSARL_v2","pSARL_v2ff1t1wab","5ff591cba89e1b000bfb9852","","","","","","","","","","",""
"null","72532","pSARL_v2","pSARL_v2ff1t1wab","5ff591cba89e1b000bfb9852","freqPrac","img/orange_2bandit_b2.png","null","70","prac","0","","","","",""
"null","73544","pSARL_v2","pSARL_v2ff1t1wab","5ff591cba89e1b000bfb9852","feedback","img/tooSlow.png","null","na","prac","","","","","",""
"null","73699","pSARL_v2","pSARL_v2ff1t1wab","5ff591cba89e1b000bfb9852","fixation","img/fixation.png","null","","prac","","","","","",""
"443.2999999523163","74145","pSARL_v2","pSARL_v2ff1t1wab","5ff591cba89e1b000bfb9852","infreqPrac","img/green_2bandit_b2.png","68","68","prac","1","","","","",""
"443.2999999523163","74510","pSARL_v2","pSARL_v2ff1t1wab","5ff591cba89e1b000bfb9852","infreqPrac_resp","img/green_2bandit_b.png","68","68","prac","","","","","",""
"null","74666","pSARL_v2","pSARL_v2ff1t1wab","5ff591cba89e1b000bfb9852","fixation","img/fixation.png","null","","prac","","","","","",""
"452.59999990463257","75122","pSARL_v2","pSARL_v2ff1t1wab","5ff591cba89e1b000bfb9852","freqPrac","img/orange_2bandit_b2.png","70","70","prac","1","","","","",""
"452.59999990463257","75476","pSARL_v2","pSARL_v2ff1t1wab","5ff591cba89e1b000bfb9852","freqPrac_resp","img/orange_2bandit_b.png","70","70","prac","","","","","",""
"null","75632","pSARL_v2","pSARL_v2ff1t1wab","5ff591cba89e1b000bfb9852","fixation","img/fixation.png","null","","prac","","","","","",""
"408.2000000476837","76043","pSARL_v2","pSARL_v2ff1t1wab","5ff591cba89e1b000bfb9852","infreqPrac","img/green_2bandit_b2.png","68","68","prac","1","","","","",""
"408.2000000476837","76446","pSARL_v2","pSARL_v2ff1t1wab","5ff591cba89e1b000bfb9852","infreqPrac_resp","img/green_2bandit_b.png","68","68","prac","","","","","",""
"null","76599","pSARL_v2","pSARL_v2ff1t1wab","5ff591cba89e1b000bfb9852","fixation","img/fixation.png","null","","prac","","","","","",""
"281.39999985694885","76883","pSARL_v2","pSARL_v2ff1t1wab","5ff591cba89e1b000bfb9852","infreqPrac","img/green_2bandit_b2.png","70","68","prac","0","","","","",""
"281.39999985694885","77408","pSARL_v2","pSARL_v2ff1t1wab","5ff591cba89e1b000bfb9852","infreqPrac_resp","img/green_2bandit_b.png","70","68","prac","","","","","",""
"null","78421","pSARL_v2","pSARL_v2ff1t1wab","5ff591cba89e1b000bfb9852","feedback","img/wrongKey.png","null","na","prac","","","","","",""
"null","78575","pSARL_v2","pSARL_v2ff1t1wab","5ff591cba89e1b000bfb9852","fixation","img/fixation.png","null","","prac","","","","","",""
"687.0999999046326","79265","pSARL_v2","pSARL_v2ff1t1wab","5ff591cba89e1b000bfb9852","infreqPrac","img/green_2bandit_b2.png","68","68","prac","1","","","","",""
"687.0999999046326","79386","pSARL_v2","pSARL_v2ff1t1wab","5ff591cba89e1b000bfb9852","infreqPrac_resp","img/green_2bandit_b.png","68","68","prac","","","","","",""
"null","79542","pSARL_v2","pSARL_v2ff1t1wab","5ff591cba89e1b000bfb9852","fixation","img/fixation.png","null","","prac","","","","","",""
"369.59999990463257","79914","pSARL_v2","pSARL_v2ff1t1wab","5ff591cba89e1b000bfb9852","freqPrac","img/orange_2bandit_b2.png","70","70","prac","1","","","","",""
"369.59999990463257","80351","pSARL_v2","pSARL_v2ff1t1wab","5ff591cba89e1b000bfb9852","freqPrac_resp","img/orange_2bandit_b.png","70","70","prac","","","","","",""
"null","80510","pSARL_v2","pSARL_v2ff1t1wab","5ff591cba89e1b000bfb9852","fixation","img/fixation.png","null","","prac","","","","","",""
"391.7000000476837","80904","pSARL_v2","pSARL_v2ff1t1wab","5ff591cba89e1b000bfb9852","infreqPrac","img/green_2bandit_b2.png","68","68","prac","1","","","","",""
"391.7000000476837","81321","pSARL_v2","pSARL_v2ff1t1wab","5ff591cba89e1b000bfb9852","infreqPrac_resp","img/green_2bandit_b.png","68","68","prac","","","","","",""
"null","81478","pSARL_v2","pSARL_v2ff1t1wab","5ff591cba89e1b000bfb9852","fixation","img/fixation.png","null","","prac","","","","","",""
"240.29999995231628","81722","pSARL_v2","pSARL_v2ff1t1wab","5ff591cba89e1b000bfb9852","freqPrac","img/orange_2bandit_b2.png","70","70","prac","1","","","","",""
"240.29999995231628","82299","pSARL_v2","pSARL_v2ff1t1wab","5ff591cba89e1b000bfb9852","freqPrac_resp","img/orange_2bandit_b.png","70","70","prac","","","","","",""
"null","82455","pSARL_v2","pSARL_v2ff1t1wab","5ff591cba89e1b000bfb9852","fixation","img/fixation.png","null","","prac","","","","","",""
"275.2000000476837","82733","pSARL_v2","pSARL_v2ff1t1wab","5ff591cba89e1b000bfb9852","freqPrac","img/orange_2bandit_b2.png","68","70","prac","0","","","","",""
"275.2000000476837","83261","pSARL_v2","pSARL_v2ff1t1wab","5ff591cba89e1b000bfb9852","freqPrac_resp","img/orange_2bandit_b.png","68","70","prac","","","","","",""
"null","84274","pSARL_v2","pSARL_v2ff1t1wab","5ff591cba89e1b000bfb9852","feedback","img/wrongKey.png","null","na","prac","","","","","",""
"null","84427","pSARL_v2","pSARL_v2ff1t1wab","5ff591cba89e1b000bfb9852","fixation","img/fixation.png","null","","prac","","","","","",""
"13940.899999856949","98370","pSARL_v2","pSARL_v2ff1t1wab","5ff591cba89e1b000bfb9852","","","","","prac","","","","","",""
"1090.6000001430511","99464","pSARL_v2","pSARL_v2ff1t1wab","5ff591cba89e1b000bfb9852","rewardPractice","img/slot.png","74","","prac","","","","","",""
"null","100219","pSARL_v2","pSARL_v2ff1t1wab","5ff591cba89e1b000bfb9852","feedback","<div class=""veryhighPoints""> +15 </div>","null","na","prac","","","","","",""
"null","100377","pSARL_v2","pSARL_v2ff1t1wab","5ff591cba89e1b000bfb9852","fixation","img/fixation.png","null","","prac","","","","","",""
"4143.899999856949","104524","pSARL_v2","pSARL_v2ff1t1wab","5ff591cba89e1b000bfb9852","","","","","prac","","","","","",""
"null","105331","pSARL_v2","pSARL_v2ff1t1wab","5ff591cba89e1b000bfb9852","freq","img/orange_2bandit_b2.png","null","70","test","0","1","1","1","",""
"null","105487","pSARL_v2","pSARL_v2ff1t1wab","5ff591cba89e1b000bfb9852","fixation","img/fixation.png","null","","test","","","","","",""
"121.59999990463257","105611","pSARL_v2","pSARL_v2ff1t1wab","5ff591cba89e1b000bfb9852","freq","img/orange_2bandit_b2.png","70","70","test","1","2","2","1","",""
"null","106296","pSARL_v2","pSARL_v2ff1t1wab","5ff591cba89e1b000bfb9852","freq_resp","img/orange_2bandit_b.png","70","70","test","","","","1","",""
"null","106452","pSARL_v2","pSARL_v2ff1t1wab","5ff591cba89e1b000bfb9852","fixation","img/fixation.png","null","","test","","","","","",""
"300.7999999523163","106756","pSARL_v2","pSARL_v2ff1t1wab","5ff591cba89e1b000bfb9852","freq","img/orange_2bandit_b2.png","70","70","test","1","3","3","1","",""
"null","107258","pSARL_v2","pSARL_v2ff1t1wab","5ff591cba89e1b000bfb9852","freq_resp","img/orange_2bandit_b.png","70","70","test","","","","1","",""
"null","107414","pSARL_v2","pSARL_v2ff1t1wab","5ff591cba89e1b000bfb9852","fixation","img/fixation.png","null","","test","","","","","",""
"292.2000000476837","107709","pSARL_v2","pSARL_v2ff1t1wab","5ff591cba89e1b000bfb9852","freq","img/orange_2bandit_b2.png","70","70","test","1","4","4","1","",""
"null","108224","pSARL_v2","pSARL_v2ff1t1wab","5ff591cba89e1b000bfb9852","freq_resp","img/orange_2bandit_b.png","70","70","test","","","","1","",""
"null","108379","pSARL_v2","pSARL_v2ff1t1wab","5ff591cba89e1b000bfb9852","fixation","img/fixation.png","null","","test","","","","","",""
"222.79999995231628","108604","pSARL_v2","pSARL_v2ff1t1wab","5ff591cba89e1b000bfb9852","freq","img/orange_2bandit_b2.png","70","70","test","1","5","5","1","",""
"null","109187","pSARL_v2","pSARL_v2ff1t1wab","5ff591cba89e1b000bfb9852","freq_resp","img/orange_2bandit_b.png","70","70","test","","","","1","",""
"null","109343","pSARL_v2","pSARL_v2ff1t1wab","5ff591cba89e1b000bfb9852","fixation","img/fixation.png","null","","test","","","","","",""
"228","109574","pSARL_v2","pSARL_v2ff1t1wab","5ff591cba89e1b000bfb9852","freq","img/orange_2bandit_b2.png","70","70","test","1","6","6","1","",""
"null","110156","pSARL_v2","pSARL_v2ff1t1wab","5ff591cba89e1b000bfb9852","freq_resp","img/orange_2bandit_b.png","70","70","test","","","","1","",""
"null","110312","pSARL_v2","pSARL_v2ff1t1wab","5ff591cba89e1b000bfb9852","fixation","img/fixation.png","null","","test","","","","","",""
"213","110528","pSARL_v2","pSARL_v2ff1t1wab","5ff591cba89e1b000bfb9852","freq","img/orange_2bandit_b2.png","70","70","test","1","7","7","1","",""
"null","111120","pSARL_v2","pSARL_v2ff1t1wab","5ff591cba89e1b000bfb9852","freq_resp","img/orange_2bandit_b.png","70","70","test","","","","1","",""
"null","111275","pSARL_v2","pSARL_v2ff1t1wab","5ff591cba89e1b000bfb9852","fixation","img/fixation.png","null","","test","","","","","",""
"221.39999985694885","111500","pSARL_v2","pSARL_v2ff1t1wab","5ff591cba89e1b000bfb9852","freq","img/orange_2bandit_b2.png","70","70","test","1","8","8","1","",""
"null","112083","pSARL_v2","pSARL_v2ff1t1wab","5ff591cba89e1b000bfb9852","freq_resp","img/orange_2bandit_b.png","70","70","test","","","","1","",""
"null","112238","pSARL_v2","pSARL_v2ff1t1wab","5ff591cba89e1b000bfb9852","fixation","img/fixation.png","null","","test","","","","","",""
"228.39999985694885","112470","pSARL_v2","pSARL_v2ff1t1wab","5ff591cba89e1b000bfb9852","infreq","img/green_2bandit_b2.png","70","68","test","0","9","9","1","",""
"null","113051","pSARL_v2","pSARL_v2ff1t1wab","5ff591cba89e1b000bfb9852","infreq_resp","img/green_2bandit_b.png","70","68","test","","","","1","",""
"null","113205","pSARL_v2","pSARL_v2ff1t1wab","5ff591cba89e1b000bfb9852","fixation","img/fixation.png","null","","test","","","","","",""
"410","113618","pSARL_v2","pSARL_v2ff1t1wab","5ff591cba89e1b000bfb9852","freq","img/orange_2bandit_b2.png","70","70","test","1","10","10","1","",""
"null","114020","pSARL_v2","pSARL_v2ff1t1wab","5ff591cba89e1b000bfb9852","freq_resp","img/orange_2bandit_b.png","70","70","test","","","","1","",""
"null","114186","pSARL_v2","pSARL_v2ff1t1wab","5ff591cba89e1b000bfb9852","fixation","img/fixation.png","null","","test","","","","","",""
"265.60000014305115","114454","pSARL_v2","pSARL_v2ff1t1wab","5ff591cba89e1b000bfb9852","freq","img/orange_2bandit_b2.png","70","70","test","1","11","11","1","",""
"null","114993","pSARL_v2","pSARL_v2ff1t1wab","5ff591cba89e1b000bfb9852","freq_resp","img/orange_2bandit_b.png","70","70","test","","","","1","",""
"null","115149","pSARL_v2","pSARL_v2ff1t1wab","5ff591cba89e1b000bfb9852","fixation","img/fixation.png","null","","test","","","","","",""
"297.7000000476837","115451","pSARL_v2","pSARL_v2ff1t1wab","5ff591cba89e1b000bfb9852","freq","img/orange_2bandit_b2.png","70","70","test","1","12","12","1","",""
"null","115963","pSARL_v2","pSARL_v2ff1t1wab","5ff591cba89e1b000bfb9852","freq_resp","img/orange_2bandit_b.png","70","70","test","","","","1","",""
"null","116118","pSARL_v2","pSARL_v2ff1t1wab","5ff591cba89e1b000bfb9852","fixation","img/fixation.png","null","","test","","","","","",""
"258.7999999523163","116380","pSARL_v2","pSARL_v2ff1t1wab","5ff591cba89e1b000bfb9852","freq","img/orange_2bandit_b2.png","70","70","test","1","13","13","1","",""
"null","116926","pSARL_v2","pSARL_v2ff1t1wab","5ff591cba89e1b000bfb9852","freq_resp","img/orange_2bandit_b.png","70","70","test","","","","1","",""
"null","117082","pSARL_v2","pSARL_v2ff1t1wab","5ff591cba89e1b000bfb9852","fixation","img/fixation.png","null","","test","","","","","",""
"320","117405","pSARL_v2","pSARL_v2ff1t1wab","5ff591cba89e1b000bfb9852","freq","img/orange_2bandit_b2.png","70","70","test","1","14","14","1","",""
"null","117892","pSARL_v2","pSARL_v2ff1t1wab","5ff591cba89e1b000bfb9852","freq_resp","img/orange_2bandit_b.png","70","70","test","","","","1","",""
"null","118048","pSARL_v2","pSARL_v2ff1t1wab","5ff591cba89e1b000bfb9852","fixation","img/fixation.png","null","","test","","","","","",""
"229.29999995231628","118281","pSARL_v2","pSARL_v2ff1t1wab","5ff591cba89e1b000bfb9852","freq","img/orange_2bandit_b2.png","70","70","test","1","15","15","1","",""
"null","118854","pSARL_v2","pSARL_v2ff1t1wab","5ff591cba89e1b000bfb9852","freq_resp","img/orange_2bandit_b.png","70","70","test","","","","1","",""
"null","119009","pSARL_v2","pSARL_v2ff1t1wab","5ff591cba89e1b000bfb9852","fixation","img/fixation.png","null","","test","","","","","",""
"254.09999990463257","119266","pSARL_v2","pSARL_v2ff1t1wab","5ff591cba89e1b000bfb9852","freq","img/orange_2bandit_b2.png","70","70","test","1","16","16","1","",""
"null","119820","pSARL_v2","pSARL_v2ff1t1wab","5ff591cba89e1b000bfb9852","freq_resp","img/orange_2bandit_b.png","70","70","test","","","","1","",""
"null","119976","pSARL_v2","pSARL_v2ff1t1wab","5ff591cba89e1b000bfb9852","fixation","img/fixation.png","null","","test","","","","","",""
"274.7000000476837","120254","pSARL_v2","pSARL_v2ff1t1wab","5ff591cba89e1b000bfb9852","infreq","img/green_2bandit_b2.png","70","68","test","0","17","17","1","",""
"null","120785","pSARL_v2","pSARL_v2ff1t1wab","5ff591cba89e1b000bfb9852","infreq_resp","img/green_2bandit_b.png","70","68","test","","","","1","",""
"null","120940","pSARL_v2","pSARL_v2ff1t1wab","5ff591cba89e1b000bfb9852","fixation","img/fixation.png","null","","test","","","","","",""
"293.39999985694885","121236","pSARL_v2","pSARL_v2ff1t1wab","5ff591cba89e1b000bfb9852","freq","img/orange_2bandit_b2.png","70","70","test","1","18","18","1","",""
"null","121749","pSARL_v2","pSARL_v2ff1t1wab","5ff591cba89e1b000bfb9852","freq_resp","img/orange_2bandit_b.png","70","70","test","","","","1","",""
"null","121908","pSARL_v2","pSARL_v2ff1t1wab","5ff591cba89e1b000bfb9852","fixation","img/fixation.png","null","","test","","","","","",""
"81.20000004768372","121992","pSARL_v2","pSARL_v2ff1t1wab","5ff591cba89e1b000bfb9852","freq","img/orange_2bandit_b2.png","70","70","test","1","19","19","1","",""
"null","122716","pSARL_v2","pSARL_v2ff1t1wab","5ff591cba89e1b000bfb9852","freq_resp","img/orange_2bandit_b.png","70","70","test","","","","1","",""
"null","122870","pSARL_v2","pSARL_v2ff1t1wab","5ff591cba89e1b000bfb9852","fixation","img/fixation.png","null","","test","","","","","",""
"659.2000000476837","123532","pSARL_v2","pSARL_v2ff1t1wab","5ff591cba89e1b000bfb9852","reward","img/slot.png","74","","test","","","","","",""
"null","124299","pSARL_v2","pSARL_v2ff1t1wab","5ff591cba89e1b000bfb9852","points","<div class=""verylowPoints""> -6 </div>","null","na","test","","","","1","-6","0"
"null","125109","pSARL_v2","pSARL_v2ff1t1wab","5ff591cba89e1b000bfb9852","freq","img/orange_2bandit_b2.png","null","70","test","0","20","20","2","",""
"null","125265","pSARL_v2","pSARL_v2ff1t1wab","5ff591cba89e1b000bfb9852","fixation","img/fixation.png","null","","test","","","","","",""
"20.90000009536743","125289","pSARL_v2","pSARL_v2ff1t1wab","5ff591cba89e1b000bfb9852","freq","img/orange_2bandit_b2.png","70","70","test","1","21","21","2","",""
"null","126072","pSARL_v2","pSARL_v2ff1t1wab","5ff591cba89e1b000bfb9852","freq_resp","img/orange_2bandit_b.png","70","70","test","","","","2","",""
"null","126227","pSARL_v2","pSARL_v2ff1t1wab","5ff591cba89e1b000bfb9852","fixation","img/fixation.png","null","","test","","","","","",""
"239.20000004768372","126470","pSARL_v2","pSARL_v2ff1t1wab","5ff591cba89e1b000bfb9852","freq","img/orange_2bandit_b2.png","70","70","test","1","22","22","2","",""
"null","127038","pSARL_v2","pSARL_v2ff1t1wab","5ff591cba89e1b000bfb9852","freq_resp","img/orange_2bandit_b.png","70","70","test","","","","2","",""
"null","127194","pSARL_v2","pSARL_v2ff1t1wab","5ff591cba89e1b000bfb9852","fixation","img/fixation.png","null","","test","","","","","",""
"264","127460","pSARL_v2","pSARL_v2ff1t1wab","5ff591cba89e1b000bfb9852","freq","img/orange_2bandit_b2.png","70","70","test","1","23","23","2","",""
"null","128003","pSARL_v2","pSARL_v2ff1t1wab","5ff591cba89e1b000bfb9852","freq_resp","img/orange_2bandit_b.png","70","70","test","","","","2","",""
"null","128158","pSARL_v2","pSARL_v2ff1t1wab","5ff591cba89e1b000bfb9852","fixation","img/fixation.png","null","","test","","","","","",""
"260.2000000476837","128421","pSARL_v2","pSARL_v2ff1t1wab","5ff591cba89e1b000bfb9852","freq","img/orange_2bandit_b2.png","70","70","test","1","24","24","2","",""
"null","128968","pSARL_v2","pSARL_v2ff1t1wab","5ff591cba89e1b000bfb9852","freq_resp","img/orange_2bandit_b.png","70","70","test","","","","2","",""
"null","129124","pSARL_v2","pSARL_v2ff1t1wab","5ff591cba89e1b000bfb9852","fixation","img/fixation.png","null","","test","","","","","",""
"231.5","129358","pSARL_v2","pSARL_v2ff1t1wab","5ff591cba89e1b000bfb9852","infreq","img/green_2bandit_b2.png","70","68","test","0","25","25","2","",""
"null","129933","pSARL_v2","pSARL_v2ff1t1wab","5ff591cba89e1b000bfb9852","infreq_resp","img/green_2bandit_b.png","70","68","test","","","","2","",""
"null","130089","pSARL_v2","pSARL_v2ff1t1wab","5ff591cba89e1b000bfb9852","fixation","img/fixation.png","null","","test","","","","","",""
"263.7999999523163","130355","pSARL_v2","pSARL_v2ff1t1wab","5ff591cba89e1b000bfb9852","freq","img/orange_2bandit_b2.png","70","70","test","1","26","26","2","",""
"null","130899","pSARL_v2","pSARL_v2ff1t1wab","5ff591cba89e1b000bfb9852","freq_resp","img/orange_2bandit_b.png","70","70","test","","","","2","",""
"null","131052","pSARL_v2","pSARL_v2ff1t1wab","5ff591cba89e1b000bfb9852","fixation","img/fixation.png","null","","test","","","","","",""
"125.40000009536743","131180","pSARL_v2","pSARL_v2ff1t1wab","5ff591cba89e1b000bfb9852","freq","img/orange_2bandit_b2.png","70","70","test","1","27","27","2","",""
"null","131865","pSARL_v2","pSARL_v2ff1t1wab","5ff591cba89e1b000bfb9852","freq_resp","img/orange_2bandit_b.png","70","70","test","","","","2","",""
"null","132021","pSARL_v2","pSARL_v2ff1t1wab","5ff591cba89e1b000bfb9852","fixation","img/fixation.png","null","","test","","","","","",""
"215.09999990463257","132238","pSARL_v2","pSARL_v2ff1t1wab","5ff591cba89e1b000bfb9852","freq","img/orange_2bandit_b2.png","70","70","test","1","28","28","2","",""
"null","132833","pSARL_v2","pSARL_v2ff1t1wab","5ff591cba89e1b000bfb9852","freq_resp","img/orange_2bandit_b.png","70","70","test","","","","2","",""
"null","132989","pSARL_v2","pSARL_v2ff1t1wab","5ff591cba89e1b000bfb9852","fixation","img/fixation.png","null","","test","","","","","",""
"244.79999995231628","133236","pSARL_v2","pSARL_v2ff1t1wab","5ff591cba89e1b000bfb9852","freq","img/orange_2bandit_b2.png","70","70","test","1","29","29","2","",""
"null","133799","pSARL_v2","pSARL_v2ff1t1wab","5ff591cba89e1b000bfb9852","freq_resp","img/orange_2bandit_b.png","70","70","test","","","","2","",""
"null","133957","pSARL_v2","pSARL_v2ff1t1wab","5ff591cba89e1b000bfb9852","fixation","img/fixation.png","null","","test","","","","","",""
"251.10000014305115","134211","pSARL_v2","pSARL_v2ff1t1wab","5ff591cba89e1b000bfb9852","freq","img/orange_2bandit_b2.png","70","70","test","1","30","30","2","",""
"null","134767","pSARL_v2","pSARL_v2ff1t1wab","5ff591cba89e1b000bfb9852","freq_resp","img/orange_2bandit_b.png","70","70","test","","","","2","",""
"null","134924","pSARL_v2","pSARL_v2ff1t1wab","5ff591cba89e1b000bfb9852","fixation","img/fixation.png","null","","test","","","","","",""
"247.70000004768372","135174","pSARL_v2","pSARL_v2ff1t1wab","5ff591cba89e1b000bfb9852","freq","img/orange_2bandit_b2.png","70","70","test","1","31","31","2","",""
"null","135731","pSARL_v2","pSARL_v2ff1t1wab","5ff591cba89e1b000bfb9852","freq_resp","img/orange_2bandit_b.png","70","70","test","","","","2","",""
"null","135886","pSARL_v2","pSARL_v2ff1t1wab","5ff591cba89e1b000bfb9852","fixation","img/fixation.png","null","","test","","","","","",""
"261.5","136151","pSARL_v2","pSARL_v2ff1t1wab","5ff591cba89e1b000bfb9852","freq","img/orange_2bandit_b2.png","70","70","test","1","32","32","2","",""
"null","136699","pSARL_v2","pSARL_v2ff1t1wab","5ff591cba89e1b000bfb9852","freq_resp","img/orange_2bandit_b.png","70","70","test","","","","2","",""
"null","136852","pSARL_v2","pSARL_v2ff1t1wab","5ff591cba89e1b000bfb9852","fixation","img/fixation.png","null","","test","","","","","",""
"231.79999995231628","137087","pSARL_v2","pSARL_v2ff1t1wab","5ff591cba89e1b000bfb9852","freq","img/orange_2bandit_b2.png","70","70","test","1","33","33","2","",""
"null","137662","pSARL_v2","pSARL_v2ff1t1wab","5ff591cba89e1b000bfb9852","freq_resp","img/orange_2bandit_b.png","70","70","test","","","","2","",""
"null","137820","pSARL_v2","pSARL_v2ff1t1wab","5ff591cba89e1b000bfb9852","fixation","img/fixation.png","null","","test","","","","","",""
"247.5","138070","pSARL_v2","pSARL_v2ff1t1wab","5ff591cba89e1b000bfb9852","freq","img/orange_2bandit_b2.png","70","70","test","1","34","34","2","",""
"null","138630","pSARL_v2","pSARL_v2ff1t1wab","5ff591cba89e1b000bfb9852","freq_resp","img/orange_2bandit_b.png","70","70","test","","","","2","",""
"null","138786","pSARL_v2","pSARL_v2ff1t1wab","5ff591cba89e1b000bfb9852","fixation","img/fixation.png","null","","test","","","","","",""
"242.5","139031","pSARL_v2","pSARL_v2ff1t1wab","5ff591cba89e1b000bfb9852","freq","img/orange_2bandit_b2.png","70","70","test","1","35","35","2","",""
"null","139598","pSARL_v2","pSARL_v2ff1t1wab","5ff591cba89e1b000bfb9852","freq_resp","img/orange_2bandit_b.png","70","70","test","","","","2","",""
"null","139753","pSARL_v2","pSARL_v2ff1t1wab","5ff591cba89e1b000bfb9852","fixation","img/fixation.png","null","","test","","","","","",""
"315","140071","pSARL_v2","pSARL_v2ff1t1wab","5ff591cba89e1b000bfb9852","freq","img/orange_2bandit_b2.png","70","70","test","1","36","36","2","",""
"null","140573","pSARL_v2","pSARL_v2ff1t1wab","5ff591cba89e1b000bfb9852","freq_resp","img/orange_2bandit_b.png","70","70","test","","","","2","",""
"null","140730","pSARL_v2","pSARL_v2ff1t1wab","5ff591cba89e1b000bfb9852","fixation","img/fixation.png","null","","test","","","","","",""
"327","141059","pSARL_v2","pSARL_v2ff1t1wab","5ff591cba89e1b000bfb9852","freq","img/orange_2bandit_b2.png","70","70","test","1","37","37","2","",""
"null","141540","pSARL_v2","pSARL_v2ff1t1wab","5ff591cba89e1b000bfb9852","freq_resp","img/orange_2bandit_b.png","70","70","test","","","","2","",""
"null","141697","pSARL_v2","pSARL_v2ff1t1wab","5ff591cba89e1b000bfb9852","fixation","img/fixation.png","null","","test","","","","","",""
"397","142097","pSARL_v2","pSARL_v2ff1t1wab","5ff591cba89e1b000bfb9852","infreq","img/green_2bandit_b2.png","68","68","test","1","38","38","2","",""
"null","142518","pSARL_v2","pSARL_v2ff1t1wab","5ff591cba89e1b000bfb9852","infreq_resp","img/green_2bandit_b.png","68","68","test","","","","2","",""
"null","142675","pSARL_v2","pSARL_v2ff1t1wab","5ff591cba89e1b000bfb9852","fixation","img/fixation.png","null","","test","","","","","",""
"299.2999999523163","142977","pSARL_v2","pSARL_v2ff1t1wab","5ff591cba89e1b000bfb9852","freq","img/orange_2bandit_b2.png","70","70","test","1","39","39","2","",""
"null","143488","pSARL_v2","pSARL_v2ff1t1wab","5ff591cba89e1b000bfb9852","freq_resp","img/orange_2bandit_b.png","70","70","test","","","","2","",""
"null","143657","pSARL_v2","pSARL_v2ff1t1wab","5ff591cba89e1b000bfb9852","fixation","img/fixation.png","null","","test","","","","","",""
"473.7999999523163","144133","pSARL_v2","pSARL_v2ff1t1wab","5ff591cba89e1b000bfb9852","freq","img/orange_2bandit_b2.png","70","70","test","1","40","40","2","",""
"null","144463","pSARL_v2","pSARL_v2ff1t1wab","5ff591cba89e1b000bfb9852","freq_resp","img/orange_2bandit_b.png","70","70","test","","","","2","",""
"null","144618","pSARL_v2","pSARL_v2ff1t1wab","5ff591cba89e1b000bfb9852","fixation","img/fixation.png","null","","test","","","","","",""
"412.5","145033","pSARL_v2","pSARL_v2ff1t1wab","5ff591cba89e1b000bfb9852","reward","img/slot.png","74","","test","","","","","",""
"null","145799","pSARL_v2","pSARL_v2ff1t1wab","5ff591cba89e1b000bfb9852","points","<div class=""verylowPoints""> -11 </div>","null","na","test","","","","2","-11","1"
"null","146606","pSARL_v2","pSARL_v2ff1t1wab","5ff591cba89e1b000bfb9852","freq","img/orange_2bandit_b2.png","null","70","test","0","41","41","3","",""
"null","146761","pSARL_v2","pSARL_v2ff1t1wab","5ff591cba89e1b000bfb9852","fixation","img/fixation.png","null","","test","","","","","",""
"466.59999990463257","147231","pSARL_v2","pSARL_v2ff1t1wab","5ff591cba89e1b000bfb9852","freq","img/orange_2bandit_b2.png","70","70","test","1","42","42","3","",""
"null","147570","pSARL_v2","pSARL_v2ff1t1wab","5ff591cba89e1b000bfb9852","freq_resp","img/orange_2bandit_b.png","70","70","test","","","","3","",""
"null","147727","pSARL_v2","pSARL_v2ff1t1wab","5ff591cba89e1b000bfb9852","fixation","img/fixation.png","null","","test","","","","","",""
"217.29999995231628","147948","pSARL_v2","pSARL_v2ff1t1wab","5ff591cba89e1b000bfb9852","freq","img/orange_2bandit_b2.png","70","70","test","1","43","43","3","",""
"null","148533","pSARL_v2","pSARL_v2ff1t1wab","5ff591cba89e1b000bfb9852","freq_resp","img/orange_2bandit_b.png","70","70","test","","","","3","",""
"null","148688","pSARL_v2","pSARL_v2ff1t1wab","5ff591cba89e1b000bfb9852","fixation","img/fixation.png","null","","test","","","","","",""
"245.5","148937","pSARL_v2","pSARL_v2ff1t1wab","5ff591cba89e1b000bfb9852","freq","img/orange_2bandit_b2.png","70","70","test","1","44","44","3","",""
"null","149503","pSARL_v2","pSARL_v2ff1t1wab","5ff591cba89e1b000bfb9852","freq_resp","img/orange_2bandit_b.png","70","70","test","","","","3","",""
"null","149657","pSARL_v2","pSARL_v2ff1t1wab","5ff591cba89e1b000bfb9852","fixation","img/fixation.png","null","","test","","","","","",""
"184.30000019073486","149844","pSARL_v2","pSARL_v2ff1t1wab","5ff591cba89e1b000bfb9852","infreq","img/green_2bandit_b2.png","70","68","test","0","45","45","3","",""
"null","150471","pSARL_v2","pSARL_v2ff1t1wab","5ff591cba89e1b000bfb9852","infreq_resp","img/green_2bandit_b.png","70","68","test","","","","3","",""
"null","150629","pSARL_v2","pSARL_v2ff1t1wab","5ff591cba89e1b000bfb9852","fixation","img/fixation.png","null","","test","","","","","",""
"67.89999985694885","150699","pSARL_v2","pSARL_v2ff1t1wab","5ff591cba89e1b000bfb9852","freq","img/orange_2bandit_b2.png","70","70","test","1","46","46","3","",""
"null","151441","pSARL_v2","pSARL_v2ff1t1wab","5ff591cba89e1b000bfb9852","freq_resp","img/orange_2bandit_b.png","70","70","test","","","","3","",""
"null","151594","pSARL_v2","pSARL_v2ff1t1wab","5ff591cba89e1b000bfb9852","fixation","img/fixation.png","null","","test","","","","","",""
"458.09999990463257","152054","pSARL_v2","pSARL_v2ff1t1wab","5ff591cba89e1b000bfb9852","freq","img/orange_2bandit_b2.png","70","70","test","1","47","47","3","",""
"null","152406","pSARL_v2","pSARL_v2ff1t1wab","5ff591cba89e1b000bfb9852","freq_resp","img/orange_2bandit_b.png","70","70","test","","","","3","",""
"null","152563","pSARL_v2","pSARL_v2ff1t1wab","5ff591cba89e1b000bfb9852","fixation","img/fixation.png","null","","test","","","","","",""
"192","152757","pSARL_v2","pSARL_v2ff1t1wab","5ff591cba89e1b000bfb9852","freq","img/orange_2bandit_b2.png","70","70","test","1","48","48","3","",""
"null","153384","pSARL_v2","pSARL_v2ff1t1wab","5ff591cba89e1b000bfb9852","freq_resp","img/orange_2bandit_b.png","70","70","test","","","","3","",""
"null","153539","pSARL_v2","pSARL_v2ff1t1wab","5ff591cba89e1b000bfb9852","fixation","img/fixation.png","null","","test","","","","","",""
"54.90000009536743","153597","pSARL_v2","pSARL_v2ff1t1wab","5ff591cba89e1b000bfb9852","freq","img/orange_2bandit_b2.png","70","70","test","1","49","49","3","",""
"null","154352","pSARL_v2","pSARL_v2ff1t1wab","5ff591cba89e1b000bfb9852","freq_resp","img/orange_2bandit_b.png","70","70","test","","","","3","",""
"null","154508","pSARL_v2","pSARL_v2ff1t1wab","5ff591cba89e1b000bfb9852","fixation","img/fixation.png","null","","test","","","","","",""
"109.09999990463257","154619","pSARL_v2","pSARL_v2ff1t1wab","5ff591cba89e1b000bfb9852","infreq","img/green_2bandit_b2.png","70","68","test","0","50","50","3","",""
"null","155316","pSARL_v2","pSARL_v2ff1t1wab","5ff591cba89e1b000bfb9852","infreq_resp","img/green_2bandit_b.png","70","68","test","","","","3","",""
"null","155472","pSARL_v2","pSARL_v2ff1t1wab","5ff591cba89e1b000bfb9852","fixation","img/fixation.png","null","","test","","","","","",""
"430.7999999523163","155905","pSARL_v2","pSARL_v2ff1t1wab","5ff591cba89e1b000bfb9852","freq","img/orange_2bandit_b2.png","70","70","test","1","51","51","3","",""
"null","156281","pSARL_v2","pSARL_v2ff1t1wab","5ff591cba89e1b000bfb9852","freq_resp","img/orange_2bandit_b.png","70","70","test","","","","3","",""
"null","156436","pSARL_v2","pSARL_v2ff1t1wab","5ff591cba89e1b000bfb9852","fixation","img/fixation.png","null","","test","","","","","",""
"161.89999985694885","156600","pSARL_v2","pSARL_v2ff1t1wab","5ff591cba89e1b000bfb9852","freq","img/orange_2bandit_b2.png","70","70","test","1","52","52","3","",""
"null","157244","pSARL_v2","pSARL_v2ff1t1wab","5ff591cba89e1b000bfb9852","freq_resp","img/orange_2bandit_b.png","70","70","test","","","","3","",""
"null","157402","pSARL_v2","pSARL_v2ff1t1wab","5ff591cba89e1b000bfb9852","fixation","img/fixation.png","null","","test","","","","","",""
"86.20000004768372","157491","pSARL_v2","pSARL_v2ff1t1wab","5ff591cba89e1b000bfb9852","freq","img/orange_2bandit_b2.png","70","70","test","1","53","53","3","",""
"null","158210","pSARL_v2","pSARL_v2ff1t1wab","5ff591cba89e1b000bfb9852","freq_resp","img/orange_2bandit_b.png","70","70","test","","","","3","",""
"null","158364","pSARL_v2","pSARL_v2ff1t1wab","5ff591cba89e1b000bfb9852","fixation","img/fixation.png","null","","test","","","","","",""
"266.09999990463257","158632","pSARL_v2","pSARL_v2ff1t1wab","5ff591cba89e1b000bfb9852","freq","img/orange_2bandit_b2.png","70","70","test","1","54","54","3","",""
"null","159173","pSARL_v2","pSARL_v2ff1t1wab","5ff591cba89e1b000bfb9852","freq_resp","img/orange_2bandit_b.png","70","70","test","","","","3","",""
"null","159329","pSARL_v2","pSARL_v2ff1t1wab","5ff591cba89e1b000bfb9852","fixation","img/fixation.png","null","","test","","","","","",""
"307.80000019073486","159639","pSARL_v2","pSARL_v2ff1t1wab","5ff591cba89e1b000bfb9852","freq","img/orange_2bandit_b2.png","70","70","test","1","55","55","3","",""
"null","160135","pSARL_v2","pSARL_v2ff1t1wab","5ff591cba89e1b000bfb9852","freq_resp","img/orange_2bandit_b.png","70","70","test","","","","3","",""
"null","160289","pSARL_v2","pSARL_v2ff1t1wab","5ff591cba89e1b000bfb9852","fixation","img/fixation.png","null","","test","","","","","",""
"316","160607","pSARL_v2","pSARL_v2ff1t1wab","5ff591cba89e1b000bfb9852","freq","img/orange_2bandit_b2.png","70","70","test","1","56","56","3","",""
"null","161105","pSARL_v2","pSARL_v2ff1t1wab","5ff591cba89e1b000bfb9852","freq_resp","img/orange_2bandit_b.png","70","70","test","","","","3","",""
"null","161259","pSARL_v2","pSARL_v2ff1t1wab","5ff591cba89e1b000bfb9852","fixation","img/fixation.png","null","","test","","","","","",""
"395.5","161657","pSARL_v2","pSARL_v2ff1t1wab","5ff591cba89e1b000bfb9852","freq","img/orange_2bandit_b2.png","70","70","test","1","57","57","3","",""
"null","162071","pSARL_v2","pSARL_v2ff1t1wab","5ff591cba89e1b000bfb9852","freq_resp","img/orange_2bandit_b.png","70","70","test","","","","3","",""
"null","162228","pSARL_v2","pSARL_v2ff1t1wab","5ff591cba89e1b000bfb9852","fixation","img/fixation.png","null","","test","","","","","",""
"371.2999999523163","162602","pSARL_v2","pSARL_v2ff1t1wab","5ff591cba89e1b000bfb9852","infreq","img/green_2bandit_b2.png","68","68","test","1","58","58","3","",""
"null","163037","pSARL_v2","pSARL_v2ff1t1wab","5ff591cba89e1b000bfb9852","infreq_resp","img/green_2bandit_b.png","68","68","test","","","","3","",""
"null","163193","pSARL_v2","pSARL_v2ff1t1wab","5ff591cba89e1b000bfb9852","fixation","img/fixation.png","null","","test","","","","","",""
"281.10000014305115","163476","pSARL_v2","pSARL_v2ff1t1wab","5ff591cba89e1b000bfb9852","freq","img/orange_2bandit_b2.png","70","70","test","1","59","59","3","",""
"null","164006","pSARL_v2","pSARL_v2ff1t1wab","5ff591cba89e1b000bfb9852","freq_resp","img/orange_2bandit_b.png","70","70","test","","","","3","",""
"null","164162","pSARL_v2","pSARL_v2ff1t1wab","5ff591cba89e1b000bfb9852","fixation","img/fixation.png","null","","test","","","","","",""
"230.90000009536743","164396","pSARL_v2","pSARL_v2ff1t1wab","5ff591cba89e1b000bfb9852","freq","img/orange_2bandit_b2.png","70","70","test","1","60","60","3","",""
"null","164970","pSARL_v2","pSARL_v2ff1t1wab","5ff591cba89e1b000bfb9852","freq_resp","img/orange_2bandit_b.png","70","70","test","","","","3","",""
"null","165125","pSARL_v2","pSARL_v2ff1t1wab","5ff591cba89e1b000bfb9852","fixation","img/fixation.png","null","","test","","","","","",""
"252.90000009536743","165380","pSARL_v2","pSARL_v2ff1t1wab","5ff591cba89e1b000bfb9852","freq","img/orange_2bandit_b2.png","70","70","test","1","61","61","3","",""
"null","165935","pSARL_v2","pSARL_v2ff1t1wab","5ff591cba89e1b000bfb9852","freq_resp","img/orange_2bandit_b.png","70","70","test","","","","3","",""
"null","166091","pSARL_v2","pSARL_v2ff1t1wab","5ff591cba89e1b000bfb9852","fixation","img/fixation.png","null","","test","","","","","",""
"268.7999999523163","166363","pSARL_v2","pSARL_v2ff1t1wab","5ff591cba89e1b000bfb9852","freq","img/orange_2bandit_b2.png","70","70","test","1","62","62","3","",""
"null","166901","pSARL_v2","pSARL_v2ff1t1wab","5ff591cba89e1b000bfb9852","freq_resp","img/orange_2bandit_b.png","70","70","test","","","","3","",""
"null","167058","pSARL_v2","pSARL_v2ff1t1wab","5ff591cba89e1b000bfb9852","fixation","img/fixation.png","null","","test","","","","","",""
"264.09999990463257","167326","pSARL_v2","pSARL_v2ff1t1wab","5ff591cba89e1b000bfb9852","freq","img/orange_2bandit_b2.png","70","70","test","1","63","63","3","",""
"null","167876","pSARL_v2","pSARL_v2ff1t1wab","5ff591cba89e1b000bfb9852","freq_resp","img/orange_2bandit_b.png","70","70","test","","","","3","",""
"null","168032","pSARL_v2","pSARL_v2ff1t1wab","5ff591cba89e1b000bfb9852","fixation","img/fixation.png","null","","test","","","","","",""
"124.20000004768372","168159","pSARL_v2","pSARL_v2ff1t1wab","5ff591cba89e1b000bfb9852","freq","img/orange_2bandit_b2.png","70","70","test","1","64","64","3","",""
"null","168843","pSARL_v2","pSARL_v2ff1t1wab","5ff591cba89e1b000bfb9852","freq_resp","img/orange_2bandit_b.png","70","70","test","","","","3","",""
"null","168996","pSARL_v2","pSARL_v2ff1t1wab","5ff591cba89e1b000bfb9852","fixation","img/fixation.png","null","","test","","","","","",""
"317.7000000476837","169316","pSARL_v2","pSARL_v2ff1t1wab","5ff591cba89e1b000bfb9852","freq","img/orange_2bandit_b2.png","70","70","test","1","65","65","3","",""
"null","169807","pSARL_v2","pSARL_v2ff1t1wab","5ff591cba89e1b000bfb9852","freq_resp","img/orange_2bandit_b.png","70","70","test","","","","3","",""
"null","169963","pSARL_v2","pSARL_v2ff1t1wab","5ff591cba89e1b000bfb9852","fixation","img/fixation.png","null","","test","","","","","",""
"249.5","170215","pSARL_v2","pSARL_v2ff1t1wab","5ff591cba89e1b000bfb9852","freq","img/orange_2bandit_b2.png","70","70","test","1","66","66","3","",""
"null","170772","pSARL_v2","pSARL_v2ff1t1wab","5ff591cba89e1b000bfb9852","freq_resp","img/orange_2bandit_b.png","70","70","test","","","","3","",""
"null","170929","pSARL_v2","pSARL_v2ff1t1wab","5ff591cba89e1b000bfb9852","fixation","img/fixation.png","null","","test","","","","","",""
"430.7000000476837","171364","pSARL_v2","pSARL_v2ff1t1wab","5ff591cba89e1b000bfb9852","reward","img/slot.png","74","","test","","","","","",""
"null","172132","pSARL_v2","pSARL_v2ff1t1wab","5ff591cba89e1b000bfb9852","points","<div class=""verylowPoints""> -7 </div>","null","na","test","","","","3","-7","2"
"423.7000000476837","172558","pSARL_v2","pSARL_v2ff1t1wab","5ff591cba89e1b000bfb9852","freq","img/orange_2bandit_b2.png","70","70","test","1","67","67","4","",""
"null","172947","pSARL_v2","pSARL_v2ff1t1wab","5ff591cba89e1b000bfb9852","freq_resp","img/orange_2bandit_b.png","70","70","test","","","","4","",""
"null","173115","pSARL_v2","pSARL_v2ff1t1wab","5ff591cba89e1b000bfb9852","fixation","img/fixation.png","null","","test","","","","","",""
"225","173343","pSARL_v2","pSARL_v2ff1t1wab","5ff591cba89e1b000bfb9852","freq","img/orange_2bandit_b2.png","70","70","test","1","68","68","4","",""
"null","173922","pSARL_v2","pSARL_v2ff1t1wab","5ff591cba89e1b000bfb9852","freq_resp","img/orange_2bandit_b.png","70","70","test","","","","4","",""
"null","174078","pSARL_v2","pSARL_v2ff1t1wab","5ff591cba89e1b000bfb9852","fixation","img/fixation.png","null","","test","","","","","",""
"143.60000014305115","174225","pSARL_v2","pSARL_v2ff1t1wab","5ff591cba89e1b000bfb9852","freq","img/orange_2bandit_b2.png","70","70","test","1","69","69","4","",""
"null","174887","pSARL_v2","pSARL_v2ff1t1wab","5ff591cba89e1b000bfb9852","freq_resp","img/orange_2bandit_b.png","70","70","test","","","","4","",""
"null","175042","pSARL_v2","pSARL_v2ff1t1wab","5ff591cba89e1b000bfb9852","fixation","img/fixation.png","null","","test","","","","","",""
"152.39999985694885","175197","pSARL_v2","pSARL_v2ff1t1wab","5ff591cba89e1b000bfb9852","freq","img/orange_2bandit_b2.png","70","70","test","1","70","70","4","",""
"null","175862","pSARL_v2","pSARL_v2ff1t1wab","5ff591cba89e1b000bfb9852","freq_resp","img/orange_2bandit_b.png","70","70","test","","","","4","",""
"null","176018","pSARL_v2","pSARL_v2ff1t1wab","5ff591cba89e1b000bfb9852","fixation","img/fixation.png","null","","test","","","","","",""
"190.79999995231628","176212","pSARL_v2","pSARL_v2ff1t1wab","5ff591cba89e1b000bfb9852","freq","img/orange_2bandit_b2.png","70","70","test","1","71","71","4","",""
"null","176827","pSARL_v2","pSARL_v2ff1t1wab","5ff591cba89e1b000bfb9852","freq_resp","img/orange_2bandit_b.png","70","70","test","","","","4","",""
"null","176984","pSARL_v2","pSARL_v2ff1t1wab","5ff591cba89e1b000bfb9852","fixation","img/fixation.png","null","","test","","","","","",""
"69.60000014305115","177056","pSARL_v2","pSARL_v2ff1t1wab","5ff591cba89e1b000bfb9852","freq","img/orange_2bandit_b2.png","70","70","test","1","72","72","4","",""
"null","177793","pSARL_v2","pSARL_v2ff1t1wab","5ff591cba89e1b000bfb9852","freq_resp","img/orange_2bandit_b.png","70","70","test","","","","4","",""
"null","177949","pSARL_v2","pSARL_v2ff1t1wab","5ff591cba89e1b000bfb9852","fixation","img/fixation.png","null","","test","","","","","",""
"260.30000019073486","178211","pSARL_v2","pSARL_v2ff1t1wab","5ff591cba89e1b000bfb9852","freq","img/orange_2bandit_b2.png","70","70","test","1","73","73","4","",""
"null","178757","pSARL_v2","pSARL_v2ff1t1wab","5ff591cba89e1b000bfb9852","freq_resp","img/orange_2bandit_b.png","70","70","test","","","","4","",""
"null","178913","pSARL_v2","pSARL_v2ff1t1wab","5ff591cba89e1b000bfb9852","fixation","img/fixation.png","null","","test","","","","","",""
"204.79999995231628","179120","pSARL_v2","pSARL_v2ff1t1wab","5ff591cba89e1b000bfb9852","freq","img/orange_2bandit_b2.png","70","70","test","1","74","74","4","",""
"null","179727","pSARL_v2","pSARL_v2ff1t1wab","5ff591cba89e1b000bfb9852","freq_resp","img/orange_2bandit_b.png","70","70","test","","","","4","",""
"null","179894","pSARL_v2","pSARL_v2ff1t1wab","5ff591cba89e1b000bfb9852","fixation","img/fixation.png","null","","test","","","","","",""
"127.09999990463257","180024","pSARL_v2","pSARL_v2ff1t1wab","5ff591cba89e1b000bfb9852","freq","img/orange_2bandit_b2.png","70","70","test","1","75","75","4","",""
"null","180702","pSARL_v2","pSARL_v2ff1t1wab","5ff591cba89e1b000bfb9852","freq_resp","img/orange_2bandit_b.png","70","70","test","","","","4","",""
"null","180858","pSARL_v2","pSARL_v2ff1t1wab","5ff591cba89e1b000bfb9852","fixation","img/fixation.png","null","","test","","","","","",""
"132.19999980926514","180994","pSARL_v2","pSARL_v2ff1t1wab","5ff591cba89e1b000bfb9852","infreq","img/green_2bandit_b2.png","70","68","test","0","76","76","4","",""
"null","181665","pSARL_v2","pSARL_v2ff1t1wab","5ff591cba89e1b000bfb9852","infreq_resp","img/green_2bandit_b.png","70","68","test","","","","4","",""
"null","181822","pSARL_v2","pSARL_v2ff1t1wab","5ff591cba89e1b000bfb9852","fixation","img/fixation.png","null","","test","","","","","",""
"39.799999952316284","181865","pSARL_v2","pSARL_v2ff1t1wab","5ff591cba89e1b000bfb9852","freq","img/orange_2bandit_b2.png","70","70","test","1","77","77","4","",""
"null","182631","pSARL_v2","pSARL_v2ff1t1wab","5ff591cba89e1b000bfb9852","freq_resp","img/orange_2bandit_b.png","70","70","test","","","","4","",""
"null","182788","pSARL_v2","pSARL_v2ff1t1wab","5ff591cba89e1b000bfb9852","fixation","img/fixation.png","null","","test","","","","","",""
"74","182864","pSARL_v2","pSARL_v2ff1t1wab","5ff591cba89e1b000bfb9852","freq","img/orange_2bandit_b2.png","70","70","test","1","78","78","4","",""
"null","183598","pSARL_v2","pSARL_v2ff1t1wab","5ff591cba89e1b000bfb9852","freq_resp","img/orange_2bandit_b.png","70","70","test","","","","4","",""
"null","183756","pSARL_v2","pSARL_v2ff1t1wab","5ff591cba89e1b000bfb9852","fixation","img/fixation.png","null","","test","","","","","",""
"176.5","183935","pSARL_v2","pSARL_v2ff1t1wab","5ff591cba89e1b000bfb9852","freq","img/orange_2bandit_b2.png","70","70","test","1","79","79","4","",""
"null","184566","pSARL_v2","pSARL_v2ff1t1wab","5ff591cba89e1b000bfb9852","freq_resp","img/orange_2bandit_b.png","70","70","test","","","","4","",""
"null","184722","pSARL_v2","pSARL_v2ff1t1wab","5ff591cba89e1b000bfb9852","fixation","img/fixation.png","null","","test","","","","","",""
"127.19999980926514","184851","pSARL_v2","pSARL_v2ff1t1wab","5ff591cba89e1b000bfb9852","freq","img/orange_2bandit_b2.png","70","70","test","1","80","80","4","",""
"null","185537","pSARL_v2","pSARL_v2ff1t1wab","5ff591cba89e1b000bfb9852","freq_resp","img/orange_2bandit_b.png","70","70","test","","","","4","",""
"null","185696","pSARL_v2","pSARL_v2ff1t1wab","5ff591cba89e1b000bfb9852","fixation","img/fixation.png","null","","test","","","","","",""
"110.79999995231628","185809","pSARL_v2","pSARL_v2ff1t1wab","5ff591cba89e1b000bfb9852","freq","img/orange_2bandit_b2.png","70","70","test","1","81","81","4","",""
"null","186506","pSARL_v2","pSARL_v2ff1t1wab","5ff591cba89e1b000bfb9852","freq_resp","img/orange_2bandit_b.png","70","70","test","","","","4","",""
"null","186660","pSARL_v2","pSARL_v2ff1t1wab","5ff591cba89e1b000bfb9852","fixation","img/fixation.png","null","","test","","","","","",""
"165","186827","pSARL_v2","pSARL_v2ff1t1wab","5ff591cba89e1b000bfb9852","freq","img/orange_2bandit_b2.png","70","70","test","1","82","82","4","",""
"null","187470","pSARL_v2","pSARL_v2ff1t1wab","5ff591cba89e1b000bfb9852","freq_resp","img/orange_2bandit_b.png","70","70","test","","","","4","",""
"null","187625","pSARL_v2","pSARL_v2ff1t1wab","5ff591cba89e1b000bfb9852","fixation","img/fixation.png","null","","test","","","","","",""
"256.2999999523163","187884","pSARL_v2","pSARL_v2ff1t1wab","5ff591cba89e1b000bfb9852","freq","img/orange_2bandit_b2.png","70","70","test","1","83","83","4","",""
"null","188432","pSARL_v2","pSARL_v2ff1t1wab","5ff591cba89e1b000bfb9852","freq_resp","img/orange_2bandit_b.png","70","70","test","","","","4","",""
"null","188590","pSARL_v2","pSARL_v2ff1t1wab","5ff591cba89e1b000bfb9852","fixation","img/fixation.png","null","","test","","","","","",""
"164.40000009536743","188757","pSARL_v2","pSARL_v2ff1t1wab","5ff591cba89e1b000bfb9852","freq","img/orange_2bandit_b2.png","70","70","test","1","84","84","4","",""
"null","189400","pSARL_v2","pSARL_v2ff1t1wab","5ff591cba89e1b000bfb9852","freq_resp","img/orange_2bandit_b.png","70","70","test","","","","4","",""
"null","189556","pSARL_v2","pSARL_v2ff1t1wab","5ff591cba89e1b000bfb9852","fixation","img/fixation.png","null","","test","","","","","",""
"44","189603","pSARL_v2","pSARL_v2ff1t1wab","5ff591cba89e1b000bfb9852","freq","img/orange_2bandit_b2.png","70","70","test","1","85","85","4","",""
"null","190363","pSARL_v2","pSARL_v2ff1t1wab","5ff591cba89e1b000bfb9852","freq_resp","img/orange_2bandit_b.png","70","70","test","","","","4","",""
"null","190518","pSARL_v2","pSARL_v2ff1t1wab","5ff591cba89e1b000bfb9852","fixation","img/fixation.png","null","","test","","","","","",""
"761.0999999046326","191281","pSARL_v2","pSARL_v2ff1t1wab","5ff591cba89e1b000bfb9852","infreq","img/green_2bandit_b2.png","68","68","test","1","86","86","4","",""
"null","191329","pSARL_v2","pSARL_v2ff1t1wab","5ff591cba89e1b000bfb9852","infreq_resp","img/green_2bandit_b.png","68","68","test","","","","4","",""
"null","191486","pSARL_v2","pSARL_v2ff1t1wab","5ff591cba89e1b000bfb9852","fixation","img/fixation.png","null","","test","","","","","",""
"422.2000000476837","191911","pSARL_v2","pSARL_v2ff1t1wab","5ff591cba89e1b000bfb9852","freq","img/orange_2bandit_b2.png","70","70","test","1","87","87","4","",""
"null","192292","pSARL_v2","pSARL_v2ff1t1wab","5ff591cba89e1b000bfb9852","freq_resp","img/orange_2bandit_b.png","70","70","test","","","","4","",""
"null","192448","pSARL_v2","pSARL_v2ff1t1wab","5ff591cba89e1b000bfb9852","fixation","img/fixation.png","null","","test","","","","","",""
"178.69999980926514","192631","pSARL_v2","pSARL_v2ff1t1wab","5ff591cba89e1b000bfb9852","freq","img/orange_2bandit_b2.png","70","70","test","1","88","88","4","",""
"null","193256","pSARL_v2","pSARL_v2ff1t1wab","5ff591cba89e1b000bfb9852","freq_resp","img/orange_2bandit_b.png","70","70","test","","","","4","",""
"null","193415","pSARL_v2","pSARL_v2ff1t1wab","5ff591cba89e1b000bfb9852","fixation","img/fixation.png","null","","test","","","","","",""
"487.10000014305115","193904","pSARL_v2","pSARL_v2ff1t1wab","5ff591cba89e1b000bfb9852","reward","img/slot.png","74","","test","","","","","",""
"null","194666","pSARL_v2","pSARL_v2ff1t1wab","5ff591cba89e1b000bfb9852","points","<div class=""verylowPoints""> -3 </div>","null","na","test","","","","4","-3","3"
"369.40000009536743","195038","pSARL_v2","pSARL_v2ff1t1wab","5ff591cba89e1b000bfb9852","freq","img/orange_2bandit_b2.png","70","70","test","1","89","89","5","",""
"null","195481","pSARL_v2","pSARL_v2ff1t1wab","5ff591cba89e1b000bfb9852","freq_resp","img/orange_2bandit_b.png","70","70","test","","","","5","",""
"null","195636","pSARL_v2","pSARL_v2ff1t1wab","5ff591cba89e1b000bfb9852","fixation","img/fixation.png","null","","test","","","","","",""
"235.5","195874","pSARL_v2","pSARL_v2ff1t1wab","5ff591cba89e1b000bfb9852","freq","img/orange_2bandit_b2.png","70","70","test","1","90","90","5","",""
"null","196446","pSARL_v2","pSARL_v2ff1t1wab","5ff591cba89e1b000bfb9852","freq_resp","img/orange_2bandit_b.png","70","70","test","","","","5","",""
"null","196602","pSARL_v2","pSARL_v2ff1t1wab","5ff591cba89e1b000bfb9852","fixation","img/fixation.png","null","","test","","","","","",""
"261.09999990463257","196866","pSARL_v2","pSARL_v2ff1t1wab","5ff591cba89e1b000bfb9852","freq","img/orange_2bandit_b2.png","70","70","test","1","91","91","5","",""
"null","197414","pSARL_v2","pSARL_v2ff1t1wab","5ff591cba89e1b000bfb9852","freq_resp","img/orange_2bandit_b.png","70","70","test","","","","5","",""
"null","197570","pSARL_v2","pSARL_v2ff1t1wab","5ff591cba89e1b000bfb9852","fixation","img/fixation.png","null","","test","","","","","",""
"106.90000009536743","197679","pSARL_v2","pSARL_v2ff1t1wab","5ff591cba89e1b000bfb9852","freq","img/orange_2bandit_b2.png","70","70","test","1","92","92","5","",""
"null","198380","pSARL_v2","pSARL_v2ff1t1wab","5ff591cba89e1b000bfb9852","freq_resp","img/orange_2bandit_b.png","70","70","test","","","","5","",""
"null","198536","pSARL_v2","pSARL_v2ff1t1wab","5ff591cba89e1b000bfb9852","fixation","img/fixation.png","null","","test","","","","","",""
"61.09999990463257","198600","pSARL_v2","pSARL_v2ff1t1wab","5ff591cba89e1b000bfb9852","freq","img/orange_2bandit_b2.png","70","70","test","1","93","93","5","",""
"null","199349","pSARL_v2","pSARL_v2ff1t1wab","5ff591cba89e1b000bfb9852","freq_resp","img/orange_2bandit_b.png","70","70","test","","","","5","",""
"null","199506","pSARL_v2","pSARL_v2ff1t1wab","5ff591cba89e1b000bfb9852","fixation","img/fixation.png","null","","test","","","","","",""
"82","199591","pSARL_v2","pSARL_v2ff1t1wab","5ff591cba89e1b000bfb9852","freq","img/orange_2bandit_b2.png","70","70","test","1","94","94","5","",""
"null","200316","pSARL_v2","pSARL_v2ff1t1wab","5ff591cba89e1b000bfb9852","freq_resp","img/orange_2bandit_b.png","70","70","test","","","","5","",""
"null","200471","pSARL_v2","pSARL_v2ff1t1wab","5ff591cba89e1b000bfb9852","fixation","img/fixation.png","null","","test","","","","","",""
"226.59999990463257","200700","pSARL_v2","pSARL_v2ff1t1wab","5ff591cba89e1b000bfb9852","freq","img/orange_2bandit_b2.png","70","70","test","1","95","95","5","",""
"null","201277","pSARL_v2","pSARL_v2ff1t1wab","5ff591cba89e1b000bfb9852","freq_resp","img/orange_2bandit_b.png","70","70","test","","","","5","",""
"null","201434","pSARL_v2","pSARL_v2ff1t1wab","5ff591cba89e1b000bfb9852","fixation","img/fixation.png","null","","test","","","","","",""
"231.39999985694885","201669","pSARL_v2","pSARL_v2ff1t1wab","5ff591cba89e1b000bfb9852","freq","img/orange_2bandit_b2.png","70","70","test","1","96","96","5","",""
"null","202244","pSARL_v2","pSARL_v2ff1t1wab","5ff591cba89e1b000bfb9852","freq_resp","img/orange_2bandit_b.png","70","70","test","","","","5","",""
"null","202401","pSARL_v2","pSARL_v2ff1t1wab","5ff591cba89e1b000bfb9852","fixation","img/fixation.png","null","","test","","","","","",""
"209.29999995231628","202613","pSARL_v2","pSARL_v2ff1t1wab","5ff591cba89e1b000bfb9852","freq","img/orange_2bandit_b2.png","70","70","test","1","97","97","5","",""
"null","203211","pSARL_v2","pSARL_v2ff1t1wab","5ff591cba89e1b000bfb9852","freq_resp","img/orange_2bandit_b.png","70","70","test","","","","5","",""
"null","203368","pSARL_v2","pSARL_v2ff1t1wab","5ff591cba89e1b000bfb9852","fixation","img/fixation.png","null","","test","","","","","",""
"252","203623","pSARL_v2","pSARL_v2ff1t1wab","5ff591cba89e1b000bfb9852","freq","img/orange_2bandit_b2.png","70","70","test","1","98","98","5","",""
"null","204175","pSARL_v2","pSARL_v2ff1t1wab","5ff591cba89e1b000bfb9852","freq_resp","img/orange_2bandit_b.png","70","70","test","","","","5","",""
"null","204331","pSARL_v2","pSARL_v2ff1t1wab","5ff591cba89e1b000bfb9852","fixation","img/fixation.png","null","","test","","","","","",""
"109.09999990463257","204442","pSARL_v2","pSARL_v2ff1t1wab","5ff591cba89e1b000bfb9852","freq","img/orange_2bandit_b2.png","70","70","test","1","99","99","5","",""
"null","205149","pSARL_v2","pSARL_v2ff1t1wab","5ff591cba89e1b000bfb9852","freq_resp","img/orange_2bandit_b.png","70","70","test","","","","5","",""
"null","205319","pSARL_v2","pSARL_v2ff1t1wab","5ff591cba89e1b000bfb9852","fixation","img/fixation.png","null","","test","","","","","",""
"76.09999990463257","205397","pSARL_v2","pSARL_v2ff1t1wab","5ff591cba89e1b000bfb9852","freq","img/orange_2bandit_b2.png","70","70","test","1","100","100","5","",""
"null","206130","pSARL_v2","pSARL_v2ff1t1wab","5ff591cba89e1b000bfb9852","freq_resp","img/orange_2bandit_b.png","70","70","test","","","","5","",""
"null","206288","pSARL_v2","pSARL_v2ff1t1wab","5ff591cba89e1b000bfb9852","fixation","img/fixation.png","null","","test","","","","","",""
"137.29999995231628","206428","pSARL_v2","pSARL_v2ff1t1wab","5ff591cba89e1b000bfb9852","freq","img/orange_2bandit_b2.png","70","70","test","1","101","101","5","",""
"null","207098","pSARL_v2","pSARL_v2ff1t1wab","5ff591cba89e1b000bfb9852","freq_resp","img/orange_2bandit_b.png","70","70","test","","","","5","",""
"null","207254","pSARL_v2","pSARL_v2ff1t1wab","5ff591cba89e1b000bfb9852","fixation","img/fixation.png","null","","test","","","","","",""
"136.89999985694885","207393","pSARL_v2","pSARL_v2ff1t1wab","5ff591cba89e1b000bfb9852","freq","img/orange_2bandit_b2.png","70","70","test","1","102","102","5","",""
"null","208061","pSARL_v2","pSARL_v2ff1t1wab","5ff591cba89e1b000bfb9852","freq_resp","img/orange_2bandit_b.png","70","70","test","","","","5","",""
"null","208217","pSARL_v2","pSARL_v2ff1t1wab","5ff591cba89e1b000bfb9852","fixation","img/fixation.png","null","","test","","","","","",""
"13.100000143051147","208232","pSARL_v2","pSARL_v2ff1t1wab","5ff591cba89e1b000bfb9852","freq","img/orange_2bandit_b2.png","70","70","test","1","103","103","5","",""
"null","209026","pSARL_v2","pSARL_v2ff1t1wab","5ff591cba89e1b000bfb9852","freq_resp","img/orange_2bandit_b.png","70","70","test","","","","5","",""
"null","209181","pSARL_v2","pSARL_v2ff1t1wab","5ff591cba89e1b000bfb9852","fixation","img/fixation.png","null","","test","","","","","",""
"412","209596","pSARL_v2","pSARL_v2ff1t1wab","5ff591cba89e1b000bfb9852","infreq","img/green_2bandit_b2.png","68","68","test","1","104","104","5","",""
"null","209992","pSARL_v2","pSARL_v2ff1t1wab","5ff591cba89e1b000bfb9852","infreq_resp","img/green_2bandit_b.png","68","68","test","","","","5","",""
"null","210147","pSARL_v2","pSARL_v2ff1t1wab","5ff591cba89e1b000bfb9852","fixation","img/fixation.png","null","","test","","","","","",""
"609.5","210759","pSARL_v2","pSARL_v2ff1t1wab","5ff591cba89e1b000bfb9852","infreq","img/green_2bandit_b2.png","68","68","test","1","105","105","5","",""
"null","210958","pSARL_v2","pSARL_v2ff1t1wab","5ff591cba89e1b000bfb9852","infreq_resp","img/green_2bandit_b.png","68","68","test","","","","5","",""
"null","211114","pSARL_v2","pSARL_v2ff1t1wab","5ff591cba89e1b000bfb9852","fixation","img/fixation.png","null","","test","","","","","",""
"371","211488","pSARL_v2","pSARL_v2ff1t1wab","5ff591cba89e1b000bfb9852","freq","img/orange_2bandit_b2.png","70","70","test","1","106","106","5","",""
"null","211924","pSARL_v2","pSARL_v2ff1t1wab","5ff591cba89e1b000bfb9852","freq_resp","img/orange_2bandit_b.png","70","70","test","","","","5","",""
"null","212080","pSARL_v2","pSARL_v2ff1t1wab","5ff591cba89e1b000bfb9852","fixation","img/fixation.png","null","","test","","","","","",""
"149.29999995231628","212232","pSARL_v2","pSARL_v2ff1t1wab","5ff591cba89e1b000bfb9852","freq","img/orange_2bandit_b2.png","70","70","test","1","107","107","5","",""
"null","212885","pSARL_v2","pSARL_v2ff1t1wab","5ff591cba89e1b000bfb9852","freq_resp","img/orange_2bandit_b.png","70","70","test","","","","5","",""
"null","213040","pSARL_v2","pSARL_v2ff1t1wab","5ff591cba89e1b000bfb9852","fixation","img/fixation.png","null","","test","","","","","",""
"417.7000000476837","213460","pSARL_v2","pSARL_v2ff1t1wab","5ff591cba89e1b000bfb9852","reward","img/slot.png","74","","test","","","","","",""
"null","214214","pSARL_v2","pSARL_v2ff1t1wab","5ff591cba89e1b000bfb9852","points","<div class=""veryhighPoints""> +1 </div>","null","na","test","","","","5","1","4"
"595.2000000476837","214812","pSARL_v2","pSARL_v2ff1t1wab","5ff591cba89e1b000bfb9852","freq","img/orange_2bandit_b2.png","70","70","test","1","108","108","6","",""
"null","215024","pSARL_v2","pSARL_v2ff1t1wab","5ff591cba89e1b000bfb9852","freq_resp","img/orange_2bandit_b.png","70","70","test","","","","6","",""
"null","215180","pSARL_v2","pSARL_v2ff1t1wab","5ff591cba89e1b000bfb9852","fixation","img/fixation.png","null","","test","","","","","",""
"501.10000014305115","215684","pSARL_v2","pSARL_v2ff1t1wab","5ff591cba89e1b000bfb9852","infreq","img/green_2bandit_b2.png","68","68","test","1","109","109","6","",""
"null","215997","pSARL_v2","pSARL_v2ff1t1wab","5ff591cba89e1b000bfb9852","infreq_resp","img/green_2bandit_b.png","68","68","test","","","","6","",""
"null","216151","pSARL_v2","pSARL_v2ff1t1wab","5ff591cba89e1b000bfb9852","fixation","img/fixation.png","null","","test","","","","","",""
"415.7999999523163","216571","pSARL_v2","pSARL_v2ff1t1wab","5ff591cba89e1b000bfb9852","freq","img/orange_2bandit_b2.png","70","70","test","1","110","110","6","",""
"null","216959","pSARL_v2","pSARL_v2ff1t1wab","5ff591cba89e1b000bfb9852","freq_resp","img/orange_2bandit_b.png","70","70","test","","","","6","",""
"null","217115","pSARL_v2","pSARL_v2ff1t1wab","5ff591cba89e1b000bfb9852","fixation","img/fixation.png","null","","test","","","","","",""
"346.09999990463257","217464","pSARL_v2","pSARL_v2ff1t1wab","5ff591cba89e1b000bfb9852","freq","img/orange_2bandit_b2.png","70","70","test","1","111","111","6","",""
"null","217925","pSARL_v2","pSARL_v2ff1t1wab","5ff591cba89e1b000bfb9852","freq_resp","img/orange_2bandit_b.png","70","70","test","","","","6","",""
"null","218080","pSARL_v2","pSARL_v2ff1t1wab","5ff591cba89e1b000bfb9852","fixation","img/fixation.png","null","","test","","","","","",""
"654.7000000476837","218737","pSARL_v2","pSARL_v2ff1t1wab","5ff591cba89e1b000bfb9852","freq","img/orange_2bandit_b2.png","70","70","test","1","112","112","6","",""
"null","218892","pSARL_v2","pSARL_v2ff1t1wab","5ff591cba89e1b000bfb9852","freq_resp","img/orange_2bandit_b.png","70","70","test","","","","6","",""
"null","219050","pSARL_v2","pSARL_v2ff1t1wab","5ff591cba89e1b000bfb9852","fixation","img/fixation.png","null","","test","","","","","",""
"289.40000009536743","219342","pSARL_v2","pSARL_v2ff1t1wab","5ff591cba89e1b000bfb9852","freq","img/orange_2bandit_b2.png","70","70","test","1","113","113","6","",""
"null","219860","pSARL_v2","pSARL_v2ff1t1wab","5ff591cba89e1b000bfb9852","freq_resp","img/orange_2bandit_b.png","70","70","test","","","","6","",""
"null","220015","pSARL_v2","pSARL_v2ff1t1wab","5ff591cba89e1b000bfb9852","fixation","img/fixation.png","null","","test","","","","","",""
"315.40000009536743","220334","pSARL_v2","pSARL_v2ff1t1wab","5ff591cba89e1b000bfb9852","freq","img/orange_2bandit_b2.png","70","70","test","1","114","114","6","",""
"null","220825","pSARL_v2","pSARL_v2ff1t1wab","5ff591cba89e1b000bfb9852","freq_resp","img/orange_2bandit_b.png","70","70","test","","","","6","",""
"null","220980","pSARL_v2","pSARL_v2ff1t1wab","5ff591cba89e1b000bfb9852","fixation","img/fixation.png","null","","test","","","","","",""
"243.59999990463257","221226","pSARL_v2","pSARL_v2ff1t1wab","5ff591cba89e1b000bfb9852","freq","img/orange_2bandit_b2.png","70","70","test","1","115","115","6","",""
"null","221794","pSARL_v2","pSARL_v2ff1t1wab","5ff591cba89e1b000bfb9852","freq_resp","img/orange_2bandit_b.png","70","70","test","","","","6","",""
"null","221949","pSARL_v2","pSARL_v2ff1t1wab","5ff591cba89e1b000bfb9852","fixation","img/fixation.png","null","","test","","","","","",""
"539.7000000476837","222491","pSARL_v2","pSARL_v2ff1t1wab","5ff591cba89e1b000bfb9852","freq","img/orange_2bandit_b2.png","70","70","test","1","116","116","6","",""
"null","222758","pSARL_v2","pSARL_v2ff1t1wab","5ff591cba89e1b000bfb9852","freq_resp","img/orange_2bandit_b.png","70","70","test","","","","6","",""
"null","222915","pSARL_v2","pSARL_v2ff1t1wab","5ff591cba89e1b000bfb9852","fixation","img/fixation.png","null","","test","","","","","",""
"274.89999985694885","223193","pSARL_v2","pSARL_v2ff1t1wab","5ff591cba89e1b000bfb9852","freq","img/orange_2bandit_b2.png","70","70","test","1","117","117","6","",""
"null","223721","pSARL_v2","pSARL_v2ff1t1wab","5ff591cba89e1b000bfb9852","freq_resp","img/orange_2bandit_b.png","70","70","test","","","","6","",""
"null","223876","pSARL_v2","pSARL_v2ff1t1wab","5ff591cba89e1b000bfb9852","fixation","img/fixation.png","null","","test","","","","","",""
"270","224149","pSARL_v2","pSARL_v2ff1t1wab","5ff591cba89e1b000bfb9852","freq","img/orange_2bandit_b2.png","70","70","test","1","118","118","6","",""
"null","224687","pSARL_v2","pSARL_v2ff1t1wab","5ff591cba89e1b000bfb9852","freq_resp","img/orange_2bandit_b.png","70","70","test","","","","6","",""
"null","224842","pSARL_v2","pSARL_v2ff1t1wab","5ff591cba89e1b000bfb9852","fixation","img/fixation.png","null","","test","","","","","",""
"604.7999999523163","225449","pSARL_v2","pSARL_v2ff1t1wab","5ff591cba89e1b000bfb9852","freq","img/orange_2bandit_b2.png","70","70","test","1","119","119","6","",""
"null","225651","pSARL_v2","pSARL_v2ff1t1wab","5ff591cba89e1b000bfb9852","freq_resp","img/orange_2bandit_b.png","70","70","test","","","","6","",""
"null","225807","pSARL_v2","pSARL_v2ff1t1wab","5ff591cba89e1b000bfb9852","fixation","img/fixation.png","null","","test","","","","","",""
"280.2000000476837","226090","pSARL_v2","pSARL_v2ff1t1wab","5ff591cba89e1b000bfb9852","freq","img/orange_2bandit_b2.png","70","70","test","1","120","120","6","",""
"null","226618","pSARL_v2","pSARL_v2ff1t1wab","5ff591cba89e1b000bfb9852","freq_resp","img/orange_2bandit_b.png","70","70","test","","","","6","",""
"null","226773","pSARL_v2","pSARL_v2ff1t1wab","5ff591cba89e1b000bfb9852","fixation","img/fixation.png","null","","test","","","","","",""
"406.5","227183","pSARL_v2","pSARL_v2ff1t1wab","5ff591cba89e1b000bfb9852","infreq","img/green_2bandit_b2.png","68","68","test","1","121","121","6","",""
"null","227581","pSARL_v2","pSARL_v2ff1t1wab","5ff591cba89e1b000bfb9852","infreq_resp","img/green_2bandit_b.png","68","68","test","","","","6","",""
"null","227736","pSARL_v2","pSARL_v2ff1t1wab","5ff591cba89e1b000bfb9852","fixation","img/fixation.png","null","","test","","","","","",""
"363.90000009536743","228103","pSARL_v2","pSARL_v2ff1t1wab","5ff591cba89e1b000bfb9852","infreq","img/green_2bandit_b2.png","68","68","test","1","122","122","6","",""
"null","228547","pSARL_v2","pSARL_v2ff1t1wab","5ff591cba89e1b000bfb9852","infreq_resp","img/green_2bandit_b.png","68","68","test","","","","6","",""
"null","228702","pSARL_v2","pSARL_v2ff1t1wab","5ff591cba89e1b000bfb9852","fixation","img/fixation.png","null","","test","","","","","",""
"380.7000000476837","229085","pSARL_v2","pSARL_v2ff1t1wab","5ff591cba89e1b000bfb9852","freq","img/orange_2bandit_b2.png","70","70","test","1","123","123","6","",""
"null","229510","pSARL_v2","pSARL_v2ff1t1wab","5ff591cba89e1b000bfb9852","freq_resp","img/orange_2bandit_b.png","70","70","test","","","","6","",""
"null","229666","pSARL_v2","pSARL_v2ff1t1wab","5ff591cba89e1b000bfb9852","fixation","img/fixation.png","null","","test","","","","","",""
"288","229958","pSARL_v2","pSARL_v2ff1t1wab","5ff591cba89e1b000bfb9852","freq","img/orange_2bandit_b2.png","70","70","test","1","124","124","6","",""
"null","230477","pSARL_v2","pSARL_v2ff1t1wab","5ff591cba89e1b000bfb9852","freq_resp","img/orange_2bandit_b.png","70","70","test","","","","6","",""
"null","230632","pSARL_v2","pSARL_v2ff1t1wab","5ff591cba89e1b000bfb9852","fixation","img/fixation.png","null","","test","","","","","",""
"171.09999990463257","230807","pSARL_v2","pSARL_v2ff1t1wab","5ff591cba89e1b000bfb9852","freq","img/orange_2bandit_b2.png","70","70","test","1","125","125","6","",""
"null","231453","pSARL_v2","pSARL_v2ff1t1wab","5ff591cba89e1b000bfb9852","freq_resp","img/orange_2bandit_b.png","70","70","test","","","","6","",""
"null","231610","pSARL_v2","pSARL_v2ff1t1wab","5ff591cba89e1b000bfb9852","fixation","img/fixation.png","null","","test","","","","","",""
"143","231756","pSARL_v2","pSARL_v2ff1t1wab","5ff591cba89e1b000bfb9852","freq","img/orange_2bandit_b2.png","70","70","test","1","126","126","6","",""
"null","232421","pSARL_v2","pSARL_v2ff1t1wab","5ff591cba89e1b000bfb9852","freq_resp","img/orange_2bandit_b.png","70","70","test","","","","6","",""
"null","232576","pSARL_v2","pSARL_v2ff1t1wab","5ff591cba89e1b000bfb9852","fixation","img/fixation.png","null","","test","","","","","",""
"158.20000004768372","232737","pSARL_v2","pSARL_v2ff1t1wab","5ff591cba89e1b000bfb9852","freq","img/orange_2bandit_b2.png","70","70","test","1","127","127","6","",""
"null","233386","pSARL_v2","pSARL_v2ff1t1wab","5ff591cba89e1b000bfb9852","freq_resp","img/orange_2bandit_b.png","70","70","test","","","","6","",""
"null","233542","pSARL_v2","pSARL_v2ff1t1wab","5ff591cba89e1b000bfb9852","fixation","img/fixation.png","null","","test","","","","","",""
"559.2000000476837","234104","pSARL_v2","pSARL_v2ff1t1wab","5ff591cba89e1b000bfb9852","reward","img/slot.png","74","","test","","","","","",""
"null","234862","pSARL_v2","pSARL_v2ff1t1wab","5ff591cba89e1b000bfb9852","points","<div class=""verylowPoints""> -7 </div>","null","na","test","","","","6","-7","5"
"450","235315","pSARL_v2","pSARL_v2ff1t1wab","5ff591cba89e1b000bfb9852","freq","img/orange_2bandit_b2.png","70","70","test","1","128","128","7","",""
"null","235675","pSARL_v2","pSARL_v2ff1t1wab","5ff591cba89e1b000bfb9852","freq_resp","img/orange_2bandit_b.png","70","70","test","","","","7","",""
"null","235833","pSARL_v2","pSARL_v2ff1t1wab","5ff591cba89e1b000bfb9852","fixation","img/fixation.png","null","","test","","","","","",""
"270.09999990463257","236106","pSARL_v2","pSARL_v2ff1t1wab","5ff591cba89e1b000bfb9852","freq","img/orange_2bandit_b2.png","70","70","test","1","129","129","7","",""
"null","236641","pSARL_v2","pSARL_v2ff1t1wab","5ff591cba89e1b000bfb9852","freq_resp","img/orange_2bandit_b.png","70","70","test","","","","7","",""
"null","236797","pSARL_v2","pSARL_v2ff1t1wab","5ff591cba89e1b000bfb9852","fixation","img/fixation.png","null","","test","","","","","",""
"252.40000009536743","237052","pSARL_v2","pSARL_v2ff1t1wab","5ff591cba89e1b000bfb9852","freq","img/orange_2bandit_b2.png","70","70","test","1","130","130","7","",""
"null","237604","pSARL_v2","pSARL_v2ff1t1wab","5ff591cba89e1b000bfb9852","freq_resp","img/orange_2bandit_b.png","70","70","test","","","","7","",""
"null","237760","pSARL_v2","pSARL_v2ff1t1wab","5ff591cba89e1b000bfb9852","fixation","img/fixation.png","null","","test","","","","","",""
"275.7999999523163","238038","pSARL_v2","pSARL_v2ff1t1wab","5ff591cba89e1b000bfb9852","freq","img/orange_2bandit_b2.png","70","70","test","1","131","131","7","",""
"null","238570","pSARL_v2","pSARL_v2ff1t1wab","5ff591cba89e1b000bfb9852","freq_resp","img/orange_2bandit_b.png","70","70","test","","","","7","",""
"null","238727","pSARL_v2","pSARL_v2ff1t1wab","5ff591cba89e1b000bfb9852","fixation","img/fixation.png","null","","test","","","","","",""
"474.89999985694885","239204","pSARL_v2","pSARL_v2ff1t1wab","5ff591cba89e1b000bfb9852","infreq","img/green_2bandit_b2.png","68","68","test","1","132","132","7","",""
"null","239537","pSARL_v2","pSARL_v2ff1t1wab","5ff591cba89e1b000bfb9852","infreq_resp","img/green_2bandit_b.png","68","68","test","","","","7","",""
"null","239693","pSARL_v2","pSARL_v2ff1t1wab","5ff591cba89e1b000bfb9852","fixation","img/fixation.png","null","","test","","","","","",""
"316.09999990463257","240012","pSARL_v2","pSARL_v2ff1t1wab","5ff591cba89e1b000bfb9852","freq","img/orange_2bandit_b2.png","70","70","test","1","133","133","7","",""
"null","240507","pSARL_v2","pSARL_v2ff1t1wab","5ff591cba89e1b000bfb9852","freq_resp","img/orange_2bandit_b.png","70","70","test","","","","7","",""
"null","240661","pSARL_v2","pSARL_v2ff1t1wab","5ff591cba89e1b000bfb9852","fixation","img/fixation.png","null","","test","","","","","",""
"302.7999999523163","240966","pSARL_v2","pSARL_v2ff1t1wab","5ff591cba89e1b000bfb9852","freq","img/orange_2bandit_b2.png","70","70","test","1","134","134","7","",""
"null","241471","pSARL_v2","pSARL_v2ff1t1wab","5ff591cba89e1b000bfb9852","freq_resp","img/orange_2bandit_b.png","70","70","test","","","","7","",""
"null","241629","pSARL_v2","pSARL_v2ff1t1wab","5ff591cba89e1b000bfb9852","fixation","img/fixation.png","null","","test","","","","","",""
"256.7000000476837","241890","pSARL_v2","pSARL_v2ff1t1wab","5ff591cba89e1b000bfb9852","freq","img/orange_2bandit_b2.png","70","70","test","1","135","135","7","",""
"null","242451","pSARL_v2","pSARL_v2ff1t1wab","5ff591cba89e1b000bfb9852","freq_resp","img/orange_2bandit_b.png","70","70","test","","","","7","",""
"null","242612","pSARL_v2","pSARL_v2ff1t1wab","5ff591cba89e1b000bfb9852","fixation","img/fixation.png","null","","test","","","","","",""
"453.2000000476837","243069","pSARL_v2","pSARL_v2ff1t1wab","5ff591cba89e1b000bfb9852","infreq","img/green_2bandit_b2.png","68","68","test","1","136","136","7","",""
"null","243433","pSARL_v2","pSARL_v2ff1t1wab","5ff591cba89e1b000bfb9852","infreq_resp","img/green_2bandit_b.png","68","68","test","","","","7","",""
"null","243589","pSARL_v2","pSARL_v2ff1t1wab","5ff591cba89e1b000bfb9852","fixation","img/fixation.png","null","","test","","","","","",""
"347.2000000476837","243939","pSARL_v2","pSARL_v2ff1t1wab","5ff591cba89e1b000bfb9852","freq","img/orange_2bandit_b2.png","70","70","test","1","137","137","7","",""
"null","244398","pSARL_v2","pSARL_v2ff1t1wab","5ff591cba89e1b000bfb9852","freq_resp","img/orange_2bandit_b.png","70","70","test","","","","7","",""
"null","244555","pSARL_v2","pSARL_v2ff1t1wab","5ff591cba89e1b000bfb9852","fixation","img/fixation.png","null","","test","","","","","",""
"238.79999995231628","244798","pSARL_v2","pSARL_v2ff1t1wab","5ff591cba89e1b000bfb9852","freq","img/orange_2bandit_b2.png","70","70","test","1","138","138","7","",""
"null","245363","pSARL_v2","pSARL_v2ff1t1wab","5ff591cba89e1b000bfb9852","freq_resp","img/orange_2bandit_b.png","70","70","test","","","","7","",""
"null","245520","pSARL_v2","pSARL_v2ff1t1wab","5ff591cba89e1b000bfb9852","fixation","img/fixation.png","null","","test","","","","","",""
"338.5","245862","pSARL_v2","pSARL_v2ff1t1wab","5ff591cba89e1b000bfb9852","freq","img/orange_2bandit_b2.png","70","70","test","1","139","139","7","",""
"null","246331","pSARL_v2","pSARL_v2ff1t1wab","5ff591cba89e1b000bfb9852","freq_resp","img/orange_2bandit_b.png","70","70","test","","","","7","",""
"null","246488","pSARL_v2","pSARL_v2ff1t1wab","5ff591cba89e1b000bfb9852","fixation","img/fixation.png","null","","test","","","","","",""
"353","246844","pSARL_v2","pSARL_v2ff1t1wab","5ff591cba89e1b000bfb9852","freq","img/orange_2bandit_b2.png","70","70","test","1","140","140","7","",""
"null","247307","pSARL_v2","pSARL_v2ff1t1wab","5ff591cba89e1b000bfb9852","freq_resp","img/orange_2bandit_b.png","70","70","test","","","","7","",""
"null","247463","pSARL_v2","pSARL_v2ff1t1wab","5ff591cba89e1b000bfb9852","fixation","img/fixation.png","null","","test","","","","","",""
"293.80000019073486","247759","pSARL_v2","pSARL_v2ff1t1wab","5ff591cba89e1b000bfb9852","freq","img/orange_2bandit_b2.png","70","70","test","1","141","141","7","",""
"null","248272","pSARL_v2","pSARL_v2ff1t1wab","5ff591cba89e1b000bfb9852","freq_resp","img/orange_2bandit_b.png","70","70","test","","","","7","",""
"null","248427","pSARL_v2","pSARL_v2ff1t1wab","5ff591cba89e1b000bfb9852","fixation","img/fixation.png","null","","test","","","","","",""
"251.40000009536743","248682","pSARL_v2","pSARL_v2ff1t1wab","5ff591cba89e1b000bfb9852","freq","img/orange_2bandit_b2.png","70","70","test","1","142","142","7","",""
"null","249240","pSARL_v2","pSARL_v2ff1t1wab","5ff591cba89e1b000bfb9852","freq_resp","img/orange_2bandit_b.png","70","70","test","","","","7","",""
"null","249398","pSARL_v2","pSARL_v2ff1t1wab","5ff591cba89e1b000bfb9852","fixation","img/fixation.png","null","","test","","","","","",""
"251.89999985694885","249653","pSARL_v2","pSARL_v2ff1t1wab","5ff591cba89e1b000bfb9852","freq","img/orange_2bandit_b2.png","70","70","test","1","143","143","7","",""
"null","250207","pSARL_v2","pSARL_v2ff1t1wab","5ff591cba89e1b000bfb9852","freq_resp","img/orange_2bandit_b.png","70","70","test","","","","7","",""
"null","250364","pSARL_v2","pSARL_v2ff1t1wab","5ff591cba89e1b000bfb9852","fixation","img/fixation.png","null","","test","","","","","",""
"211.20000004768372","250579","pSARL_v2","pSARL_v2ff1t1wab","5ff591cba89e1b000bfb9852","freq","img/orange_2bandit_b2.png","70","70","test","1","144","144","7","",""
"null","251181","pSARL_v2","pSARL_v2ff1t1wab","5ff591cba89e1b000bfb9852","freq_resp","img/orange_2bandit_b.png","70","70","test","","","","7","",""
"null","251335","pSARL_v2","pSARL_v2ff1t1wab","5ff591cba89e1b000bfb9852","fixation","img/fixation.png","null","","test","","","","","",""
"325.5","251663","pSARL_v2","pSARL_v2ff1t1wab","5ff591cba89e1b000bfb9852","freq","img/orange_2bandit_b2.png","70","70","test","1","145","145","7","",""
"null","252144","pSARL_v2","pSARL_v2ff1t1wab","5ff591cba89e1b000bfb9852","freq_resp","img/orange_2bandit_b.png","70","70","test","","","","7","",""
"null","252300","pSARL_v2","pSARL_v2ff1t1wab","5ff591cba89e1b000bfb9852","fixation","img/fixation.png","null","","test","","","","","",""
"271.60000014305115","252574","pSARL_v2","pSARL_v2ff1t1wab","5ff591cba89e1b000bfb9852","freq","img/orange_2bandit_b2.png","70","70","test","1","146","146","7","",""
"null","253110","pSARL_v2","pSARL_v2ff1t1wab","5ff591cba89e1b000bfb9852","freq_resp","img/orange_2bandit_b.png","70","70","test","","","","7","",""
"null","253266","pSARL_v2","pSARL_v2ff1t1wab","5ff591cba89e1b000bfb9852","fixation","img/fixation.png","null","","test","","","","","",""
"150.90000009536743","253419","pSARL_v2","pSARL_v2ff1t1wab","5ff591cba89e1b000bfb9852","freq","img/orange_2bandit_b2.png","70","70","test","1","147","147","7","",""
"null","254078","pSARL_v2","pSARL_v2ff1t1wab","5ff591cba89e1b000bfb9852","freq_resp","img/orange_2bandit_b.png","70","70","test","","","","7","",""
"null","254233","pSARL_v2","pSARL_v2ff1t1wab","5ff591cba89e1b000bfb9852","fixation","img/fixation.png","null","","test","","","","","",""
"210.40000009536743","254447","pSARL_v2","pSARL_v2ff1t1wab","5ff591cba89e1b000bfb9852","freq","img/orange_2bandit_b2.png","70","70","test","1","148","148","7","",""
"null","255055","pSARL_v2","pSARL_v2ff1t1wab","5ff591cba89e1b000bfb9852","freq_resp","img/orange_2bandit_b.png","70","70","test","","","","7","",""
"null","255212","pSARL_v2","pSARL_v2ff1t1wab","5ff591cba89e1b000bfb9852","fixation","img/fixation.png","null","","test","","","","","",""
"715.1999998092651","255930","pSARL_v2","pSARL_v2ff1t1wab","5ff591cba89e1b000bfb9852","reward","img/slot.png","74","","test","","","","","",""
"null","256691","pSARL_v2","pSARL_v2ff1t1wab","5ff591cba89e1b000bfb9852","points","<div class=""verylowPoints""> -6 </div>","null","na","test","","","","7","-6","6"
"376.2999999523163","257070","pSARL_v2","pSARL_v2ff1t1wab","5ff591cba89e1b000bfb9852","freq","img/orange_2bandit_b2.png","70","70","test","1","149","149","8","",""
"null","257499","pSARL_v2","pSARL_v2ff1t1wab","5ff591cba89e1b000bfb9852","freq_resp","img/orange_2bandit_b.png","70","70","test","","","","8","",""
"null","257653","pSARL_v2","pSARL_v2ff1t1wab","5ff591cba89e1b000bfb9852","fixation","img/fixation.png","null","","test","","","","","",""
"177.39999985694885","257834","pSARL_v2","pSARL_v2ff1t1wab","5ff591cba89e1b000bfb9852","freq","img/orange_2bandit_b2.png","70","70","test","1","150","150","8","",""
"null","258464","pSARL_v2","pSARL_v2ff1t1wab","5ff591cba89e1b000bfb9852","freq_resp","img/orange_2bandit_b.png","70","70","test","","","","8","",""
"null","258623","pSARL_v2","pSARL_v2ff1t1wab","5ff591cba89e1b000bfb9852","fixation","img/fixation.png","null","","test","","","","","",""
"105.30000019073486","258732","pSARL_v2","pSARL_v2ff1t1wab","5ff591cba89e1b000bfb9852","freq","img/orange_2bandit_b2.png","70","70","test","1","151","151","8","",""
"null","259430","pSARL_v2","pSARL_v2ff1t1wab","5ff591cba89e1b000bfb9852","freq_resp","img/orange_2bandit_b.png","70","70","test","","","","8","",""
"null","259589","pSARL_v2","pSARL_v2ff1t1wab","5ff591cba89e1b000bfb9852","fixation","img/fixation.png","null","","test","","","","","",""
"172.5","259764","pSARL_v2","pSARL_v2ff1t1wab","5ff591cba89e1b000bfb9852","freq","img/orange_2bandit_b2.png","70","70","test","1","152","152","8","",""
"null","260399","pSARL_v2","pSARL_v2ff1t1wab","5ff591cba89e1b000bfb9852","freq_resp","img/orange_2bandit_b.png","70","70","test","","","","8","",""
"null","260556","pSARL_v2","pSARL_v2ff1t1wab","5ff591cba89e1b000bfb9852","fixation","img/fixation.png","null","","test","","","","","",""
"251.79999995231628","260810","pSARL_v2","pSARL_v2ff1t1wab","5ff591cba89e1b000bfb9852","freq","img/orange_2bandit_b2.png","70","70","test","1","153","153","8","",""
"null","261362","pSARL_v2","pSARL_v2ff1t1wab","5ff591cba89e1b000bfb9852","freq_resp","img/orange_2bandit_b.png","70","70","test","","","","8","",""
"null","261518","pSARL_v2","pSARL_v2ff1t1wab","5ff591cba89e1b000bfb9852","fixation","img/fixation.png","null","","test","","","","","",""
"243","261764","pSARL_v2","pSARL_v2ff1t1wab","5ff591cba89e1b000bfb9852","freq","img/orange_2bandit_b2.png","70","70","test","1","154","154","8","",""
"null","262329","pSARL_v2","pSARL_v2ff1t1wab","5ff591cba89e1b000bfb9852","freq_resp","img/orange_2bandit_b.png","70","70","test","","","","8","",""
"null","262496","pSARL_v2","pSARL_v2ff1t1wab","5ff591cba89e1b000bfb9852","fixation","img/fixation.png","null","","test","","","","","",""
"206.70000004768372","262706","pSARL_v2","pSARL_v2ff1t1wab","5ff591cba89e1b000bfb9852","freq","img/orange_2bandit_b2.png","70","70","test","1","155","155","8","",""
"null","263307","pSARL_v2","pSARL_v2ff1t1wab","5ff591cba89e1b000bfb9852","freq_resp","img/orange_2bandit_b.png","70","70","test","","","","8","",""
"null","263463","pSARL_v2","pSARL_v2ff1t1wab","5ff591cba89e1b000bfb9852","fixation","img/fixation.png","null","","test","","","","","",""
"246.30000019073486","263712","pSARL_v2","pSARL_v2ff1t1wab","5ff591cba89e1b000bfb9852","freq","img/orange_2bandit_b2.png","70","70","test","1","156","156","8","",""
"null","264276","pSARL_v2","pSARL_v2ff1t1wab","5ff591cba89e1b000bfb9852","freq_resp","img/orange_2bandit_b.png","70","70","test","","","","8","",""
"null","264431","pSARL_v2","pSARL_v2ff1t1wab","5ff591cba89e1b000bfb9852","fixation","img/fixation.png","null","","test","","","","","",""
"269.7000000476837","264703","pSARL_v2","pSARL_v2ff1t1wab","5ff591cba89e1b000bfb9852","freq","img/orange_2bandit_b2.png","70","70","test","1","157","157","8","",""
"null","265237","pSARL_v2","pSARL_v2ff1t1wab","5ff591cba89e1b000bfb9852","freq_resp","img/orange_2bandit_b.png","70","70","test","","","","8","",""
"null","265394","pSARL_v2","pSARL_v2ff1t1wab","5ff591cba89e1b000bfb9852","fixation","img/fixation.png","null","","test","","","","","",""
"707.5999999046326","266105","pSARL_v2","pSARL_v2ff1t1wab","5ff591cba89e1b000bfb9852","infreq","img/green_2bandit_b2.png","68","68","test","1","158","158","8","",""
"null","266205","pSARL_v2","pSARL_v2ff1t1wab","5ff591cba89e1b000bfb9852","infreq_resp","img/green_2bandit_b.png","68","68","test","","","","8","",""
"null","266360","pSARL_v2","pSARL_v2ff1t1wab","5ff591cba89e1b000bfb9852","fixation","img/fixation.png","null","","test","","","","","",""
"364.39999985694885","266728","pSARL_v2","pSARL_v2ff1t1wab","5ff591cba89e1b000bfb9852","freq","img/orange_2bandit_b2.png","70","70","test","1","159","159","8","",""
"null","267170","pSARL_v2","pSARL_v2ff1t1wab","5ff591cba89e1b000bfb9852","freq_resp","img/orange_2bandit_b.png","70","70","test","","","","8","",""
"null","267326","pSARL_v2","pSARL_v2ff1t1wab","5ff591cba89e1b000bfb9852","fixation","img/fixation.png","null","","test","","","","","",""
"279.60000014305115","267609","pSARL_v2","pSARL_v2ff1t1wab","5ff591cba89e1b000bfb9852","freq","img/orange_2bandit_b2.png","70","70","test","1","160","160","8","",""
"null","268146","pSARL_v2","pSARL_v2ff1t1wab","5ff591cba89e1b000bfb9852","freq_resp","img/orange_2bandit_b.png","70","70","test","","","","8","",""
"null","268299","pSARL_v2","pSARL_v2ff1t1wab","5ff591cba89e1b000bfb9852","fixation","img/fixation.png","null","","test","","","","","",""
"191.20000004768372","268493","pSARL_v2","pSARL_v2ff1t1wab","5ff591cba89e1b000bfb9852","freq","img/orange_2bandit_b2.png","70","70","test","1","161","161","8","",""
"null","269114","pSARL_v2","pSARL_v2ff1t1wab","5ff591cba89e1b000bfb9852","freq_resp","img/orange_2bandit_b.png","70","70","test","","","","8","",""
"null","269271","pSARL_v2","pSARL_v2ff1t1wab","5ff591cba89e1b000bfb9852","fixation","img/fixation.png","null","","test","","","","","",""
"260.19999980926514","269534","pSARL_v2","pSARL_v2ff1t1wab","5ff591cba89e1b000bfb9852","freq","img/orange_2bandit_b2.png","70","70","test","1","162","162","8","",""
"null","270076","pSARL_v2","pSARL_v2ff1t1wab","5ff591cba89e1b000bfb9852","freq_resp","img/orange_2bandit_b.png","70","70","test","","","","8","",""
"null","270231","pSARL_v2","pSARL_v2ff1t1wab","5ff591cba89e1b000bfb9852","fixation","img/fixation.png","null","","test","","","","","",""
"215.60000014305115","270449","pSARL_v2","pSARL_v2ff1t1wab","5ff591cba89e1b000bfb9852","freq","img/orange_2bandit_b2.png","70","70","test","1","163","163","8","",""
"null","271043","pSARL_v2","pSARL_v2ff1t1wab","5ff591cba89e1b000bfb9852","freq_resp","img/orange_2bandit_b.png","70","70","test","","","","8","",""
"null","271199","pSARL_v2","pSARL_v2ff1t1wab","5ff591cba89e1b000bfb9852","fixation","img/fixation.png","null","","test","","","","","",""
"258.90000009536743","271461","pSARL_v2","pSARL_v2ff1t1wab","5ff591cba89e1b000bfb9852","freq","img/orange_2bandit_b2.png","70","70","test","1","164","164","8","",""
"null","272010","pSARL_v2","pSARL_v2ff1t1wab","5ff591cba89e1b000bfb9852","freq_resp","img/orange_2bandit_b.png","70","70","test","","","","8","",""
"null","272167","pSARL_v2","pSARL_v2ff1t1wab","5ff591cba89e1b000bfb9852","fixation","img/fixation.png","null","","test","","","","","",""
"228.40000009536743","272398","pSARL_v2","pSARL_v2ff1t1wab","5ff591cba89e1b000bfb9852","freq","img/orange_2bandit_b2.png","70","70","test","1","165","165","8","",""
"null","272973","pSARL_v2","pSARL_v2ff1t1wab","5ff591cba89e1b000bfb9852","freq_resp","img/orange_2bandit_b.png","70","70","test","","","","8","",""
"null","273130","pSARL_v2","pSARL_v2ff1t1wab","5ff591cba89e1b000bfb9852","fixation","img/fixation.png","null","","test","","","","","",""
"268.7000000476837","273401","pSARL_v2","pSARL_v2ff1t1wab","5ff591cba89e1b000bfb9852","freq","img/orange_2bandit_b2.png","70","70","test","1","166","166","8","",""
"null","273939","pSARL_v2","pSARL_v2ff1t1wab","5ff591cba89e1b000bfb9852","freq_resp","img/orange_2bandit_b.png","70","70","test","","","","8","",""
"null","274095","pSARL_v2","pSARL_v2ff1t1wab","5ff591cba89e1b000bfb9852","fixation","img/fixation.png","null","","test","","","","","",""
"186.79999995231628","274285","pSARL_v2","pSARL_v2ff1t1wab","5ff591cba89e1b000bfb9852","freq","img/orange_2bandit_b2.png","70","70","test","1","167","167","8","",""
"null","274903","pSARL_v2","pSARL_v2ff1t1wab","5ff591cba89e1b000bfb9852","freq_resp","img/orange_2bandit_b.png","70","70","test","","","","8","",""
"null","275059","pSARL_v2","pSARL_v2ff1t1wab","5ff591cba89e1b000bfb9852","fixation","img/fixation.png","null","","test","","","","","",""
"248.5","275310","pSARL_v2","pSARL_v2ff1t1wab","5ff591cba89e1b000bfb9852","freq","img/orange_2bandit_b2.png","70","70","test","1","168","168","8","",""
"null","275871","pSARL_v2","pSARL_v2ff1t1wab","5ff591cba89e1b000bfb9852","freq_resp","img/orange_2bandit_b.png","70","70","test","","","","8","",""
"null","276028","pSARL_v2","pSARL_v2ff1t1wab","5ff591cba89e1b000bfb9852","fixation","img/fixation.png","null","","test","","","","","",""
"237.40000009536743","276269","pSARL_v2","pSARL_v2ff1t1wab","5ff591cba89e1b000bfb9852","freq","img/orange_2bandit_b2.png","70","70","test","1","169","169","8","",""
"null","276836","pSARL_v2","pSARL_v2ff1t1wab","5ff591cba89e1b000bfb9852","freq_resp","img/orange_2bandit_b.png","70","70","test","","","","8","",""
"null","276993","pSARL_v2","pSARL_v2ff1t1wab","5ff591cba89e1b000bfb9852","fixation","img/fixation.png","null","","test","","","","","",""
"420.90000009536743","277417","pSARL_v2","pSARL_v2ff1t1wab","5ff591cba89e1b000bfb9852","infreq","img/green_2bandit_b2.png","68","68","test","1","170","170","8","",""
"null","277814","pSARL_v2","pSARL_v2ff1t1wab","5ff591cba89e1b000bfb9852","infreq_resp","img/green_2bandit_b.png","68","68","test","","","","8","",""
"null","277970","pSARL_v2","pSARL_v2ff1t1wab","5ff591cba89e1b000bfb9852","fixation","img/fixation.png","null","","test","","","","","",""
"349.7000000476837","278323","pSARL_v2","pSARL_v2ff1t1wab","5ff591cba89e1b000bfb9852","freq","img/orange_2bandit_b2.png","70","70","test","1","171","171","8","",""
"null","278784","pSARL_v2","pSARL_v2ff1t1wab","5ff591cba89e1b000bfb9852","freq_resp","img/orange_2bandit_b.png","70","70","test","","","","8","",""
"null","278940","pSARL_v2","pSARL_v2ff1t1wab","5ff591cba89e1b000bfb9852","fixation","img/fixation.png","null","","test","","","","","",""
"282.5","279225","pSARL_v2","pSARL_v2ff1t1wab","5ff591cba89e1b000bfb9852","freq","img/orange_2bandit_b2.png","70","70","test","1","172","172","8","",""
"null","279751","pSARL_v2","pSARL_v2ff1t1wab","5ff591cba89e1b000bfb9852","freq_resp","img/orange_2bandit_b.png","70","70","test","","","","8","",""
"null","279905","pSARL_v2","pSARL_v2ff1t1wab","5ff591cba89e1b000bfb9852","fixation","img/fixation.png","null","","test","","","","","",""
"303.2999999523163","280212","pSARL_v2","pSARL_v2ff1t1wab","5ff591cba89e1b000bfb9852","freq","img/orange_2bandit_b2.png","70","70","test","1","173","173","8","",""
"null","280713","pSARL_v2","pSARL_v2ff1t1wab","5ff591cba89e1b000bfb9852","freq_resp","img/orange_2bandit_b.png","70","70","test","","","","8","",""
"null","280869","pSARL_v2","pSARL_v2ff1t1wab","5ff591cba89e1b000bfb9852","fixation","img/fixation.png","null","","test","","","","","",""
"521.9000000953674","281393","pSARL_v2","pSARL_v2ff1t1wab","5ff591cba89e1b000bfb9852","reward","img/slot.png","74","","test","","","","","",""
"null","282161","pSARL_v2","pSARL_v2ff1t1wab","5ff591cba89e1b000bfb9852","points","<div class=""verylowPoints""> -4 </div>","null","na","test","","","","8","-4","7"
"419.5","282584","pSARL_v2","pSARL_v2ff1t1wab","5ff591cba89e1b000bfb9852","freq","img/orange_2bandit_b2.png","70","70","test","1","174","174","9","",""
"null","282968","pSARL_v2","pSARL_v2ff1t1wab","5ff591cba89e1b000bfb9852","freq_resp","img/orange_2bandit_b.png","70","70","test","","","","9","",""
"null","283126","pSARL_v2","pSARL_v2ff1t1wab","5ff591cba89e1b000bfb9852","fixation","img/fixation.png","null","","test","","","","","",""
"291","283419","pSARL_v2","pSARL_v2ff1t1wab","5ff591cba89e1b000bfb9852","freq","img/orange_2bandit_b2.png","70","70","test","1","175","175","9","",""
"null","283941","pSARL_v2","pSARL_v2ff1t1wab","5ff591cba89e1b000bfb9852","freq_resp","img/orange_2bandit_b.png","70","70","test","","","","9","",""
"null","284100","pSARL_v2","pSARL_v2ff1t1wab","5ff591cba89e1b000bfb9852","fixation","img/fixation.png","null","","test","","","","","",""
"281.39999985694885","284384","pSARL_v2","pSARL_v2ff1t1wab","5ff591cba89e1b000bfb9852","infreq","img/green_2bandit_b2.png","70","68","test","0","176","176","9","",""
"null","284909","pSARL_v2","pSARL_v2ff1t1wab","5ff591cba89e1b000bfb9852","infreq_resp","img/green_2bandit_b.png","70","68","test","","","","9","",""
"null","285065","pSARL_v2","pSARL_v2ff1t1wab","5ff591cba89e1b000bfb9852","fixation","img/fixation.png","null","","test","","","","","",""
"386.10000014305115","285454","pSARL_v2","pSARL_v2ff1t1wab","5ff591cba89e1b000bfb9852","freq","img/orange_2bandit_b2.png","70","70","test","1","177","177","9","",""
"null","285881","pSARL_v2","pSARL_v2ff1t1wab","5ff591cba89e1b000bfb9852","freq_resp","img/orange_2bandit_b.png","70","70","test","","","","9","",""
"null","286037","pSARL_v2","pSARL_v2ff1t1wab","5ff591cba89e1b000bfb9852","fixation","img/fixation.png","null","","test","","","","","",""
"296.7000000476837","286337","pSARL_v2","pSARL_v2ff1t1wab","5ff591cba89e1b000bfb9852","freq","img/orange_2bandit_b2.png","70","70","test","1","178","178","9","",""
"null","286848","pSARL_v2","pSARL_v2ff1t1wab","5ff591cba89e1b000bfb9852","freq_resp","img/orange_2bandit_b.png","70","70","test","","","","9","",""
"null","287006","pSARL_v2","pSARL_v2ff1t1wab","5ff591cba89e1b000bfb9852","fixation","img/fixation.png","null","","test","","","","","",""
"149.5","287158","pSARL_v2","pSARL_v2ff1t1wab","5ff591cba89e1b000bfb9852","freq","img/orange_2bandit_b2.png","70","70","test","1","179","179","9","",""
"null","287814","pSARL_v2","pSARL_v2ff1t1wab","5ff591cba89e1b000bfb9852","freq_resp","img/orange_2bandit_b.png","70","70","test","","","","9","",""
"null","287970","pSARL_v2","pSARL_v2ff1t1wab","5ff591cba89e1b000bfb9852","fixation","img/fixation.png","null","","test","","","","","",""
"548.5","288522","pSARL_v2","pSARL_v2ff1t1wab","5ff591cba89e1b000bfb9852","infreq","img/green_2bandit_b2.png","68","68","test","1","180","180","9","",""
"null","288784","pSARL_v2","pSARL_v2ff1t1wab","5ff591cba89e1b000bfb9852","infreq_resp","img/green_2bandit_b.png","68","68","test","","","","9","",""
"null","288952","pSARL_v2","pSARL_v2ff1t1wab","5ff591cba89e1b000bfb9852","fixation","img/fixation.png","null","","test","","","","","",""
"307.69999980926514","289262","pSARL_v2","pSARL_v2ff1t1wab","5ff591cba89e1b000bfb9852","freq","img/orange_2bandit_b2.png","70","70","test","1","181","181","9","",""
"null","289762","pSARL_v2","pSARL_v2ff1t1wab","5ff591cba89e1b000bfb9852","freq_resp","img/orange_2bandit_b.png","70","70","test","","","","9","",""
"null","289917","pSARL_v2","pSARL_v2ff1t1wab","5ff591cba89e1b000bfb9852","fixation","img/fixation.png","null","","test","","","","","",""
"150.19999980926514","290069","pSARL_v2","pSARL_v2ff1t1wab","5ff591cba89e1b000bfb9852","freq","img/orange_2bandit_b2.png","70","70","test","1","182","182","9","",""
"null","290728","pSARL_v2","pSARL_v2ff1t1wab","5ff591cba89e1b000bfb9852","freq_resp","img/orange_2bandit_b.png","70","70","test","","","","9","",""
"null","290884","pSARL_v2","pSARL_v2ff1t1wab","5ff591cba89e1b000bfb9852","fixation","img/fixation.png","null","","test","","","","","",""
"90.40000009536743","290977","pSARL_v2","pSARL_v2ff1t1wab","5ff591cba89e1b000bfb9852","infreq","img/green_2bandit_b2.png","70","68","test","0","183","183","9","",""
"null","291693","pSARL_v2","pSARL_v2ff1t1wab","5ff591cba89e1b000bfb9852","infreq_resp","img/green_2bandit_b.png","70","68","test","","","","9","",""
"null","291849","pSARL_v2","pSARL_v2ff1t1wab","5ff591cba89e1b000bfb9852","fixation","img/fixation.png","null","","test","","","","","",""
"205.29999995231628","292057","pSARL_v2","pSARL_v2ff1t1wab","5ff591cba89e1b000bfb9852","freq","img/orange_2bandit_b2.png","70","70","test","1","184","184","9","",""
"null","292660","pSARL_v2","pSARL_v2ff1t1wab","5ff591cba89e1b000bfb9852","freq_resp","img/orange_2bandit_b.png","70","70","test","","","","9","",""
"null","292817","pSARL_v2","pSARL_v2ff1t1wab","5ff591cba89e1b000bfb9852","fixation","img/fixation.png","null","","test","","","","","",""
"284.7000000476837","293106","pSARL_v2","pSARL_v2ff1t1wab","5ff591cba89e1b000bfb9852","freq","img/orange_2bandit_b2.png","70","70","test","1","185","185","9","",""
"null","293636","pSARL_v2","pSARL_v2ff1t1wab","5ff591cba89e1b000bfb9852","freq_resp","img/orange_2bandit_b.png","70","70","test","","","","9","",""
"null","293794","pSARL_v2","pSARL_v2ff1t1wab","5ff591cba89e1b000bfb9852","fixation","img/fixation.png","null","","test","","","","","",""
"279.2999999523163","294077","pSARL_v2","pSARL_v2ff1t1wab","5ff591cba89e1b000bfb9852","freq","img/orange_2bandit_b2.png","70","70","test","1","186","186","9","",""
"null","294605","pSARL_v2","pSARL_v2ff1t1wab","5ff591cba89e1b000bfb9852","freq_resp","img/orange_2bandit_b.png","70","70","test","","","","9","",""
"null","294758","pSARL_v2","pSARL_v2ff1t1wab","5ff591cba89e1b000bfb9852","fixation","img/fixation.png","null","","test","","","","","",""
"381.2000000476837","295143","pSARL_v2","pSARL_v2ff1t1wab","5ff591cba89e1b000bfb9852","freq","img/orange_2bandit_b2.png","70","70","test","1","187","187","9","",""
"null","295569","pSARL_v2","pSARL_v2ff1t1wab","5ff591cba89e1b000bfb9852","freq_resp","img/orange_2bandit_b.png","70","70","test","","","","9","",""
"null","295728","pSARL_v2","pSARL_v2ff1t1wab","5ff591cba89e1b000bfb9852","fixation","img/fixation.png","null","","test","","","","","",""
"278.90000009536743","296009","pSARL_v2","pSARL_v2ff1t1wab","5ff591cba89e1b000bfb9852","freq","img/orange_2bandit_b2.png","70","70","test","1","188","188","9","",""
"null","296541","pSARL_v2","pSARL_v2ff1t1wab","5ff591cba89e1b000bfb9852","freq_resp","img/orange_2bandit_b.png","70","70","test","","","","9","",""
"null","296705","pSARL_v2","pSARL_v2ff1t1wab","5ff591cba89e1b000bfb9852","fixation","img/fixation.png","null","","test","","","","","",""
"210.79999995231628","296918","pSARL_v2","pSARL_v2ff1t1wab","5ff591cba89e1b000bfb9852","freq","img/orange_2bandit_b2.png","70","70","test","1","189","189","9","",""
"null","297516","pSARL_v2","pSARL_v2ff1t1wab","5ff591cba89e1b000bfb9852","freq_resp","img/orange_2bandit_b.png","70","70","test","","","","9","",""
"null","297672","pSARL_v2","pSARL_v2ff1t1wab","5ff591cba89e1b000bfb9852","fixation","img/fixation.png","null","","test","","","","","",""
"149.89999985694885","297824","pSARL_v2","pSARL_v2ff1t1wab","5ff591cba89e1b000bfb9852","freq","img/orange_2bandit_b2.png","70","70","test","1","190","190","9","",""
"null","298479","pSARL_v2","pSARL_v2ff1t1wab","5ff591cba89e1b000bfb9852","freq_resp","img/orange_2bandit_b.png","70","70","test","","","","9","",""
"null","298635","pSARL_v2","pSARL_v2ff1t1wab","5ff591cba89e1b000bfb9852","fixation","img/fixation.png","null","","test","","","","","",""
"157.59999990463257","298796","pSARL_v2","pSARL_v2ff1t1wab","5ff591cba89e1b000bfb9852","freq","img/orange_2bandit_b2.png","70","70","test","1","191","191","9","",""
"null","299448","pSARL_v2","pSARL_v2ff1t1wab","5ff591cba89e1b000bfb9852","freq_resp","img/orange_2bandit_b.png","70","70","test","","","","9","",""
"null","299602","pSARL_v2","pSARL_v2ff1t1wab","5ff591cba89e1b000bfb9852","fixation","img/fixation.png","null","","test","","","","","",""
"194.20000004768372","299799","pSARL_v2","pSARL_v2ff1t1wab","5ff591cba89e1b000bfb9852","freq","img/orange_2bandit_b2.png","70","70","test","1","192","192","9","",""
"null","300417","pSARL_v2","pSARL_v2ff1t1wab","5ff591cba89e1b000bfb9852","freq_resp","img/orange_2bandit_b.png","70","70","test","","","","9","",""
"null","300574","pSARL_v2","pSARL_v2ff1t1wab","5ff591cba89e1b000bfb9852","fixation","img/fixation.png","null","","test","","","","","",""
"280.5","300857","pSARL_v2","pSARL_v2ff1t1wab","5ff591cba89e1b000bfb9852","freq","img/orange_2bandit_b2.png","70","70","test","1","193","193","9","",""
"null","301384","pSARL_v2","pSARL_v2ff1t1wab","5ff591cba89e1b000bfb9852","freq_resp","img/orange_2bandit_b.png","70","70","test","","","","9","",""
"null","301543","pSARL_v2","pSARL_v2ff1t1wab","5ff591cba89e1b000bfb9852","fixation","img/fixation.png","null","","test","","","","","",""
"227.39999985694885","301773","pSARL_v2","pSARL_v2ff1t1wab","5ff591cba89e1b000bfb9852","freq","img/orange_2bandit_b2.png","70","70","test","1","194","194","9","",""
"null","302352","pSARL_v2","pSARL_v2ff1t1wab","5ff591cba89e1b000bfb9852","freq_resp","img/orange_2bandit_b.png","70","70","test","","","","9","",""
"null","302508","pSARL_v2","pSARL_v2ff1t1wab","5ff591cba89e1b000bfb9852","fixation","img/fixation.png","null","","test","","","","","",""
"270.59999990463257","302781","pSARL_v2","pSARL_v2ff1t1wab","5ff591cba89e1b000bfb9852","freq","img/orange_2bandit_b2.png","70","70","test","1","195","195","9","",""
"null","303318","pSARL_v2","pSARL_v2ff1t1wab","5ff591cba89e1b000bfb9852","freq_resp","img/orange_2bandit_b.png","70","70","test","","","","9","",""
"null","303474","pSARL_v2","pSARL_v2ff1t1wab","5ff591cba89e1b000bfb9852","fixation","img/fixation.png","null","","test","","","","","",""
"274.7999999523163","303752","pSARL_v2","pSARL_v2ff1t1wab","5ff591cba89e1b000bfb9852","freq","img/orange_2bandit_b2.png","70","70","test","1","196","196","9","",""
"null","304285","pSARL_v2","pSARL_v2ff1t1wab","5ff591cba89e1b000bfb9852","freq_resp","img/orange_2bandit_b.png","70","70","test","","","","9","",""
"null","304441","pSARL_v2","pSARL_v2ff1t1wab","5ff591cba89e1b000bfb9852","fixation","img/fixation.png","null","","test","","","","","",""
"755.7999999523163","305200","pSARL_v2","pSARL_v2ff1t1wab","5ff591cba89e1b000bfb9852","reward","img/slot.png","74","","test","","","","","",""
"null","305968","pSARL_v2","pSARL_v2ff1t1wab","5ff591cba89e1b000bfb9852","points","<div class=""verylowPoints""> -3 </div>","null","na","test","","","","9","-3","8"
"314.2999999523163","306285","pSARL_v2","pSARL_v2ff1t1wab","5ff591cba89e1b000bfb9852","freq","img/orange_2bandit_b2.png","70","70","test","1","197","197","10","",""
"null","306775","pSARL_v2","pSARL_v2ff1t1wab","5ff591cba89e1b000bfb9852","freq_resp","img/orange_2bandit_b.png","70","70","test","","","","10","",""
"null","306932","pSARL_v2","pSARL_v2ff1t1wab","5ff591cba89e1b000bfb9852","fixation","img/fixation.png","null","","test","","","","","",""
"84","307019","pSARL_v2","pSARL_v2ff1t1wab","5ff591cba89e1b000bfb9852","freq","img/orange_2bandit_b2.png","70","70","test","1","198","198","10","",""
"null","307741","pSARL_v2","pSARL_v2ff1t1wab","5ff591cba89e1b000bfb9852","freq_resp","img/orange_2bandit_b.png","70","70","test","","","","10","",""
"null","307898","pSARL_v2","pSARL_v2ff1t1wab","5ff591cba89e1b000bfb9852","fixation","img/fixation.png","null","","test","","","","","",""
"34.799999952316284","307936","pSARL_v2","pSARL_v2ff1t1wab","5ff591cba89e1b000bfb9852","freq","img/orange_2bandit_b2.png","70","70","test","1","199","199","10","",""
"null","308705","pSARL_v2","pSARL_v2ff1t1wab","5ff591cba89e1b000bfb9852","freq_resp","img/orange_2bandit_b.png","70","70","test","","","","10","",""
"null","308861","pSARL_v2","pSARL_v2ff1t1wab","5ff591cba89e1b000bfb9852","fixation","img/fixation.png","null","","test","","","","","",""
"606.7000000476837","309471","pSARL_v2","pSARL_v2ff1t1wab","5ff591cba89e1b000bfb9852","freq","img/orange_2bandit_b2.png","70","70","test","1","200","200","10","",""
"null","309671","pSARL_v2","pSARL_v2ff1t1wab","5ff591cba89e1b000bfb9852","freq_resp","img/orange_2bandit_b.png","70","70","test","","","","10","",""
"null","309839","pSARL_v2","pSARL_v2ff1t1wab","5ff591cba89e1b000bfb9852","fixation","img/fixation.png","null","","test","","","","","",""
"282.7000000476837","310126","pSARL_v2","pSARL_v2ff1t1wab","5ff591cba89e1b000bfb9852","freq","img/orange_2bandit_b2.png","70","70","test","1","201","201","10","",""
"null","310648","pSARL_v2","pSARL_v2ff1t1wab","5ff591cba89e1b000bfb9852","freq_resp","img/orange_2bandit_b.png","70","70","test","","","","10","",""
"null","310806","pSARL_v2","pSARL_v2ff1t1wab","5ff591cba89e1b000bfb9852","fixation","img/fixation.png","null","","test","","","","","",""
"159.09999990463257","310969","pSARL_v2","pSARL_v2ff1t1wab","5ff591cba89e1b000bfb9852","freq","img/orange_2bandit_b2.png","70","70","test","1","202","202","10","",""
"null","311617","pSARL_v2","pSARL_v2ff1t1wab","5ff591cba89e1b000bfb9852","freq_resp","img/orange_2bandit_b.png","70","70","test","","","","10","",""
"null","311772","pSARL_v2","pSARL_v2ff1t1wab","5ff591cba89e1b000bfb9852","fixation","img/fixation.png","null","","test","","","","","",""
"207.29999995231628","311982","pSARL_v2","pSARL_v2ff1t1wab","5ff591cba89e1b000bfb9852","freq","img/orange_2bandit_b2.png","70","70","test","1","203","203","10","",""
"null","312578","pSARL_v2","pSARL_v2ff1t1wab","5ff591cba89e1b000bfb9852","freq_resp","img/orange_2bandit_b.png","70","70","test","","","","10","",""
"null","312733","pSARL_v2","pSARL_v2ff1t1wab","5ff591cba89e1b000bfb9852","fixation","img/fixation.png","null","","test","","","","","",""
"180.20000004768372","312916","pSARL_v2","pSARL_v2ff1t1wab","5ff591cba89e1b000bfb9852","freq","img/orange_2bandit_b2.png","70","70","test","1","204","204","10","",""
"null","313544","pSARL_v2","pSARL_v2ff1t1wab","5ff591cba89e1b000bfb9852","freq_resp","img/orange_2bandit_b.png","70","70","test","","","","10","",""
"null","313702","pSARL_v2","pSARL_v2ff1t1wab","5ff591cba89e1b000bfb9852","fixation","img/fixation.png","null","","test","","","","","",""
"270.69999980926514","313976","pSARL_v2","pSARL_v2ff1t1wab","5ff591cba89e1b000bfb9852","freq","img/orange_2bandit_b2.png","70","70","test","1","205","205","10","",""
"null","314510","pSARL_v2","pSARL_v2ff1t1wab","5ff591cba89e1b000bfb9852","freq_resp","img/orange_2bandit_b.png","70","70","test","","","","10","",""
"null","314668","pSARL_v2","pSARL_v2ff1t1wab","5ff591cba89e1b000bfb9852","fixation","img/fixation.png","null","","test","","","","","",""
