"rt","time_elapsed","expId","subject","prolificID","trialType","stimulus","key_press","corrresp","phase","corr","trialNum","attentionRunNum","blockNum","points","rlNum"
"4768.200000000186","4816","pSARL_v2","pSARL_v2tlbz6rxu","6164d593d3783a588b11017b","","","","","","","","","","",""
"","8504","pSARL_v2","pSARL_v2tlbz6rxu","6164d593d3783a588b11017b","fullscreen","","","","","","","","","",""
"63589.5","72114","pSARL_v2","pSARL_v2tlbz6rxu","6164d593d3783a588b11017b","","","","","","","","","","",""
"null","72940","pSARL_v2","pSARL_v2tlbz6rxu","6164d593d3783a588b11017b","freqPrac","img/green_2bandit_b2.png","null","70","prac","0","","","","",""
"null","73962","pSARL_v2","pSARL_v2tlbz6rxu","6164d593d3783a588b11017b","feedback","img/tooSlow.png","null","na","prac","","","","","",""
"null","74130","pSARL_v2","pSARL_v2tlbz6rxu","6164d593d3783a588b11017b","fixation","img/fixation.png","null","","prac","","","","","",""
"334.29999999981374","74487","pSARL_v2","pSARL_v2tlbz6rxu","6164d593d3783a588b11017b","infreqPrac","img/orange_2bandit_b2.png","68","68","prac","1","","","","",""
"334.29999999981374","74977","pSARL_v2","pSARL_v2tlbz6rxu","6164d593d3783a588b11017b","infreqPrac_resp","img/orange_2bandit_b.png","68","68","prac","","","","","",""
"0.3000000002793968","75148","pSARL_v2","pSARL_v2tlbz6rxu","6164d593d3783a588b11017b","fixation","img/fixation.png","68","","prac","","","","","",""
"274.20000000018626","75445","pSARL_v2","pSARL_v2tlbz6rxu","6164d593d3783a588b11017b","freqPrac","img/green_2bandit_b2.png","68","70","prac","0","","","","",""
"274.20000000018626","75988","pSARL_v2","pSARL_v2tlbz6rxu","6164d593d3783a588b11017b","freqPrac_resp","img/green_2bandit_b.png","68","70","prac","","","","","",""
"null","77012","pSARL_v2","pSARL_v2tlbz6rxu","6164d593d3783a588b11017b","feedback","img/wrongKey.png","null","na","prac","","","","","",""
"null","77187","pSARL_v2","pSARL_v2tlbz6rxu","6164d593d3783a588b11017b","fixation","img/fixation.png","null","","prac","","","","","",""
"310.70000000018626","77520","pSARL_v2","pSARL_v2tlbz6rxu","6164d593d3783a588b11017b","infreqPrac","img/orange_2bandit_b2.png","70","68","prac","0","","","","",""
"310.70000000018626","78035","pSARL_v2","pSARL_v2tlbz6rxu","6164d593d3783a588b11017b","infreqPrac_resp","img/orange_2bandit_b.png","70","68","prac","","","","","",""
"null","79057","pSARL_v2","pSARL_v2tlbz6rxu","6164d593d3783a588b11017b","feedback","img/wrongKey.png","null","na","prac","","","","","",""
"null","79224","pSARL_v2","pSARL_v2tlbz6rxu","6164d593d3783a588b11017b","fixation","img/fixation.png","null","","prac","","","","","",""
"465.70000000018626","79712","pSARL_v2","pSARL_v2tlbz6rxu","6164d593d3783a588b11017b","infreqPrac","img/orange_2bandit_b2.png","68","68","prac","1","","","","",""
"465.70000000018626","80072","pSARL_v2","pSARL_v2tlbz6rxu","6164d593d3783a588b11017b","infreqPrac_resp","img/orange_2bandit_b.png","68","68","prac","","","","","",""
"57.89999999990687","80241","pSARL_v2","pSARL_v2tlbz6rxu","6164d593d3783a588b11017b","fixation","img/fixation.png","68","","prac","","","","","",""
"345.79999999981374","80609","pSARL_v2","pSARL_v2tlbz6rxu","6164d593d3783a588b11017b","infreqPrac","img/orange_2bandit_b2.png","68","68","prac","1","","","","",""
"345.79999999981374","81088","pSARL_v2","pSARL_v2tlbz6rxu","6164d593d3783a588b11017b","infreqPrac_resp","img/orange_2bandit_b.png","68","68","prac","","","","","",""
"null","81261","pSARL_v2","pSARL_v2tlbz6rxu","6164d593d3783a588b11017b","fixation","img/fixation.png","null","","prac","","","","","",""
"703.2999999998137","81984","pSARL_v2","pSARL_v2tlbz6rxu","6164d593d3783a588b11017b","freqPrac","img/green_2bandit_b2.png","70","70","prac","1","","","","",""
"703.2999999998137","82100","pSARL_v2","pSARL_v2tlbz6rxu","6164d593d3783a588b11017b","freqPrac_resp","img/green_2bandit_b.png","70","70","prac","","","","","",""
"null","82276","pSARL_v2","pSARL_v2tlbz6rxu","6164d593d3783a588b11017b","fixation","img/fixation.png","null","","prac","","","","","",""
"272.89999999990687","82569","pSARL_v2","pSARL_v2tlbz6rxu","6164d593d3783a588b11017b","infreqPrac","img/orange_2bandit_b2.png","70","68","prac","0","","","","",""
"272.89999999990687","83118","pSARL_v2","pSARL_v2tlbz6rxu","6164d593d3783a588b11017b","infreqPrac_resp","img/orange_2bandit_b.png","70","68","prac","","","","","",""
"null","84141","pSARL_v2","pSARL_v2tlbz6rxu","6164d593d3783a588b11017b","feedback","img/wrongKey.png","null","na","prac","","","","","",""
"null","84312","pSARL_v2","pSARL_v2tlbz6rxu","6164d593d3783a588b11017b","fixation","img/fixation.png","null","","prac","","","","","",""
"608.5","84941","pSARL_v2","pSARL_v2tlbz6rxu","6164d593d3783a588b11017b","freqPrac","img/green_2bandit_b2.png","70","70","prac","1","","","","",""
"608.5","85156","pSARL_v2","pSARL_v2tlbz6rxu","6164d593d3783a588b11017b","freqPrac_resp","img/green_2bandit_b.png","70","70","prac","","","","","",""
"null","85327","pSARL_v2","pSARL_v2tlbz6rxu","6164d593d3783a588b11017b","fixation","img/fixation.png","null","","prac","","","","","",""
"353.3000000002794","85700","pSARL_v2","pSARL_v2tlbz6rxu","6164d593d3783a588b11017b","freqPrac","img/green_2bandit_b2.png","70","70","prac","1","","","","",""
"353.3000000002794","86167","pSARL_v2","pSARL_v2tlbz6rxu","6164d593d3783a588b11017b","freqPrac_resp","img/green_2bandit_b.png","70","70","prac","","","","","",""
"null","86339","pSARL_v2","pSARL_v2tlbz6rxu","6164d593d3783a588b11017b","fixation","img/fixation.png","null","","prac","","","","","",""
"18730.5","105087","pSARL_v2","pSARL_v2tlbz6rxu","6164d593d3783a588b11017b","","","","","prac","","","","","",""
"669.7000000001863","105779","pSARL_v2","pSARL_v2tlbz6rxu","6164d593d3783a588b11017b","rewardPractice","img/slot.png","74","","prac","","","","","",""
"null","106554","pSARL_v2","pSARL_v2tlbz6rxu","6164d593d3783a588b11017b","feedback","<div class=""veryhighPoints""> +15 </div>","null","na","prac","","","","","",""
"null","106732","pSARL_v2","pSARL_v2tlbz6rxu","6164d593d3783a588b11017b","fixation","img/fixation.png","null","","prac","","","","","",""
"11415","118166","pSARL_v2","pSARL_v2tlbz6rxu","6164d593d3783a588b11017b","","","","","prac","","","","","",""
"667.2000000001863","118854","pSARL_v2","pSARL_v2tlbz6rxu","6164d593d3783a588b11017b","freq","img/green_2bandit_b2.png","70","70","test","1","1","1","1","",""
"null","119012","pSARL_v2","pSARL_v2tlbz6rxu","6164d593d3783a588b11017b","freq_resp","img/green_2bandit_b.png","70","70","test","","","","1","",""
"null","119186","pSARL_v2","pSARL_v2tlbz6rxu","6164d593d3783a588b11017b","fixation","img/fixation.png","null","","test","","","","","",""
"429.10000000009313","119644","pSARL_v2","pSARL_v2tlbz6rxu","6164d593d3783a588b11017b","freq","img/green_2bandit_b2.png","70","70","test","1","2","2","1","",""
"null","120034","pSARL_v2","pSARL_v2tlbz6rxu","6164d593d3783a588b11017b","freq_resp","img/green_2bandit_b.png","70","70","test","","","","1","",""
"null","120208","pSARL_v2","pSARL_v2tlbz6rxu","6164d593d3783a588b11017b","fixation","img/fixation.png","null","","test","","","","","",""
"408.39999999990687","120635","pSARL_v2","pSARL_v2tlbz6rxu","6164d593d3783a588b11017b","infreq","img/orange_2bandit_b2.png","68","68","test","1","3","3","1","",""
"null","121049","pSARL_v2","pSARL_v2tlbz6rxu","6164d593d3783a588b11017b","infreq_resp","img/orange_2bandit_b.png","68","68","test","","","","1","",""
"null","121224","pSARL_v2","pSARL_v2tlbz6rxu","6164d593d3783a588b11017b","fixation","img/fixation.png","null","","test","","","","","",""
"481.89999999990687","121728","pSARL_v2","pSARL_v2tlbz6rxu","6164d593d3783a588b11017b","freq","img/green_2bandit_b2.png","70","70","test","1","4","4","1","",""
"null","122071","pSARL_v2","pSARL_v2tlbz6rxu","6164d593d3783a588b11017b","freq_resp","img/green_2bandit_b.png","70","70","test","","","","1","",""
"null","122239","pSARL_v2","pSARL_v2tlbz6rxu","6164d593d3783a588b11017b","fixation","img/fixation.png","null","","test","","","","","",""
"399.90000000037253","122661","pSARL_v2","pSARL_v2tlbz6rxu","6164d593d3783a588b11017b","freq","img/green_2bandit_b2.png","70","70","test","1","5","5","1","",""
"null","123085","pSARL_v2","pSARL_v2tlbz6rxu","6164d593d3783a588b11017b","freq_resp","img/green_2bandit_b.png","70","70","test","","","","1","",""
"null","123259","pSARL_v2","pSARL_v2tlbz6rxu","6164d593d3783a588b11017b","fixation","img/fixation.png","null","","test","","","","","",""
"388.59999999962747","123669","pSARL_v2","pSARL_v2tlbz6rxu","6164d593d3783a588b11017b","freq","img/green_2bandit_b2.png","70","70","test","1","6","6","1","",""
"null","124104","pSARL_v2","pSARL_v2tlbz6rxu","6164d593d3783a588b11017b","freq_resp","img/green_2bandit_b.png","70","70","test","","","","1","",""
"null","124277","pSARL_v2","pSARL_v2tlbz6rxu","6164d593d3783a588b11017b","fixation","img/fixation.png","null","","test","","","","","",""
"351.20000000018626","124649","pSARL_v2","pSARL_v2tlbz6rxu","6164d593d3783a588b11017b","freq","img/green_2bandit_b2.png","70","70","test","1","7","7","1","",""
"null","125120","pSARL_v2","pSARL_v2tlbz6rxu","6164d593d3783a588b11017b","freq_resp","img/green_2bandit_b.png","70","70","test","","","","1","",""
"null","125288","pSARL_v2","pSARL_v2tlbz6rxu","6164d593d3783a588b11017b","fixation","img/fixation.png","null","","test","","","","","",""
"283.60000000009313","125593","pSARL_v2","pSARL_v2tlbz6rxu","6164d593d3783a588b11017b","freq","img/green_2bandit_b2.png","70","70","test","1","8","8","1","",""
"null","126132","pSARL_v2","pSARL_v2tlbz6rxu","6164d593d3783a588b11017b","freq_resp","img/green_2bandit_b.png","70","70","test","","","","1","",""
"null","126302","pSARL_v2","pSARL_v2tlbz6rxu","6164d593d3783a588b11017b","fixation","img/fixation.png","null","","test","","","","","",""
"315.60000000009313","126640","pSARL_v2","pSARL_v2tlbz6rxu","6164d593d3783a588b11017b","freq","img/green_2bandit_b2.png","70","70","test","1","9","9","1","",""
"null","127148","pSARL_v2","pSARL_v2tlbz6rxu","6164d593d3783a588b11017b","freq_resp","img/green_2bandit_b.png","70","70","test","","","","1","",""
"null","127322","pSARL_v2","pSARL_v2tlbz6rxu","6164d593d3783a588b11017b","fixation","img/fixation.png","null","","test","","","","","",""
"320.89999999990687","127664","pSARL_v2","pSARL_v2tlbz6rxu","6164d593d3783a588b11017b","freq","img/green_2bandit_b2.png","70","70","test","1","10","10","1","",""
"null","128175","pSARL_v2","pSARL_v2tlbz6rxu","6164d593d3783a588b11017b","freq_resp","img/green_2bandit_b.png","70","70","test","","","","1","",""
"null","128345","pSARL_v2","pSARL_v2tlbz6rxu","6164d593d3783a588b11017b","fixation","img/fixation.png","null","","test","","","","","",""
"260.09999999962747","128627","pSARL_v2","pSARL_v2tlbz6rxu","6164d593d3783a588b11017b","freq","img/green_2bandit_b2.png","70","70","test","1","11","11","1","",""
"null","129192","pSARL_v2","pSARL_v2tlbz6rxu","6164d593d3783a588b11017b","freq_resp","img/green_2bandit_b.png","70","70","test","","","","1","",""
"null","129367","pSARL_v2","pSARL_v2tlbz6rxu","6164d593d3783a588b11017b","fixation","img/fixation.png","null","","test","","","","","",""
"240.59999999962747","129631","pSARL_v2","pSARL_v2tlbz6rxu","6164d593d3783a588b11017b","freq","img/green_2bandit_b2.png","70","70","test","1","12","12","1","",""
"null","130213","pSARL_v2","pSARL_v2tlbz6rxu","6164d593d3783a588b11017b","freq_resp","img/green_2bandit_b.png","70","70","test","","","","1","",""
"null","130380","pSARL_v2","pSARL_v2tlbz6rxu","6164d593d3783a588b11017b","fixation","img/fixation.png","null","","test","","","","","",""
"419","130821","pSARL_v2","pSARL_v2tlbz6rxu","6164d593d3783a588b11017b","infreq","img/orange_2bandit_b2.png","68","68","test","1","13","13","1","",""
"null","131226","pSARL_v2","pSARL_v2tlbz6rxu","6164d593d3783a588b11017b","infreq_resp","img/orange_2bandit_b.png","68","68","test","","","","1","",""
"null","131397","pSARL_v2","pSARL_v2tlbz6rxu","6164d593d3783a588b11017b","fixation","img/fixation.png","null","","test","","","","","",""
"354.39999999990687","131772","pSARL_v2","pSARL_v2tlbz6rxu","6164d593d3783a588b11017b","freq","img/green_2bandit_b2.png","70","70","test","1","14","14","1","",""
"null","132241","pSARL_v2","pSARL_v2tlbz6rxu","6164d593d3783a588b11017b","freq_resp","img/green_2bandit_b.png","70","70","test","","","","1","",""
"null","132413","pSARL_v2","pSARL_v2tlbz6rxu","6164d593d3783a588b11017b","fixation","img/fixation.png","null","","test","","","","","",""
"314.10000000009313","132748","pSARL_v2","pSARL_v2tlbz6rxu","6164d593d3783a588b11017b","freq","img/green_2bandit_b2.png","70","70","test","1","15","15","1","",""
"null","133261","pSARL_v2","pSARL_v2tlbz6rxu","6164d593d3783a588b11017b","freq_resp","img/green_2bandit_b.png","70","70","test","","","","1","",""
"null","133430","pSARL_v2","pSARL_v2tlbz6rxu","6164d593d3783a588b11017b","fixation","img/fixation.png","null","","test","","","","","",""
"263.20000000018626","133714","pSARL_v2","pSARL_v2tlbz6rxu","6164d593d3783a588b11017b","freq","img/green_2bandit_b2.png","70","70","test","1","16","16","1","",""
"null","134273","pSARL_v2","pSARL_v2tlbz6rxu","6164d593d3783a588b11017b","freq_resp","img/green_2bandit_b.png","70","70","test","","","","1","",""
"null","134447","pSARL_v2","pSARL_v2tlbz6rxu","6164d593d3783a588b11017b","fixation","img/fixation.png","null","","test","","","","","",""
"280.29999999981374","134750","pSARL_v2","pSARL_v2tlbz6rxu","6164d593d3783a588b11017b","freq","img/green_2bandit_b2.png","70","70","test","1","17","17","1","",""
"null","135289","pSARL_v2","pSARL_v2tlbz6rxu","6164d593d3783a588b11017b","freq_resp","img/green_2bandit_b.png","70","70","test","","","","1","",""
"null","135458","pSARL_v2","pSARL_v2tlbz6rxu","6164d593d3783a588b11017b","fixation","img/fixation.png","null","","test","","","","","",""
"264.1999999997206","135745","pSARL_v2","pSARL_v2tlbz6rxu","6164d593d3783a588b11017b","freq","img/green_2bandit_b2.png","70","70","test","1","18","18","1","",""
"null","136301","pSARL_v2","pSARL_v2tlbz6rxu","6164d593d3783a588b11017b","freq_resp","img/green_2bandit_b.png","70","70","test","","","","1","",""
"null","136475","pSARL_v2","pSARL_v2tlbz6rxu","6164d593d3783a588b11017b","fixation","img/fixation.png","null","","test","","","","","",""
"318.59999999962747","136815","pSARL_v2","pSARL_v2tlbz6rxu","6164d593d3783a588b11017b","freq","img/green_2bandit_b2.png","70","70","test","1","19","19","1","",""
"null","137318","pSARL_v2","pSARL_v2tlbz6rxu","6164d593d3783a588b11017b","freq_resp","img/green_2bandit_b.png","70","70","test","","","","1","",""
"null","137490","pSARL_v2","pSARL_v2tlbz6rxu","6164d593d3783a588b11017b","fixation","img/fixation.png","null","","test","","","","","",""
"401.70000000018626","137913","pSARL_v2","pSARL_v2tlbz6rxu","6164d593d3783a588b11017b","reward","img/slot.png","74","","test","","","","","",""
"null","138686","pSARL_v2","pSARL_v2tlbz6rxu","6164d593d3783a588b11017b","points","<div class=""verylowPoints""> -6 </div>","null","na","test","","","","1","-6","0"
"529","139236","pSARL_v2","pSARL_v2tlbz6rxu","6164d593d3783a588b11017b","freq","img/green_2bandit_b2.png","70","70","test","1","20","20","2","",""
"null","139526","pSARL_v2","pSARL_v2tlbz6rxu","6164d593d3783a588b11017b","freq_resp","img/green_2bandit_b.png","70","70","test","","","","2","",""
"null","139696","pSARL_v2","pSARL_v2tlbz6rxu","6164d593d3783a588b11017b","fixation","img/fixation.png","null","","test","","","","","",""
"573.7999999998137","140291","pSARL_v2","pSARL_v2tlbz6rxu","6164d593d3783a588b11017b","freq","img/green_2bandit_b2.png","70","70","test","1","21","21","2","",""
"null","140539","pSARL_v2","pSARL_v2tlbz6rxu","6164d593d3783a588b11017b","freq_resp","img/green_2bandit_b.png","70","70","test","","","","2","",""
"null","140709","pSARL_v2","pSARL_v2tlbz6rxu","6164d593d3783a588b11017b","fixation","img/fixation.png","null","","test","","","","","",""
"440.20000000018626","141172","pSARL_v2","pSARL_v2tlbz6rxu","6164d593d3783a588b11017b","freq","img/green_2bandit_b2.png","70","70","test","1","22","22","2","",""
"null","141553","pSARL_v2","pSARL_v2tlbz6rxu","6164d593d3783a588b11017b","freq_resp","img/green_2bandit_b.png","70","70","test","","","","2","",""
"null","141726","pSARL_v2","pSARL_v2tlbz6rxu","6164d593d3783a588b11017b","fixation","img/fixation.png","null","","test","","","","","",""
"279.60000000009313","142026","pSARL_v2","pSARL_v2tlbz6rxu","6164d593d3783a588b11017b","freq","img/green_2bandit_b2.png","70","70","test","1","23","23","2","",""
"null","142568","pSARL_v2","pSARL_v2tlbz6rxu","6164d593d3783a588b11017b","freq_resp","img/green_2bandit_b.png","70","70","test","","","","2","",""
"null","142739","pSARL_v2","pSARL_v2tlbz6rxu","6164d593d3783a588b11017b","fixation","img/fixation.png","null","","test","","","","","",""
"350.09999999962747","143110","pSARL_v2","pSARL_v2tlbz6rxu","6164d593d3783a588b11017b","freq","img/green_2bandit_b2.png","70","70","test","1","24","24","2","",""
"null","143582","pSARL_v2","pSARL_v2tlbz6rxu","6164d593d3783a588b11017b","freq_resp","img/green_2bandit_b.png","70","70","test","","","","2","",""
"null","143753","pSARL_v2","pSARL_v2tlbz6rxu","6164d593d3783a588b11017b","fixation","img/fixation.png","null","","test","","","","","",""
"221.10000000009313","143997","pSARL_v2","pSARL_v2tlbz6rxu","6164d593d3783a588b11017b","freq","img/green_2bandit_b2.png","70","70","test","1","25","25","2","",""
"null","144600","pSARL_v2","pSARL_v2tlbz6rxu","6164d593d3783a588b11017b","freq_resp","img/green_2bandit_b.png","70","70","test","","","","2","",""
"null","144779","pSARL_v2","pSARL_v2tlbz6rxu","6164d593d3783a588b11017b","fixation","img/fixation.png","null","","test","","","","","",""
"232.3000000002794","145038","pSARL_v2","pSARL_v2tlbz6rxu","6164d593d3783a588b11017b","freq","img/green_2bandit_b2.png","70","70","test","1","26","26","2","",""
"null","145628","pSARL_v2","pSARL_v2tlbz6rxu","6164d593d3783a588b11017b","freq_resp","img/green_2bandit_b.png","70","70","test","","","","2","",""
"null","145800","pSARL_v2","pSARL_v2tlbz6rxu","6164d593d3783a588b11017b","fixation","img/fixation.png","null","","test","","","","","",""
"208.70000000018626","146030","pSARL_v2","pSARL_v2tlbz6rxu","6164d593d3783a588b11017b","freq","img/green_2bandit_b2.png","70","70","test","1","27","27","2","",""
"null","146645","pSARL_v2","pSARL_v2tlbz6rxu","6164d593d3783a588b11017b","freq_resp","img/green_2bandit_b.png","70","70","test","","","","2","",""
"null","146817","pSARL_v2","pSARL_v2tlbz6rxu","6164d593d3783a588b11017b","fixation","img/fixation.png","null","","test","","","","","",""
"217.5","147058","pSARL_v2","pSARL_v2tlbz6rxu","6164d593d3783a588b11017b","freq","img/green_2bandit_b2.png","70","70","test","1","28","28","2","",""
"null","147669","pSARL_v2","pSARL_v2tlbz6rxu","6164d593d3783a588b11017b","freq_resp","img/green_2bandit_b.png","70","70","test","","","","2","",""
"null","147841","pSARL_v2","pSARL_v2tlbz6rxu","6164d593d3783a588b11017b","fixation","img/fixation.png","null","","test","","","","","",""
"235.29999999981374","148102","pSARL_v2","pSARL_v2tlbz6rxu","6164d593d3783a588b11017b","freq","img/green_2bandit_b2.png","70","70","test","1","29","29","2","",""
"null","148692","pSARL_v2","pSARL_v2tlbz6rxu","6164d593d3783a588b11017b","freq_resp","img/green_2bandit_b.png","70","70","test","","","","2","",""
"null","148865","pSARL_v2","pSARL_v2tlbz6rxu","6164d593d3783a588b11017b","fixation","img/fixation.png","null","","test","","","","","",""
"211.5","149098","pSARL_v2","pSARL_v2tlbz6rxu","6164d593d3783a588b11017b","freq","img/green_2bandit_b2.png","70","70","test","1","30","30","2","",""
"null","149710","pSARL_v2","pSARL_v2tlbz6rxu","6164d593d3783a588b11017b","freq_resp","img/green_2bandit_b.png","70","70","test","","","","2","",""
"null","149889","pSARL_v2","pSARL_v2tlbz6rxu","6164d593d3783a588b11017b","fixation","img/fixation.png","null","","test","","","","","",""
"223.79999999981374","150138","pSARL_v2","pSARL_v2tlbz6rxu","6164d593d3783a588b11017b","freq","img/green_2bandit_b2.png","70","70","test","1","31","31","2","",""
"null","150738","pSARL_v2","pSARL_v2tlbz6rxu","6164d593d3783a588b11017b","freq_resp","img/green_2bandit_b.png","70","70","test","","","","2","",""
"null","150909","pSARL_v2","pSARL_v2tlbz6rxu","6164d593d3783a588b11017b","fixation","img/fixation.png","null","","test","","","","","",""
"258.79999999981374","151189","pSARL_v2","pSARL_v2tlbz6rxu","6164d593d3783a588b11017b","freq","img/green_2bandit_b2.png","70","70","test","1","32","32","2","",""
"null","151754","pSARL_v2","pSARL_v2tlbz6rxu","6164d593d3783a588b11017b","freq_resp","img/green_2bandit_b.png","70","70","test","","","","2","",""
"null","151927","pSARL_v2","pSARL_v2tlbz6rxu","6164d593d3783a588b11017b","fixation","img/fixation.png","null","","test","","","","","",""
"105.8000000002794","152054","pSARL_v2","pSARL_v2tlbz6rxu","6164d593d3783a588b11017b","infreq","img/orange_2bandit_b2.png","70","68","test","0","33","33","2","",""
"null","152777","pSARL_v2","pSARL_v2tlbz6rxu","6164d593d3783a588b11017b","infreq_resp","img/orange_2bandit_b.png","70","68","test","","","","2","",""
"null","152951","pSARL_v2","pSARL_v2tlbz6rxu","6164d593d3783a588b11017b","fixation","img/fixation.png","null","","test","","","","","",""
"406.8000000002794","153380","pSARL_v2","pSARL_v2tlbz6rxu","6164d593d3783a588b11017b","freq","img/green_2bandit_b2.png","70","70","test","1","34","34","2","",""
"null","153796","pSARL_v2","pSARL_v2tlbz6rxu","6164d593d3783a588b11017b","freq_resp","img/green_2bandit_b.png","70","70","test","","","","2","",""
"null","153967","pSARL_v2","pSARL_v2tlbz6rxu","6164d593d3783a588b11017b","fixation","img/fixation.png","null","","test","","","","","",""
"233.10000000009313","154221","pSARL_v2","pSARL_v2tlbz6rxu","6164d593d3783a588b11017b","freq","img/green_2bandit_b2.png","70","70","test","1","35","35","2","",""
"null","154813","pSARL_v2","pSARL_v2tlbz6rxu","6164d593d3783a588b11017b","freq_resp","img/green_2bandit_b.png","70","70","test","","","","2","",""
"null","154985","pSARL_v2","pSARL_v2tlbz6rxu","6164d593d3783a588b11017b","fixation","img/fixation.png","null","","test","","","","","",""
"250.29999999981374","155257","pSARL_v2","pSARL_v2tlbz6rxu","6164d593d3783a588b11017b","freq","img/green_2bandit_b2.png","70","70","test","1","36","36","2","",""
"null","155830","pSARL_v2","pSARL_v2tlbz6rxu","6164d593d3783a588b11017b","freq_resp","img/green_2bandit_b.png","70","70","test","","","","2","",""
"null","156001","pSARL_v2","pSARL_v2tlbz6rxu","6164d593d3783a588b11017b","fixation","img/fixation.png","null","","test","","","","","",""
"306.8000000002794","156330","pSARL_v2","pSARL_v2tlbz6rxu","6164d593d3783a588b11017b","freq","img/green_2bandit_b2.png","70","70","test","1","37","37","2","",""
"null","156847","pSARL_v2","pSARL_v2tlbz6rxu","6164d593d3783a588b11017b","freq_resp","img/green_2bandit_b.png","70","70","test","","","","2","",""
"null","157020","pSARL_v2","pSARL_v2tlbz6rxu","6164d593d3783a588b11017b","fixation","img/fixation.png","null","","test","","","","","",""
"193.10000000009313","157234","pSARL_v2","pSARL_v2tlbz6rxu","6164d593d3783a588b11017b","infreq","img/orange_2bandit_b2.png","70","68","test","0","38","38","2","",""
"null","157865","pSARL_v2","pSARL_v2tlbz6rxu","6164d593d3783a588b11017b","infreq_resp","img/orange_2bandit_b.png","70","68","test","","","","2","",""
"null","158036","pSARL_v2","pSARL_v2tlbz6rxu","6164d593d3783a588b11017b","fixation","img/fixation.png","null","","test","","","","","",""
"340.6999999997206","158397","pSARL_v2","pSARL_v2tlbz6rxu","6164d593d3783a588b11017b","freq","img/green_2bandit_b2.png","70","70","test","1","39","39","2","",""
"null","158882","pSARL_v2","pSARL_v2tlbz6rxu","6164d593d3783a588b11017b","freq_resp","img/green_2bandit_b.png","70","70","test","","","","2","",""
"null","159055","pSARL_v2","pSARL_v2tlbz6rxu","6164d593d3783a588b11017b","fixation","img/fixation.png","null","","test","","","","","",""
"238.79999999981374","159315","pSARL_v2","pSARL_v2tlbz6rxu","6164d593d3783a588b11017b","freq","img/green_2bandit_b2.png","70","70","test","1","40","40","2","",""
"null","159899","pSARL_v2","pSARL_v2tlbz6rxu","6164d593d3783a588b11017b","freq_resp","img/green_2bandit_b.png","70","70","test","","","","2","",""
"null","160072","pSARL_v2","pSARL_v2tlbz6rxu","6164d593d3783a588b11017b","fixation","img/fixation.png","null","","test","","","","","",""
"261.20000000018626","160354","pSARL_v2","pSARL_v2tlbz6rxu","6164d593d3783a588b11017b","freq","img/green_2bandit_b2.png","70","70","test","1","41","41","2","",""
"null","160916","pSARL_v2","pSARL_v2tlbz6rxu","6164d593d3783a588b11017b","freq_resp","img/green_2bandit_b.png","70","70","test","","","","2","",""
"null","161089","pSARL_v2","pSARL_v2tlbz6rxu","6164d593d3783a588b11017b","fixation","img/fixation.png","null","","test","","","","","",""
"215.39999999990687","161326","pSARL_v2","pSARL_v2tlbz6rxu","6164d593d3783a588b11017b","freq","img/green_2bandit_b2.png","70","70","test","1","42","42","2","",""
"null","161933","pSARL_v2","pSARL_v2tlbz6rxu","6164d593d3783a588b11017b","freq_resp","img/green_2bandit_b.png","70","70","test","","","","2","",""
"null","162105","pSARL_v2","pSARL_v2tlbz6rxu","6164d593d3783a588b11017b","fixation","img/fixation.png","null","","test","","","","","",""
"91.29999999981374","162218","pSARL_v2","pSARL_v2tlbz6rxu","6164d593d3783a588b11017b","freq","img/green_2bandit_b2.png","70","70","test","1","43","43","2","",""
"null","162944","pSARL_v2","pSARL_v2tlbz6rxu","6164d593d3783a588b11017b","freq_resp","img/green_2bandit_b.png","70","70","test","","","","2","",""
"null","163114","pSARL_v2","pSARL_v2tlbz6rxu","6164d593d3783a588b11017b","fixation","img/fixation.png","null","","test","","","","","",""
"210.20000000018626","163347","pSARL_v2","pSARL_v2tlbz6rxu","6164d593d3783a588b11017b","freq","img/green_2bandit_b2.png","70","70","test","1","44","44","2","",""
"null","163956","pSARL_v2","pSARL_v2tlbz6rxu","6164d593d3783a588b11017b","freq_resp","img/green_2bandit_b.png","70","70","test","","","","2","",""
"null","164124","pSARL_v2","pSARL_v2tlbz6rxu","6164d593d3783a588b11017b","fixation","img/fixation.png","null","","test","","","","","",""
"175.60000000009313","164319","pSARL_v2","pSARL_v2tlbz6rxu","6164d593d3783a588b11017b","freq","img/green_2bandit_b2.png","70","70","test","1","45","45","2","",""
"null","164962","pSARL_v2","pSARL_v2tlbz6rxu","6164d593d3783a588b11017b","freq_resp","img/green_2bandit_b.png","70","70","test","","","","2","",""
"null","165130","pSARL_v2","pSARL_v2tlbz6rxu","6164d593d3783a588b11017b","fixation","img/fixation.png","null","","test","","","","","",""
"611.1000000000931","165758","pSARL_v2","pSARL_v2tlbz6rxu","6164d593d3783a588b11017b","reward","img/slot.png","74","","test","","","","","",""
"null","166532","pSARL_v2","pSARL_v2tlbz6rxu","6164d593d3783a588b11017b","points","<div class=""verylowPoints""> -11 </div>","null","na","test","","","","2","-11","1"
"780.2000000001863","167333","pSARL_v2","pSARL_v2tlbz6rxu","6164d593d3783a588b11017b","freq","img/green_2bandit_b2.png","70","70","test","1","46","46","3","",""
"null","167371","pSARL_v2","pSARL_v2tlbz6rxu","6164d593d3783a588b11017b","freq_resp","img/green_2bandit_b.png","70","70","test","","","","3","",""
"null","167544","pSARL_v2","pSARL_v2tlbz6rxu","6164d593d3783a588b11017b","fixation","img/fixation.png","null","","test","","","","","",""
"425.20000000018626","167992","pSARL_v2","pSARL_v2tlbz6rxu","6164d593d3783a588b11017b","freq","img/green_2bandit_b2.png","70","70","test","1","47","47","3","",""
"null","168390","pSARL_v2","pSARL_v2tlbz6rxu","6164d593d3783a588b11017b","freq_resp","img/green_2bandit_b.png","70","70","test","","","","3","",""
"null","168563","pSARL_v2","pSARL_v2tlbz6rxu","6164d593d3783a588b11017b","fixation","img/fixation.png","null","","test","","","","","",""
"442.10000000009313","169026","pSARL_v2","pSARL_v2tlbz6rxu","6164d593d3783a588b11017b","freq","img/green_2bandit_b2.png","70","70","test","1","48","48","3","",""
"null","169408","pSARL_v2","pSARL_v2tlbz6rxu","6164d593d3783a588b11017b","freq_resp","img/green_2bandit_b.png","70","70","test","","","","3","",""
"null","169582","pSARL_v2","pSARL_v2tlbz6rxu","6164d593d3783a588b11017b","fixation","img/fixation.png","null","","test","","","","","",""
"305.79999999981374","169908","pSARL_v2","pSARL_v2tlbz6rxu","6164d593d3783a588b11017b","freq","img/green_2bandit_b2.png","70","70","test","1","49","49","3","",""
"null","170429","pSARL_v2","pSARL_v2tlbz6rxu","6164d593d3783a588b11017b","freq_resp","img/green_2bandit_b.png","70","70","test","","","","3","",""
"null","170602","pSARL_v2","pSARL_v2tlbz6rxu","6164d593d3783a588b11017b","fixation","img/fixation.png","null","","test","","","","","",""
"237","170861","pSARL_v2","pSARL_v2tlbz6rxu","6164d593d3783a588b11017b","freq","img/green_2bandit_b2.png","70","70","test","1","50","50","3","",""
"null","171445","pSARL_v2","pSARL_v2tlbz6rxu","6164d593d3783a588b11017b","freq_resp","img/green_2bandit_b.png","70","70","test","","","","3","",""
"null","171617","pSARL_v2","pSARL_v2tlbz6rxu","6164d593d3783a588b11017b","fixation","img/fixation.png","null","","test","","","","","",""
"412.29999999981374","172052","pSARL_v2","pSARL_v2tlbz6rxu","6164d593d3783a588b11017b","infreq","img/orange_2bandit_b2.png","68","68","test","1","51","51","3","",""
"null","172458","pSARL_v2","pSARL_v2tlbz6rxu","6164d593d3783a588b11017b","infreq_resp","img/orange_2bandit_b.png","68","68","test","","","","3","",""
"null","172633","pSARL_v2","pSARL_v2tlbz6rxu","6164d593d3783a588b11017b","fixation","img/fixation.png","null","","test","","","","","",""
"293.39999999990687","172947","pSARL_v2","pSARL_v2tlbz6rxu","6164d593d3783a588b11017b","freq","img/green_2bandit_b2.png","70","70","test","1","52","52","3","",""
"null","173475","pSARL_v2","pSARL_v2tlbz6rxu","6164d593d3783a588b11017b","freq_resp","img/green_2bandit_b.png","70","70","test","","","","3","",""
"null","173650","pSARL_v2","pSARL_v2tlbz6rxu","6164d593d3783a588b11017b","fixation","img/fixation.png","null","","test","","","","","",""
"206.39999999990687","173877","pSARL_v2","pSARL_v2tlbz6rxu","6164d593d3783a588b11017b","freq","img/green_2bandit_b2.png","70","70","test","1","53","53","3","",""
"null","174494","pSARL_v2","pSARL_v2tlbz6rxu","6164d593d3783a588b11017b","freq_resp","img/green_2bandit_b.png","70","70","test","","","","3","",""
"null","174663","pSARL_v2","pSARL_v2tlbz6rxu","6164d593d3783a588b11017b","fixation","img/fixation.png","null","","test","","","","","",""
"106.1999999997206","174788","pSARL_v2","pSARL_v2tlbz6rxu","6164d593d3783a588b11017b","freq","img/green_2bandit_b2.png","70","70","test","1","54","54","3","",""
"null","175505","pSARL_v2","pSARL_v2tlbz6rxu","6164d593d3783a588b11017b","freq_resp","img/green_2bandit_b.png","70","70","test","","","","3","",""
"null","175680","pSARL_v2","pSARL_v2tlbz6rxu","6164d593d3783a588b11017b","fixation","img/fixation.png","null","","test","","","","","",""
"224.6999999997206","175930","pSARL_v2","pSARL_v2tlbz6rxu","6164d593d3783a588b11017b","freq","img/green_2bandit_b2.png","70","70","test","1","55","55","3","",""
"null","176525","pSARL_v2","pSARL_v2tlbz6rxu","6164d593d3783a588b11017b","freq_resp","img/green_2bandit_b.png","70","70","test","","","","3","",""
"null","176698","pSARL_v2","pSARL_v2tlbz6rxu","6164d593d3783a588b11017b","fixation","img/fixation.png","null","","test","","","","","",""
"121.60000000009313","176842","pSARL_v2","pSARL_v2tlbz6rxu","6164d593d3783a588b11017b","freq","img/green_2bandit_b2.png","70","70","test","1","56","56","3","",""
"null","177546","pSARL_v2","pSARL_v2tlbz6rxu","6164d593d3783a588b11017b","freq_resp","img/green_2bandit_b.png","70","70","test","","","","3","",""
"null","177718","pSARL_v2","pSARL_v2tlbz6rxu","6164d593d3783a588b11017b","fixation","img/fixation.png","null","","test","","","","","",""
"246","177985","pSARL_v2","pSARL_v2tlbz6rxu","6164d593d3783a588b11017b","freq","img/green_2bandit_b2.png","70","70","test","1","57","57","3","",""
"null","178563","pSARL_v2","pSARL_v2tlbz6rxu","6164d593d3783a588b11017b","freq_resp","img/green_2bandit_b.png","70","70","test","","","","3","",""
"null","178736","pSARL_v2","pSARL_v2tlbz6rxu","6164d593d3783a588b11017b","fixation","img/fixation.png","null","","test","","","","","",""
"258.39999999990687","179015","pSARL_v2","pSARL_v2tlbz6rxu","6164d593d3783a588b11017b","freq","img/green_2bandit_b2.png","70","70","test","1","58","58","3","",""
"null","179581","pSARL_v2","pSARL_v2tlbz6rxu","6164d593d3783a588b11017b","freq_resp","img/green_2bandit_b.png","70","70","test","","","","3","",""
"null","179755","pSARL_v2","pSARL_v2tlbz6rxu","6164d593d3783a588b11017b","fixation","img/fixation.png","null","","test","","","","","",""
"249.20000000018626","180025","pSARL_v2","pSARL_v2tlbz6rxu","6164d593d3783a588b11017b","freq","img/green_2bandit_b2.png","70","70","test","1","59","59","3","",""
"null","180594","pSARL_v2","pSARL_v2tlbz6rxu","6164d593d3783a588b11017b","freq_resp","img/green_2bandit_b.png","70","70","test","","","","3","",""
"null","180768","pSARL_v2","pSARL_v2tlbz6rxu","6164d593d3783a588b11017b","fixation","img/fixation.png","null","","test","","","","","",""
"274.39999999990687","181062","pSARL_v2","pSARL_v2tlbz6rxu","6164d593d3783a588b11017b","freq","img/green_2bandit_b2.png","70","70","test","1","60","60","3","",""
"null","181611","pSARL_v2","pSARL_v2tlbz6rxu","6164d593d3783a588b11017b","freq_resp","img/green_2bandit_b.png","70","70","test","","","","3","",""
"null","181784","pSARL_v2","pSARL_v2tlbz6rxu","6164d593d3783a588b11017b","fixation","img/fixation.png","null","","test","","","","","",""
"669.3999999999069","182472","pSARL_v2","pSARL_v2tlbz6rxu","6164d593d3783a588b11017b","infreq","img/orange_2bandit_b2.png","68","68","test","1","61","61","3","",""
"null","182633","pSARL_v2","pSARL_v2tlbz6rxu","6164d593d3783a588b11017b","infreq_resp","img/orange_2bandit_b.png","68","68","test","","","","3","",""
"null","182809","pSARL_v2","pSARL_v2tlbz6rxu","6164d593d3783a588b11017b","fixation","img/fixation.png","null","","test","","","","","",""
"409.5","183240","pSARL_v2","pSARL_v2tlbz6rxu","6164d593d3783a588b11017b","freq","img/green_2bandit_b2.png","70","70","test","1","62","62","3","",""
"null","183652","pSARL_v2","pSARL_v2tlbz6rxu","6164d593d3783a588b11017b","freq_resp","img/green_2bandit_b.png","70","70","test","","","","3","",""
"null","183825","pSARL_v2","pSARL_v2tlbz6rxu","6164d593d3783a588b11017b","fixation","img/fixation.png","null","","test","","","","","",""
"231.10000000009313","184077","pSARL_v2","pSARL_v2tlbz6rxu","6164d593d3783a588b11017b","freq","img/green_2bandit_b2.png","70","70","test","1","63","63","3","",""
"null","184669","pSARL_v2","pSARL_v2tlbz6rxu","6164d593d3783a588b11017b","freq_resp","img/green_2bandit_b.png","70","70","test","","","","3","",""
"null","184842","pSARL_v2","pSARL_v2tlbz6rxu","6164d593d3783a588b11017b","fixation","img/fixation.png","null","","test","","","","","",""
"247.1999999997206","185110","pSARL_v2","pSARL_v2tlbz6rxu","6164d593d3783a588b11017b","freq","img/green_2bandit_b2.png","70","70","test","1","64","64","3","",""
"null","185685","pSARL_v2","pSARL_v2tlbz6rxu","6164d593d3783a588b11017b","freq_resp","img/green_2bandit_b.png","70","70","test","","","","3","",""
"null","185860","pSARL_v2","pSARL_v2tlbz6rxu","6164d593d3783a588b11017b","fixation","img/fixation.png","null","","test","","","","","",""
"120.79999999981374","186001","pSARL_v2","pSARL_v2tlbz6rxu","6164d593d3783a588b11017b","freq","img/green_2bandit_b2.png","70","70","test","1","65","65","3","",""
"null","186704","pSARL_v2","pSARL_v2tlbz6rxu","6164d593d3783a588b11017b","freq_resp","img/green_2bandit_b.png","70","70","test","","","","3","",""
"null","186878","pSARL_v2","pSARL_v2tlbz6rxu","6164d593d3783a588b11017b","fixation","img/fixation.png","null","","test","","","","","",""
"39.10000000009313","186939","pSARL_v2","pSARL_v2tlbz6rxu","6164d593d3783a588b11017b","freq","img/green_2bandit_b2.png","70","70","test","1","66","66","3","",""
"null","187721","pSARL_v2","pSARL_v2tlbz6rxu","6164d593d3783a588b11017b","freq_resp","img/green_2bandit_b.png","70","70","test","","","","3","",""
"null","187893","pSARL_v2","pSARL_v2tlbz6rxu","6164d593d3783a588b11017b","fixation","img/fixation.png","null","","test","","","","","",""
"475","188388","pSARL_v2","pSARL_v2tlbz6rxu","6164d593d3783a588b11017b","reward","img/slot.png","74","","test","","","","","",""
"null","189161","pSARL_v2","pSARL_v2tlbz6rxu","6164d593d3783a588b11017b","points","<div class=""verylowPoints""> -7 </div>","null","na","test","","","","3","-7","2"
"440.79999999981374","189623","pSARL_v2","pSARL_v2tlbz6rxu","6164d593d3783a588b11017b","freq","img/green_2bandit_b2.png","70","70","test","1","67","67","4","",""
"null","190004","pSARL_v2","pSARL_v2tlbz6rxu","6164d593d3783a588b11017b","freq_resp","img/green_2bandit_b.png","70","70","test","","","","4","",""
"null","190177","pSARL_v2","pSARL_v2tlbz6rxu","6164d593d3783a588b11017b","fixation","img/fixation.png","null","","test","","","","","",""
"232.3000000002794","190432","pSARL_v2","pSARL_v2tlbz6rxu","6164d593d3783a588b11017b","freq","img/green_2bandit_b2.png","70","70","test","1","68","68","4","",""
"null","191020","pSARL_v2","pSARL_v2tlbz6rxu","6164d593d3783a588b11017b","freq_resp","img/green_2bandit_b.png","70","70","test","","","","4","",""
"null","191188","pSARL_v2","pSARL_v2tlbz6rxu","6164d593d3783a588b11017b","fixation","img/fixation.png","null","","test","","","","","",""
"55.6999999997206","191265","pSARL_v2","pSARL_v2tlbz6rxu","6164d593d3783a588b11017b","freq","img/green_2bandit_b2.png","70","70","test","1","69","69","4","",""
"null","192031","pSARL_v2","pSARL_v2tlbz6rxu","6164d593d3783a588b11017b","freq_resp","img/green_2bandit_b.png","70","70","test","","","","4","",""
"null","192204","pSARL_v2","pSARL_v2tlbz6rxu","6164d593d3783a588b11017b","fixation","img/fixation.png","null","","test","","","","","",""
"35.59999999962747","192265","pSARL_v2","pSARL_v2tlbz6rxu","6164d593d3783a588b11017b","freq","img/green_2bandit_b2.png","70","70","test","1","70","70","4","",""
"null","193052","pSARL_v2","pSARL_v2tlbz6rxu","6164d593d3783a588b11017b","freq_resp","img/green_2bandit_b.png","70","70","test","","","","4","",""
"null","193222","pSARL_v2","pSARL_v2tlbz6rxu","6164d593d3783a588b11017b","fixation","img/fixation.png","null","","test","","","","","",""
"74.6999999997206","193320","pSARL_v2","pSARL_v2tlbz6rxu","6164d593d3783a588b11017b","freq","img/green_2bandit_b2.png","70","70","test","1","71","71","4","",""
"null","194068","pSARL_v2","pSARL_v2tlbz6rxu","6164d593d3783a588b11017b","freq_resp","img/green_2bandit_b.png","70","70","test","","","","4","",""
"null","194246","pSARL_v2","pSARL_v2tlbz6rxu","6164d593d3783a588b11017b","fixation","img/fixation.png","null","","test","","","","","",""
"219.1999999997206","194485","pSARL_v2","pSARL_v2tlbz6rxu","6164d593d3783a588b11017b","freq","img/green_2bandit_b2.png","70","70","test","1","72","72","4","",""
"null","195090","pSARL_v2","pSARL_v2tlbz6rxu","6164d593d3783a588b11017b","freq_resp","img/green_2bandit_b.png","70","70","test","","","","4","",""
"null","195267","pSARL_v2","pSARL_v2tlbz6rxu","6164d593d3783a588b11017b","fixation","img/fixation.png","null","","test","","","","","",""
"215.29999999981374","195504","pSARL_v2","pSARL_v2tlbz6rxu","6164d593d3783a588b11017b","freq","img/green_2bandit_b2.png","70","70","test","1","73","73","4","",""
"null","196111","pSARL_v2","pSARL_v2tlbz6rxu","6164d593d3783a588b11017b","freq_resp","img/green_2bandit_b.png","70","70","test","","","","4","",""
"null","196283","pSARL_v2","pSARL_v2tlbz6rxu","6164d593d3783a588b11017b","fixation","img/fixation.png","null","","test","","","","","",""
"109.09999999962747","196411","pSARL_v2","pSARL_v2tlbz6rxu","6164d593d3783a588b11017b","freq","img/green_2bandit_b2.png","70","70","test","1","74","74","4","",""
"null","197125","pSARL_v2","pSARL_v2tlbz6rxu","6164d593d3783a588b11017b","freq_resp","img/green_2bandit_b.png","70","70","test","","","","4","",""
"null","197295","pSARL_v2","pSARL_v2tlbz6rxu","6164d593d3783a588b11017b","fixation","img/fixation.png","null","","test","","","","","",""
"63.10000000009313","197390","pSARL_v2","pSARL_v2tlbz6rxu","6164d593d3783a588b11017b","freq","img/green_2bandit_b2.png","70","70","test","1","75","75","4","",""
"null","198150","pSARL_v2","pSARL_v2tlbz6rxu","6164d593d3783a588b11017b","freq_resp","img/green_2bandit_b.png","70","70","test","","","","4","",""
"null","198321","pSARL_v2","pSARL_v2tlbz6rxu","6164d593d3783a588b11017b","fixation","img/fixation.png","null","","test","","","","","",""
"256","198599","pSARL_v2","pSARL_v2tlbz6rxu","6164d593d3783a588b11017b","infreq","img/orange_2bandit_b2.png","70","68","test","0","76","76","4","",""
"null","199165","pSARL_v2","pSARL_v2tlbz6rxu","6164d593d3783a588b11017b","infreq_resp","img/orange_2bandit_b.png","70","68","test","","","","4","",""
"null","199337","pSARL_v2","pSARL_v2tlbz6rxu","6164d593d3783a588b11017b","fixation","img/fixation.png","null","","test","","","","","",""
"258","199615","pSARL_v2","pSARL_v2tlbz6rxu","6164d593d3783a588b11017b","freq","img/green_2bandit_b2.png","70","70","test","1","77","77","4","",""
"null","200180","pSARL_v2","pSARL_v2tlbz6rxu","6164d593d3783a588b11017b","freq_resp","img/green_2bandit_b.png","70","70","test","","","","4","",""
"null","200351","pSARL_v2","pSARL_v2tlbz6rxu","6164d593d3783a588b11017b","fixation","img/fixation.png","null","","test","","","","","",""
"522.5","200894","pSARL_v2","pSARL_v2tlbz6rxu","6164d593d3783a588b11017b","infreq","img/orange_2bandit_b2.png","68","68","test","1","78","78","4","",""
"null","201195","pSARL_v2","pSARL_v2tlbz6rxu","6164d593d3783a588b11017b","infreq_resp","img/orange_2bandit_b.png","68","68","test","","","","4","",""
"null","201373","pSARL_v2","pSARL_v2tlbz6rxu","6164d593d3783a588b11017b","fixation","img/fixation.png","null","","test","","","","","",""
"233","201629","pSARL_v2","pSARL_v2tlbz6rxu","6164d593d3783a588b11017b","freq","img/green_2bandit_b2.png","70","70","test","1","79","79","4","",""
"null","202219","pSARL_v2","pSARL_v2tlbz6rxu","6164d593d3783a588b11017b","freq_resp","img/green_2bandit_b.png","70","70","test","","","","4","",""
"null","202393","pSARL_v2","pSARL_v2tlbz6rxu","6164d593d3783a588b11017b","fixation","img/fixation.png","null","","test","","","","","",""
"226.5","202643","pSARL_v2","pSARL_v2tlbz6rxu","6164d593d3783a588b11017b","freq","img/green_2bandit_b2.png","70","70","test","1","80","80","4","",""
"null","203244","pSARL_v2","pSARL_v2tlbz6rxu","6164d593d3783a588b11017b","freq_resp","img/green_2bandit_b.png","70","70","test","","","","4","",""
"null","203417","pSARL_v2","pSARL_v2tlbz6rxu","6164d593d3783a588b11017b","fixation","img/fixation.png","null","","test","","","","","",""
"190.10000000009313","203629","pSARL_v2","pSARL_v2tlbz6rxu","6164d593d3783a588b11017b","freq","img/green_2bandit_b2.png","70","70","test","1","81","81","4","",""
"null","204265","pSARL_v2","pSARL_v2tlbz6rxu","6164d593d3783a588b11017b","freq_resp","img/green_2bandit_b.png","70","70","test","","","","4","",""
"null","204437","pSARL_v2","pSARL_v2tlbz6rxu","6164d593d3783a588b11017b","fixation","img/fixation.png","null","","test","","","","","",""
"213.29999999981374","204673","pSARL_v2","pSARL_v2tlbz6rxu","6164d593d3783a588b11017b","freq","img/green_2bandit_b2.png","70","70","test","1","82","82","4","",""
"null","205282","pSARL_v2","pSARL_v2tlbz6rxu","6164d593d3783a588b11017b","freq_resp","img/green_2bandit_b.png","70","70","test","","","","4","",""
"null","205453","pSARL_v2","pSARL_v2tlbz6rxu","6164d593d3783a588b11017b","fixation","img/fixation.png","null","","test","","","","","",""
"289.6999999997206","205763","pSARL_v2","pSARL_v2tlbz6rxu","6164d593d3783a588b11017b","freq","img/green_2bandit_b2.png","70","70","test","1","83","83","4","",""
"null","206299","pSARL_v2","pSARL_v2tlbz6rxu","6164d593d3783a588b11017b","freq_resp","img/green_2bandit_b.png","70","70","test","","","","4","",""
"null","206472","pSARL_v2","pSARL_v2tlbz6rxu","6164d593d3783a588b11017b","fixation","img/fixation.png","null","","test","","","","","",""
"107","206600","pSARL_v2","pSARL_v2tlbz6rxu","6164d593d3783a588b11017b","freq","img/green_2bandit_b2.png","70","70","test","1","84","84","4","",""
"null","207313","pSARL_v2","pSARL_v2tlbz6rxu","6164d593d3783a588b11017b","freq_resp","img/green_2bandit_b.png","70","70","test","","","","4","",""
"null","207489","pSARL_v2","pSARL_v2tlbz6rxu","6164d593d3783a588b11017b","fixation","img/fixation.png","null","","test","","","","","",""
"249.60000000009313","207760","pSARL_v2","pSARL_v2tlbz6rxu","6164d593d3783a588b11017b","freq","img/green_2bandit_b2.png","70","70","test","1","85","85","4","",""
"null","208331","pSARL_v2","pSARL_v2tlbz6rxu","6164d593d3783a588b11017b","freq_resp","img/green_2bandit_b.png","70","70","test","","","","4","",""
"null","208510","pSARL_v2","pSARL_v2tlbz6rxu","6164d593d3783a588b11017b","fixation","img/fixation.png","null","","test","","","","","",""
"197.90000000037253","208730","pSARL_v2","pSARL_v2tlbz6rxu","6164d593d3783a588b11017b","freq","img/green_2bandit_b2.png","70","70","test","1","86","86","4","",""
"null","209354","pSARL_v2","pSARL_v2tlbz6rxu","6164d593d3783a588b11017b","freq_resp","img/green_2bandit_b.png","70","70","test","","","","4","",""
"null","209524","pSARL_v2","pSARL_v2tlbz6rxu","6164d593d3783a588b11017b","fixation","img/fixation.png","null","","test","","","","","",""
"222.20000000018626","209768","pSARL_v2","pSARL_v2tlbz6rxu","6164d593d3783a588b11017b","infreq","img/orange_2bandit_b2.png","70","68","test","0","87","87","4","",""
"null","210367","pSARL_v2","pSARL_v2tlbz6rxu","6164d593d3783a588b11017b","infreq_resp","img/orange_2bandit_b.png","70","68","test","","","","4","",""
"null","210540","pSARL_v2","pSARL_v2tlbz6rxu","6164d593d3783a588b11017b","fixation","img/fixation.png","null","","test","","","","","",""
"204.10000000009313","210764","pSARL_v2","pSARL_v2tlbz6rxu","6164d593d3783a588b11017b","freq","img/green_2bandit_b2.png","70","70","test","1","88","88","4","",""
"null","211381","pSARL_v2","pSARL_v2tlbz6rxu","6164d593d3783a588b11017b","freq_resp","img/green_2bandit_b.png","70","70","test","","","","4","",""
"null","211555","pSARL_v2","pSARL_v2tlbz6rxu","6164d593d3783a588b11017b","fixation","img/fixation.png","null","","test","","","","","",""
"238.8000000002794","211815","pSARL_v2","pSARL_v2tlbz6rxu","6164d593d3783a588b11017b","freq","img/green_2bandit_b2.png","70","70","test","1","89","89","4","",""
"null","212397","pSARL_v2","pSARL_v2tlbz6rxu","6164d593d3783a588b11017b","freq_resp","img/green_2bandit_b.png","70","70","test","","","","4","",""
"null","212570","pSARL_v2","pSARL_v2tlbz6rxu","6164d593d3783a588b11017b","fixation","img/fixation.png","null","","test","","","","","",""
"373.5","212962","pSARL_v2","pSARL_v2tlbz6rxu","6164d593d3783a588b11017b","reward","img/slot.png","74","","test","","","","","",""
"null","213736","pSARL_v2","pSARL_v2tlbz6rxu","6164d593d3783a588b11017b","points","<div class=""verylowPoints""> -3 </div>","null","na","test","","","","4","-3","3"
"286.70000000018626","214041","pSARL_v2","pSARL_v2tlbz6rxu","6164d593d3783a588b11017b","freq","img/green_2bandit_b2.png","70","70","test","1","90","90","5","",""
"null","214577","pSARL_v2","pSARL_v2tlbz6rxu","6164d593d3783a588b11017b","freq_resp","img/green_2bandit_b.png","70","70","test","","","","5","",""
"null","214750","pSARL_v2","pSARL_v2tlbz6rxu","6164d593d3783a588b11017b","fixation","img/fixation.png","null","","test","","","","","",""
"74","214846","pSARL_v2","pSARL_v2tlbz6rxu","6164d593d3783a588b11017b","freq","img/green_2bandit_b2.png","70","70","test","1","91","91","5","",""
"null","215592","pSARL_v2","pSARL_v2tlbz6rxu","6164d593d3783a588b11017b","freq_resp","img/green_2bandit_b.png","70","70","test","","","","5","",""
"null","215765","pSARL_v2","pSARL_v2tlbz6rxu","6164d593d3783a588b11017b","fixation","img/fixation.png","null","","test","","","","","",""
"76.70000000018626","215865","pSARL_v2","pSARL_v2tlbz6rxu","6164d593d3783a588b11017b","freq","img/green_2bandit_b2.png","70","70","test","1","92","92","5","",""
"null","216612","pSARL_v2","pSARL_v2tlbz6rxu","6164d593d3783a588b11017b","freq_resp","img/green_2bandit_b.png","70","70","test","","","","5","",""
"null","216785","pSARL_v2","pSARL_v2tlbz6rxu","6164d593d3783a588b11017b","fixation","img/fixation.png","null","","test","","","","","",""
"248.5","217055","pSARL_v2","pSARL_v2tlbz6rxu","6164d593d3783a588b11017b","freq","img/green_2bandit_b2.png","70","70","test","1","93","93","5","",""
"null","217629","pSARL_v2","pSARL_v2tlbz6rxu","6164d593d3783a588b11017b","freq_resp","img/green_2bandit_b.png","70","70","test","","","","5","",""
"null","217801","pSARL_v2","pSARL_v2tlbz6rxu","6164d593d3783a588b11017b","fixation","img/fixation.png","null","","test","","","","","",""
"247.40000000037253","218072","pSARL_v2","pSARL_v2tlbz6rxu","6164d593d3783a588b11017b","freq","img/green_2bandit_b2.png","70","70","test","1","94","94","5","",""
"null","218647","pSARL_v2","pSARL_v2tlbz6rxu","6164d593d3783a588b11017b","freq_resp","img/green_2bandit_b.png","70","70","test","","","","5","",""
"null","218820","pSARL_v2","pSARL_v2tlbz6rxu","6164d593d3783a588b11017b","fixation","img/fixation.png","null","","test","","","","","",""
"210.60000000009313","219050","pSARL_v2","pSARL_v2tlbz6rxu","6164d593d3783a588b11017b","freq","img/green_2bandit_b2.png","70","70","test","1","95","95","5","",""
"null","219663","pSARL_v2","pSARL_v2tlbz6rxu","6164d593d3783a588b11017b","freq_resp","img/green_2bandit_b.png","70","70","test","","","","5","",""
"null","219835","pSARL_v2","pSARL_v2tlbz6rxu","6164d593d3783a588b11017b","fixation","img/fixation.png","null","","test","","","","","",""
"204.10000000009313","220060","pSARL_v2","pSARL_v2tlbz6rxu","6164d593d3783a588b11017b","freq","img/green_2bandit_b2.png","70","70","test","1","96","96","5","",""
"null","220679","pSARL_v2","pSARL_v2tlbz6rxu","6164d593d3783a588b11017b","freq_resp","img/green_2bandit_b.png","70","70","test","","","","5","",""
"null","220851","pSARL_v2","pSARL_v2tlbz6rxu","6164d593d3783a588b11017b","fixation","img/fixation.png","null","","test","","","","","",""
"193.39999999990687","221065","pSARL_v2","pSARL_v2tlbz6rxu","6164d593d3783a588b11017b","freq","img/green_2bandit_b2.png","70","70","test","1","97","97","5","",""
"null","221696","pSARL_v2","pSARL_v2tlbz6rxu","6164d593d3783a588b11017b","freq_resp","img/green_2bandit_b.png","70","70","test","","","","5","",""
"null","221868","pSARL_v2","pSARL_v2tlbz6rxu","6164d593d3783a588b11017b","fixation","img/fixation.png","null","","test","","","","","",""
"200.39999999990687","222093","pSARL_v2","pSARL_v2tlbz6rxu","6164d593d3783a588b11017b","freq","img/green_2bandit_b2.png","70","70","test","1","98","98","5","",""
"null","222717","pSARL_v2","pSARL_v2tlbz6rxu","6164d593d3783a588b11017b","freq_resp","img/green_2bandit_b.png","70","70","test","","","","5","",""
"null","222891","pSARL_v2","pSARL_v2tlbz6rxu","6164d593d3783a588b11017b","fixation","img/fixation.png","null","","test","","","","","",""
"203.79999999981374","223113","pSARL_v2","pSARL_v2tlbz6rxu","6164d593d3783a588b11017b","freq","img/green_2bandit_b2.png","70","70","test","1","99","99","5","",""
"null","223734","pSARL_v2","pSARL_v2tlbz6rxu","6164d593d3783a588b11017b","freq_resp","img/green_2bandit_b.png","70","70","test","","","","5","",""
"null","223907","pSARL_v2","pSARL_v2tlbz6rxu","6164d593d3783a588b11017b","fixation","img/fixation.png","null","","test","","","","","",""
"92.20000000018626","224021","pSARL_v2","pSARL_v2tlbz6rxu","6164d593d3783a588b11017b","freq","img/green_2bandit_b2.png","70","70","test","1","100","100","5","",""
"null","224751","pSARL_v2","pSARL_v2tlbz6rxu","6164d593d3783a588b11017b","freq_resp","img/green_2bandit_b.png","70","70","test","","","","5","",""
"null","224924","pSARL_v2","pSARL_v2tlbz6rxu","6164d593d3783a588b11017b","fixation","img/fixation.png","null","","test","","","","","",""
"267.70000000018626","225214","pSARL_v2","pSARL_v2tlbz6rxu","6164d593d3783a588b11017b","freq","img/green_2bandit_b2.png","70","70","test","1","101","101","5","",""
"null","225768","pSARL_v2","pSARL_v2tlbz6rxu","6164d593d3783a588b11017b","freq_resp","img/green_2bandit_b.png","70","70","test","","","","5","",""
"null","225939","pSARL_v2","pSARL_v2tlbz6rxu","6164d593d3783a588b11017b","fixation","img/fixation.png","null","","test","","","","","",""
"230.79999999981374","226192","pSARL_v2","pSARL_v2tlbz6rxu","6164d593d3783a588b11017b","infreq","img/orange_2bandit_b2.png","70","68","test","0","102","102","5","",""
"null","226784","pSARL_v2","pSARL_v2tlbz6rxu","6164d593d3783a588b11017b","infreq_resp","img/orange_2bandit_b.png","70","68","test","","","","5","",""
"null","226954","pSARL_v2","pSARL_v2tlbz6rxu","6164d593d3783a588b11017b","fixation","img/fixation.png","null","","test","","","","","",""
"210.09999999962747","227186","pSARL_v2","pSARL_v2tlbz6rxu","6164d593d3783a588b11017b","freq","img/green_2bandit_b2.png","70","70","test","1","103","103","5","",""
"null","227798","pSARL_v2","pSARL_v2tlbz6rxu","6164d593d3783a588b11017b","freq_resp","img/green_2bandit_b.png","70","70","test","","","","5","",""
"null","227967","pSARL_v2","pSARL_v2tlbz6rxu","6164d593d3783a588b11017b","fixation","img/fixation.png","null","","test","","","","","",""
"165.20000000018626","228152","pSARL_v2","pSARL_v2tlbz6rxu","6164d593d3783a588b11017b","freq","img/green_2bandit_b2.png","70","70","test","1","104","104","5","",""
"null","228808","pSARL_v2","pSARL_v2tlbz6rxu","6164d593d3783a588b11017b","freq_resp","img/green_2bandit_b.png","70","70","test","","","","5","",""
"null","228979","pSARL_v2","pSARL_v2tlbz6rxu","6164d593d3783a588b11017b","fixation","img/fixation.png","null","","test","","","","","",""
"71.79999999981374","229072","pSARL_v2","pSARL_v2tlbz6rxu","6164d593d3783a588b11017b","freq","img/green_2bandit_b2.png","70","70","test","1","105","105","5","",""
"null","229822","pSARL_v2","pSARL_v2tlbz6rxu","6164d593d3783a588b11017b","freq_resp","img/green_2bandit_b.png","70","70","test","","","","5","",""
"null","229994","pSARL_v2","pSARL_v2tlbz6rxu","6164d593d3783a588b11017b","fixation","img/fixation.png","null","","test","","","","","",""
"150.10000000009313","230167","pSARL_v2","pSARL_v2tlbz6rxu","6164d593d3783a588b11017b","freq","img/green_2bandit_b2.png","70","70","test","1","106","106","5","",""
"null","230839","pSARL_v2","pSARL_v2tlbz6rxu","6164d593d3783a588b11017b","freq_resp","img/green_2bandit_b.png","70","70","test","","","","5","",""
"null","231011","pSARL_v2","pSARL_v2tlbz6rxu","6164d593d3783a588b11017b","fixation","img/fixation.png","null","","test","","","","","",""
"105.6999999997206","231137","pSARL_v2","pSARL_v2tlbz6rxu","6164d593d3783a588b11017b","freq","img/green_2bandit_b2.png","70","70","test","1","107","107","5","",""
"null","231854","pSARL_v2","pSARL_v2tlbz6rxu","6164d593d3783a588b11017b","freq_resp","img/green_2bandit_b.png","70","70","test","","","","5","",""
"null","232028","pSARL_v2","pSARL_v2tlbz6rxu","6164d593d3783a588b11017b","fixation","img/fixation.png","null","","test","","","","","",""
"148.3000000002794","232199","pSARL_v2","pSARL_v2tlbz6rxu","6164d593d3783a588b11017b","freq","img/green_2bandit_b2.png","70","70","test","1","108","108","5","",""
"null","232873","pSARL_v2","pSARL_v2tlbz6rxu","6164d593d3783a588b11017b","freq_resp","img/green_2bandit_b.png","70","70","test","","","","5","",""
"null","233048","pSARL_v2","pSARL_v2tlbz6rxu","6164d593d3783a588b11017b","fixation","img/fixation.png","null","","test","","","","","",""
"195.79999999981374","233267","pSARL_v2","pSARL_v2tlbz6rxu","6164d593d3783a588b11017b","freq","img/green_2bandit_b2.png","70","70","test","1","109","109","5","",""
"null","233894","pSARL_v2","pSARL_v2tlbz6rxu","6164d593d3783a588b11017b","freq_resp","img/green_2bandit_b.png","70","70","test","","","","5","",""
"null","234067","pSARL_v2","pSARL_v2tlbz6rxu","6164d593d3783a588b11017b","fixation","img/fixation.png","null","","test","","","","","",""
"52","234140","pSARL_v2","pSARL_v2tlbz6rxu","6164d593d3783a588b11017b","freq","img/green_2bandit_b2.png","70","70","test","1","110","110","5","",""
"null","234911","pSARL_v2","pSARL_v2tlbz6rxu","6164d593d3783a588b11017b","freq_resp","img/green_2bandit_b.png","70","70","test","","","","5","",""
"null","235083","pSARL_v2","pSARL_v2tlbz6rxu","6164d593d3783a588b11017b","fixation","img/fixation.png","null","","test","","","","","",""
"102.5","235206","pSARL_v2","pSARL_v2tlbz6rxu","6164d593d3783a588b11017b","freq","img/green_2bandit_b2.png","70","70","test","1","111","111","5","",""
"null","235928","pSARL_v2","pSARL_v2tlbz6rxu","6164d593d3783a588b11017b","freq_resp","img/green_2bandit_b.png","70","70","test","","","","5","",""
"null","236101","pSARL_v2","pSARL_v2tlbz6rxu","6164d593d3783a588b11017b","fixation","img/fixation.png","null","","test","","","","","",""
"114","236238","pSARL_v2","pSARL_v2tlbz6rxu","6164d593d3783a588b11017b","freq","img/green_2bandit_b2.png","70","70","test","1","112","112","5","",""
"null","236943","pSARL_v2","pSARL_v2tlbz6rxu","6164d593d3783a588b11017b","freq_resp","img/green_2bandit_b.png","70","70","test","","","","5","",""
"null","237116","pSARL_v2","pSARL_v2tlbz6rxu","6164d593d3783a588b11017b","fixation","img/fixation.png","null","","test","","","","","",""
"230.59999999962747","237367","pSARL_v2","pSARL_v2tlbz6rxu","6164d593d3783a588b11017b","infreq","img/orange_2bandit_b2.png","70","68","test","0","113","113","5","",""
"null","237957","pSARL_v2","pSARL_v2tlbz6rxu","6164d593d3783a588b11017b","infreq_resp","img/orange_2bandit_b.png","70","68","test","","","","5","",""
"null","238129","pSARL_v2","pSARL_v2tlbz6rxu","6164d593d3783a588b11017b","fixation","img/fixation.png","null","","test","","","","","",""
"360.8000000002794","238509","pSARL_v2","pSARL_v2tlbz6rxu","6164d593d3783a588b11017b","freq","img/green_2bandit_b2.png","70","70","test","1","114","114","5","",""
"null","238968","pSARL_v2","pSARL_v2tlbz6rxu","6164d593d3783a588b11017b","freq_resp","img/green_2bandit_b.png","70","70","test","","","","5","",""
"null","239140","pSARL_v2","pSARL_v2tlbz6rxu","6164d593d3783a588b11017b","fixation","img/fixation.png","null","","test","","","","","",""
"444.29999999981374","239604","pSARL_v2","pSARL_v2tlbz6rxu","6164d593d3783a588b11017b","reward","img/slot.png","74","","test","","","","","",""
"null","240378","pSARL_v2","pSARL_v2tlbz6rxu","6164d593d3783a588b11017b","points","<div class=""veryhighPoints""> +1 </div>","null","na","test","","","","5","1","4"
"484.79999999981374","240885","pSARL_v2","pSARL_v2tlbz6rxu","6164d593d3783a588b11017b","freq","img/green_2bandit_b2.png","70","70","test","1","115","115","6","",""
"null","241222","pSARL_v2","pSARL_v2tlbz6rxu","6164d593d3783a588b11017b","freq_resp","img/green_2bandit_b.png","70","70","test","","","","6","",""
"null","241396","pSARL_v2","pSARL_v2tlbz6rxu","6164d593d3783a588b11017b","fixation","img/fixation.png","null","","test","","","","","",""
"335.3000000002794","241752","pSARL_v2","pSARL_v2tlbz6rxu","6164d593d3783a588b11017b","infreq","img/orange_2bandit_b2.png","70","68","test","0","116","116","6","",""
"null","242238","pSARL_v2","pSARL_v2tlbz6rxu","6164d593d3783a588b11017b","infreq_resp","img/orange_2bandit_b.png","70","68","test","","","","6","",""
"null","242409","pSARL_v2","pSARL_v2tlbz6rxu","6164d593d3783a588b11017b","fixation","img/fixation.png","null","","test","","","","","",""
"352.79999999981374","242784","pSARL_v2","pSARL_v2tlbz6rxu","6164d593d3783a588b11017b","freq","img/green_2bandit_b2.png","70","70","test","1","117","117","6","",""
"null","243259","pSARL_v2","pSARL_v2tlbz6rxu","6164d593d3783a588b11017b","freq_resp","img/green_2bandit_b.png","70","70","test","","","","6","",""
"null","243428","pSARL_v2","pSARL_v2tlbz6rxu","6164d593d3783a588b11017b","fixation","img/fixation.png","null","","test","","","","","",""
"253.29999999981374","243703","pSARL_v2","pSARL_v2tlbz6rxu","6164d593d3783a588b11017b","freq","img/green_2bandit_b2.png","70","70","test","1","118","118","6","",""
"null","244273","pSARL_v2","pSARL_v2tlbz6rxu","6164d593d3783a588b11017b","freq_resp","img/green_2bandit_b.png","70","70","test","","","","6","",""
"null","244445","pSARL_v2","pSARL_v2tlbz6rxu","6164d593d3783a588b11017b","fixation","img/fixation.png","null","","test","","","","","",""
"114","244578","pSARL_v2","pSARL_v2tlbz6rxu","6164d593d3783a588b11017b","freq","img/green_2bandit_b2.png","70","70","test","1","119","119","6","",""
"null","245288","pSARL_v2","pSARL_v2tlbz6rxu","6164d593d3783a588b11017b","freq_resp","img/green_2bandit_b.png","70","70","test","","","","6","",""
"null","245457","pSARL_v2","pSARL_v2tlbz6rxu","6164d593d3783a588b11017b","fixation","img/fixation.png","null","","test","","","","","",""
"104.29999999981374","245583","pSARL_v2","pSARL_v2tlbz6rxu","6164d593d3783a588b11017b","freq","img/green_2bandit_b2.png","70","70","test","1","120","120","6","",""
"null","246298","pSARL_v2","pSARL_v2tlbz6rxu","6164d593d3783a588b11017b","freq_resp","img/green_2bandit_b.png","70","70","test","","","","6","",""
"null","246472","pSARL_v2","pSARL_v2tlbz6rxu","6164d593d3783a588b11017b","fixation","img/fixation.png","null","","test","","","","","",""
"130.79999999981374","246625","pSARL_v2","pSARL_v2tlbz6rxu","6164d593d3783a588b11017b","freq","img/green_2bandit_b2.png","70","70","test","1","121","121","6","",""
"null","247319","pSARL_v2","pSARL_v2tlbz6rxu","6164d593d3783a588b11017b","freq_resp","img/green_2bandit_b.png","70","70","test","","","","6","",""
"null","247491","pSARL_v2","pSARL_v2tlbz6rxu","6164d593d3783a588b11017b","fixation","img/fixation.png","null","","test","","","","","",""
"189.10000000009313","247702","pSARL_v2","pSARL_v2tlbz6rxu","6164d593d3783a588b11017b","freq","img/green_2bandit_b2.png","70","70","test","1","122","122","6","",""
"null","248334","pSARL_v2","pSARL_v2tlbz6rxu","6164d593d3783a588b11017b","freq_resp","img/green_2bandit_b.png","70","70","test","","","","6","",""
"null","248507","pSARL_v2","pSARL_v2tlbz6rxu","6164d593d3783a588b11017b","fixation","img/fixation.png","null","","test","","","","","",""
"76.8000000002794","248606","pSARL_v2","pSARL_v2tlbz6rxu","6164d593d3783a588b11017b","freq","img/green_2bandit_b2.png","70","70","test","1","123","123","6","",""
"null","249353","pSARL_v2","pSARL_v2tlbz6rxu","6164d593d3783a588b11017b","freq_resp","img/green_2bandit_b.png","70","70","test","","","","6","",""
"null","249524","pSARL_v2","pSARL_v2tlbz6rxu","6164d593d3783a588b11017b","fixation","img/fixation.png","null","","test","","","","","",""
"51.10000000009313","249598","pSARL_v2","pSARL_v2tlbz6rxu","6164d593d3783a588b11017b","freq","img/green_2bandit_b2.png","70","70","test","1","124","124","6","",""
"null","250370","pSARL_v2","pSARL_v2tlbz6rxu","6164d593d3783a588b11017b","freq_resp","img/green_2bandit_b.png","70","70","test","","","","6","",""
"null","250542","pSARL_v2","pSARL_v2tlbz6rxu","6164d593d3783a588b11017b","fixation","img/fixation.png","null","","test","","","","","",""
"379.59999999962747","250947","pSARL_v2","pSARL_v2tlbz6rxu","6164d593d3783a588b11017b","infreq","img/orange_2bandit_b2.png","68","68","test","1","125","125","6","",""
"null","251390","pSARL_v2","pSARL_v2tlbz6rxu","6164d593d3783a588b11017b","infreq_resp","img/orange_2bandit_b.png","68","68","test","","","","6","",""
"null","251566","pSARL_v2","pSARL_v2tlbz6rxu","6164d593d3783a588b11017b","fixation","img/fixation.png","null","","test","","","","","",""
"95.5","251683","pSARL_v2","pSARL_v2tlbz6rxu","6164d593d3783a588b11017b","freq","img/green_2bandit_b2.png","70","70","test","1","126","126","6","",""
"null","252411","pSARL_v2","pSARL_v2tlbz6rxu","6164d593d3783a588b11017b","freq_resp","img/green_2bandit_b.png","70","70","test","","","","6","",""
"null","252579","pSARL_v2","pSARL_v2tlbz6rxu","6164d593d3783a588b11017b","fixation","img/fixation.png","null","","test","","","","","",""
"42.299999999813735","252644","pSARL_v2","pSARL_v2tlbz6rxu","6164d593d3783a588b11017b","infreq","img/orange_2bandit_b2.png","70","68","test","0","127","127","6","",""
"null","253421","pSARL_v2","pSARL_v2tlbz6rxu","6164d593d3783a588b11017b","infreq_resp","img/orange_2bandit_b.png","70","68","test","","","","6","",""
"null","253589","pSARL_v2","pSARL_v2tlbz6rxu","6164d593d3783a588b11017b","fixation","img/fixation.png","null","","test","","","","","",""
"298.79999999981374","253910","pSARL_v2","pSARL_v2tlbz6rxu","6164d593d3783a588b11017b","freq","img/green_2bandit_b2.png","70","70","test","1","128","128","6","",""
"null","254431","pSARL_v2","pSARL_v2tlbz6rxu","6164d593d3783a588b11017b","freq_resp","img/green_2bandit_b.png","70","70","test","","","","6","",""
"null","254604","pSARL_v2","pSARL_v2tlbz6rxu","6164d593d3783a588b11017b","fixation","img/fixation.png","null","","test","","","","","",""
"244.10000000009313","254869","pSARL_v2","pSARL_v2tlbz6rxu","6164d593d3783a588b11017b","freq","img/green_2bandit_b2.png","70","70","test","1","129","129","6","",""
"null","255449","pSARL_v2","pSARL_v2tlbz6rxu","6164d593d3783a588b11017b","freq_resp","img/green_2bandit_b.png","70","70","test","","","","6","",""
"null","255617","pSARL_v2","pSARL_v2tlbz6rxu","6164d593d3783a588b11017b","fixation","img/fixation.png","null","","test","","","","","",""
"267.10000000009313","255907","pSARL_v2","pSARL_v2tlbz6rxu","6164d593d3783a588b11017b","freq","img/green_2bandit_b2.png","70","70","test","1","130","130","6","",""
"null","256463","pSARL_v2","pSARL_v2tlbz6rxu","6164d593d3783a588b11017b","freq_resp","img/green_2bandit_b.png","70","70","test","","","","6","",""
"null","256635","pSARL_v2","pSARL_v2tlbz6rxu","6164d593d3783a588b11017b","fixation","img/fixation.png","null","","test","","","","","",""
"252","256907","pSARL_v2","pSARL_v2tlbz6rxu","6164d593d3783a588b11017b","freq","img/green_2bandit_b2.png","70","70","test","1","131","131","6","",""
"null","257480","pSARL_v2","pSARL_v2tlbz6rxu","6164d593d3783a588b11017b","freq_resp","img/green_2bandit_b.png","70","70","test","","","","6","",""
"null","257653","pSARL_v2","pSARL_v2tlbz6rxu","6164d593d3783a588b11017b","fixation","img/fixation.png","null","","test","","","","","",""
"147.70000000018626","257822","pSARL_v2","pSARL_v2tlbz6rxu","6164d593d3783a588b11017b","freq","img/green_2bandit_b2.png","70","70","test","1","132","132","6","",""
"null","258499","pSARL_v2","pSARL_v2tlbz6rxu","6164d593d3783a588b11017b","freq_resp","img/green_2bandit_b.png","70","70","test","","","","6","",""
"null","258669","pSARL_v2","pSARL_v2tlbz6rxu","6164d593d3783a588b11017b","fixation","img/fixation.png","null","","test","","","","","",""
"269.39999999990687","258959","pSARL_v2","pSARL_v2tlbz6rxu","6164d593d3783a588b11017b","freq","img/green_2bandit_b2.png","70","70","test","1","133","133","6","",""
"null","259511","pSARL_v2","pSARL_v2tlbz6rxu","6164d593d3783a588b11017b","freq_resp","img/green_2bandit_b.png","70","70","test","","","","6","",""
"null","259684","pSARL_v2","pSARL_v2tlbz6rxu","6164d593d3783a588b11017b","fixation","img/fixation.png","null","","test","","","","","",""
"323.60000000009313","260030","pSARL_v2","pSARL_v2tlbz6rxu","6164d593d3783a588b11017b","freq","img/green_2bandit_b2.png","70","70","test","1","134","134","6","",""
"null","260526","pSARL_v2","pSARL_v2tlbz6rxu","6164d593d3783a588b11017b","freq_resp","img/green_2bandit_b.png","70","70","test","","","","6","",""
"null","260699","pSARL_v2","pSARL_v2tlbz6rxu","6164d593d3783a588b11017b","fixation","img/fixation.png","null","","test","","","","","",""
"281.10000000009313","261003","pSARL_v2","pSARL_v2tlbz6rxu","6164d593d3783a588b11017b","freq","img/green_2bandit_b2.png","70","70","test","1","135","135","6","",""
"null","261545","pSARL_v2","pSARL_v2tlbz6rxu","6164d593d3783a588b11017b","freq_resp","img/green_2bandit_b.png","70","70","test","","","","6","",""
"null","261719","pSARL_v2","pSARL_v2tlbz6rxu","6164d593d3783a588b11017b","fixation","img/fixation.png","null","","test","","","","","",""
"270.60000000009313","262012","pSARL_v2","pSARL_v2tlbz6rxu","6164d593d3783a588b11017b","freq","img/green_2bandit_b2.png","70","70","test","1","136","136","6","",""
"null","262570","pSARL_v2","pSARL_v2tlbz6rxu","6164d593d3783a588b11017b","freq_resp","img/green_2bandit_b.png","70","70","test","","","","6","",""
"null","262746","pSARL_v2","pSARL_v2tlbz6rxu","6164d593d3783a588b11017b","fixation","img/fixation.png","null","","test","","","","","",""
"253.70000000018626","263022","pSARL_v2","pSARL_v2tlbz6rxu","6164d593d3783a588b11017b","freq","img/green_2bandit_b2.png","70","70","test","1","137","137","6","",""
"null","263589","pSARL_v2","pSARL_v2tlbz6rxu","6164d593d3783a588b11017b","freq_resp","img/green_2bandit_b.png","70","70","test","","","","6","",""
"null","263759","pSARL_v2","pSARL_v2tlbz6rxu","6164d593d3783a588b11017b","fixation","img/fixation.png","null","","test","","","","","",""
"273","264054","pSARL_v2","pSARL_v2tlbz6rxu","6164d593d3783a588b11017b","freq","img/green_2bandit_b2.png","70","70","test","1","138","138","6","",""
"null","264606","pSARL_v2","pSARL_v2tlbz6rxu","6164d593d3783a588b11017b","freq_resp","img/green_2bandit_b.png","70","70","test","","","","6","",""
"null","264777","pSARL_v2","pSARL_v2tlbz6rxu","6164d593d3783a588b11017b","fixation","img/fixation.png","null","","test","","","","","",""
"448","265247","pSARL_v2","pSARL_v2tlbz6rxu","6164d593d3783a588b11017b","reward","img/slot.png","74","","test","","","","","",""
"null","266018","pSARL_v2","pSARL_v2tlbz6rxu","6164d593d3783a588b11017b","points","<div class=""verylowPoints""> -7 </div>","null","na","test","","","","6","-7","5"
"373.79999999981374","266413","pSARL_v2","pSARL_v2tlbz6rxu","6164d593d3783a588b11017b","freq","img/green_2bandit_b2.png","70","70","test","1","139","139","7","",""
"null","266861","pSARL_v2","pSARL_v2tlbz6rxu","6164d593d3783a588b11017b","freq_resp","img/green_2bandit_b.png","70","70","test","","","","7","",""
"null","267033","pSARL_v2","pSARL_v2tlbz6rxu","6164d593d3783a588b11017b","fixation","img/fixation.png","null","","test","","","","","",""
"293.6999999997206","267349","pSARL_v2","pSARL_v2tlbz6rxu","6164d593d3783a588b11017b","freq","img/green_2bandit_b2.png","70","70","test","1","140","140","7","",""
"null","267879","pSARL_v2","pSARL_v2tlbz6rxu","6164d593d3783a588b11017b","freq_resp","img/green_2bandit_b.png","70","70","test","","","","7","",""
"null","268052","pSARL_v2","pSARL_v2tlbz6rxu","6164d593d3783a588b11017b","fixation","img/fixation.png","null","","test","","","","","",""
"436.60000000009313","268507","pSARL_v2","pSARL_v2tlbz6rxu","6164d593d3783a588b11017b","infreq","img/orange_2bandit_b2.png","68","68","test","1","141","141","7","",""
"null","268893","pSARL_v2","pSARL_v2tlbz6rxu","6164d593d3783a588b11017b","infreq_resp","img/orange_2bandit_b.png","68","68","test","","","","7","",""
"null","269068","pSARL_v2","pSARL_v2tlbz6rxu","6164d593d3783a588b11017b","fixation","img/fixation.png","null","","test","","","","","",""
"185.1999999997206","269274","pSARL_v2","pSARL_v2tlbz6rxu","6164d593d3783a588b11017b","freq","img/green_2bandit_b2.png","70","70","test","1","142","142","7","",""
"null","269913","pSARL_v2","pSARL_v2tlbz6rxu","6164d593d3783a588b11017b","freq_resp","img/green_2bandit_b.png","70","70","test","","","","7","",""
"null","270085","pSARL_v2","pSARL_v2tlbz6rxu","6164d593d3783a588b11017b","fixation","img/fixation.png","null","","test","","","","","",""
"212.39999999990687","270321","pSARL_v2","pSARL_v2tlbz6rxu","6164d593d3783a588b11017b","freq","img/green_2bandit_b2.png","70","70","test","1","143","143","7","",""
"null","270932","pSARL_v2","pSARL_v2tlbz6rxu","6164d593d3783a588b11017b","freq_resp","img/green_2bandit_b.png","70","70","test","","","","7","",""
"null","271106","pSARL_v2","pSARL_v2tlbz6rxu","6164d593d3783a588b11017b","fixation","img/fixation.png","null","","test","","","","","",""
"81.90000000037253","271212","pSARL_v2","pSARL_v2tlbz6rxu","6164d593d3783a588b11017b","freq","img/green_2bandit_b2.png","70","70","test","1","144","144","7","",""
"null","271949","pSARL_v2","pSARL_v2tlbz6rxu","6164d593d3783a588b11017b","freq_resp","img/green_2bandit_b.png","70","70","test","","","","7","",""
"null","272120","pSARL_v2","pSARL_v2tlbz6rxu","6164d593d3783a588b11017b","fixation","img/fixation.png","null","","test","","","","","",""
"250.40000000037253","272392","pSARL_v2","pSARL_v2tlbz6rxu","6164d593d3783a588b11017b","freq","img/green_2bandit_b2.png","70","70","test","1","145","145","7","",""
"null","272963","pSARL_v2","pSARL_v2tlbz6rxu","6164d593d3783a588b11017b","freq_resp","img/green_2bandit_b.png","70","70","test","","","","7","",""
"null","273136","pSARL_v2","pSARL_v2tlbz6rxu","6164d593d3783a588b11017b","fixation","img/fixation.png","null","","test","","","","","",""
"254.39999999990687","273412","pSARL_v2","pSARL_v2tlbz6rxu","6164d593d3783a588b11017b","freq","img/green_2bandit_b2.png","70","70","test","1","146","146","7","",""
"null","273977","pSARL_v2","pSARL_v2tlbz6rxu","6164d593d3783a588b11017b","freq_resp","img/green_2bandit_b.png","70","70","test","","","","7","",""
"null","274150","pSARL_v2","pSARL_v2tlbz6rxu","6164d593d3783a588b11017b","fixation","img/fixation.png","null","","test","","","","","",""
"254","274424","pSARL_v2","pSARL_v2tlbz6rxu","6164d593d3783a588b11017b","freq","img/green_2bandit_b2.png","70","70","test","1","147","147","7","",""
"null","274989","pSARL_v2","pSARL_v2tlbz6rxu","6164d593d3783a588b11017b","freq_resp","img/green_2bandit_b.png","70","70","test","","","","7","",""
"null","275161","pSARL_v2","pSARL_v2tlbz6rxu","6164d593d3783a588b11017b","fixation","img/fixation.png","null","","test","","","","","",""
"306.5","275490","pSARL_v2","pSARL_v2tlbz6rxu","6164d593d3783a588b11017b","freq","img/green_2bandit_b2.png","70","70","test","1","148","148","7","",""
"null","276007","pSARL_v2","pSARL_v2tlbz6rxu","6164d593d3783a588b11017b","freq_resp","img/green_2bandit_b.png","70","70","test","","","","7","",""
"null","276181","pSARL_v2","pSARL_v2tlbz6rxu","6164d593d3783a588b11017b","fixation","img/fixation.png","null","","test","","","","","",""
"253.29999999981374","276457","pSARL_v2","pSARL_v2tlbz6rxu","6164d593d3783a588b11017b","freq","img/green_2bandit_b2.png","70","70","test","1","149","149","7","",""
"null","277026","pSARL_v2","pSARL_v2tlbz6rxu","6164d593d3783a588b11017b","freq_resp","img/green_2bandit_b.png","70","70","test","","","","7","",""
"null","277200","pSARL_v2","pSARL_v2tlbz6rxu","6164d593d3783a588b11017b","fixation","img/fixation.png","null","","test","","","","","",""
"439.90000000037253","277663","pSARL_v2","pSARL_v2tlbz6rxu","6164d593d3783a588b11017b","infreq","img/orange_2bandit_b2.png","68","68","test","1","150","150","7","",""
"null","278046","pSARL_v2","pSARL_v2tlbz6rxu","6164d593d3783a588b11017b","infreq_resp","img/orange_2bandit_b.png","68","68","test","","","","7","",""
"null","278216","pSARL_v2","pSARL_v2tlbz6rxu","6164d593d3783a588b11017b","fixation","img/fixation.png","null","","test","","","","","",""
"248.29999999981374","278487","pSARL_v2","pSARL_v2tlbz6rxu","6164d593d3783a588b11017b","freq","img/green_2bandit_b2.png","70","70","test","1","151","151","7","",""
"null","279062","pSARL_v2","pSARL_v2tlbz6rxu","6164d593d3783a588b11017b","freq_resp","img/green_2bandit_b.png","70","70","test","","","","7","",""
"null","279236","pSARL_v2","pSARL_v2tlbz6rxu","6164d593d3783a588b11017b","fixation","img/fixation.png","null","","test","","","","","",""
"256.39999999990687","279512","pSARL_v2","pSARL_v2tlbz6rxu","6164d593d3783a588b11017b","freq","img/green_2bandit_b2.png","70","70","test","1","152","152","7","",""
"null","280079","pSARL_v2","pSARL_v2tlbz6rxu","6164d593d3783a588b11017b","freq_resp","img/green_2bandit_b.png","70","70","test","","","","7","",""
"null","280252","pSARL_v2","pSARL_v2tlbz6rxu","6164d593d3783a588b11017b","fixation","img/fixation.png","null","","test","","","","","",""
"107.10000000009313","280380","pSARL_v2","pSARL_v2tlbz6rxu","6164d593d3783a588b11017b","freq","img/green_2bandit_b2.png","70","70","test","1","153","153","7","",""
"null","281096","pSARL_v2","pSARL_v2tlbz6rxu","6164d593d3783a588b11017b","freq_resp","img/green_2bandit_b.png","70","70","test","","","","7","",""
"null","281275","pSARL_v2","pSARL_v2tlbz6rxu","6164d593d3783a588b11017b","fixation","img/fixation.png","null","","test","","","","","",""
"65.39999999990687","281363","pSARL_v2","pSARL_v2tlbz6rxu","6164d593d3783a588b11017b","freq","img/green_2bandit_b2.png","70","70","test","1","154","154","7","",""
"null","282119","pSARL_v2","pSARL_v2tlbz6rxu","6164d593d3783a588b11017b","freq_resp","img/green_2bandit_b.png","70","70","test","","","","7","",""
"null","282290","pSARL_v2","pSARL_v2tlbz6rxu","6164d593d3783a588b11017b","fixation","img/fixation.png","null","","test","","","","","",""
"260.79999999981374","282575","pSARL_v2","pSARL_v2tlbz6rxu","6164d593d3783a588b11017b","freq","img/green_2bandit_b2.png","70","70","test","1","155","155","7","",""
"null","283137","pSARL_v2","pSARL_v2tlbz6rxu","6164d593d3783a588b11017b","freq_resp","img/green_2bandit_b.png","70","70","test","","","","7","",""
"null","283308","pSARL_v2","pSARL_v2tlbz6rxu","6164d593d3783a588b11017b","fixation","img/fixation.png","null","","test","","","","","",""
"270.70000000018626","283600","pSARL_v2","pSARL_v2tlbz6rxu","6164d593d3783a588b11017b","freq","img/green_2bandit_b2.png","70","70","test","1","156","156","7","",""
"null","284151","pSARL_v2","pSARL_v2tlbz6rxu","6164d593d3783a588b11017b","freq_resp","img/green_2bandit_b.png","70","70","test","","","","7","",""
"null","284326","pSARL_v2","pSARL_v2tlbz6rxu","6164d593d3783a588b11017b","fixation","img/fixation.png","null","","test","","","","","",""
"330.3000000002794","284683","pSARL_v2","pSARL_v2tlbz6rxu","6164d593d3783a588b11017b","freq","img/green_2bandit_b2.png","70","70","test","1","157","157","7","",""
"null","285173","pSARL_v2","pSARL_v2tlbz6rxu","6164d593d3783a588b11017b","freq_resp","img/green_2bandit_b.png","70","70","test","","","","7","",""
"null","285346","pSARL_v2","pSARL_v2tlbz6rxu","6164d593d3783a588b11017b","fixation","img/fixation.png","null","","test","","","","","",""
"280.10000000009313","285650","pSARL_v2","pSARL_v2tlbz6rxu","6164d593d3783a588b11017b","freq","img/green_2bandit_b2.png","70","70","test","1","158","158","7","",""
"null","286193","pSARL_v2","pSARL_v2tlbz6rxu","6164d593d3783a588b11017b","freq_resp","img/green_2bandit_b.png","70","70","test","","","","7","",""
"null","286361","pSARL_v2","pSARL_v2tlbz6rxu","6164d593d3783a588b11017b","fixation","img/fixation.png","null","","test","","","","","",""
"271.89999999990687","286655","pSARL_v2","pSARL_v2tlbz6rxu","6164d593d3783a588b11017b","freq","img/green_2bandit_b2.png","70","70","test","1","159","159","7","",""
"null","287206","pSARL_v2","pSARL_v2tlbz6rxu","6164d593d3783a588b11017b","freq_resp","img/green_2bandit_b.png","70","70","test","","","","7","",""
"null","287380","pSARL_v2","pSARL_v2tlbz6rxu","6164d593d3783a588b11017b","fixation","img/fixation.png","null","","test","","","","","",""
"293.5","287696","pSARL_v2","pSARL_v2tlbz6rxu","6164d593d3783a588b11017b","freq","img/green_2bandit_b2.png","70","70","test","1","160","160","7","",""
"null","288226","pSARL_v2","pSARL_v2tlbz6rxu","6164d593d3783a588b11017b","freq_resp","img/green_2bandit_b.png","70","70","test","","","","7","",""
"null","288402","pSARL_v2","pSARL_v2tlbz6rxu","6164d593d3783a588b11017b","fixation","img/fixation.png","null","","test","","","","","",""
"207.5","288630","pSARL_v2","pSARL_v2tlbz6rxu","6164d593d3783a588b11017b","freq","img/green_2bandit_b2.png","70","70","test","1","161","161","7","",""
"null","289246","pSARL_v2","pSARL_v2tlbz6rxu","6164d593d3783a588b11017b","freq_resp","img/green_2bandit_b.png","70","70","test","","","","7","",""
"null","289421","pSARL_v2","pSARL_v2tlbz6rxu","6164d593d3783a588b11017b","fixation","img/fixation.png","null","","test","","","","","",""
"239.8000000002794","289682","pSARL_v2","pSARL_v2tlbz6rxu","6164d593d3783a588b11017b","freq","img/green_2bandit_b2.png","70","70","test","1","162","162","7","",""
"null","290267","pSARL_v2","pSARL_v2tlbz6rxu","6164d593d3783a588b11017b","freq_resp","img/green_2bandit_b.png","70","70","test","","","","7","",""
"null","290439","pSARL_v2","pSARL_v2tlbz6rxu","6164d593d3783a588b11017b","fixation","img/fixation.png","null","","test","","","","","",""
"287.5","290749","pSARL_v2","pSARL_v2tlbz6rxu","6164d593d3783a588b11017b","freq","img/green_2bandit_b2.png","70","70","test","1","163","163","7","",""
"null","291289","pSARL_v2","pSARL_v2tlbz6rxu","6164d593d3783a588b11017b","freq_resp","img/green_2bandit_b.png","70","70","test","","","","7","",""
"null","291458","pSARL_v2","pSARL_v2tlbz6rxu","6164d593d3783a588b11017b","fixation","img/fixation.png","null","","test","","","","","",""
"421.20000000018626","291899","pSARL_v2","pSARL_v2tlbz6rxu","6164d593d3783a588b11017b","reward","img/slot.png","74","","test","","","","","",""
"null","292671","pSARL_v2","pSARL_v2tlbz6rxu","6164d593d3783a588b11017b","points","<div class=""verylowPoints""> -6 </div>","null","na","test","","","","7","-6","6"
"485.39999999990687","293177","pSARL_v2","pSARL_v2tlbz6rxu","6164d593d3783a588b11017b","freq","img/green_2bandit_b2.png","70","70","test","1","164","164","8","",""
"null","293513","pSARL_v2","pSARL_v2tlbz6rxu","6164d593d3783a588b11017b","freq_resp","img/green_2bandit_b.png","70","70","test","","","","8","",""
"null","293688","pSARL_v2","pSARL_v2tlbz6rxu","6164d593d3783a588b11017b","fixation","img/fixation.png","null","","test","","","","","",""
"364.3000000002794","294075","pSARL_v2","pSARL_v2tlbz6rxu","6164d593d3783a588b11017b","freq","img/green_2bandit_b2.png","70","70","test","1","165","165","8","",""
"null","294530","pSARL_v2","pSARL_v2tlbz6rxu","6164d593d3783a588b11017b","freq_resp","img/green_2bandit_b.png","70","70","test","","","","8","",""
"null","294704","pSARL_v2","pSARL_v2tlbz6rxu","6164d593d3783a588b11017b","fixation","img/fixation.png","null","","test","","","","","",""
"266.5","294992","pSARL_v2","pSARL_v2tlbz6rxu","6164d593d3783a588b11017b","freq","img/green_2bandit_b2.png","70","70","test","1","166","166","8","",""
"null","295547","pSARL_v2","pSARL_v2tlbz6rxu","6164d593d3783a588b11017b","freq_resp","img/green_2bandit_b.png","70","70","test","","","","8","",""
"null","295720","pSARL_v2","pSARL_v2tlbz6rxu","6164d593d3783a588b11017b","fixation","img/fixation.png","null","","test","","","","","",""
"280.29999999981374","296022","pSARL_v2","pSARL_v2tlbz6rxu","6164d593d3783a588b11017b","freq","img/green_2bandit_b2.png","70","70","test","1","167","167","8","",""
"null","296564","pSARL_v2","pSARL_v2tlbz6rxu","6164d593d3783a588b11017b","freq_resp","img/green_2bandit_b.png","70","70","test","","","","8","",""
"null","296736","pSARL_v2","pSARL_v2tlbz6rxu","6164d593d3783a588b11017b","fixation","img/fixation.png","null","","test","","","","","",""
"270.1999999997206","297027","pSARL_v2","pSARL_v2tlbz6rxu","6164d593d3783a588b11017b","freq","img/green_2bandit_b2.png","70","70","test","1","168","168","8","",""
"null","297578","pSARL_v2","pSARL_v2tlbz6rxu","6164d593d3783a588b11017b","freq_resp","img/green_2bandit_b.png","70","70","test","","","","8","",""
"null","297752","pSARL_v2","pSARL_v2tlbz6rxu","6164d593d3783a588b11017b","fixation","img/fixation.png","null","","test","","","","","",""
"276.6999999997206","298051","pSARL_v2","pSARL_v2tlbz6rxu","6164d593d3783a588b11017b","freq","img/green_2bandit_b2.png","70","70","test","1","169","169","8","",""
"null","298597","pSARL_v2","pSARL_v2tlbz6rxu","6164d593d3783a588b11017b","freq_resp","img/green_2bandit_b.png","70","70","test","","","","8","",""
"null","298769","pSARL_v2","pSARL_v2tlbz6rxu","6164d593d3783a588b11017b","fixation","img/fixation.png","null","","test","","","","","",""
"251.79999999981374","299042","pSARL_v2","pSARL_v2tlbz6rxu","6164d593d3783a588b11017b","freq","img/green_2bandit_b2.png","70","70","test","1","170","170","8","",""
"null","299615","pSARL_v2","pSARL_v2tlbz6rxu","6164d593d3783a588b11017b","freq_resp","img/green_2bandit_b.png","70","70","test","","","","8","",""
"null","299789","pSARL_v2","pSARL_v2tlbz6rxu","6164d593d3783a588b11017b","fixation","img/fixation.png","null","","test","","","","","",""
"333.1999999997206","300143","pSARL_v2","pSARL_v2tlbz6rxu","6164d593d3783a588b11017b","freq","img/green_2bandit_b2.png","70","70","test","1","171","171","8","",""
"null","300636","pSARL_v2","pSARL_v2tlbz6rxu","6164d593d3783a588b11017b","freq_resp","img/green_2bandit_b.png","70","70","test","","","","8","",""
"null","300803","pSARL_v2","pSARL_v2tlbz6rxu","6164d593d3783a588b11017b","fixation","img/fixation.png","null","","test","","","","","",""
"288.60000000009313","301111","pSARL_v2","pSARL_v2tlbz6rxu","6164d593d3783a588b11017b","freq","img/green_2bandit_b2.png","70","70","test","1","172","172","8","",""
"null","301643","pSARL_v2","pSARL_v2tlbz6rxu","6164d593d3783a588b11017b","freq_resp","img/green_2bandit_b.png","70","70","test","","","","8","",""
"null","301816","pSARL_v2","pSARL_v2tlbz6rxu","6164d593d3783a588b11017b","fixation","img/fixation.png","null","","test","","","","","",""
"256.89999999990687","302096","pSARL_v2","pSARL_v2tlbz6rxu","6164d593d3783a588b11017b","freq","img/green_2bandit_b2.png","70","70","test","1","173","173","8","",""
"null","302671","pSARL_v2","pSARL_v2tlbz6rxu","6164d593d3783a588b11017b","freq_resp","img/green_2bandit_b.png","70","70","test","","","","8","",""
"null","302844","pSARL_v2","pSARL_v2tlbz6rxu","6164d593d3783a588b11017b","fixation","img/fixation.png","null","","test","","","","","",""
"317.5","303184","pSARL_v2","pSARL_v2tlbz6rxu","6164d593d3783a588b11017b","infreq","img/orange_2bandit_b2.png","68","68","test","1","174","174","8","",""
"null","303688","pSARL_v2","pSARL_v2tlbz6rxu","6164d593d3783a588b11017b","infreq_resp","img/orange_2bandit_b.png","68","68","test","","","","8","",""
"null","303861","pSARL_v2","pSARL_v2tlbz6rxu","6164d593d3783a588b11017b","fixation","img/fixation.png","null","","test","","","","","",""
"192.40000000037253","304076","pSARL_v2","pSARL_v2tlbz6rxu","6164d593d3783a588b11017b","freq","img/green_2bandit_b2.png","70","70","test","1","175","175","8","",""
"null","304705","pSARL_v2","pSARL_v2tlbz6rxu","6164d593d3783a588b11017b","freq_resp","img/green_2bandit_b.png","70","70","test","","","","8","",""
"null","304877","pSARL_v2","pSARL_v2tlbz6rxu","6164d593d3783a588b11017b","fixation","img/fixation.png","null","","test","","","","","",""
"82.60000000009313","304980","pSARL_v2","pSARL_v2tlbz6rxu","6164d593d3783a588b11017b","freq","img/green_2bandit_b2.png","70","70","test","1","176","176","8","",""
"null","305721","pSARL_v2","pSARL_v2tlbz6rxu","6164d593d3783a588b11017b","freq_resp","img/green_2bandit_b.png","70","70","test","","","","8","",""
"null","305893","pSARL_v2","pSARL_v2tlbz6rxu","6164d593d3783a588b11017b","fixation","img/fixation.png","null","","test","","","","","",""
"59.299999999813735","305977","pSARL_v2","pSARL_v2tlbz6rxu","6164d593d3783a588b11017b","freq","img/green_2bandit_b2.png","70","70","test","1","177","177","8","",""
"null","306740","pSARL_v2","pSARL_v2tlbz6rxu","6164d593d3783a588b11017b","freq_resp","img/green_2bandit_b.png","70","70","test","","","","8","",""
"null","306914","pSARL_v2","pSARL_v2tlbz6rxu","6164d593d3783a588b11017b","fixation","img/fixation.png","null","","test","","","","","",""
"83.39999999990687","307020","pSARL_v2","pSARL_v2tlbz6rxu","6164d593d3783a588b11017b","freq","img/green_2bandit_b2.png","70","70","test","1","178","178","8","",""
"null","307760","pSARL_v2","pSARL_v2tlbz6rxu","6164d593d3783a588b11017b","freq_resp","img/green_2bandit_b.png","70","70","test","","","","8","",""
"null","307932","pSARL_v2","pSARL_v2tlbz6rxu","6164d593d3783a588b11017b","fixation","img/fixation.png","null","","test","","","","","",""
"44.200000000186265","307997","pSARL_v2","pSARL_v2tlbz6rxu","6164d593d3783a588b11017b","freq","img/green_2bandit_b2.png","70","70","test","1","179","179","8","",""
"null","308776","pSARL_v2","pSARL_v2tlbz6rxu","6164d593d3783a588b11017b","freq_resp","img/green_2bandit_b.png","70","70","test","","","","8","",""
"null","308943","pSARL_v2","pSARL_v2tlbz6rxu","6164d593d3783a588b11017b","fixation","img/fixation.png","null","","test","","","","","",""
"73.10000000009313","309037","pSARL_v2","pSARL_v2tlbz6rxu","6164d593d3783a588b11017b","freq","img/green_2bandit_b2.png","70","70","test","1","180","180","8","",""
"null","309787","pSARL_v2","pSARL_v2tlbz6rxu","6164d593d3783a588b11017b","freq_resp","img/green_2bandit_b.png","70","70","test","","","","8","",""
"null","309957","pSARL_v2","pSARL_v2tlbz6rxu","6164d593d3783a588b11017b","fixation","img/fixation.png","null","","test","","","","","",""
"243.3000000002794","310222","pSARL_v2","pSARL_v2tlbz6rxu","6164d593d3783a588b11017b","freq","img/green_2bandit_b2.png","70","70","test","1","181","181","8","",""
"null","310801","pSARL_v2","pSARL_v2tlbz6rxu","6164d593d3783a588b11017b","freq_resp","img/green_2bandit_b.png","70","70","test","","","","8","",""
"null","310972","pSARL_v2","pSARL_v2tlbz6rxu","6164d593d3783a588b11017b","fixation","img/fixation.png","null","","test","","","","","",""
"272.3000000002794","311268","pSARL_v2","pSARL_v2tlbz6rxu","6164d593d3783a588b11017b","freq","img/green_2bandit_b2.png","70","70","test","1","182","182","8","",""
"null","311818","pSARL_v2","pSARL_v2tlbz6rxu","6164d593d3783a588b11017b","freq_resp","img/green_2bandit_b.png","70","70","test","","","","8","",""
"null","311989","pSARL_v2","pSARL_v2tlbz6rxu","6164d593d3783a588b11017b","fixation","img/fixation.png","null","","test","","","","","",""
"252.5","312264","pSARL_v2","pSARL_v2tlbz6rxu","6164d593d3783a588b11017b","freq","img/green_2bandit_b2.png","70","70","test","1","183","183","8","",""
"null","312834","pSARL_v2","pSARL_v2tlbz6rxu","6164d593d3783a588b11017b","freq_resp","img/green_2bandit_b.png","70","70","test","","","","8","",""
"null","313005","pSARL_v2","pSARL_v2tlbz6rxu","6164d593d3783a588b11017b","fixation","img/fixation.png","null","","test","","","","","",""
"283.60000000009313","313311","pSARL_v2","pSARL_v2tlbz6rxu","6164d593d3783a588b11017b","freq","img/green_2bandit_b2.png","70","70","test","1","184","184","8","",""
"null","313849","pSARL_v2","pSARL_v2tlbz6rxu","6164d593d3783a588b11017b","freq_resp","img/green_2bandit_b.png","70","70","test","","","","8","",""
"null","314021","pSARL_v2","pSARL_v2tlbz6rxu","6164d593d3783a588b11017b","fixation","img/fixation.png","null","","test","","","","","",""
"270","314312","pSARL_v2","pSARL_v2tlbz6rxu","6164d593d3783a588b11017b","freq","img/green_2bandit_b2.png","70","70","test","1","185","185","8","",""
"null","314863","pSARL_v2","pSARL_v2tlbz6rxu","6164d593d3783a588b11017b","freq_resp","img/green_2bandit_b.png","70","70","test","","","","8","",""
"null","315036","pSARL_v2","pSARL_v2tlbz6rxu","6164d593d3783a588b11017b","fixation","img/fixation.png","null","","test","","","","","",""
"400.79999999981374","315458","pSARL_v2","pSARL_v2tlbz6rxu","6164d593d3783a588b11017b","infreq","img/orange_2bandit_b2.png","68","68","test","1","186","186","8","",""
"null","315879","pSARL_v2","pSARL_v2tlbz6rxu","6164d593d3783a588b11017b","infreq_resp","img/orange_2bandit_b.png","68","68","test","","","","8","",""
"null","316052","pSARL_v2","pSARL_v2tlbz6rxu","6164d593d3783a588b11017b","fixation","img/fixation.png","null","","test","","","","","",""
"205","316277","pSARL_v2","pSARL_v2tlbz6rxu","6164d593d3783a588b11017b","freq","img/green_2bandit_b2.png","70","70","test","1","187","187","8","",""
"null","316895","pSARL_v2","pSARL_v2tlbz6rxu","6164d593d3783a588b11017b","freq_resp","img/green_2bandit_b.png","70","70","test","","","","8","",""
"null","317068","pSARL_v2","pSARL_v2tlbz6rxu","6164d593d3783a588b11017b","fixation","img/fixation.png","null","","test","","","","","",""
"11.100000000093132","317099","pSARL_v2","pSARL_v2tlbz6rxu","6164d593d3783a588b11017b","freq","img/green_2bandit_b2.png","70","70","test","1","188","188","8","",""
"null","317915","pSARL_v2","pSARL_v2tlbz6rxu","6164d593d3783a588b11017b","freq_resp","img/green_2bandit_b.png","70","70","test","","","","8","",""
"null","318093","pSARL_v2","pSARL_v2tlbz6rxu","6164d593d3783a588b11017b","fixation","img/fixation.png","null","","test","","","","","",""
"54.299999999813735","318170","pSARL_v2","pSARL_v2tlbz6rxu","6164d593d3783a588b11017b","freq","img/green_2bandit_b2.png","70","70","test","1","189","189","8","",""
"null","318939","pSARL_v2","pSARL_v2tlbz6rxu","6164d593d3783a588b11017b","freq_resp","img/green_2bandit_b.png","70","70","test","","","","8","",""
"null","319110","pSARL_v2","pSARL_v2tlbz6rxu","6164d593d3783a588b11017b","fixation","img/fixation.png","null","","test","","","","","",""
"670.6000000000931","319803","pSARL_v2","pSARL_v2tlbz6rxu","6164d593d3783a588b11017b","reward","img/slot.png","74","","test","","","","","",""
"null","320577","pSARL_v2","pSARL_v2tlbz6rxu","6164d593d3783a588b11017b","points","<div class=""verylowPoints""> -4 </div>","null","na","test","","","","8","-4","7"
"null","321401","pSARL_v2","pSARL_v2tlbz6rxu","6164d593d3783a588b11017b","freq","img/green_2bandit_b2.png","null","70","test","0","190","190","9","",""
"null","321575","pSARL_v2","pSARL_v2tlbz6rxu","6164d593d3783a588b11017b","fixation","img/fixation.png","null","","test","","","","","",""
"551.7000000001863","322149","pSARL_v2","pSARL_v2tlbz6rxu","6164d593d3783a588b11017b","freq","img/green_2bandit_b2.png","70","70","test","1","191","191","9","",""
"null","322420","pSARL_v2","pSARL_v2tlbz6rxu","6164d593d3783a588b11017b","freq_resp","img/green_2bandit_b.png","70","70","test","","","","9","",""
"null","322593","pSARL_v2","pSARL_v2tlbz6rxu","6164d593d3783a588b11017b","fixation","img/fixation.png","null","","test","","","","","",""
"320.6999999997206","322936","pSARL_v2","pSARL_v2tlbz6rxu","6164d593d3783a588b11017b","freq","img/green_2bandit_b2.png","70","70","test","1","192","192","9","",""
"null","323437","pSARL_v2","pSARL_v2tlbz6rxu","6164d593d3783a588b11017b","freq_resp","img/green_2bandit_b.png","70","70","test","","","","9","",""
"null","323609","pSARL_v2","pSARL_v2tlbz6rxu","6164d593d3783a588b11017b","fixation","img/fixation.png","null","","test","","","","","",""
"287.1999999997206","323918","pSARL_v2","pSARL_v2tlbz6rxu","6164d593d3783a588b11017b","freq","img/green_2bandit_b2.png","70","70","test","1","193","193","9","",""
"null","324451","pSARL_v2","pSARL_v2tlbz6rxu","6164d593d3783a588b11017b","freq_resp","img/green_2bandit_b.png","70","70","test","","","","9","",""
"null","324624","pSARL_v2","pSARL_v2tlbz6rxu","6164d593d3783a588b11017b","fixation","img/fixation.png","null","","test","","","","","",""
"232.5","324878","pSARL_v2","pSARL_v2tlbz6rxu","6164d593d3783a588b11017b","freq","img/green_2bandit_b2.png","70","70","test","1","194","194","9","",""
"null","325469","pSARL_v2","pSARL_v2tlbz6rxu","6164d593d3783a588b11017b","freq_resp","img/green_2bandit_b.png","70","70","test","","","","9","",""
"null","325642","pSARL_v2","pSARL_v2tlbz6rxu","6164d593d3783a588b11017b","fixation","img/fixation.png","null","","test","","","","","",""
"75.79999999981374","325741","pSARL_v2","pSARL_v2tlbz6rxu","6164d593d3783a588b11017b","freq","img/green_2bandit_b2.png","70","70","test","1","195","195","9","",""
"null","326487","pSARL_v2","pSARL_v2tlbz6rxu","6164d593d3783a588b11017b","freq_resp","img/green_2bandit_b.png","70","70","test","","","","9","",""
"null","326665","pSARL_v2","pSARL_v2tlbz6rxu","6164d593d3783a588b11017b","fixation","img/fixation.png","null","","test","","","","","",""
"81.3000000002794","326767","pSARL_v2","pSARL_v2tlbz6rxu","6164d593d3783a588b11017b","freq","img/green_2bandit_b2.png","70","70","test","1","196","196","9","",""
"null","327511","pSARL_v2","pSARL_v2tlbz6rxu","6164d593d3783a588b11017b","freq_resp","img/green_2bandit_b.png","70","70","test","","","","9","",""
"null","327679","pSARL_v2","pSARL_v2tlbz6rxu","6164d593d3783a588b11017b","fixation","img/fixation.png","null","","test","","","","","",""
"149.39999999990687","327850","pSARL_v2","pSARL_v2tlbz6rxu","6164d593d3783a588b11017b","freq","img/green_2bandit_b2.png","70","70","test","1","197","197","9","",""
"null","328519","pSARL_v2","pSARL_v2tlbz6rxu","6164d593d3783a588b11017b","freq_resp","img/green_2bandit_b.png","70","70","test","","","","9","",""
"null","328690","pSARL_v2","pSARL_v2tlbz6rxu","6164d593d3783a588b11017b","fixation","img/fixation.png","null","","test","","","","","",""
"292.10000000009313","329003","pSARL_v2","pSARL_v2tlbz6rxu","6164d593d3783a588b11017b","freq","img/green_2bandit_b2.png","70","70","test","1","198","198","9","",""
"null","329533","pSARL_v2","pSARL_v2tlbz6rxu","6164d593d3783a588b11017b","freq_resp","img/green_2bandit_b.png","70","70","test","","","","9","",""
"null","329704","pSARL_v2","pSARL_v2tlbz6rxu","6164d593d3783a588b11017b","fixation","img/fixation.png","null","","test","","","","","",""
"273.10000000009313","330001","pSARL_v2","pSARL_v2tlbz6rxu","6164d593d3783a588b11017b","freq","img/green_2bandit_b2.png","70","70","test","1","199","199","9","",""
"null","330556","pSARL_v2","pSARL_v2tlbz6rxu","6164d593d3783a588b11017b","freq_resp","img/green_2bandit_b.png","70","70","test","","","","9","",""
"null","330737","pSARL_v2","pSARL_v2tlbz6rxu","6164d593d3783a588b11017b","fixation","img/fixation.png","null","","test","","","","","",""
"null","331559","pSARL_v2","pSARL_v2tlbz6rxu","6164d593d3783a588b11017b","freq","img/green_2bandit_b2.png","null","70","test","0","200","200","9","",""
"null","331729","pSARL_v2","pSARL_v2tlbz6rxu","6164d593d3783a588b11017b","fixation","img/fixation.png","null","","test","","","","","",""
"537.7000000001863","332286","pSARL_v2","pSARL_v2tlbz6rxu","6164d593d3783a588b11017b","infreq","img/orange_2bandit_b2.png","68","68","test","1","201","201","9","",""
"null","332570","pSARL_v2","pSARL_v2tlbz6rxu","6164d593d3783a588b11017b","infreq_resp","img/orange_2bandit_b.png","68","68","test","","","","9","",""
"null","332742","pSARL_v2","pSARL_v2tlbz6rxu","6164d593d3783a588b11017b","fixation","img/fixation.png","null","","test","","","","","",""
"265.89999999990687","333029","pSARL_v2","pSARL_v2tlbz6rxu","6164d593d3783a588b11017b","freq","img/green_2bandit_b2.png","68","70","test","0","202","202","9","",""
"null","333585","pSARL_v2","pSARL_v2tlbz6rxu","6164d593d3783a588b11017b","freq_resp","img/green_2bandit_b.png","68","70","test","","","","9","",""
"null","333758","pSARL_v2","pSARL_v2tlbz6rxu","6164d593d3783a588b11017b","fixation","img/fixation.png","null","","test","","","","","",""
"249.1999999997206","334028","pSARL_v2","pSARL_v2tlbz6rxu","6164d593d3783a588b11017b","freq","img/green_2bandit_b2.png","70","70","test","1","203","203","9","",""
"null","334602","pSARL_v2","pSARL_v2tlbz6rxu","6164d593d3783a588b11017b","freq_resp","img/green_2bandit_b.png","70","70","test","","","","9","",""
"null","334774","pSARL_v2","pSARL_v2tlbz6rxu","6164d593d3783a588b11017b","fixation","img/fixation.png","null","","test","","","","","",""
"48.6999999997206","334843","pSARL_v2","pSARL_v2tlbz6rxu","6164d593d3783a588b11017b","freq","img/green_2bandit_b2.png","70","70","test","1","204","204","9","",""
"null","335617","pSARL_v2","pSARL_v2tlbz6rxu","6164d593d3783a588b11017b","freq_resp","img/green_2bandit_b.png","70","70","test","","","","9","",""
"null","335792","pSARL_v2","pSARL_v2tlbz6rxu","6164d593d3783a588b11017b","fixation","img/fixation.png","null","","test","","","","","",""
"573.8999999999069","336388","pSARL_v2","pSARL_v2tlbz6rxu","6164d593d3783a588b11017b","infreq","img/orange_2bandit_b2.png","68","68","test","1","205","205","9","",""
"null","336636","pSARL_v2","pSARL_v2tlbz6rxu","6164d593d3783a588b11017b","infreq_resp","img/orange_2bandit_b.png","68","68","test","","","","9","",""
"null","336806","pSARL_v2","pSARL_v2tlbz6rxu","6164d593d3783a588b11017b","fixation","img/fixation.png","null","","test","","","","","",""
"337.3000000002794","337167","pSARL_v2","pSARL_v2tlbz6rxu","6164d593d3783a588b11017b","freq","img/green_2bandit_b2.png","70","70","test","1","206","206","9","",""
