"rt","time_elapsed","expId","subject","prolificID","trialType","stimulus","key_press","corrresp","phase","corr","trialNum","attentionRunNum","blockNum","points","rlNum"
"15341.400000095367","15347","pSARL_v2","pSARL_v2v83d1x06","630a8feaa8eef385f72dc1a5","","","","","","","","","","",""
"","22492","pSARL_v2","pSARL_v2v83d1x06","630a8feaa8eef385f72dc1a5","fullscreen","","","","","","","","","",""
"162987.70000004768","185486","pSARL_v2","pSARL_v2v83d1x06","630a8feaa8eef385f72dc1a5","","","","","","","","","","",""
"null","186307","pSARL_v2","pSARL_v2v83d1x06","630a8feaa8eef385f72dc1a5","freqPrac","img/orange_2bandit_a2.png","null","70","prac","0","","","","",""
"null","187323","pSARL_v2","pSARL_v2v83d1x06","630a8feaa8eef385f72dc1a5","feedback","img/tooSlow.png","null","na","prac","","","","","",""
"null","187479","pSARL_v2","pSARL_v2v83d1x06","630a8feaa8eef385f72dc1a5","fixation","img/fixation.png","null","","prac","","","","","",""
"103.89999985694885","187586","pSARL_v2","pSARL_v2v83d1x06","630a8feaa8eef385f72dc1a5","infreqPrac","img/green_2bandit_a2.png","70","68","prac","0","","","","",""
"103.89999985694885","188292","pSARL_v2","pSARL_v2v83d1x06","630a8feaa8eef385f72dc1a5","infreqPrac_resp","img/green_2bandit_a.png","70","68","prac","","","","","",""
"null","189307","pSARL_v2","pSARL_v2v83d1x06","630a8feaa8eef385f72dc1a5","feedback","img/wrongKey.png","null","na","prac","","","","","",""
"null","189464","pSARL_v2","pSARL_v2v83d1x06","630a8feaa8eef385f72dc1a5","fixation","img/fixation.png","null","","prac","","","","","",""
"null","190276","pSARL_v2","pSARL_v2v83d1x06","630a8feaa8eef385f72dc1a5","freqPrac","img/orange_2bandit_a2.png","null","70","prac","0","","","","",""
"null","191291","pSARL_v2","pSARL_v2v83d1x06","630a8feaa8eef385f72dc1a5","feedback","img/tooSlow.png","null","na","prac","","","","","",""
"null","191448","pSARL_v2","pSARL_v2v83d1x06","630a8feaa8eef385f72dc1a5","fixation","img/fixation.png","null","","prac","","","","","",""
"null","192260","pSARL_v2","pSARL_v2v83d1x06","630a8feaa8eef385f72dc1a5","infreqPrac","img/green_2bandit_a2.png","null","68","prac","0","","","","",""
"null","193276","pSARL_v2","pSARL_v2v83d1x06","630a8feaa8eef385f72dc1a5","feedback","img/tooSlow.png","null","na","prac","","","","","",""
"null","193432","pSARL_v2","pSARL_v2v83d1x06","630a8feaa8eef385f72dc1a5","fixation","img/fixation.png","null","","prac","","","","","",""
"null","194245","pSARL_v2","pSARL_v2v83d1x06","630a8feaa8eef385f72dc1a5","infreqPrac","img/green_2bandit_a2.png","null","68","prac","0","","","","",""
"null","195260","pSARL_v2","pSARL_v2v83d1x06","630a8feaa8eef385f72dc1a5","feedback","img/tooSlow.png","null","na","prac","","","","","",""
"null","195416","pSARL_v2","pSARL_v2v83d1x06","630a8feaa8eef385f72dc1a5","fixation","img/fixation.png","null","","prac","","","","","",""
"725.7999999523163","196145","pSARL_v2","pSARL_v2v83d1x06","630a8feaa8eef385f72dc1a5","infreqPrac","img/green_2bandit_a2.png","68","68","prac","1","","","","",""
"725.7999999523163","196230","pSARL_v2","pSARL_v2v83d1x06","630a8feaa8eef385f72dc1a5","infreqPrac_resp","img/green_2bandit_a.png","68","68","prac","","","","","",""
"null","196385","pSARL_v2","pSARL_v2v83d1x06","630a8feaa8eef385f72dc1a5","fixation","img/fixation.png","null","","prac","","","","","",""
"null","197198","pSARL_v2","pSARL_v2v83d1x06","630a8feaa8eef385f72dc1a5","freqPrac","img/orange_2bandit_a2.png","null","70","prac","0","","","","",""
"null","198213","pSARL_v2","pSARL_v2v83d1x06","630a8feaa8eef385f72dc1a5","feedback","img/tooSlow.png","null","na","prac","","","","","",""
"null","198370","pSARL_v2","pSARL_v2v83d1x06","630a8feaa8eef385f72dc1a5","fixation","img/fixation.png","null","","prac","","","","","",""
"null","199182","pSARL_v2","pSARL_v2v83d1x06","630a8feaa8eef385f72dc1a5","infreqPrac","img/green_2bandit_a2.png","null","68","prac","0","","","","",""
"null","200198","pSARL_v2","pSARL_v2v83d1x06","630a8feaa8eef385f72dc1a5","feedback","img/tooSlow.png","null","na","prac","","","","","",""
"null","200354","pSARL_v2","pSARL_v2v83d1x06","630a8feaa8eef385f72dc1a5","fixation","img/fixation.png","null","","prac","","","","","",""
"707.2999999523163","201065","pSARL_v2","pSARL_v2v83d1x06","630a8feaa8eef385f72dc1a5","freqPrac","img/orange_2bandit_a2.png","70","70","prac","1","","","","",""
"707.2999999523163","201182","pSARL_v2","pSARL_v2v83d1x06","630a8feaa8eef385f72dc1a5","freqPrac_resp","img/orange_2bandit_a.png","70","70","prac","","","","","",""
"null","201338","pSARL_v2","pSARL_v2v83d1x06","630a8feaa8eef385f72dc1a5","fixation","img/fixation.png","null","","prac","","","","","",""
"783.5999999046326","202125","pSARL_v2","pSARL_v2v83d1x06","630a8feaa8eef385f72dc1a5","freqPrac","img/orange_2bandit_a2.png","68","70","prac","0","","","","",""
"783.5999999046326","202145","pSARL_v2","pSARL_v2v83d1x06","630a8feaa8eef385f72dc1a5","freqPrac_resp","img/orange_2bandit_a.png","68","70","prac","","","","","",""
"null","203151","pSARL_v2","pSARL_v2v83d1x06","630a8feaa8eef385f72dc1a5","feedback","img/wrongKey.png","null","na","prac","","","","","",""
"null","203308","pSARL_v2","pSARL_v2v83d1x06","630a8feaa8eef385f72dc1a5","fixation","img/fixation.png","null","","prac","","","","","",""
"1084692.5999999046","1288014","pSARL_v2","pSARL_v2v83d1x06","630a8feaa8eef385f72dc1a5","","","","","prac","","","","","",""
"2797.5","1290815","pSARL_v2","pSARL_v2v83d1x06","630a8feaa8eef385f72dc1a5","rewardPractice","img/slot.png","74","","prac","","","","","",""
"null","1291584","pSARL_v2","pSARL_v2v83d1x06","630a8feaa8eef385f72dc1a5","feedback","<div class=""veryhighPoints""> +15 </div>","null","na","prac","","","","","",""
"null","1291740","pSARL_v2","pSARL_v2v83d1x06","630a8feaa8eef385f72dc1a5","fixation","img/fixation.png","null","","prac","","","","","",""
"22791.200000047684","1314534","pSARL_v2","pSARL_v2v83d1x06","630a8feaa8eef385f72dc1a5","","","","","prac","","","","","",""
"null","1315349","pSARL_v2","pSARL_v2v83d1x06","630a8feaa8eef385f72dc1a5","freq","img/orange_2bandit_a2.png","null","70","test","0","1","1","1","",""
"null","1315506","pSARL_v2","pSARL_v2v83d1x06","630a8feaa8eef385f72dc1a5","fixation","img/fixation.png","null","","test","","","","","",""
"23.799999952316284","1315533","pSARL_v2","pSARL_v2v83d1x06","630a8feaa8eef385f72dc1a5","freq","img/orange_2bandit_a2.png","70","70","test","1","2","2","1","",""
"null","1316319","pSARL_v2","pSARL_v2v83d1x06","630a8feaa8eef385f72dc1a5","freq_resp","img/orange_2bandit_a.png","70","70","test","","","","1","",""
"null","1316475","pSARL_v2","pSARL_v2v83d1x06","630a8feaa8eef385f72dc1a5","fixation","img/fixation.png","null","","test","","","","","",""
"null","1317287","pSARL_v2","pSARL_v2v83d1x06","630a8feaa8eef385f72dc1a5","infreq","img/green_2bandit_a2.png","null","68","test","0","3","3","1","",""
"null","1317444","pSARL_v2","pSARL_v2v83d1x06","630a8feaa8eef385f72dc1a5","fixation","img/fixation.png","null","","test","","","","","",""
"null","1318256","pSARL_v2","pSARL_v2v83d1x06","630a8feaa8eef385f72dc1a5","freq","img/orange_2bandit_a2.png","null","70","test","0","4","4","1","",""
"null","1318412","pSARL_v2","pSARL_v2v83d1x06","630a8feaa8eef385f72dc1a5","fixation","img/fixation.png","null","","test","","","","","",""
"null","1319224","pSARL_v2","pSARL_v2v83d1x06","630a8feaa8eef385f72dc1a5","freq","img/orange_2bandit_a2.png","null","70","test","0","5","5","1","",""
"null","1319381","pSARL_v2","pSARL_v2v83d1x06","630a8feaa8eef385f72dc1a5","fixation","img/fixation.png","null","","test","","","","","",""
"749.7000000476837","1320134","pSARL_v2","pSARL_v2v83d1x06","630a8feaa8eef385f72dc1a5","freq","img/orange_2bandit_a2.png","70","70","test","1","6","6","1","",""
"null","1320202","pSARL_v2","pSARL_v2v83d1x06","630a8feaa8eef385f72dc1a5","freq_resp","img/orange_2bandit_a.png","70","70","test","","","","1","",""
"null","1320365","pSARL_v2","pSARL_v2v83d1x06","630a8feaa8eef385f72dc1a5","fixation","img/fixation.png","null","","test","","","","","",""
"645.2000000476837","1321013","pSARL_v2","pSARL_v2v83d1x06","630a8feaa8eef385f72dc1a5","freq","img/orange_2bandit_a2.png","70","70","test","1","7","7","1","",""
"null","1321173","pSARL_v2","pSARL_v2v83d1x06","630a8feaa8eef385f72dc1a5","freq_resp","img/orange_2bandit_a.png","70","70","test","","","","1","",""
"null","1321334","pSARL_v2","pSARL_v2v83d1x06","630a8feaa8eef385f72dc1a5","fixation","img/fixation.png","null","","test","","","","","",""
"576.6000001430511","1321914","pSARL_v2","pSARL_v2v83d1x06","630a8feaa8eef385f72dc1a5","freq","img/orange_2bandit_a2.png","70","70","test","1","8","8","1","",""
"null","1322146","pSARL_v2","pSARL_v2v83d1x06","630a8feaa8eef385f72dc1a5","freq_resp","img/orange_2bandit_a.png","70","70","test","","","","1","",""
"null","1322302","pSARL_v2","pSARL_v2v83d1x06","630a8feaa8eef385f72dc1a5","fixation","img/fixation.png","null","","test","","","","","",""
"655.5","1322961","pSARL_v2","pSARL_v2v83d1x06","630a8feaa8eef385f72dc1a5","freq","img/orange_2bandit_a2.png","70","70","test","1","9","9","1","",""
"null","1323115","pSARL_v2","pSARL_v2v83d1x06","630a8feaa8eef385f72dc1a5","freq_resp","img/orange_2bandit_a.png","70","70","test","","","","1","",""
"null","1323271","pSARL_v2","pSARL_v2v83d1x06","630a8feaa8eef385f72dc1a5","fixation","img/fixation.png","null","","test","","","","","",""
"719.4000000953674","1323994","pSARL_v2","pSARL_v2v83d1x06","630a8feaa8eef385f72dc1a5","freq","img/orange_2bandit_a2.png","70","70","test","1","10","10","1","",""
"null","1324092","pSARL_v2","pSARL_v2v83d1x06","630a8feaa8eef385f72dc1a5","freq_resp","img/orange_2bandit_a.png","70","70","test","","","","1","",""
"null","1324256","pSARL_v2","pSARL_v2v83d1x06","630a8feaa8eef385f72dc1a5","fixation","img/fixation.png","null","","test","","","","","",""
"null","1325068","pSARL_v2","pSARL_v2v83d1x06","630a8feaa8eef385f72dc1a5","freq","img/orange_2bandit_a2.png","null","70","test","0","11","11","1","",""
"null","1325225","pSARL_v2","pSARL_v2v83d1x06","630a8feaa8eef385f72dc1a5","fixation","img/fixation.png","null","","test","","","","","",""
"null","1326037","pSARL_v2","pSARL_v2v83d1x06","630a8feaa8eef385f72dc1a5","freq","img/orange_2bandit_a2.png","null","70","test","0","12","12","1","",""
"null","1326194","pSARL_v2","pSARL_v2v83d1x06","630a8feaa8eef385f72dc1a5","fixation","img/fixation.png","null","","test","","","","","",""
"null","1327006","pSARL_v2","pSARL_v2v83d1x06","630a8feaa8eef385f72dc1a5","infreq","img/green_2bandit_a2.png","null","68","test","0","13","13","1","",""
"null","1327162","pSARL_v2","pSARL_v2v83d1x06","630a8feaa8eef385f72dc1a5","fixation","img/fixation.png","null","","test","","","","","",""
"788.2999999523163","1327954","pSARL_v2","pSARL_v2v83d1x06","630a8feaa8eef385f72dc1a5","freq","img/orange_2bandit_a2.png","70","70","test","1","14","14","1","",""
"null","1327968","pSARL_v2","pSARL_v2v83d1x06","630a8feaa8eef385f72dc1a5","freq_resp","img/orange_2bandit_a.png","70","70","test","","","","1","",""
"null","1328131","pSARL_v2","pSARL_v2v83d1x06","630a8feaa8eef385f72dc1a5","fixation","img/fixation.png","null","","test","","","","","",""
"658.7999999523163","1328793","pSARL_v2","pSARL_v2v83d1x06","630a8feaa8eef385f72dc1a5","freq","img/orange_2bandit_a2.png","70","70","test","1","15","15","1","",""
"null","1328943","pSARL_v2","pSARL_v2v83d1x06","630a8feaa8eef385f72dc1a5","freq_resp","img/orange_2bandit_a.png","70","70","test","","","","1","",""
"null","1329100","pSARL_v2","pSARL_v2v83d1x06","630a8feaa8eef385f72dc1a5","fixation","img/fixation.png","null","","test","","","","","",""
"750.9000000953674","1329854","pSARL_v2","pSARL_v2v83d1x06","630a8feaa8eef385f72dc1a5","freq","img/orange_2bandit_a2.png","70","70","test","1","16","16","1","",""
"null","1329921","pSARL_v2","pSARL_v2v83d1x06","630a8feaa8eef385f72dc1a5","freq_resp","img/orange_2bandit_a.png","70","70","test","","","","1","",""
"null","1330084","pSARL_v2","pSARL_v2v83d1x06","630a8feaa8eef385f72dc1a5","fixation","img/fixation.png","null","","test","","","","","",""
"null","1330896","pSARL_v2","pSARL_v2v83d1x06","630a8feaa8eef385f72dc1a5","freq","img/orange_2bandit_a2.png","null","70","test","0","17","17","1","",""
"null","1331053","pSARL_v2","pSARL_v2v83d1x06","630a8feaa8eef385f72dc1a5","fixation","img/fixation.png","null","","test","","","","","",""
"null","1331865","pSARL_v2","pSARL_v2v83d1x06","630a8feaa8eef385f72dc1a5","freq","img/orange_2bandit_a2.png","null","70","test","0","18","18","1","",""
"null","1332021","pSARL_v2","pSARL_v2v83d1x06","630a8feaa8eef385f72dc1a5","fixation","img/fixation.png","null","","test","","","","","",""
"69.10000014305115","1332093","pSARL_v2","pSARL_v2v83d1x06","630a8feaa8eef385f72dc1a5","freq","img/orange_2bandit_a2.png","70","70","test","1","19","19","1","",""
"null","1332834","pSARL_v2","pSARL_v2v83d1x06","630a8feaa8eef385f72dc1a5","freq_resp","img/orange_2bandit_a.png","70","70","test","","","","1","",""
"null","1332990","pSARL_v2","pSARL_v2v83d1x06","630a8feaa8eef385f72dc1a5","fixation","img/fixation.png","null","","test","","","","","",""
"2384.399999856949","1335378","pSARL_v2","pSARL_v2v83d1x06","630a8feaa8eef385f72dc1a5","reward","img/slot.png","74","","test","","","","","",""
"null","1336146","pSARL_v2","pSARL_v2v83d1x06","630a8feaa8eef385f72dc1a5","points","<div class=""verylowPoints""> -6 </div>","null","na","test","","","","1","-6","0"
"null","1336960","pSARL_v2","pSARL_v2v83d1x06","630a8feaa8eef385f72dc1a5","freq","img/orange_2bandit_a2.png","null","70","test","0","20","20","2","",""
"null","1337115","pSARL_v2","pSARL_v2v83d1x06","630a8feaa8eef385f72dc1a5","fixation","img/fixation.png","null","","test","","","","","",""
"474.7000000476837","1337593","pSARL_v2","pSARL_v2v83d1x06","630a8feaa8eef385f72dc1a5","freq","img/orange_2bandit_a2.png","70","70","test","1","21","21","2","",""
"null","1337927","pSARL_v2","pSARL_v2v83d1x06","630a8feaa8eef385f72dc1a5","freq_resp","img/orange_2bandit_a.png","70","70","test","","","","2","",""
"null","1338084","pSARL_v2","pSARL_v2v83d1x06","630a8feaa8eef385f72dc1a5","fixation","img/fixation.png","null","","test","","","","","",""
"506.2000000476837","1338593","pSARL_v2","pSARL_v2v83d1x06","630a8feaa8eef385f72dc1a5","freq","img/orange_2bandit_a2.png","70","70","test","1","22","22","2","",""
"null","1338896","pSARL_v2","pSARL_v2v83d1x06","630a8feaa8eef385f72dc1a5","freq_resp","img/orange_2bandit_a.png","70","70","test","","","","2","",""
"null","1339053","pSARL_v2","pSARL_v2v83d1x06","630a8feaa8eef385f72dc1a5","fixation","img/fixation.png","null","","test","","","","","",""
"317.7000000476837","1339373","pSARL_v2","pSARL_v2v83d1x06","630a8feaa8eef385f72dc1a5","freq","img/orange_2bandit_a2.png","70","70","test","1","23","23","2","",""
"null","1339865","pSARL_v2","pSARL_v2v83d1x06","630a8feaa8eef385f72dc1a5","freq_resp","img/orange_2bandit_a.png","70","70","test","","","","2","",""
"null","1340021","pSARL_v2","pSARL_v2v83d1x06","630a8feaa8eef385f72dc1a5","fixation","img/fixation.png","null","","test","","","","","",""
"9","1340033","pSARL_v2","pSARL_v2v83d1x06","630a8feaa8eef385f72dc1a5","freq","img/orange_2bandit_a2.png","70","70","test","1","24","24","2","",""
"null","1340834","pSARL_v2","pSARL_v2v83d1x06","630a8feaa8eef385f72dc1a5","freq_resp","img/orange_2bandit_a.png","70","70","test","","","","2","",""
"null","1340990","pSARL_v2","pSARL_v2v83d1x06","630a8feaa8eef385f72dc1a5","fixation","img/fixation.png","null","","test","","","","","",""
"740.5","1341734","pSARL_v2","pSARL_v2v83d1x06","630a8feaa8eef385f72dc1a5","freq","img/orange_2bandit_a2.png","70","70","test","1","25","25","2","",""
"null","1341818","pSARL_v2","pSARL_v2v83d1x06","630a8feaa8eef385f72dc1a5","freq_resp","img/orange_2bandit_a.png","70","70","test","","","","2","",""
"null","1341975","pSARL_v2","pSARL_v2v83d1x06","630a8feaa8eef385f72dc1a5","fixation","img/fixation.png","null","","test","","","","","",""
"555.2000000476837","1342533","pSARL_v2","pSARL_v2v83d1x06","630a8feaa8eef385f72dc1a5","freq","img/orange_2bandit_a2.png","70","70","test","1","26","26","2","",""
"null","1342787","pSARL_v2","pSARL_v2v83d1x06","630a8feaa8eef385f72dc1a5","freq_resp","img/orange_2bandit_a.png","70","70","test","","","","2","",""
"null","1342944","pSARL_v2","pSARL_v2v83d1x06","630a8feaa8eef385f72dc1a5","fixation","img/fixation.png","null","","test","","","","","",""
"246.19999980926514","1343193","pSARL_v2","pSARL_v2v83d1x06","630a8feaa8eef385f72dc1a5","freq","img/orange_2bandit_a2.png","70","70","test","1","27","27","2","",""
"null","1343756","pSARL_v2","pSARL_v2v83d1x06","630a8feaa8eef385f72dc1a5","freq_resp","img/orange_2bandit_a.png","70","70","test","","","","2","",""
"null","1343912","pSARL_v2","pSARL_v2v83d1x06","630a8feaa8eef385f72dc1a5","fixation","img/fixation.png","null","","test","","","","","",""
"78.19999980926514","1343994","pSARL_v2","pSARL_v2v83d1x06","630a8feaa8eef385f72dc1a5","freq","img/orange_2bandit_a2.png","70","70","test","1","28","28","2","",""
"null","1344724","pSARL_v2","pSARL_v2v83d1x06","630a8feaa8eef385f72dc1a5","freq_resp","img/orange_2bandit_a.png","70","70","test","","","","2","",""
"null","1344881","pSARL_v2","pSARL_v2v83d1x06","630a8feaa8eef385f72dc1a5","fixation","img/fixation.png","null","","test","","","","","",""
"569.5","1345454","pSARL_v2","pSARL_v2v83d1x06","630a8feaa8eef385f72dc1a5","freq","img/orange_2bandit_a2.png","70","70","test","1","29","29","2","",""
"null","1345694","pSARL_v2","pSARL_v2v83d1x06","630a8feaa8eef385f72dc1a5","freq_resp","img/orange_2bandit_a.png","70","70","test","","","","2","",""
"null","1345850","pSARL_v2","pSARL_v2v83d1x06","630a8feaa8eef385f72dc1a5","fixation","img/fixation.png","null","","test","","","","","",""
"340.2000000476837","1346193","pSARL_v2","pSARL_v2v83d1x06","630a8feaa8eef385f72dc1a5","freq","img/orange_2bandit_a2.png","70","70","test","1","30","30","2","",""
"null","1346662","pSARL_v2","pSARL_v2v83d1x06","630a8feaa8eef385f72dc1a5","freq_resp","img/orange_2bandit_a.png","70","70","test","","","","2","",""
"null","1346818","pSARL_v2","pSARL_v2v83d1x06","630a8feaa8eef385f72dc1a5","fixation","img/fixation.png","null","","test","","","","","",""
"491.7999999523163","1347313","pSARL_v2","pSARL_v2v83d1x06","630a8feaa8eef385f72dc1a5","freq","img/orange_2bandit_a2.png","70","70","test","1","31","31","2","",""
"null","1347631","pSARL_v2","pSARL_v2v83d1x06","630a8feaa8eef385f72dc1a5","freq_resp","img/orange_2bandit_a.png","70","70","test","","","","2","",""
"null","1347787","pSARL_v2","pSARL_v2v83d1x06","630a8feaa8eef385f72dc1a5","fixation","img/fixation.png","null","","test","","","","","",""
"442.7000000476837","1348233","pSARL_v2","pSARL_v2v83d1x06","630a8feaa8eef385f72dc1a5","freq","img/orange_2bandit_a2.png","70","70","test","1","32","32","2","",""
"null","1348600","pSARL_v2","pSARL_v2v83d1x06","630a8feaa8eef385f72dc1a5","freq_resp","img/orange_2bandit_a.png","70","70","test","","","","2","",""
"null","1348756","pSARL_v2","pSARL_v2v83d1x06","630a8feaa8eef385f72dc1a5","fixation","img/fixation.png","null","","test","","","","","",""
"433.30000019073486","1349193","pSARL_v2","pSARL_v2v83d1x06","630a8feaa8eef385f72dc1a5","infreq","img/green_2bandit_a2.png","70","68","test","0","33","33","2","",""
"null","1349568","pSARL_v2","pSARL_v2v83d1x06","630a8feaa8eef385f72dc1a5","infreq_resp","img/green_2bandit_a.png","70","68","test","","","","2","",""
"null","1349724","pSARL_v2","pSARL_v2v83d1x06","630a8feaa8eef385f72dc1a5","fixation","img/fixation.png","null","","test","","","","","",""
"805.7000000476837","1350533","pSARL_v2","pSARL_v2v83d1x06","630a8feaa8eef385f72dc1a5","freq","img/orange_2bandit_a2.png","70","70","test","1","34","34","2","",""
"null","1350693","pSARL_v2","pSARL_v2v83d1x06","630a8feaa8eef385f72dc1a5","fixation","img/fixation.png","null","","test","","","","","",""
"756.6000001430511","1351453","pSARL_v2","pSARL_v2v83d1x06","630a8feaa8eef385f72dc1a5","freq","img/orange_2bandit_a2.png","70","70","test","1","35","35","2","",""
"null","1351507","pSARL_v2","pSARL_v2v83d1x06","630a8feaa8eef385f72dc1a5","freq_resp","img/orange_2bandit_a.png","70","70","test","","","","2","",""
"null","1351664","pSARL_v2","pSARL_v2v83d1x06","630a8feaa8eef385f72dc1a5","fixation","img/fixation.png","null","","test","","","","","",""
"524.5","1352192","pSARL_v2","pSARL_v2v83d1x06","630a8feaa8eef385f72dc1a5","freq","img/orange_2bandit_a2.png","70","70","test","1","36","36","2","",""
"null","1352475","pSARL_v2","pSARL_v2v83d1x06","630a8feaa8eef385f72dc1a5","freq_resp","img/orange_2bandit_a.png","70","70","test","","","","2","",""
"null","1352631","pSARL_v2","pSARL_v2v83d1x06","630a8feaa8eef385f72dc1a5","fixation","img/fixation.png","null","","test","","","","","",""
"null","1353443","pSARL_v2","pSARL_v2v83d1x06","630a8feaa8eef385f72dc1a5","freq","img/orange_2bandit_a2.png","null","70","test","0","37","37","2","",""
"null","1353600","pSARL_v2","pSARL_v2v83d1x06","630a8feaa8eef385f72dc1a5","fixation","img/fixation.png","null","","test","","","","","",""
"null","1354412","pSARL_v2","pSARL_v2v83d1x06","630a8feaa8eef385f72dc1a5","infreq","img/green_2bandit_a2.png","null","68","test","0","38","38","2","",""
"null","1354569","pSARL_v2","pSARL_v2v83d1x06","630a8feaa8eef385f72dc1a5","fixation","img/fixation.png","null","","test","","","","","",""
"null","1355381","pSARL_v2","pSARL_v2v83d1x06","630a8feaa8eef385f72dc1a5","freq","img/orange_2bandit_a2.png","null","70","test","0","39","39","2","",""
"null","1355537","pSARL_v2","pSARL_v2v83d1x06","630a8feaa8eef385f72dc1a5","fixation","img/fixation.png","null","","test","","","","","",""
"532.5999999046326","1356073","pSARL_v2","pSARL_v2v83d1x06","630a8feaa8eef385f72dc1a5","freq","img/orange_2bandit_a2.png","70","70","test","1","40","40","2","",""
"null","1356350","pSARL_v2","pSARL_v2v83d1x06","630a8feaa8eef385f72dc1a5","freq_resp","img/orange_2bandit_a.png","70","70","test","","","","2","",""
"null","1356506","pSARL_v2","pSARL_v2v83d1x06","630a8feaa8eef385f72dc1a5","fixation","img/fixation.png","null","","test","","","","","",""
"703.7000000476837","1357213","pSARL_v2","pSARL_v2v83d1x06","630a8feaa8eef385f72dc1a5","freq","img/orange_2bandit_a2.png","70","70","test","1","41","41","2","",""
"null","1357319","pSARL_v2","pSARL_v2v83d1x06","630a8feaa8eef385f72dc1a5","freq_resp","img/orange_2bandit_a.png","70","70","test","","","","2","",""
"null","1357475","pSARL_v2","pSARL_v2v83d1x06","630a8feaa8eef385f72dc1a5","fixation","img/fixation.png","null","","test","","","","","",""
"614.8999998569489","1358093","pSARL_v2","pSARL_v2v83d1x06","630a8feaa8eef385f72dc1a5","freq","img/orange_2bandit_a2.png","70","70","test","1","42","42","2","",""
"null","1358287","pSARL_v2","pSARL_v2v83d1x06","630a8feaa8eef385f72dc1a5","freq_resp","img/orange_2bandit_a.png","70","70","test","","","","2","",""
"null","1358444","pSARL_v2","pSARL_v2v83d1x06","630a8feaa8eef385f72dc1a5","fixation","img/fixation.png","null","","test","","","","","",""
"705.7999999523163","1359152","pSARL_v2","pSARL_v2v83d1x06","630a8feaa8eef385f72dc1a5","freq","img/orange_2bandit_a2.png","70","70","test","1","43","43","2","",""
"null","1359257","pSARL_v2","pSARL_v2v83d1x06","630a8feaa8eef385f72dc1a5","freq_resp","img/orange_2bandit_a.png","70","70","test","","","","2","",""
"null","1359413","pSARL_v2","pSARL_v2v83d1x06","630a8feaa8eef385f72dc1a5","fixation","img/fixation.png","null","","test","","","","","",""
"638.2999999523163","1360054","pSARL_v2","pSARL_v2v83d1x06","630a8feaa8eef385f72dc1a5","freq","img/orange_2bandit_a2.png","70","70","test","1","44","44","2","",""
"null","1360225","pSARL_v2","pSARL_v2v83d1x06","630a8feaa8eef385f72dc1a5","freq_resp","img/orange_2bandit_a.png","70","70","test","","","","2","",""
"null","1360381","pSARL_v2","pSARL_v2v83d1x06","630a8feaa8eef385f72dc1a5","fixation","img/fixation.png","null","","test","","","","","",""
"609","1360993","pSARL_v2","pSARL_v2v83d1x06","630a8feaa8eef385f72dc1a5","freq","img/orange_2bandit_a2.png","70","70","test","1","45","45","2","",""
"null","1361193","pSARL_v2","pSARL_v2v83d1x06","630a8feaa8eef385f72dc1a5","freq_resp","img/orange_2bandit_a.png","70","70","test","","","","2","",""
"null","1361350","pSARL_v2","pSARL_v2v83d1x06","630a8feaa8eef385f72dc1a5","fixation","img/fixation.png","null","","test","","","","","",""
"1100.5999999046326","1362453","pSARL_v2","pSARL_v2v83d1x06","630a8feaa8eef385f72dc1a5","reward","img/slot.png","74","","test","","","","","",""
"null","1363209","pSARL_v2","pSARL_v2v83d1x06","630a8feaa8eef385f72dc1a5","points","<div class=""verylowPoints""> -11 </div>","null","na","test","","","","2","-11","1"
"null","1364021","pSARL_v2","pSARL_v2v83d1x06","630a8feaa8eef385f72dc1a5","freq","img/orange_2bandit_a2.png","null","70","test","0","46","46","3","",""
"null","1364178","pSARL_v2","pSARL_v2v83d1x06","630a8feaa8eef385f72dc1a5","fixation","img/fixation.png","null","","test","","","","","",""
"72.29999995231628","1364253","pSARL_v2","pSARL_v2v83d1x06","630a8feaa8eef385f72dc1a5","freq","img/orange_2bandit_a2.png","70","70","test","1","47","47","3","",""
"null","1364990","pSARL_v2","pSARL_v2v83d1x06","630a8feaa8eef385f72dc1a5","freq_resp","img/orange_2bandit_a.png","70","70","test","","","","3","",""
"null","1365146","pSARL_v2","pSARL_v2v83d1x06","630a8feaa8eef385f72dc1a5","fixation","img/fixation.png","null","","test","","","","","",""
"725.3000001907349","1365875","pSARL_v2","pSARL_v2v83d1x06","630a8feaa8eef385f72dc1a5","freq","img/orange_2bandit_a2.png","70","70","test","1","48","48","3","",""
"null","1365961","pSARL_v2","pSARL_v2v83d1x06","630a8feaa8eef385f72dc1a5","freq_resp","img/orange_2bandit_a.png","70","70","test","","","","3","",""
"null","1366115","pSARL_v2","pSARL_v2v83d1x06","630a8feaa8eef385f72dc1a5","fixation","img/fixation.png","null","","test","","","","","",""
"675.1999998092651","1366793","pSARL_v2","pSARL_v2v83d1x06","630a8feaa8eef385f72dc1a5","freq","img/orange_2bandit_a2.png","70","70","test","1","49","49","3","",""
"null","1366928","pSARL_v2","pSARL_v2v83d1x06","630a8feaa8eef385f72dc1a5","freq_resp","img/orange_2bandit_a.png","70","70","test","","","","3","",""
"null","1367084","pSARL_v2","pSARL_v2v83d1x06","630a8feaa8eef385f72dc1a5","fixation","img/fixation.png","null","","test","","","","","",""
"585.5","1367672","pSARL_v2","pSARL_v2v83d1x06","630a8feaa8eef385f72dc1a5","freq","img/orange_2bandit_a2.png","70","70","test","1","50","50","3","",""
"null","1367897","pSARL_v2","pSARL_v2v83d1x06","630a8feaa8eef385f72dc1a5","freq_resp","img/orange_2bandit_a.png","70","70","test","","","","3","",""
"null","1368053","pSARL_v2","pSARL_v2v83d1x06","630a8feaa8eef385f72dc1a5","fixation","img/fixation.png","null","","test","","","","","",""
"357.19999980926514","1368413","pSARL_v2","pSARL_v2v83d1x06","630a8feaa8eef385f72dc1a5","infreq","img/green_2bandit_a2.png","70","68","test","0","51","51","3","",""
"null","1368865","pSARL_v2","pSARL_v2v83d1x06","630a8feaa8eef385f72dc1a5","infreq_resp","img/green_2bandit_a.png","70","68","test","","","","3","",""
"null","1369021","pSARL_v2","pSARL_v2v83d1x06","630a8feaa8eef385f72dc1a5","fixation","img/fixation.png","null","","test","","","","","",""
"328.7000000476837","1369353","pSARL_v2","pSARL_v2v83d1x06","630a8feaa8eef385f72dc1a5","freq","img/orange_2bandit_a2.png","68","70","test","0","52","52","3","",""
"null","1369834","pSARL_v2","pSARL_v2v83d1x06","630a8feaa8eef385f72dc1a5","freq_resp","img/orange_2bandit_a.png","68","70","test","","","","3","",""
"null","1369990","pSARL_v2","pSARL_v2v83d1x06","630a8feaa8eef385f72dc1a5","fixation","img/fixation.png","null","","test","","","","","",""
"347.7000000476837","1370341","pSARL_v2","pSARL_v2v83d1x06","630a8feaa8eef385f72dc1a5","freq","img/orange_2bandit_a2.png","70","70","test","1","53","53","3","",""
"null","1370803","pSARL_v2","pSARL_v2v83d1x06","630a8feaa8eef385f72dc1a5","freq_resp","img/orange_2bandit_a.png","70","70","test","","","","3","",""
"null","1370960","pSARL_v2","pSARL_v2v83d1x06","630a8feaa8eef385f72dc1a5","fixation","img/fixation.png","null","","test","","","","","",""
"50","1371013","pSARL_v2","pSARL_v2v83d1x06","630a8feaa8eef385f72dc1a5","freq","img/orange_2bandit_a2.png","70","70","test","1","54","54","3","",""
"null","1371771","pSARL_v2","pSARL_v2v83d1x06","630a8feaa8eef385f72dc1a5","freq_resp","img/orange_2bandit_a.png","70","70","test","","","","3","",""
"null","1371928","pSARL_v2","pSARL_v2v83d1x06","630a8feaa8eef385f72dc1a5","fixation","img/fixation.png","null","","test","","","","","",""
"null","1372740","pSARL_v2","pSARL_v2v83d1x06","630a8feaa8eef385f72dc1a5","freq","img/orange_2bandit_a2.png","null","70","test","0","55","55","3","",""
"null","1372896","pSARL_v2","pSARL_v2v83d1x06","630a8feaa8eef385f72dc1a5","fixation","img/fixation.png","null","","test","","","","","",""
"693.1000001430511","1373593","pSARL_v2","pSARL_v2v83d1x06","630a8feaa8eef385f72dc1a5","freq","img/orange_2bandit_a2.png","70","70","test","1","56","56","3","",""
"null","1373725","pSARL_v2","pSARL_v2v83d1x06","630a8feaa8eef385f72dc1a5","freq_resp","img/orange_2bandit_a.png","70","70","test","","","","3","",""
"null","1373881","pSARL_v2","pSARL_v2v83d1x06","630a8feaa8eef385f72dc1a5","fixation","img/fixation.png","null","","test","","","","","",""
"448.19999980926514","1374333","pSARL_v2","pSARL_v2v83d1x06","630a8feaa8eef385f72dc1a5","freq","img/orange_2bandit_a2.png","70","70","test","1","57","57","3","",""
"null","1374694","pSARL_v2","pSARL_v2v83d1x06","630a8feaa8eef385f72dc1a5","freq_resp","img/orange_2bandit_a.png","70","70","test","","","","3","",""
"null","1374851","pSARL_v2","pSARL_v2v83d1x06","630a8feaa8eef385f72dc1a5","fixation","img/fixation.png","null","","test","","","","","",""
"159.20000004768372","1375013","pSARL_v2","pSARL_v2v83d1x06","630a8feaa8eef385f72dc1a5","freq","img/orange_2bandit_a2.png","70","70","test","1","58","58","3","",""
"null","1375663","pSARL_v2","pSARL_v2v83d1x06","630a8feaa8eef385f72dc1a5","freq_resp","img/orange_2bandit_a.png","70","70","test","","","","3","",""
"null","1375819","pSARL_v2","pSARL_v2v83d1x06","630a8feaa8eef385f72dc1a5","fixation","img/fixation.png","null","","test","","","","","",""
"null","1376632","pSARL_v2","pSARL_v2v83d1x06","630a8feaa8eef385f72dc1a5","freq","img/orange_2bandit_a2.png","null","70","test","0","59","59","3","",""
"null","1376788","pSARL_v2","pSARL_v2v83d1x06","630a8feaa8eef385f72dc1a5","fixation","img/fixation.png","null","","test","","","","","",""
"582.6999998092651","1377374","pSARL_v2","pSARL_v2v83d1x06","630a8feaa8eef385f72dc1a5","freq","img/orange_2bandit_a2.png","70","70","test","1","60","60","3","",""
"null","1377600","pSARL_v2","pSARL_v2v83d1x06","630a8feaa8eef385f72dc1a5","freq_resp","img/orange_2bandit_a.png","70","70","test","","","","3","",""
"null","1377757","pSARL_v2","pSARL_v2v83d1x06","630a8feaa8eef385f72dc1a5","fixation","img/fixation.png","null","","test","","","","","",""
"314.10000014305115","1378074","pSARL_v2","pSARL_v2v83d1x06","630a8feaa8eef385f72dc1a5","infreq","img/green_2bandit_a2.png","70","68","test","0","61","61","3","",""
"null","1378569","pSARL_v2","pSARL_v2v83d1x06","630a8feaa8eef385f72dc1a5","infreq_resp","img/green_2bandit_a.png","70","68","test","","","","3","",""
"null","1378725","pSARL_v2","pSARL_v2v83d1x06","630a8feaa8eef385f72dc1a5","fixation","img/fixation.png","null","","test","","","","","",""
"null","1379538","pSARL_v2","pSARL_v2v83d1x06","630a8feaa8eef385f72dc1a5","freq","img/orange_2bandit_a2.png","null","70","test","0","62","62","3","",""
"null","1379694","pSARL_v2","pSARL_v2v83d1x06","630a8feaa8eef385f72dc1a5","fixation","img/fixation.png","null","","test","","","","","",""
"736.0999999046326","1380433","pSARL_v2","pSARL_v2v83d1x06","630a8feaa8eef385f72dc1a5","freq","img/orange_2bandit_a2.png","70","70","test","1","63","63","3","",""
"null","1380507","pSARL_v2","pSARL_v2v83d1x06","630a8feaa8eef385f72dc1a5","freq_resp","img/orange_2bandit_a.png","70","70","test","","","","3","",""
"null","1380663","pSARL_v2","pSARL_v2v83d1x06","630a8feaa8eef385f72dc1a5","fixation","img/fixation.png","null","","test","","","","","",""
"687.6000001430511","1381354","pSARL_v2","pSARL_v2v83d1x06","630a8feaa8eef385f72dc1a5","freq","img/orange_2bandit_a2.png","70","70","test","1","64","64","3","",""
"null","1381476","pSARL_v2","pSARL_v2v83d1x06","630a8feaa8eef385f72dc1a5","freq_resp","img/orange_2bandit_a.png","70","70","test","","","","3","",""
"null","1381632","pSARL_v2","pSARL_v2v83d1x06","630a8feaa8eef385f72dc1a5","fixation","img/fixation.png","null","","test","","","","","",""
"577.8999998569489","1382213","pSARL_v2","pSARL_v2v83d1x06","630a8feaa8eef385f72dc1a5","freq","img/orange_2bandit_a2.png","70","70","test","1","65","65","3","",""
"null","1382444","pSARL_v2","pSARL_v2v83d1x06","630a8feaa8eef385f72dc1a5","freq_resp","img/orange_2bandit_a.png","70","70","test","","","","3","",""
"null","1382601","pSARL_v2","pSARL_v2v83d1x06","630a8feaa8eef385f72dc1a5","fixation","img/fixation.png","null","","test","","","","","",""
"529.0999999046326","1383133","pSARL_v2","pSARL_v2v83d1x06","630a8feaa8eef385f72dc1a5","freq","img/orange_2bandit_a2.png","70","70","test","1","66","66","3","",""
"null","1383413","pSARL_v2","pSARL_v2v83d1x06","630a8feaa8eef385f72dc1a5","freq_resp","img/orange_2bandit_a.png","70","70","test","","","","3","",""
"null","1383569","pSARL_v2","pSARL_v2v83d1x06","630a8feaa8eef385f72dc1a5","fixation","img/fixation.png","null","","test","","","","","",""
"1940.9000000953674","1385513","pSARL_v2","pSARL_v2v83d1x06","630a8feaa8eef385f72dc1a5","reward","img/slot.png","74","","test","","","","","",""
"null","1386272","pSARL_v2","pSARL_v2v83d1x06","630a8feaa8eef385f72dc1a5","points","<div class=""verylowPoints""> -7 </div>","null","na","test","","","","3","-7","2"
"null","1387085","pSARL_v2","pSARL_v2v83d1x06","630a8feaa8eef385f72dc1a5","freq","img/orange_2bandit_a2.png","null","70","test","0","67","67","4","",""
"null","1387241","pSARL_v2","pSARL_v2v83d1x06","630a8feaa8eef385f72dc1a5","fixation","img/fixation.png","null","","test","","","","","",""
"89.09999990463257","1387333","pSARL_v2","pSARL_v2v83d1x06","630a8feaa8eef385f72dc1a5","freq","img/orange_2bandit_a2.png","70","70","test","1","68","68","4","",""
"null","1388054","pSARL_v2","pSARL_v2v83d1x06","630a8feaa8eef385f72dc1a5","freq_resp","img/orange_2bandit_a.png","70","70","test","","","","4","",""
"null","1388209","pSARL_v2","pSARL_v2v83d1x06","630a8feaa8eef385f72dc1a5","fixation","img/fixation.png","null","","test","","","","","",""
"697.7999999523163","1388911","pSARL_v2","pSARL_v2v83d1x06","630a8feaa8eef385f72dc1a5","freq","img/orange_2bandit_a2.png","70","70","test","1","69","69","4","",""
"null","1389038","pSARL_v2","pSARL_v2v83d1x06","630a8feaa8eef385f72dc1a5","freq_resp","img/orange_2bandit_a.png","70","70","test","","","","4","",""
"null","1389194","pSARL_v2","pSARL_v2v83d1x06","630a8feaa8eef385f72dc1a5","fixation","img/fixation.png","null","","test","","","","","",""
"null","1390007","pSARL_v2","pSARL_v2v83d1x06","630a8feaa8eef385f72dc1a5","freq","img/orange_2bandit_a2.png","null","70","test","0","70","70","4","",""
"null","1390163","pSARL_v2","pSARL_v2v83d1x06","630a8feaa8eef385f72dc1a5","fixation","img/fixation.png","null","","test","","","","","",""
"767","1390933","pSARL_v2","pSARL_v2v83d1x06","630a8feaa8eef385f72dc1a5","freq","img/orange_2bandit_a2.png","70","70","test","1","71","71","4","",""
"null","1390970","pSARL_v2","pSARL_v2v83d1x06","630a8feaa8eef385f72dc1a5","freq_resp","img/orange_2bandit_a.png","70","70","test","","","","4","",""
"null","1391132","pSARL_v2","pSARL_v2v83d1x06","630a8feaa8eef385f72dc1a5","fixation","img/fixation.png","null","","test","","","","","",""
"798.2000000476837","1391933","pSARL_v2","pSARL_v2v83d1x06","630a8feaa8eef385f72dc1a5","freq","img/orange_2bandit_a2.png","70","70","test","1","72","72","4","",""
"null","1391938","pSARL_v2","pSARL_v2v83d1x06","630a8feaa8eef385f72dc1a5","freq_resp","img/orange_2bandit_a.png","70","70","test","","","","4","",""
"null","1392101","pSARL_v2","pSARL_v2v83d1x06","630a8feaa8eef385f72dc1a5","fixation","img/fixation.png","null","","test","","","","","",""
"null","1392913","pSARL_v2","pSARL_v2v83d1x06","630a8feaa8eef385f72dc1a5","freq","img/orange_2bandit_a2.png","null","70","test","0","73","73","4","",""
"null","1393069","pSARL_v2","pSARL_v2v83d1x06","630a8feaa8eef385f72dc1a5","fixation","img/fixation.png","null","","test","","","","","",""
"782.9000000953674","1393855","pSARL_v2","pSARL_v2v83d1x06","630a8feaa8eef385f72dc1a5","freq","img/orange_2bandit_a2.png","70","70","test","1","74","74","4","",""
"null","1393876","pSARL_v2","pSARL_v2v83d1x06","630a8feaa8eef385f72dc1a5","freq_resp","img/orange_2bandit_a.png","70","70","test","","","","4","",""
"null","1394033","pSARL_v2","pSARL_v2v83d1x06","630a8feaa8eef385f72dc1a5","fixation","img/fixation.png","null","","test","","","","","",""
"798.7000000476837","1394835","pSARL_v2","pSARL_v2v83d1x06","630a8feaa8eef385f72dc1a5","freq","img/orange_2bandit_a2.png","70","70","test","1","75","75","4","",""
"null","1394840","pSARL_v2","pSARL_v2v83d1x06","630a8feaa8eef385f72dc1a5","freq_resp","img/orange_2bandit_a.png","70","70","test","","","","4","",""
"null","1395007","pSARL_v2","pSARL_v2v83d1x06","630a8feaa8eef385f72dc1a5","fixation","img/fixation.png","null","","test","","","","","",""
"null","1395819","pSARL_v2","pSARL_v2v83d1x06","630a8feaa8eef385f72dc1a5","infreq","img/green_2bandit_a2.png","null","68","test","0","76","76","4","",""
"null","1395975","pSARL_v2","pSARL_v2v83d1x06","630a8feaa8eef385f72dc1a5","fixation","img/fixation.png","null","","test","","","","","",""
"734.5","1396713","pSARL_v2","pSARL_v2v83d1x06","630a8feaa8eef385f72dc1a5","freq","img/orange_2bandit_a2.png","70","70","test","1","77","77","4","",""
"null","1396796","pSARL_v2","pSARL_v2v83d1x06","630a8feaa8eef385f72dc1a5","freq_resp","img/orange_2bandit_a.png","70","70","test","","","","4","",""
"null","1396960","pSARL_v2","pSARL_v2v83d1x06","630a8feaa8eef385f72dc1a5","fixation","img/fixation.png","null","","test","","","","","",""
"650.8999998569489","1397614","pSARL_v2","pSARL_v2v83d1x06","630a8feaa8eef385f72dc1a5","infreq","img/green_2bandit_a2.png","70","68","test","0","78","78","4","",""
"null","1397772","pSARL_v2","pSARL_v2v83d1x06","630a8feaa8eef385f72dc1a5","infreq_resp","img/green_2bandit_a.png","70","68","test","","","","4","",""
"null","1397928","pSARL_v2","pSARL_v2v83d1x06","630a8feaa8eef385f72dc1a5","fixation","img/fixation.png","null","","test","","","","","",""
"221.89999985694885","1398153","pSARL_v2","pSARL_v2v83d1x06","630a8feaa8eef385f72dc1a5","freq","img/orange_2bandit_a2.png","68","70","test","0","79","79","4","",""
"null","1398741","pSARL_v2","pSARL_v2v83d1x06","630a8feaa8eef385f72dc1a5","freq_resp","img/orange_2bandit_a.png","68","70","test","","","","4","",""
"null","1398897","pSARL_v2","pSARL_v2v83d1x06","630a8feaa8eef385f72dc1a5","fixation","img/fixation.png","null","","test","","","","","",""
"253.09999990463257","1399153","pSARL_v2","pSARL_v2v83d1x06","630a8feaa8eef385f72dc1a5","freq","img/orange_2bandit_a2.png","70","70","test","1","80","80","4","",""
"null","1399709","pSARL_v2","pSARL_v2v83d1x06","630a8feaa8eef385f72dc1a5","freq_resp","img/orange_2bandit_a.png","70","70","test","","","","4","",""
"null","1399866","pSARL_v2","pSARL_v2v83d1x06","630a8feaa8eef385f72dc1a5","fixation","img/fixation.png","null","","test","","","","","",""
"72.10000014305115","1399941","pSARL_v2","pSARL_v2v83d1x06","630a8feaa8eef385f72dc1a5","freq","img/orange_2bandit_a2.png","70","70","test","1","81","81","4","",""
"null","1400679","pSARL_v2","pSARL_v2v83d1x06","630a8feaa8eef385f72dc1a5","freq_resp","img/orange_2bandit_a.png","70","70","test","","","","4","",""
"null","1400835","pSARL_v2","pSARL_v2v83d1x06","630a8feaa8eef385f72dc1a5","fixation","img/fixation.png","null","","test","","","","","",""
"475.60000014305115","1401313","pSARL_v2","pSARL_v2v83d1x06","630a8feaa8eef385f72dc1a5","freq","img/orange_2bandit_a2.png","70","70","test","1","82","82","4","",""
"null","1401649","pSARL_v2","pSARL_v2v83d1x06","630a8feaa8eef385f72dc1a5","freq_resp","img/orange_2bandit_a.png","70","70","test","","","","4","",""
"null","1401803","pSARL_v2","pSARL_v2v83d1x06","630a8feaa8eef385f72dc1a5","fixation","img/fixation.png","null","","test","","","","","",""
"686.4000000953674","1402493","pSARL_v2","pSARL_v2v83d1x06","630a8feaa8eef385f72dc1a5","freq","img/orange_2bandit_a2.png","70","70","test","1","83","83","4","",""
"null","1402632","pSARL_v2","pSARL_v2v83d1x06","630a8feaa8eef385f72dc1a5","freq_resp","img/orange_2bandit_a.png","70","70","test","","","","4","",""
"null","1402788","pSARL_v2","pSARL_v2v83d1x06","630a8feaa8eef385f72dc1a5","fixation","img/fixation.png","null","","test","","","","","",""
"721.9000000953674","1403513","pSARL_v2","pSARL_v2v83d1x06","630a8feaa8eef385f72dc1a5","freq","img/orange_2bandit_a2.png","70","70","test","1","84","84","4","",""
"null","1403601","pSARL_v2","pSARL_v2v83d1x06","630a8feaa8eef385f72dc1a5","freq_resp","img/orange_2bandit_a.png","70","70","test","","","","4","",""
"null","1403757","pSARL_v2","pSARL_v2v83d1x06","630a8feaa8eef385f72dc1a5","fixation","img/fixation.png","null","","test","","","","","",""
"673.5","1404433","pSARL_v2","pSARL_v2v83d1x06","630a8feaa8eef385f72dc1a5","freq","img/orange_2bandit_a2.png","70","70","test","1","85","85","4","",""
"null","1404569","pSARL_v2","pSARL_v2v83d1x06","630a8feaa8eef385f72dc1a5","freq_resp","img/orange_2bandit_a.png","70","70","test","","","","4","",""
"null","1404726","pSARL_v2","pSARL_v2v83d1x06","630a8feaa8eef385f72dc1a5","fixation","img/fixation.png","null","","test","","","","","",""
"504.59999990463257","1405233","pSARL_v2","pSARL_v2v83d1x06","630a8feaa8eef385f72dc1a5","freq","img/orange_2bandit_a2.png","70","70","test","1","86","86","4","",""
"null","1405538","pSARL_v2","pSARL_v2v83d1x06","630a8feaa8eef385f72dc1a5","freq_resp","img/orange_2bandit_a.png","70","70","test","","","","4","",""
"null","1405694","pSARL_v2","pSARL_v2v83d1x06","630a8feaa8eef385f72dc1a5","fixation","img/fixation.png","null","","test","","","","","",""
"null","1406507","pSARL_v2","pSARL_v2v83d1x06","630a8feaa8eef385f72dc1a5","infreq","img/green_2bandit_a2.png","null","68","test","0","87","87","4","",""
"null","1406663","pSARL_v2","pSARL_v2v83d1x06","630a8feaa8eef385f72dc1a5","fixation","img/fixation.png","null","","test","","","","","",""
"747.8999998569489","1407414","pSARL_v2","pSARL_v2v83d1x06","630a8feaa8eef385f72dc1a5","freq","img/orange_2bandit_a2.png","70","70","test","1","88","88","4","",""
"null","1407482","pSARL_v2","pSARL_v2v83d1x06","630a8feaa8eef385f72dc1a5","freq_resp","img/orange_2bandit_a.png","70","70","test","","","","4","",""
"null","1407650","pSARL_v2","pSARL_v2v83d1x06","630a8feaa8eef385f72dc1a5","fixation","img/fixation.png","null","","test","","","","","",""
"740.7999999523163","1408394","pSARL_v2","pSARL_v2v83d1x06","630a8feaa8eef385f72dc1a5","freq","img/orange_2bandit_a2.png","70","70","test","1","89","89","4","",""
"null","1408460","pSARL_v2","pSARL_v2v83d1x06","630a8feaa8eef385f72dc1a5","freq_resp","img/orange_2bandit_a.png","70","70","test","","","","4","",""
"null","1408632","pSARL_v2","pSARL_v2v83d1x06","630a8feaa8eef385f72dc1a5","fixation","img/fixation.png","null","","test","","","","","",""
"958.0999999046326","1409593","pSARL_v2","pSARL_v2v83d1x06","630a8feaa8eef385f72dc1a5","reward","img/slot.png","74","","test","","","","","",""
"null","1410350","pSARL_v2","pSARL_v2v83d1x06","630a8feaa8eef385f72dc1a5","points","<div class=""verylowPoints""> -3 </div>","null","na","test","","","","4","-3","3"
"null","1411163","pSARL_v2","pSARL_v2v83d1x06","630a8feaa8eef385f72dc1a5","freq","img/orange_2bandit_a2.png","null","70","test","0","90","90","5","",""
"null","1411319","pSARL_v2","pSARL_v2v83d1x06","630a8feaa8eef385f72dc1a5","fixation","img/fixation.png","null","","test","","","","","",""
"30.600000143051147","1411353","pSARL_v2","pSARL_v2v83d1x06","630a8feaa8eef385f72dc1a5","freq","img/orange_2bandit_a2.png","70","70","test","1","91","91","5","",""
"null","1412132","pSARL_v2","pSARL_v2v83d1x06","630a8feaa8eef385f72dc1a5","freq_resp","img/orange_2bandit_a.png","70","70","test","","","","5","",""
"null","1412288","pSARL_v2","pSARL_v2v83d1x06","630a8feaa8eef385f72dc1a5","fixation","img/fixation.png","null","","test","","","","","",""
"241.70000004768372","1412533","pSARL_v2","pSARL_v2v83d1x06","630a8feaa8eef385f72dc1a5","freq","img/orange_2bandit_a2.png","70","70","test","1","92","92","5","",""
"null","1413100","pSARL_v2","pSARL_v2v83d1x06","630a8feaa8eef385f72dc1a5","freq_resp","img/orange_2bandit_a.png","70","70","test","","","","5","",""
"null","1413257","pSARL_v2","pSARL_v2v83d1x06","630a8feaa8eef385f72dc1a5","fixation","img/fixation.png","null","","test","","","","","",""
"232.89999985694885","1413493","pSARL_v2","pSARL_v2v83d1x06","630a8feaa8eef385f72dc1a5","freq","img/orange_2bandit_a2.png","70","70","test","1","93","93","5","",""
"null","1414069","pSARL_v2","pSARL_v2v83d1x06","630a8feaa8eef385f72dc1a5","freq_resp","img/orange_2bandit_a.png","70","70","test","","","","5","",""
"null","1414226","pSARL_v2","pSARL_v2v83d1x06","630a8feaa8eef385f72dc1a5","fixation","img/fixation.png","null","","test","","","","","",""
"104.20000004768372","1414333","pSARL_v2","pSARL_v2v83d1x06","630a8feaa8eef385f72dc1a5","freq","img/orange_2bandit_a2.png","70","70","test","1","94","94","5","",""
"null","1415038","pSARL_v2","pSARL_v2v83d1x06","630a8feaa8eef385f72dc1a5","freq_resp","img/orange_2bandit_a.png","70","70","test","","","","5","",""
"null","1415194","pSARL_v2","pSARL_v2v83d1x06","630a8feaa8eef385f72dc1a5","fixation","img/fixation.png","null","","test","","","","","",""
"135.90000009536743","1415333","pSARL_v2","pSARL_v2v83d1x06","630a8feaa8eef385f72dc1a5","freq","img/orange_2bandit_a2.png","70","70","test","1","95","95","5","",""
"null","1416007","pSARL_v2","pSARL_v2v83d1x06","630a8feaa8eef385f72dc1a5","freq_resp","img/orange_2bandit_a.png","70","70","test","","","","5","",""
"null","1416163","pSARL_v2","pSARL_v2v83d1x06","630a8feaa8eef385f72dc1a5","fixation","img/fixation.png","null","","test","","","","","",""
"147.40000009536743","1416314","pSARL_v2","pSARL_v2v83d1x06","630a8feaa8eef385f72dc1a5","freq","img/orange_2bandit_a2.png","70","70","test","1","96","96","5","",""
"null","1416975","pSARL_v2","pSARL_v2v83d1x06","630a8feaa8eef385f72dc1a5","freq_resp","img/orange_2bandit_a.png","70","70","test","","","","5","",""
"null","1417132","pSARL_v2","pSARL_v2v83d1x06","630a8feaa8eef385f72dc1a5","fixation","img/fixation.png","null","","test","","","","","",""
"158.40000009536743","1417293","pSARL_v2","pSARL_v2v83d1x06","630a8feaa8eef385f72dc1a5","freq","img/orange_2bandit_a2.png","70","70","test","1","97","97","5","",""
"null","1417944","pSARL_v2","pSARL_v2v83d1x06","630a8feaa8eef385f72dc1a5","freq_resp","img/orange_2bandit_a.png","70","70","test","","","","5","",""
"null","1418100","pSARL_v2","pSARL_v2v83d1x06","630a8feaa8eef385f72dc1a5","fixation","img/fixation.png","null","","test","","","","","",""
"69.70000004768372","1418173","pSARL_v2","pSARL_v2v83d1x06","630a8feaa8eef385f72dc1a5","freq","img/orange_2bandit_a2.png","70","70","test","1","98","98","5","",""
"null","1418913","pSARL_v2","pSARL_v2v83d1x06","630a8feaa8eef385f72dc1a5","freq_resp","img/orange_2bandit_a.png","70","70","test","","","","5","",""
"null","1419070","pSARL_v2","pSARL_v2v83d1x06","630a8feaa8eef385f72dc1a5","fixation","img/fixation.png","null","","test","","","","","",""
"0.20000004768371582","1419073","pSARL_v2","pSARL_v2v83d1x06","630a8feaa8eef385f72dc1a5","freq","img/orange_2bandit_a2.png","70","70","test","1","99","99","5","",""
"null","1419881","pSARL_v2","pSARL_v2v83d1x06","630a8feaa8eef385f72dc1a5","freq_resp","img/orange_2bandit_a.png","70","70","test","","","","5","",""
"null","1420038","pSARL_v2","pSARL_v2v83d1x06","630a8feaa8eef385f72dc1a5","fixation","img/fixation.png","null","","test","","","","","",""
"null","1420851","pSARL_v2","pSARL_v2v83d1x06","630a8feaa8eef385f72dc1a5","freq","img/orange_2bandit_a2.png","null","70","test","0","100","100","5","",""
"null","1421007","pSARL_v2","pSARL_v2v83d1x06","630a8feaa8eef385f72dc1a5","fixation","img/fixation.png","null","","test","","","","","",""
"783.2999999523163","1421793","pSARL_v2","pSARL_v2v83d1x06","630a8feaa8eef385f72dc1a5","freq","img/orange_2bandit_a2.png","70","70","test","1","101","101","5","",""
"null","1421814","pSARL_v2","pSARL_v2v83d1x06","630a8feaa8eef385f72dc1a5","freq_resp","img/orange_2bandit_a.png","70","70","test","","","","5","",""
"null","1421973","pSARL_v2","pSARL_v2v83d1x06","630a8feaa8eef385f72dc1a5","fixation","img/fixation.png","null","","test","","","","","",""
"null","1422788","pSARL_v2","pSARL_v2v83d1x06","630a8feaa8eef385f72dc1a5","infreq","img/green_2bandit_a2.png","null","68","test","0","102","102","5","",""
"null","1422944","pSARL_v2","pSARL_v2v83d1x06","630a8feaa8eef385f72dc1a5","fixation","img/fixation.png","null","","test","","","","","",""
"785.7000000476837","1423733","pSARL_v2","pSARL_v2v83d1x06","630a8feaa8eef385f72dc1a5","freq","img/orange_2bandit_a2.png","70","70","test","1","103","103","5","",""
"null","1423751","pSARL_v2","pSARL_v2v83d1x06","630a8feaa8eef385f72dc1a5","freq_resp","img/orange_2bandit_a.png","70","70","test","","","","5","",""
"null","1423913","pSARL_v2","pSARL_v2v83d1x06","630a8feaa8eef385f72dc1a5","fixation","img/fixation.png","null","","test","","","","","",""
"null","1424725","pSARL_v2","pSARL_v2v83d1x06","630a8feaa8eef385f72dc1a5","freq","img/orange_2bandit_a2.png","null","70","test","0","104","104","5","",""
"null","1424882","pSARL_v2","pSARL_v2v83d1x06","630a8feaa8eef385f72dc1a5","fixation","img/fixation.png","null","","test","","","","","",""
"768.2999999523163","1425653","pSARL_v2","pSARL_v2v83d1x06","630a8feaa8eef385f72dc1a5","freq","img/orange_2bandit_a2.png","70","70","test","1","105","105","5","",""
"null","1425688","pSARL_v2","pSARL_v2v83d1x06","630a8feaa8eef385f72dc1a5","freq_resp","img/orange_2bandit_a.png","70","70","test","","","","5","",""
"null","1425851","pSARL_v2","pSARL_v2v83d1x06","630a8feaa8eef385f72dc1a5","fixation","img/fixation.png","null","","test","","","","","",""
"759","1426613","pSARL_v2","pSARL_v2v83d1x06","630a8feaa8eef385f72dc1a5","freq","img/orange_2bandit_a2.png","70","70","test","1","106","106","5","",""
"null","1426665","pSARL_v2","pSARL_v2v83d1x06","630a8feaa8eef385f72dc1a5","freq_resp","img/orange_2bandit_a.png","70","70","test","","","","5","",""
"null","1426819","pSARL_v2","pSARL_v2v83d1x06","630a8feaa8eef385f72dc1a5","fixation","img/fixation.png","null","","test","","","","","",""
"730.5","1427553","pSARL_v2","pSARL_v2v83d1x06","630a8feaa8eef385f72dc1a5","freq","img/orange_2bandit_a2.png","70","70","test","1","107","107","5","",""
"null","1427636","pSARL_v2","pSARL_v2v83d1x06","630a8feaa8eef385f72dc1a5","freq_resp","img/orange_2bandit_a.png","70","70","test","","","","5","",""
"null","1427803","pSARL_v2","pSARL_v2v83d1x06","630a8feaa8eef385f72dc1a5","fixation","img/fixation.png","null","","test","","","","","",""
"747.1000001430511","1428553","pSARL_v2","pSARL_v2v83d1x06","630a8feaa8eef385f72dc1a5","freq","img/orange_2bandit_a2.png","70","70","test","1","108","108","5","",""
"null","1428609","pSARL_v2","pSARL_v2v83d1x06","630a8feaa8eef385f72dc1a5","freq_resp","img/orange_2bandit_a.png","70","70","test","","","","5","",""
"null","1428772","pSARL_v2","pSARL_v2v83d1x06","630a8feaa8eef385f72dc1a5","fixation","img/fixation.png","null","","test","","","","","",""
"null","1429585","pSARL_v2","pSARL_v2v83d1x06","630a8feaa8eef385f72dc1a5","freq","img/orange_2bandit_a2.png","null","70","test","0","109","109","5","",""
"null","1429741","pSARL_v2","pSARL_v2v83d1x06","630a8feaa8eef385f72dc1a5","fixation","img/fixation.png","null","","test","","","","","",""
"null","1430553","pSARL_v2","pSARL_v2v83d1x06","630a8feaa8eef385f72dc1a5","freq","img/orange_2bandit_a2.png","null","70","test","0","110","110","5","",""
"null","1430710","pSARL_v2","pSARL_v2v83d1x06","630a8feaa8eef385f72dc1a5","fixation","img/fixation.png","null","","test","","","","","",""
"null","1431522","pSARL_v2","pSARL_v2v83d1x06","630a8feaa8eef385f72dc1a5","freq","img/orange_2bandit_a2.png","null","70","test","0","111","111","5","",""
"null","1431678","pSARL_v2","pSARL_v2v83d1x06","630a8feaa8eef385f72dc1a5","fixation","img/fixation.png","null","","test","","","","","",""
"null","1432491","pSARL_v2","pSARL_v2v83d1x06","630a8feaa8eef385f72dc1a5","freq","img/orange_2bandit_a2.png","null","70","test","0","112","112","5","",""
"null","1432647","pSARL_v2","pSARL_v2v83d1x06","630a8feaa8eef385f72dc1a5","fixation","img/fixation.png","null","","test","","","","","",""
"82.69999980926514","1432733","pSARL_v2","pSARL_v2v83d1x06","630a8feaa8eef385f72dc1a5","infreq","img/green_2bandit_a2.png","70","68","test","0","113","113","5","",""
"null","1433460","pSARL_v2","pSARL_v2v83d1x06","630a8feaa8eef385f72dc1a5","infreq_resp","img/green_2bandit_a.png","70","68","test","","","","5","",""
"null","1433616","pSARL_v2","pSARL_v2v83d1x06","630a8feaa8eef385f72dc1a5","fixation","img/fixation.png","null","","test","","","","","",""
"null","1434428","pSARL_v2","pSARL_v2v83d1x06","630a8feaa8eef385f72dc1a5","freq","img/orange_2bandit_a2.png","null","70","test","0","114","114","5","",""
"null","1434585","pSARL_v2","pSARL_v2v83d1x06","630a8feaa8eef385f72dc1a5","fixation","img/fixation.png","null","","test","","","","","",""
"1365.2000000476837","1435954","pSARL_v2","pSARL_v2v83d1x06","630a8feaa8eef385f72dc1a5","reward","img/slot.png","74","","test","","","","","",""
"null","1436710","pSARL_v2","pSARL_v2v83d1x06","630a8feaa8eef385f72dc1a5","points","<div class=""veryhighPoints""> +1 </div>","null","na","test","","","","5","1","4"
"null","1437523","pSARL_v2","pSARL_v2v83d1x06","630a8feaa8eef385f72dc1a5","freq","img/orange_2bandit_a2.png","null","70","test","0","115","115","6","",""
"null","1437695","pSARL_v2","pSARL_v2v83d1x06","630a8feaa8eef385f72dc1a5","fixation","img/fixation.png","null","","test","","","","","",""
"156.90000009536743","1437855","pSARL_v2","pSARL_v2v83d1x06","630a8feaa8eef385f72dc1a5","infreq","img/green_2bandit_a2.png","70","68","test","0","116","116","6","",""
"null","1438507","pSARL_v2","pSARL_v2v83d1x06","630a8feaa8eef385f72dc1a5","infreq_resp","img/green_2bandit_a.png","70","68","test","","","","6","",""
"null","1438664","pSARL_v2","pSARL_v2v83d1x06","630a8feaa8eef385f72dc1a5","fixation","img/fixation.png","null","","test","","","","","",""
"306.59999990463257","1438974","pSARL_v2","pSARL_v2v83d1x06","630a8feaa8eef385f72dc1a5","freq","img/orange_2bandit_a2.png","68","70","test","0","117","117","6","",""
"null","1439476","pSARL_v2","pSARL_v2v83d1x06","630a8feaa8eef385f72dc1a5","freq_resp","img/orange_2bandit_a.png","68","70","test","","","","6","",""
"null","1439633","pSARL_v2","pSARL_v2v83d1x06","630a8feaa8eef385f72dc1a5","fixation","img/fixation.png","null","","test","","","","","",""
"239.79999995231628","1439876","pSARL_v2","pSARL_v2v83d1x06","630a8feaa8eef385f72dc1a5","freq","img/orange_2bandit_a2.png","70","70","test","1","118","118","6","",""
"null","1440445","pSARL_v2","pSARL_v2v83d1x06","630a8feaa8eef385f72dc1a5","freq_resp","img/orange_2bandit_a.png","70","70","test","","","","6","",""
"null","1440602","pSARL_v2","pSARL_v2v83d1x06","630a8feaa8eef385f72dc1a5","fixation","img/fixation.png","null","","test","","","","","",""
"128.5","1440733","pSARL_v2","pSARL_v2v83d1x06","630a8feaa8eef385f72dc1a5","freq","img/orange_2bandit_a2.png","70","70","test","1","119","119","6","",""
"null","1441414","pSARL_v2","pSARL_v2v83d1x06","630a8feaa8eef385f72dc1a5","freq_resp","img/orange_2bandit_a.png","70","70","test","","","","6","",""
"null","1441570","pSARL_v2","pSARL_v2v83d1x06","630a8feaa8eef385f72dc1a5","fixation","img/fixation.png","null","","test","","","","","",""
"80.70000004768372","1441654","pSARL_v2","pSARL_v2v83d1x06","630a8feaa8eef385f72dc1a5","freq","img/orange_2bandit_a2.png","70","70","test","1","120","120","6","",""
"null","1442382","pSARL_v2","pSARL_v2v83d1x06","630a8feaa8eef385f72dc1a5","freq_resp","img/orange_2bandit_a.png","70","70","test","","","","6","",""
"null","1442539","pSARL_v2","pSARL_v2v83d1x06","630a8feaa8eef385f72dc1a5","fixation","img/fixation.png","null","","test","","","","","",""
"711.2999999523163","1443254","pSARL_v2","pSARL_v2v83d1x06","630a8feaa8eef385f72dc1a5","freq","img/orange_2bandit_a2.png","70","70","test","1","121","121","6","",""
"null","1443352","pSARL_v2","pSARL_v2v83d1x06","630a8feaa8eef385f72dc1a5","freq_resp","img/orange_2bandit_a.png","70","70","test","","","","6","",""
"null","1443508","pSARL_v2","pSARL_v2v83d1x06","630a8feaa8eef385f72dc1a5","fixation","img/fixation.png","null","","test","","","","","",""
"722.7000000476837","1444233","pSARL_v2","pSARL_v2v83d1x06","630a8feaa8eef385f72dc1a5","freq","img/orange_2bandit_a2.png","70","70","test","1","122","122","6","",""
"null","1444321","pSARL_v2","pSARL_v2v83d1x06","630a8feaa8eef385f72dc1a5","freq_resp","img/orange_2bandit_a.png","70","70","test","","","","6","",""
"null","1444476","pSARL_v2","pSARL_v2v83d1x06","630a8feaa8eef385f72dc1a5","fixation","img/fixation.png","null","","test","","","","","",""
"673.7999999523163","1445153","pSARL_v2","pSARL_v2v83d1x06","630a8feaa8eef385f72dc1a5","freq","img/orange_2bandit_a2.png","70","70","test","1","123","123","6","",""
"null","1445289","pSARL_v2","pSARL_v2v83d1x06","630a8feaa8eef385f72dc1a5","freq_resp","img/orange_2bandit_a.png","70","70","test","","","","6","",""
"null","1445445","pSARL_v2","pSARL_v2v83d1x06","630a8feaa8eef385f72dc1a5","fixation","img/fixation.png","null","","test","","","","","",""
"685.7999999523163","1446134","pSARL_v2","pSARL_v2v83d1x06","630a8feaa8eef385f72dc1a5","freq","img/orange_2bandit_a2.png","70","70","test","1","124","124","6","",""
"null","1446258","pSARL_v2","pSARL_v2v83d1x06","630a8feaa8eef385f72dc1a5","freq_resp","img/orange_2bandit_a.png","70","70","test","","","","6","",""
"null","1446414","pSARL_v2","pSARL_v2v83d1x06","630a8feaa8eef385f72dc1a5","fixation","img/fixation.png","null","","test","","","","","",""
"null","1447226","pSARL_v2","pSARL_v2v83d1x06","630a8feaa8eef385f72dc1a5","infreq","img/green_2bandit_a2.png","null","68","test","0","125","125","6","",""
"null","1447383","pSARL_v2","pSARL_v2v83d1x06","630a8feaa8eef385f72dc1a5","fixation","img/fixation.png","null","","test","","","","","",""
"null","1448195","pSARL_v2","pSARL_v2v83d1x06","630a8feaa8eef385f72dc1a5","freq","img/orange_2bandit_a2.png","null","70","test","0","126","126","6","",""
"null","1448351","pSARL_v2","pSARL_v2v83d1x06","630a8feaa8eef385f72dc1a5","fixation","img/fixation.png","null","","test","","","","","",""
"479.60000014305115","1448834","pSARL_v2","pSARL_v2v83d1x06","630a8feaa8eef385f72dc1a5","infreq","img/green_2bandit_a2.png","70","68","test","0","127","127","6","",""
"null","1449164","pSARL_v2","pSARL_v2v83d1x06","630a8feaa8eef385f72dc1a5","infreq_resp","img/green_2bandit_a.png","70","68","test","","","","6","",""
"null","1449321","pSARL_v2","pSARL_v2v83d1x06","630a8feaa8eef385f72dc1a5","fixation","img/fixation.png","null","","test","","","","","",""
"null","1450132","pSARL_v2","pSARL_v2v83d1x06","630a8feaa8eef385f72dc1a5","freq","img/orange_2bandit_a2.png","null","70","test","0","128","128","6","",""
"null","1450289","pSARL_v2","pSARL_v2v83d1x06","630a8feaa8eef385f72dc1a5","fixation","img/fixation.png","null","","test","","","","","",""
"781.8999998569489","1451074","pSARL_v2","pSARL_v2v83d1x06","630a8feaa8eef385f72dc1a5","freq","img/orange_2bandit_a2.png","70","70","test","1","129","129","6","",""
"null","1451096","pSARL_v2","pSARL_v2v83d1x06","630a8feaa8eef385f72dc1a5","freq_resp","img/orange_2bandit_a.png","70","70","test","","","","6","",""
"null","1451254","pSARL_v2","pSARL_v2v83d1x06","630a8feaa8eef385f72dc1a5","fixation","img/fixation.png","null","","test","","","","","",""
"756.5","1452014","pSARL_v2","pSARL_v2v83d1x06","630a8feaa8eef385f72dc1a5","freq","img/orange_2bandit_a2.png","70","70","test","1","130","130","6","",""
"null","1452065","pSARL_v2","pSARL_v2v83d1x06","630a8feaa8eef385f72dc1a5","freq_resp","img/orange_2bandit_a.png","70","70","test","","","","6","",""
"null","1452227","pSARL_v2","pSARL_v2v83d1x06","630a8feaa8eef385f72dc1a5","fixation","img/fixation.png","null","","test","","","","","",""
"744.2000000476837","1452974","pSARL_v2","pSARL_v2v83d1x06","630a8feaa8eef385f72dc1a5","freq","img/orange_2bandit_a2.png","70","70","test","1","131","131","6","",""
"null","1453039","pSARL_v2","pSARL_v2v83d1x06","630a8feaa8eef385f72dc1a5","freq_resp","img/orange_2bandit_a.png","70","70","test","","","","6","",""
"null","1453195","pSARL_v2","pSARL_v2v83d1x06","630a8feaa8eef385f72dc1a5","fixation","img/fixation.png","null","","test","","","","","",""
"737","1453935","pSARL_v2","pSARL_v2v83d1x06","630a8feaa8eef385f72dc1a5","freq","img/orange_2bandit_a2.png","70","70","test","1","132","132","6","",""
"null","1454002","pSARL_v2","pSARL_v2v83d1x06","630a8feaa8eef385f72dc1a5","freq_resp","img/orange_2bandit_a.png","70","70","test","","","","6","",""
"null","1454164","pSARL_v2","pSARL_v2v83d1x06","630a8feaa8eef385f72dc1a5","fixation","img/fixation.png","null","","test","","","","","",""
"728.6000001430511","1454896","pSARL_v2","pSARL_v2v83d1x06","630a8feaa8eef385f72dc1a5","freq","img/orange_2bandit_a2.png","70","70","test","1","133","133","6","",""
"null","1454977","pSARL_v2","pSARL_v2v83d1x06","630a8feaa8eef385f72dc1a5","freq_resp","img/orange_2bandit_a.png","70","70","test","","","","6","",""
"null","1455133","pSARL_v2","pSARL_v2v83d1x06","630a8feaa8eef385f72dc1a5","fixation","img/fixation.png","null","","test","","","","","",""
"677.7000000476837","1455813","pSARL_v2","pSARL_v2v83d1x06","630a8feaa8eef385f72dc1a5","freq","img/orange_2bandit_a2.png","70","70","test","1","134","134","6","",""
"null","1455945","pSARL_v2","pSARL_v2v83d1x06","630a8feaa8eef385f72dc1a5","freq_resp","img/orange_2bandit_a.png","70","70","test","","","","6","",""
"null","1456101","pSARL_v2","pSARL_v2v83d1x06","630a8feaa8eef385f72dc1a5","fixation","img/fixation.png","null","","test","","","","","",""
"711.2999999523163","1456816","pSARL_v2","pSARL_v2v83d1x06","630a8feaa8eef385f72dc1a5","freq","img/orange_2bandit_a2.png","70","70","test","1","135","135","6","",""
"null","1456915","pSARL_v2","pSARL_v2v83d1x06","630a8feaa8eef385f72dc1a5","freq_resp","img/orange_2bandit_a.png","70","70","test","","","","6","",""
"null","1457070","pSARL_v2","pSARL_v2v83d1x06","630a8feaa8eef385f72dc1a5","fixation","img/fixation.png","null","","test","","","","","",""
"708.7000000476837","1457782","pSARL_v2","pSARL_v2v83d1x06","630a8feaa8eef385f72dc1a5","freq","img/orange_2bandit_a2.png","70","70","test","1","136","136","6","",""
"null","1457883","pSARL_v2","pSARL_v2v83d1x06","630a8feaa8eef385f72dc1a5","freq_resp","img/orange_2bandit_a.png","70","70","test","","","","6","",""
"null","1458039","pSARL_v2","pSARL_v2v83d1x06","630a8feaa8eef385f72dc1a5","fixation","img/fixation.png","null","","test","","","","","",""
"731.2000000476837","1458773","pSARL_v2","pSARL_v2v83d1x06","630a8feaa8eef385f72dc1a5","freq","img/orange_2bandit_a2.png","70","70","test","1","137","137","6","",""
"null","1458856","pSARL_v2","pSARL_v2v83d1x06","630a8feaa8eef385f72dc1a5","freq_resp","img/orange_2bandit_a.png","70","70","test","","","","6","",""
"null","1459023","pSARL_v2","pSARL_v2v83d1x06","630a8feaa8eef385f72dc1a5","fixation","img/fixation.png","null","","test","","","","","",""
"null","1459835","pSARL_v2","pSARL_v2v83d1x06","630a8feaa8eef385f72dc1a5","freq","img/orange_2bandit_a2.png","null","70","test","0","138","138","6","",""
"null","1459992","pSARL_v2","pSARL_v2v83d1x06","630a8feaa8eef385f72dc1a5","fixation","img/fixation.png","null","","test","","","","","",""
"1902.2999999523163","1461898","pSARL_v2","pSARL_v2v83d1x06","630a8feaa8eef385f72dc1a5","reward","img/slot.png","74","","test","","","","","",""
"null","1462663","pSARL_v2","pSARL_v2v83d1x06","630a8feaa8eef385f72dc1a5","points","<div class=""verylowPoints""> -7 </div>","null","na","test","","","","6","-7","5"
"null","1463476","pSARL_v2","pSARL_v2v83d1x06","630a8feaa8eef385f72dc1a5","freq","img/orange_2bandit_a2.png","null","70","test","0","139","139","7","",""
"null","1463633","pSARL_v2","pSARL_v2v83d1x06","630a8feaa8eef385f72dc1a5","fixation","img/fixation.png","null","","test","","","","","",""
"777.2999999523163","1464413","pSARL_v2","pSARL_v2v83d1x06","630a8feaa8eef385f72dc1a5","freq","img/orange_2bandit_a2.png","70","70","test","1","140","140","7","",""
"null","1464439","pSARL_v2","pSARL_v2v83d1x06","630a8feaa8eef385f72dc1a5","freq_resp","img/orange_2bandit_a.png","70","70","test","","","","7","",""
"null","1464601","pSARL_v2","pSARL_v2v83d1x06","630a8feaa8eef385f72dc1a5","fixation","img/fixation.png","null","","test","","","","","",""
"null","1465414","pSARL_v2","pSARL_v2v83d1x06","630a8feaa8eef385f72dc1a5","infreq","img/green_2bandit_a2.png","null","68","test","0","141","141","7","",""
"null","1465570","pSARL_v2","pSARL_v2v83d1x06","630a8feaa8eef385f72dc1a5","fixation","img/fixation.png","null","","test","","","","","",""
"720.5","1466294","pSARL_v2","pSARL_v2v83d1x06","630a8feaa8eef385f72dc1a5","freq","img/orange_2bandit_a2.png","70","70","test","1","142","142","7","",""
"null","1466384","pSARL_v2","pSARL_v2v83d1x06","630a8feaa8eef385f72dc1a5","freq_resp","img/orange_2bandit_a.png","70","70","test","","","","7","",""
"null","1466539","pSARL_v2","pSARL_v2v83d1x06","630a8feaa8eef385f72dc1a5","fixation","img/fixation.png","null","","test","","","","","",""
"791.6000001430511","1467334","pSARL_v2","pSARL_v2v83d1x06","630a8feaa8eef385f72dc1a5","freq","img/orange_2bandit_a2.png","70","70","test","1","143","143","7","",""
"null","1467346","pSARL_v2","pSARL_v2v83d1x06","630a8feaa8eef385f72dc1a5","freq_resp","img/orange_2bandit_a.png","70","70","test","","","","7","",""
"null","1467508","pSARL_v2","pSARL_v2v83d1x06","630a8feaa8eef385f72dc1a5","fixation","img/fixation.png","null","","test","","","","","",""
"null","1468320","pSARL_v2","pSARL_v2v83d1x06","630a8feaa8eef385f72dc1a5","freq","img/orange_2bandit_a2.png","null","70","test","0","144","144","7","",""
"null","1468476","pSARL_v2","pSARL_v2v83d1x06","630a8feaa8eef385f72dc1a5","fixation","img/fixation.png","null","","test","","","","","",""
"null","1469289","pSARL_v2","pSARL_v2v83d1x06","630a8feaa8eef385f72dc1a5","freq","img/orange_2bandit_a2.png","null","70","test","0","145","145","7","",""
"null","1469445","pSARL_v2","pSARL_v2v83d1x06","630a8feaa8eef385f72dc1a5","fixation","img/fixation.png","null","","test","","","","","",""
"465.10000014305115","1469914","pSARL_v2","pSARL_v2v83d1x06","630a8feaa8eef385f72dc1a5","freq","img/orange_2bandit_a2.png","70","70","test","1","146","146","7","",""
"null","1470258","pSARL_v2","pSARL_v2v83d1x06","630a8feaa8eef385f72dc1a5","freq_resp","img/orange_2bandit_a.png","70","70","test","","","","7","",""
"null","1470414","pSARL_v2","pSARL_v2v83d1x06","630a8feaa8eef385f72dc1a5","fixation","img/fixation.png","null","","test","","","","","",""
"null","1471226","pSARL_v2","pSARL_v2v83d1x06","630a8feaa8eef385f72dc1a5","freq","img/orange_2bandit_a2.png","null","70","test","0","147","147","7","",""
"null","1471382","pSARL_v2","pSARL_v2v83d1x06","630a8feaa8eef385f72dc1a5","fixation","img/fixation.png","null","","test","","","","","",""
"null","1472195","pSARL_v2","pSARL_v2v83d1x06","630a8feaa8eef385f72dc1a5","freq","img/orange_2bandit_a2.png","null","70","test","0","148","148","7","",""
"null","1472352","pSARL_v2","pSARL_v2v83d1x06","630a8feaa8eef385f72dc1a5","fixation","img/fixation.png","null","","test","","","","","",""
"278.2000000476837","1472633","pSARL_v2","pSARL_v2v83d1x06","630a8feaa8eef385f72dc1a5","freq","img/orange_2bandit_a2.png","70","70","test","1","149","149","7","",""
"null","1473164","pSARL_v2","pSARL_v2v83d1x06","630a8feaa8eef385f72dc1a5","freq_resp","img/orange_2bandit_a.png","70","70","test","","","","7","",""
"null","1473320","pSARL_v2","pSARL_v2v83d1x06","630a8feaa8eef385f72dc1a5","fixation","img/fixation.png","null","","test","","","","","",""
"350","1473673","pSARL_v2","pSARL_v2v83d1x06","630a8feaa8eef385f72dc1a5","infreq","img/green_2bandit_a2.png","70","68","test","0","150","150","7","",""
"null","1474133","pSARL_v2","pSARL_v2v83d1x06","630a8feaa8eef385f72dc1a5","infreq_resp","img/green_2bandit_a.png","70","68","test","","","","7","",""
"null","1474289","pSARL_v2","pSARL_v2v83d1x06","630a8feaa8eef385f72dc1a5","fixation","img/fixation.png","null","","test","","","","","",""
"null","1475101","pSARL_v2","pSARL_v2v83d1x06","630a8feaa8eef385f72dc1a5","freq","img/orange_2bandit_a2.png","null","70","test","0","151","151","7","",""
"null","1475257","pSARL_v2","pSARL_v2v83d1x06","630a8feaa8eef385f72dc1a5","fixation","img/fixation.png","null","","test","","","","","",""
"32.59999990463257","1475293","pSARL_v2","pSARL_v2v83d1x06","630a8feaa8eef385f72dc1a5","freq","img/orange_2bandit_a2.png","70","70","test","1","152","152","7","",""
"null","1476070","pSARL_v2","pSARL_v2v83d1x06","630a8feaa8eef385f72dc1a5","freq_resp","img/orange_2bandit_a.png","70","70","test","","","","7","",""
"null","1476226","pSARL_v2","pSARL_v2v83d1x06","630a8feaa8eef385f72dc1a5","fixation","img/fixation.png","null","","test","","","","","",""
"183.60000014305115","1476413","pSARL_v2","pSARL_v2v83d1x06","630a8feaa8eef385f72dc1a5","freq","img/orange_2bandit_a2.png","70","70","test","1","153","153","7","",""
"null","1477039","pSARL_v2","pSARL_v2v83d1x06","630a8feaa8eef385f72dc1a5","freq_resp","img/orange_2bandit_a.png","70","70","test","","","","7","",""
"null","1477195","pSARL_v2","pSARL_v2v83d1x06","630a8feaa8eef385f72dc1a5","fixation","img/fixation.png","null","","test","","","","","",""
"115.5","1477314","pSARL_v2","pSARL_v2v83d1x06","630a8feaa8eef385f72dc1a5","freq","img/orange_2bandit_a2.png","70","70","test","1","154","154","7","",""
"null","1478007","pSARL_v2","pSARL_v2v83d1x06","630a8feaa8eef385f72dc1a5","freq_resp","img/orange_2bandit_a.png","70","70","test","","","","7","",""
"null","1478164","pSARL_v2","pSARL_v2v83d1x06","630a8feaa8eef385f72dc1a5","fixation","img/fixation.png","null","","test","","","","","",""
"46.40000009536743","1478214","pSARL_v2","pSARL_v2v83d1x06","630a8feaa8eef385f72dc1a5","freq","img/orange_2bandit_a2.png","70","70","test","1","155","155","7","",""
"null","1478976","pSARL_v2","pSARL_v2v83d1x06","630a8feaa8eef385f72dc1a5","freq_resp","img/orange_2bandit_a.png","70","70","test","","","","7","",""
"null","1479133","pSARL_v2","pSARL_v2v83d1x06","630a8feaa8eef385f72dc1a5","fixation","img/fixation.png","null","","test","","","","","",""
"317.40000009536743","1479453","pSARL_v2","pSARL_v2v83d1x06","630a8feaa8eef385f72dc1a5","freq","img/orange_2bandit_a2.png","70","70","test","1","156","156","7","",""
"null","1479945","pSARL_v2","pSARL_v2v83d1x06","630a8feaa8eef385f72dc1a5","freq_resp","img/orange_2bandit_a.png","70","70","test","","","","7","",""
"null","1480101","pSARL_v2","pSARL_v2v83d1x06","630a8feaa8eef385f72dc1a5","fixation","img/fixation.png","null","","test","","","","","",""
"789.2000000476837","1480894","pSARL_v2","pSARL_v2v83d1x06","630a8feaa8eef385f72dc1a5","freq","img/orange_2bandit_a2.png","70","70","test","1","157","157","7","",""
"null","1480907","pSARL_v2","pSARL_v2v83d1x06","630a8feaa8eef385f72dc1a5","freq_resp","img/orange_2bandit_a.png","70","70","test","","","","7","",""
"null","1481071","pSARL_v2","pSARL_v2v83d1x06","630a8feaa8eef385f72dc1a5","fixation","img/fixation.png","null","","test","","","","","",""
"null","1481882","pSARL_v2","pSARL_v2v83d1x06","630a8feaa8eef385f72dc1a5","freq","img/orange_2bandit_a2.png","null","70","test","0","158","158","7","",""
"null","1482039","pSARL_v2","pSARL_v2v83d1x06","630a8feaa8eef385f72dc1a5","fixation","img/fixation.png","null","","test","","","","","",""
"772.3000001907349","1482814","pSARL_v2","pSARL_v2v83d1x06","630a8feaa8eef385f72dc1a5","freq","img/orange_2bandit_a2.png","70","70","test","1","159","159","7","",""
"null","1482845","pSARL_v2","pSARL_v2v83d1x06","630a8feaa8eef385f72dc1a5","freq_resp","img/orange_2bandit_a.png","70","70","test","","","","7","",""
"null","1483007","pSARL_v2","pSARL_v2v83d1x06","630a8feaa8eef385f72dc1a5","fixation","img/fixation.png","null","","test","","","","","",""
"null","1483820","pSARL_v2","pSARL_v2v83d1x06","630a8feaa8eef385f72dc1a5","freq","img/orange_2bandit_a2.png","null","70","test","0","160","160","7","",""
"null","1483976","pSARL_v2","pSARL_v2v83d1x06","630a8feaa8eef385f72dc1a5","fixation","img/fixation.png","null","","test","","","","","",""
"13.799999952316284","1483994","pSARL_v2","pSARL_v2v83d1x06","630a8feaa8eef385f72dc1a5","freq","img/orange_2bandit_a2.png","70","70","test","1","161","161","7","",""
"null","1484789","pSARL_v2","pSARL_v2v83d1x06","630a8feaa8eef385f72dc1a5","freq_resp","img/orange_2bandit_a.png","70","70","test","","","","7","",""
"null","1484945","pSARL_v2","pSARL_v2v83d1x06","630a8feaa8eef385f72dc1a5","fixation","img/fixation.png","null","","test","","","","","",""
"64.89999985694885","1485013","pSARL_v2","pSARL_v2v83d1x06","630a8feaa8eef385f72dc1a5","freq","img/orange_2bandit_a2.png","70","70","test","1","162","162","7","",""
"null","1485757","pSARL_v2","pSARL_v2v83d1x06","630a8feaa8eef385f72dc1a5","freq_resp","img/orange_2bandit_a.png","70","70","test","","","","7","",""
"null","1485914","pSARL_v2","pSARL_v2v83d1x06","630a8feaa8eef385f72dc1a5","fixation","img/fixation.png","null","","test","","","","","",""
"56.200000047683716","1485973","pSARL_v2","pSARL_v2v83d1x06","630a8feaa8eef385f72dc1a5","freq","img/orange_2bandit_a2.png","70","70","test","1","163","163","7","",""
"null","1486726","pSARL_v2","pSARL_v2v83d1x06","630a8feaa8eef385f72dc1a5","freq_resp","img/orange_2bandit_a.png","70","70","test","","","","7","",""
"null","1486883","pSARL_v2","pSARL_v2v83d1x06","630a8feaa8eef385f72dc1a5","fixation","img/fixation.png","null","","test","","","","","",""
"1128.2000000476837","1488014","pSARL_v2","pSARL_v2v83d1x06","630a8feaa8eef385f72dc1a5","reward","img/slot.png","74","","test","","","","","",""
"null","1488773","pSARL_v2","pSARL_v2v83d1x06","630a8feaa8eef385f72dc1a5","points","<div class=""verylowPoints""> -6 </div>","null","na","test","","","","7","-6","6"
"null","1489585","pSARL_v2","pSARL_v2v83d1x06","630a8feaa8eef385f72dc1a5","freq","img/orange_2bandit_a2.png","null","70","test","0","164","164","8","",""
"null","1489757","pSARL_v2","pSARL_v2v83d1x06","630a8feaa8eef385f72dc1a5","fixation","img/fixation.png","null","","test","","","","","",""
"0.09999990463256836","1489761","pSARL_v2","pSARL_v2v83d1x06","630a8feaa8eef385f72dc1a5","freq","img/orange_2bandit_a2.png","70","70","test","1","165","165","8","",""
"null","1490570","pSARL_v2","pSARL_v2v83d1x06","630a8feaa8eef385f72dc1a5","freq_resp","img/orange_2bandit_a.png","70","70","test","","","","8","",""
"null","1490726","pSARL_v2","pSARL_v2v83d1x06","630a8feaa8eef385f72dc1a5","fixation","img/fixation.png","null","","test","","","","","",""
"44","1490773","pSARL_v2","pSARL_v2v83d1x06","630a8feaa8eef385f72dc1a5","freq","img/orange_2bandit_a2.png","70","70","test","1","166","166","8","",""
"null","1491538","pSARL_v2","pSARL_v2v83d1x06","630a8feaa8eef385f72dc1a5","freq_resp","img/orange_2bandit_a.png","70","70","test","","","","8","",""
"null","1491695","pSARL_v2","pSARL_v2v83d1x06","630a8feaa8eef385f72dc1a5","fixation","img/fixation.png","null","","test","","","","","",""
"275.30000019073486","1491973","pSARL_v2","pSARL_v2v83d1x06","630a8feaa8eef385f72dc1a5","freq","img/orange_2bandit_a2.png","70","70","test","1","167","167","8","",""
"null","1492508","pSARL_v2","pSARL_v2v83d1x06","630a8feaa8eef385f72dc1a5","freq_resp","img/orange_2bandit_a.png","70","70","test","","","","8","",""
"null","1492664","pSARL_v2","pSARL_v2v83d1x06","630a8feaa8eef385f72dc1a5","fixation","img/fixation.png","null","","test","","","","","",""
"726.5","1493394","pSARL_v2","pSARL_v2v83d1x06","630a8feaa8eef385f72dc1a5","freq","img/orange_2bandit_a2.png","70","70","test","1","168","168","8","",""
"null","1493476","pSARL_v2","pSARL_v2v83d1x06","630a8feaa8eef385f72dc1a5","freq_resp","img/orange_2bandit_a.png","70","70","test","","","","8","",""
"null","1493633","pSARL_v2","pSARL_v2v83d1x06","630a8feaa8eef385f72dc1a5","fixation","img/fixation.png","null","","test","","","","","",""
"null","1494445","pSARL_v2","pSARL_v2v83d1x06","630a8feaa8eef385f72dc1a5","freq","img/orange_2bandit_a2.png","null","70","test","0","169","169","8","",""
"null","1494601","pSARL_v2","pSARL_v2v83d1x06","630a8feaa8eef385f72dc1a5","fixation","img/fixation.png","null","","test","","","","","",""
"null","1495414","pSARL_v2","pSARL_v2v83d1x06","630a8feaa8eef385f72dc1a5","freq","img/orange_2bandit_a2.png","null","70","test","0","170","170","8","",""
"null","1495570","pSARL_v2","pSARL_v2v83d1x06","630a8feaa8eef385f72dc1a5","fixation","img/fixation.png","null","","test","","","","","",""
"79.29999995231628","1495653","pSARL_v2","pSARL_v2v83d1x06","630a8feaa8eef385f72dc1a5","freq","img/orange_2bandit_a2.png","70","70","test","1","171","171","8","",""
"null","1496383","pSARL_v2","pSARL_v2v83d1x06","630a8feaa8eef385f72dc1a5","freq_resp","img/orange_2bandit_a.png","70","70","test","","","","8","",""
"null","1496539","pSARL_v2","pSARL_v2v83d1x06","630a8feaa8eef385f72dc1a5","fixation","img/fixation.png","null","","test","","","","","",""
"731.2000000476837","1497273","pSARL_v2","pSARL_v2v83d1x06","630a8feaa8eef385f72dc1a5","freq","img/orange_2bandit_a2.png","70","70","test","1","172","172","8","",""
"null","1497356","pSARL_v2","pSARL_v2v83d1x06","630a8feaa8eef385f72dc1a5","freq_resp","img/orange_2bandit_a.png","70","70","test","","","","8","",""
"null","1497523","pSARL_v2","pSARL_v2v83d1x06","630a8feaa8eef385f72dc1a5","fixation","img/fixation.png","null","","test","","","","","",""
"null","1498336","pSARL_v2","pSARL_v2v83d1x06","630a8feaa8eef385f72dc1a5","freq","img/orange_2bandit_a2.png","null","70","test","0","173","173","8","",""
"null","1498492","pSARL_v2","pSARL_v2v83d1x06","630a8feaa8eef385f72dc1a5","fixation","img/fixation.png","null","","test","","","","","",""
"null","1499305","pSARL_v2","pSARL_v2v83d1x06","630a8feaa8eef385f72dc1a5","infreq","img/green_2bandit_a2.png","null","68","test","0","174","174","8","",""
"null","1499461","pSARL_v2","pSARL_v2v83d1x06","630a8feaa8eef385f72dc1a5","fixation","img/fixation.png","null","","test","","","","","",""
"9.200000047683716","1499473","pSARL_v2","pSARL_v2v83d1x06","630a8feaa8eef385f72dc1a5","freq","img/orange_2bandit_a2.png","68","70","test","0","175","175","8","",""
"null","1500273","pSARL_v2","pSARL_v2v83d1x06","630a8feaa8eef385f72dc1a5","freq_resp","img/orange_2bandit_a.png","68","70","test","","","","8","",""
"null","1500429","pSARL_v2","pSARL_v2v83d1x06","630a8feaa8eef385f72dc1a5","fixation","img/fixation.png","null","","test","","","","","",""
"null","1501242","pSARL_v2","pSARL_v2v83d1x06","630a8feaa8eef385f72dc1a5","freq","img/orange_2bandit_a2.png","null","70","test","0","176","176","8","",""
"null","1501398","pSARL_v2","pSARL_v2v83d1x06","630a8feaa8eef385f72dc1a5","fixation","img/fixation.png","null","","test","","","","","",""
"null","1502211","pSARL_v2","pSARL_v2v83d1x06","630a8feaa8eef385f72dc1a5","freq","img/orange_2bandit_a2.png","null","70","test","0","177","177","8","",""
"null","1502367","pSARL_v2","pSARL_v2v83d1x06","630a8feaa8eef385f72dc1a5","fixation","img/fixation.png","null","","test","","","","","",""
"382.69999980926514","1502753","pSARL_v2","pSARL_v2v83d1x06","630a8feaa8eef385f72dc1a5","freq","img/orange_2bandit_a2.png","70","70","test","1","178","178","8","",""
"null","1503180","pSARL_v2","pSARL_v2v83d1x06","630a8feaa8eef385f72dc1a5","freq_resp","img/orange_2bandit_a.png","70","70","test","","","","8","",""
"null","1503336","pSARL_v2","pSARL_v2v83d1x06","630a8feaa8eef385f72dc1a5","fixation","img/fixation.png","null","","test","","","","","",""
"null","1504148","pSARL_v2","pSARL_v2v83d1x06","630a8feaa8eef385f72dc1a5","freq","img/orange_2bandit_a2.png","null","70","test","0","179","179","8","",""
"null","1504304","pSARL_v2","pSARL_v2v83d1x06","630a8feaa8eef385f72dc1a5","fixation","img/fixation.png","null","","test","","","","","",""
"393.90000009536743","1504702","pSARL_v2","pSARL_v2v83d1x06","630a8feaa8eef385f72dc1a5","freq","img/orange_2bandit_a2.png","70","70","test","1","180","180","8","",""
"null","1505117","pSARL_v2","pSARL_v2v83d1x06","630a8feaa8eef385f72dc1a5","freq_resp","img/orange_2bandit_a.png","70","70","test","","","","8","",""
"null","1505273","pSARL_v2","pSARL_v2v83d1x06","630a8feaa8eef385f72dc1a5","fixation","img/fixation.png","null","","test","","","","","",""
"null","1506086","pSARL_v2","pSARL_v2v83d1x06","630a8feaa8eef385f72dc1a5","freq","img/orange_2bandit_a2.png","null","70","test","0","181","181","8","",""
"null","1506242","pSARL_v2","pSARL_v2v83d1x06","630a8feaa8eef385f72dc1a5","fixation","img/fixation.png","null","","test","","","","","",""
"null","1507054","pSARL_v2","pSARL_v2v83d1x06","630a8feaa8eef385f72dc1a5","freq","img/orange_2bandit_a2.png","null","70","test","0","182","182","8","",""
"null","1507211","pSARL_v2","pSARL_v2v83d1x06","630a8feaa8eef385f72dc1a5","fixation","img/fixation.png","null","","test","","","","","",""
"179.5","1507393","pSARL_v2","pSARL_v2v83d1x06","630a8feaa8eef385f72dc1a5","freq","img/orange_2bandit_a2.png","70","70","test","1","183","183","8","",""
"null","1508023","pSARL_v2","pSARL_v2v83d1x06","630a8feaa8eef385f72dc1a5","freq_resp","img/orange_2bandit_a.png","70","70","test","","","","8","",""
"null","1508180","pSARL_v2","pSARL_v2v83d1x06","630a8feaa8eef385f72dc1a5","fixation","img/fixation.png","null","","test","","","","","",""
"692","1508875","pSARL_v2","pSARL_v2v83d1x06","630a8feaa8eef385f72dc1a5","freq","img/orange_2bandit_a2.png","70","70","test","1","184","184","8","",""
"null","1509008","pSARL_v2","pSARL_v2v83d1x06","630a8feaa8eef385f72dc1a5","freq_resp","img/orange_2bandit_a.png","70","70","test","","","","8","",""
"null","1509164","pSARL_v2","pSARL_v2v83d1x06","630a8feaa8eef385f72dc1a5","fixation","img/fixation.png","null","","test","","","","","",""
"null","1509977","pSARL_v2","pSARL_v2v83d1x06","630a8feaa8eef385f72dc1a5","freq","img/orange_2bandit_a2.png","null","70","test","0","185","185","8","",""
"null","1510133","pSARL_v2","pSARL_v2v83d1x06","630a8feaa8eef385f72dc1a5","fixation","img/fixation.png","null","","test","","","","","",""
"null","1510945","pSARL_v2","pSARL_v2v83d1x06","630a8feaa8eef385f72dc1a5","infreq","img/green_2bandit_a2.png","null","68","test","0","186","186","8","",""
"null","1511101","pSARL_v2","pSARL_v2v83d1x06","630a8feaa8eef385f72dc1a5","fixation","img/fixation.png","null","","test","","","","","",""
"null","1511914","pSARL_v2","pSARL_v2v83d1x06","630a8feaa8eef385f72dc1a5","freq","img/orange_2bandit_a2.png","null","70","test","0","187","187","8","",""
"null","1512070","pSARL_v2","pSARL_v2v83d1x06","630a8feaa8eef385f72dc1a5","fixation","img/fixation.png","null","","test","","","","","",""
"761","1512835","pSARL_v2","pSARL_v2v83d1x06","630a8feaa8eef385f72dc1a5","freq","img/orange_2bandit_a2.png","70","70","test","1","188","188","8","",""
"null","1512886","pSARL_v2","pSARL_v2v83d1x06","630a8feaa8eef385f72dc1a5","freq_resp","img/orange_2bandit_a.png","70","70","test","","","","8","",""
"null","1513039","pSARL_v2","pSARL_v2v83d1x06","630a8feaa8eef385f72dc1a5","fixation","img/fixation.png","null","","test","","","","","",""
"null","1513851","pSARL_v2","pSARL_v2v83d1x06","630a8feaa8eef385f72dc1a5","freq","img/orange_2bandit_a2.png","null","70","test","0","189","189","8","",""
"null","1514008","pSARL_v2","pSARL_v2v83d1x06","630a8feaa8eef385f72dc1a5","fixation","img/fixation.png","null","","test","","","","","",""
"1282","1515293","pSARL_v2","pSARL_v2v83d1x06","630a8feaa8eef385f72dc1a5","reward","img/slot.png","74","","test","","","","","",""
"null","1516055","pSARL_v2","pSARL_v2v83d1x06","630a8feaa8eef385f72dc1a5","points","<div class=""verylowPoints""> -4 </div>","null","na","test","","","","8","-4","7"
"null","1516867","pSARL_v2","pSARL_v2v83d1x06","630a8feaa8eef385f72dc1a5","freq","img/orange_2bandit_a2.png","null","70","test","0","190","190","9","",""
"null","1517023","pSARL_v2","pSARL_v2v83d1x06","630a8feaa8eef385f72dc1a5","fixation","img/fixation.png","null","","test","","","","","",""
"86.20000004768372","1517113","pSARL_v2","pSARL_v2v83d1x06","630a8feaa8eef385f72dc1a5","freq","img/orange_2bandit_a2.png","70","70","test","1","191","191","9","",""
"null","1517836","pSARL_v2","pSARL_v2v83d1x06","630a8feaa8eef385f72dc1a5","freq_resp","img/orange_2bandit_a.png","70","70","test","","","","9","",""
"null","1517992","pSARL_v2","pSARL_v2v83d1x06","630a8feaa8eef385f72dc1a5","fixation","img/fixation.png","null","","test","","","","","",""
"57.700000047683716","1518053","pSARL_v2","pSARL_v2v83d1x06","630a8feaa8eef385f72dc1a5","freq","img/orange_2bandit_a2.png","70","70","test","1","192","192","9","",""
"null","1518804","pSARL_v2","pSARL_v2v83d1x06","630a8feaa8eef385f72dc1a5","freq_resp","img/orange_2bandit_a.png","70","70","test","","","","9","",""
"null","1518962","pSARL_v2","pSARL_v2v83d1x06","630a8feaa8eef385f72dc1a5","fixation","img/fixation.png","null","","test","","","","","",""
"168.09999990463257","1519133","pSARL_v2","pSARL_v2v83d1x06","630a8feaa8eef385f72dc1a5","freq","img/orange_2bandit_a2.png","70","70","test","1","193","193","9","",""
"null","1519773","pSARL_v2","pSARL_v2v83d1x06","630a8feaa8eef385f72dc1a5","freq_resp","img/orange_2bandit_a.png","70","70","test","","","","9","",""
"null","1519929","pSARL_v2","pSARL_v2v83d1x06","630a8feaa8eef385f72dc1a5","fixation","img/fixation.png","null","","test","","","","","",""
"420.2000000476837","1520353","pSARL_v2","pSARL_v2v83d1x06","630a8feaa8eef385f72dc1a5","freq","img/orange_2bandit_a2.png","70","70","test","1","194","194","9","",""
"null","1520742","pSARL_v2","pSARL_v2v83d1x06","630a8feaa8eef385f72dc1a5","freq_resp","img/orange_2bandit_a.png","70","70","test","","","","9","",""
"null","1520898","pSARL_v2","pSARL_v2v83d1x06","630a8feaa8eef385f72dc1a5","fixation","img/fixation.png","null","","test","","","","","",""
"751.5","1521653","pSARL_v2","pSARL_v2v83d1x06","630a8feaa8eef385f72dc1a5","freq","img/orange_2bandit_a2.png","70","70","test","1","195","195","9","",""
"null","1521705","pSARL_v2","pSARL_v2v83d1x06","630a8feaa8eef385f72dc1a5","freq_resp","img/orange_2bandit_a.png","70","70","test","","","","9","",""
"null","1521867","pSARL_v2","pSARL_v2v83d1x06","630a8feaa8eef385f72dc1a5","fixation","img/fixation.png","null","","test","","","","","",""
"702.2000000476837","1522573","pSARL_v2","pSARL_v2v83d1x06","630a8feaa8eef385f72dc1a5","freq","img/orange_2bandit_a2.png","70","70","test","1","196","196","9","",""
"null","1522696","pSARL_v2","pSARL_v2v83d1x06","630a8feaa8eef385f72dc1a5","freq_resp","img/orange_2bandit_a.png","70","70","test","","","","9","",""
"null","1522851","pSARL_v2","pSARL_v2v83d1x06","630a8feaa8eef385f72dc1a5","fixation","img/fixation.png","null","","test","","","","","",""
"null","1523655","pSARL_v2","pSARL_v2v83d1x06","630a8feaa8eef385f72dc1a5","freq","img/orange_2bandit_a2.png","null","70","test","0","197","197","9","",""
"null","1523820","pSARL_v2","pSARL_v2v83d1x06","630a8feaa8eef385f72dc1a5","fixation","img/fixation.png","null","","test","","","","","",""
"490","1524313","pSARL_v2","pSARL_v2v83d1x06","630a8feaa8eef385f72dc1a5","freq","img/orange_2bandit_a2.png","70","70","test","1","198","198","9","",""
"null","1524633","pSARL_v2","pSARL_v2v83d1x06","630a8feaa8eef385f72dc1a5","freq_resp","img/orange_2bandit_a.png","70","70","test","","","","9","",""
"null","1524789","pSARL_v2","pSARL_v2v83d1x06","630a8feaa8eef385f72dc1a5","fixation","img/fixation.png","null","","test","","","","","",""
"null","1525601","pSARL_v2","pSARL_v2v83d1x06","630a8feaa8eef385f72dc1a5","freq","img/orange_2bandit_a2.png","null","70","test","0","199","199","9","",""
"null","1525758","pSARL_v2","pSARL_v2v83d1x06","630a8feaa8eef385f72dc1a5","fixation","img/fixation.png","null","","test","","","","","",""
"231.70000004768372","1525993","pSARL_v2","pSARL_v2v83d1x06","630a8feaa8eef385f72dc1a5","freq","img/orange_2bandit_a2.png","70","70","test","1","200","200","9","",""
"null","1526570","pSARL_v2","pSARL_v2v83d1x06","630a8feaa8eef385f72dc1a5","freq_resp","img/orange_2bandit_a.png","70","70","test","","","","9","",""
"null","1526727","pSARL_v2","pSARL_v2v83d1x06","630a8feaa8eef385f72dc1a5","fixation","img/fixation.png","null","","test","","","","","",""
"762.9000000953674","1527493","pSARL_v2","pSARL_v2v83d1x06","630a8feaa8eef385f72dc1a5","infreq","img/green_2bandit_a2.png","70","68","test","0","201","201","9","",""
"null","1527545","pSARL_v2","pSARL_v2v83d1x06","630a8feaa8eef385f72dc1a5","infreq_resp","img/green_2bandit_a.png","70","68","test","","","","9","",""
"null","1527711","pSARL_v2","pSARL_v2v83d1x06","630a8feaa8eef385f72dc1a5","fixation","img/fixation.png","null","","test","","","","","",""
"null","1528523","pSARL_v2","pSARL_v2v83d1x06","630a8feaa8eef385f72dc1a5","freq","img/orange_2bandit_a2.png","null","70","test","0","202","202","9","",""
"null","1528695","pSARL_v2","pSARL_v2v83d1x06","630a8feaa8eef385f72dc1a5","fixation","img/fixation.png","null","","test","","","","","",""
"54.299999952316284","1528753","pSARL_v2","pSARL_v2v83d1x06","630a8feaa8eef385f72dc1a5","freq","img/orange_2bandit_a2.png","70","70","test","1","203","203","9","",""
"null","1529508","pSARL_v2","pSARL_v2v83d1x06","630a8feaa8eef385f72dc1a5","freq_resp","img/orange_2bandit_a.png","70","70","test","","","","9","",""
"null","1529664","pSARL_v2","pSARL_v2v83d1x06","630a8feaa8eef385f72dc1a5","fixation","img/fixation.png","null","","test","","","","","",""
"485.2999999523163","1530153","pSARL_v2","pSARL_v2v83d1x06","630a8feaa8eef385f72dc1a5","freq","img/orange_2bandit_a2.png","70","70","test","1","204","204","9","",""
"null","1530477","pSARL_v2","pSARL_v2v83d1x06","630a8feaa8eef385f72dc1a5","freq_resp","img/orange_2bandit_a.png","70","70","test","","","","9","",""
"null","1530633","pSARL_v2","pSARL_v2v83d1x06","630a8feaa8eef385f72dc1a5","fixation","img/fixation.png","null","","test","","","","","",""
"null","1531445","pSARL_v2","pSARL_v2v83d1x06","630a8feaa8eef385f72dc1a5","infreq","img/green_2bandit_a2.png","null","68","test","0","205","205","9","",""
"null","1531602","pSARL_v2","pSARL_v2v83d1x06","630a8feaa8eef385f72dc1a5","fixation","img/fixation.png","null","","test","","","","","",""
"null","1532414","pSARL_v2","pSARL_v2v83d1x06","630a8feaa8eef385f72dc1a5","freq","img/orange_2bandit_a2.png","null","70","test","0","206","206","9","",""
"null","1532570","pSARL_v2","pSARL_v2v83d1x06","630a8feaa8eef385f72dc1a5","fixation","img/fixation.png","null","","test","","","","","",""
"739.0999999046326","1533312","pSARL_v2","pSARL_v2v83d1x06","630a8feaa8eef385f72dc1a5","freq","img/orange_2bandit_a2.png","70","70","test","1","207","207","9","",""
"null","1533379","pSARL_v2","pSARL_v2v83d1x06","630a8feaa8eef385f72dc1a5","freq_resp","img/orange_2bandit_a.png","70","70","test","","","","9","",""
"null","1533539","pSARL_v2","pSARL_v2v83d1x06","630a8feaa8eef385f72dc1a5","fixation","img/fixation.png","null","","test","","","","","",""
"null","1534351","pSARL_v2","pSARL_v2v83d1x06","630a8feaa8eef385f72dc1a5","freq","img/orange_2bandit_a2.png","null","70","test","0","208","208","9","",""
"null","1534508","pSARL_v2","pSARL_v2v83d1x06","630a8feaa8eef385f72dc1a5","fixation","img/fixation.png","null","","test","","","","","",""
"null","1535320","pSARL_v2","pSARL_v2v83d1x06","630a8feaa8eef385f72dc1a5","freq","img/orange_2bandit_a2.png","null","70","test","0","209","209","9","",""
"null","1535477","pSARL_v2","pSARL_v2v83d1x06","630a8feaa8eef385f72dc1a5","fixation","img/fixation.png","null","","test","","","","","",""
"53.39999985694885","1535533","pSARL_v2","pSARL_v2v83d1x06","630a8feaa8eef385f72dc1a5","freq","img/orange_2bandit_a2.png","70","70","test","1","210","210","9","",""
"null","1536289","pSARL_v2","pSARL_v2v83d1x06","630a8feaa8eef385f72dc1a5","freq_resp","img/orange_2bandit_a.png","70","70","test","","","","9","",""
"null","1536445","pSARL_v2","pSARL_v2v83d1x06","630a8feaa8eef385f72dc1a5","fixation","img/fixation.png","null","","test","","","","","",""
"604.9000000953674","1537053","pSARL_v2","pSARL_v2v83d1x06","630a8feaa8eef385f72dc1a5","infreq","img/green_2bandit_a2.png","70","68","test","0","211","211","9","",""
"null","1537258","pSARL_v2","pSARL_v2v83d1x06","630a8feaa8eef385f72dc1a5","infreq_resp","img/green_2bandit_a.png","70","68","test","","","","9","",""
"null","1537414","pSARL_v2","pSARL_v2v83d1x06","630a8feaa8eef385f72dc1a5","fixation","img/fixation.png","null","","test","","","","","",""
"null","1538227","pSARL_v2","pSARL_v2v83d1x06","630a8feaa8eef385f72dc1a5","freq","img/orange_2bandit_a2.png","null","70","test","0","212","212","9","",""
"null","1538383","pSARL_v2","pSARL_v2v83d1x06","630a8feaa8eef385f72dc1a5","fixation","img/fixation.png","null","","test","","","","","",""
"46.799999952316284","1538433","pSARL_v2","pSARL_v2v83d1x06","630a8feaa8eef385f72dc1a5","freq","img/orange_2bandit_a2.png","70","70","test","1","213","213","9","",""
"null","1539195","pSARL_v2","pSARL_v2v83d1x06","630a8feaa8eef385f72dc1a5","freq_resp","img/orange_2bandit_a.png","70","70","test","","","","9","",""
"null","1539352","pSARL_v2","pSARL_v2v83d1x06","630a8feaa8eef385f72dc1a5","fixation","img/fixation.png","null","","test","","","","","",""
"417.7000000476837","1539773","pSARL_v2","pSARL_v2v83d1x06","630a8feaa8eef385f72dc1a5","freq","img/orange_2bandit_a2.png","70","70","test","1","214","214","9","",""
"null","1540164","pSARL_v2","pSARL_v2v83d1x06","630a8feaa8eef385f72dc1a5","freq_resp","img/orange_2bandit_a.png","70","70","test","","","","9","",""
"null","1540320","pSARL_v2","pSARL_v2v83d1x06","630a8feaa8eef385f72dc1a5","fixation","img/fixation.png","null","","test","","","","","",""
"969","1541293","pSARL_v2","pSARL_v2v83d1x06","630a8feaa8eef385f72dc1a5","reward","img/slot.png","74","","test","","","","","",""
"null","1542055","pSARL_v2","pSARL_v2v83d1x06","630a8feaa8eef385f72dc1a5","points","<div class=""verylowPoints""> -3 </div>","null","na","test","","","","9","-3","8"
"null","1542867","pSARL_v2","pSARL_v2v83d1x06","630a8feaa8eef385f72dc1a5","freq","img/orange_2bandit_a2.png","null","70","test","0","215","215","10","",""
"null","1543023","pSARL_v2","pSARL_v2v83d1x06","630a8feaa8eef385f72dc1a5","fixation","img/fixation.png","null","","test","","","","","",""
"706.0999999046326","1543733","pSARL_v2","pSARL_v2v83d1x06","630a8feaa8eef385f72dc1a5","freq","img/orange_2bandit_a2.png","70","70","test","1","216","216","10","",""
"null","1543852","pSARL_v2","pSARL_v2v83d1x06","630a8feaa8eef385f72dc1a5","freq_resp","img/orange_2bandit_a.png","70","70","test","","","","10","",""
"null","1544008","pSARL_v2","pSARL_v2v83d1x06","630a8feaa8eef385f72dc1a5","fixation","img/fixation.png","null","","test","","","","","",""
"null","1544820","pSARL_v2","pSARL_v2v83d1x06","630a8feaa8eef385f72dc1a5","freq","img/orange_2bandit_a2.png","null","70","test","0","217","217","10","",""
"null","1544977","pSARL_v2","pSARL_v2v83d1x06","630a8feaa8eef385f72dc1a5","fixation","img/fixation.png","null","","test","","","","","",""
"33.39999985694885","1545013","pSARL_v2","pSARL_v2v83d1x06","630a8feaa8eef385f72dc1a5","freq","img/orange_2bandit_a2.png","70","70","test","1","218","218","10","",""
"null","1545789","pSARL_v2","pSARL_v2v83d1x06","630a8feaa8eef385f72dc1a5","freq_resp","img/orange_2bandit_a.png","70","70","test","","","","10","",""
"null","1545945","pSARL_v2","pSARL_v2v83d1x06","630a8feaa8eef385f72dc1a5","fixation","img/fixation.png","null","","test","","","","","",""
"583.9000000953674","1546533","pSARL_v2","pSARL_v2v83d1x06","630a8feaa8eef385f72dc1a5","freq","img/orange_2bandit_a2.png","70","70","test","1","219","219","10","",""
"null","1546758","pSARL_v2","pSARL_v2v83d1x06","630a8feaa8eef385f72dc1a5","freq_resp","img/orange_2bandit_a.png","70","70","test","","","","10","",""
"null","1546914","pSARL_v2","pSARL_v2v83d1x06","630a8feaa8eef385f72dc1a5","fixation","img/fixation.png","null","","test","","","","","",""
"null","1547727","pSARL_v2","pSARL_v2v83d1x06","630a8feaa8eef385f72dc1a5","freq","img/orange_2bandit_a2.png","null","70","test","0","220","220","10","",""
"null","1547883","pSARL_v2","pSARL_v2v83d1x06","630a8feaa8eef385f72dc1a5","fixation","img/fixation.png","null","","test","","","","","",""
"null","1548696","pSARL_v2","pSARL_v2v83d1x06","630a8feaa8eef385f72dc1a5","freq","img/orange_2bandit_a2.png","null","70","test","0","221","221","10","",""
"null","1548852","pSARL_v2","pSARL_v2v83d1x06","630a8feaa8eef385f72dc1a5","fixation","img/fixation.png","null","","test","","","","","",""
"null","1549664","pSARL_v2","pSARL_v2v83d1x06","630a8feaa8eef385f72dc1a5","freq","img/orange_2bandit_a2.png","null","70","test","0","222","222","10","",""
"null","1549820","pSARL_v2","pSARL_v2v83d1x06","630a8feaa8eef385f72dc1a5","fixation","img/fixation.png","null","","test","","","","","",""
"369","1550193","pSARL_v2","pSARL_v2v83d1x06","630a8feaa8eef385f72dc1a5","freq","img/orange_2bandit_a2.png","70","70","test","1","223","223","10","",""
"null","1550633","pSARL_v2","pSARL_v2v83d1x06","630a8feaa8eef385f72dc1a5","freq_resp","img/orange_2bandit_a.png","70","70","test","","","","10","",""
"null","1550789","pSARL_v2","pSARL_v2v83d1x06","630a8feaa8eef385f72dc1a5","fixation","img/fixation.png","null","","test","","","","","",""
"740.2000000476837","1551533","pSARL_v2","pSARL_v2v83d1x06","630a8feaa8eef385f72dc1a5","freq","img/orange_2bandit_a2.png","70","70","test","1","224","224","10","",""
"null","1551601","pSARL_v2","pSARL_v2v83d1x06","630a8feaa8eef385f72dc1a5","freq_resp","img/orange_2bandit_a.png","70","70","test","","","","10","",""
"null","1551757","pSARL_v2","pSARL_v2v83d1x06","630a8feaa8eef385f72dc1a5","fixation","img/fixation.png","null","","test","","","","","",""
"null","1552570","pSARL_v2","pSARL_v2v83d1x06","630a8feaa8eef385f72dc1a5","freq","img/orange_2bandit_a2.png","null","70","test","0","225","225","10","",""
"null","1552727","pSARL_v2","pSARL_v2v83d1x06","630a8feaa8eef385f72dc1a5","fixation","img/fixation.png","null","","test","","","","","",""
"22.699999809265137","1552753","pSARL_v2","pSARL_v2v83d1x06","630a8feaa8eef385f72dc1a5","freq","img/orange_2bandit_a2.png","70","70","test","1","226","226","10","",""
"null","1553539","pSARL_v2","pSARL_v2v83d1x06","630a8feaa8eef385f72dc1a5","freq_resp","img/orange_2bandit_a.png","70","70","test","","","","10","",""
"null","1553695","pSARL_v2","pSARL_v2v83d1x06","630a8feaa8eef385f72dc1a5","fixation","img/fixation.png","null","","test","","","","","",""
"null","1554508","pSARL_v2","pSARL_v2v83d1x06","630a8feaa8eef385f72dc1a5","infreq","img/green_2bandit_a2.png","null","68","test","0","227","227","10","",""
"null","1554664","pSARL_v2","pSARL_v2v83d1x06","630a8feaa8eef385f72dc1a5","fixation","img/fixation.png","null","","test","","","","","",""
"null","1555476","pSARL_v2","pSARL_v2v83d1x06","630a8feaa8eef385f72dc1a5","freq","img/orange_2bandit_a2.png","null","70","test","0","228","228","10","",""
"null","1555633","pSARL_v2","pSARL_v2v83d1x06","630a8feaa8eef385f72dc1a5","fixation","img/fixation.png","null","","test","","","","","",""
"null","1556446","pSARL_v2","pSARL_v2v83d1x06","630a8feaa8eef385f72dc1a5","infreq","img/green_2bandit_a2.png","null","68","test","0","229","229","10","",""
"null","1556602","pSARL_v2","pSARL_v2v83d1x06","630a8feaa8eef385f72dc1a5","fixation","img/fixation.png","null","","test","","","","","",""
"347.59999990463257","1556953","pSARL_v2","pSARL_v2v83d1x06","630a8feaa8eef385f72dc1a5","freq","img/orange_2bandit_a2.png","68","70","test","0","230","230","10","",""
"null","1557415","pSARL_v2","pSARL_v2v83d1x06","630a8feaa8eef385f72dc1a5","freq_resp","img/orange_2bandit_a.png","68","70","test","","","","10","",""
"null","1557571","pSARL_v2","pSARL_v2v83d1x06","630a8feaa8eef385f72dc1a5","fixation","img/fixation.png","null","","test","","","","","",""
