"rt","time_elapsed","expId","subject","prolificID","trialType","stimulus","key_press","corrresp","phase","corr","trialNum","attentionRunNum","blockNum","points","rlNum"
"4473","4490","pSARL_v2","pSARL_v2r2lgsbhw","628e196e63bc7ab9e6c6caea","","","","","","","","","","",""
"","7897","pSARL_v2","pSARL_v2r2lgsbhw","628e196e63bc7ab9e6c6caea","fullscreen","","","","","","","","","",""
"53392.90000009537","61296","pSARL_v2","pSARL_v2r2lgsbhw","628e196e63bc7ab9e6c6caea","","","","","","","","","","",""
"null","62115","pSARL_v2","pSARL_v2r2lgsbhw","628e196e63bc7ab9e6c6caea","freqPrac","img/green_2bandit_a2.png","null","70","prac","0","","","","",""
"null","63122","pSARL_v2","pSARL_v2r2lgsbhw","628e196e63bc7ab9e6c6caea","feedback","img/tooSlow.png","null","na","prac","","","","","",""
"null","63291","pSARL_v2","pSARL_v2r2lgsbhw","628e196e63bc7ab9e6c6caea","fixation","img/fixation.png","null","","prac","","","","","",""
"611.6000000238419","63909","pSARL_v2","pSARL_v2r2lgsbhw","628e196e63bc7ab9e6c6caea","infreqPrac","img/orange_2bandit_a2.png","68","68","prac","1","","","","",""
"611.6000000238419","64117","pSARL_v2","pSARL_v2r2lgsbhw","628e196e63bc7ab9e6c6caea","infreqPrac_resp","img/orange_2bandit_a.png","68","68","prac","","","","","",""
"null","64280","pSARL_v2","pSARL_v2r2lgsbhw","628e196e63bc7ab9e6c6caea","fixation","img/fixation.png","null","","prac","","","","","",""
"472.1999999284744","64759","pSARL_v2","pSARL_v2r2lgsbhw","628e196e63bc7ab9e6c6caea","freqPrac","img/green_2bandit_a2.png","70","70","prac","1","","","","",""
"472.1999999284744","65103","pSARL_v2","pSARL_v2r2lgsbhw","628e196e63bc7ab9e6c6caea","freqPrac_resp","img/green_2bandit_a.png","70","70","prac","","","","","",""
"null","65274","pSARL_v2","pSARL_v2r2lgsbhw","628e196e63bc7ab9e6c6caea","fixation","img/fixation.png","null","","prac","","","","","",""
"416","65697","pSARL_v2","pSARL_v2r2lgsbhw","628e196e63bc7ab9e6c6caea","infreqPrac","img/orange_2bandit_a2.png","68","68","prac","1","","","","",""
"416","66103","pSARL_v2","pSARL_v2r2lgsbhw","628e196e63bc7ab9e6c6caea","infreqPrac_resp","img/orange_2bandit_a.png","68","68","prac","","","","","",""
"null","66261","pSARL_v2","pSARL_v2r2lgsbhw","628e196e63bc7ab9e6c6caea","fixation","img/fixation.png","null","","prac","","","","","",""
"502","66771","pSARL_v2","pSARL_v2r2lgsbhw","628e196e63bc7ab9e6c6caea","infreqPrac","img/orange_2bandit_a2.png","68","68","prac","1","","","","",""
"502","67084","pSARL_v2","pSARL_v2r2lgsbhw","628e196e63bc7ab9e6c6caea","infreqPrac_resp","img/orange_2bandit_a.png","68","68","prac","","","","","",""
"null","67246","pSARL_v2","pSARL_v2r2lgsbhw","628e196e63bc7ab9e6c6caea","fixation","img/fixation.png","null","","prac","","","","","",""
"398.2999999523163","67651","pSARL_v2","pSARL_v2r2lgsbhw","628e196e63bc7ab9e6c6caea","infreqPrac","img/orange_2bandit_a2.png","68","68","prac","1","","","","",""
"398.2999999523163","68060","pSARL_v2","pSARL_v2r2lgsbhw","628e196e63bc7ab9e6c6caea","infreqPrac_resp","img/orange_2bandit_a.png","68","68","prac","","","","","",""
"null","68223","pSARL_v2","pSARL_v2r2lgsbhw","628e196e63bc7ab9e6c6caea","fixation","img/fixation.png","null","","prac","","","","","",""
"596.1000000238419","68828","pSARL_v2","pSARL_v2r2lgsbhw","628e196e63bc7ab9e6c6caea","freqPrac","img/green_2bandit_a2.png","70","70","prac","1","","","","",""
"596.1000000238419","69043","pSARL_v2","pSARL_v2r2lgsbhw","628e196e63bc7ab9e6c6caea","freqPrac_resp","img/green_2bandit_a.png","70","70","prac","","","","","",""
"null","69209","pSARL_v2","pSARL_v2r2lgsbhw","628e196e63bc7ab9e6c6caea","fixation","img/fixation.png","null","","prac","","","","","",""
"477.5","69694","pSARL_v2","pSARL_v2r2lgsbhw","628e196e63bc7ab9e6c6caea","infreqPrac","img/orange_2bandit_a2.png","68","68","prac","1","","","","",""
"477.5","70033","pSARL_v2","pSARL_v2r2lgsbhw","628e196e63bc7ab9e6c6caea","infreqPrac_resp","img/orange_2bandit_a.png","68","68","prac","","","","","",""
"null","70201","pSARL_v2","pSARL_v2r2lgsbhw","628e196e63bc7ab9e6c6caea","fixation","img/fixation.png","null","","prac","","","","","",""
"462.5","70672","pSARL_v2","pSARL_v2r2lgsbhw","628e196e63bc7ab9e6c6caea","freqPrac","img/green_2bandit_a2.png","70","70","prac","1","","","","",""
"462.5","71019","pSARL_v2","pSARL_v2r2lgsbhw","628e196e63bc7ab9e6c6caea","freqPrac_resp","img/green_2bandit_a.png","70","70","prac","","","","","",""
"null","71188","pSARL_v2","pSARL_v2r2lgsbhw","628e196e63bc7ab9e6c6caea","fixation","img/fixation.png","null","","prac","","","","","",""
"371.10000002384186","71566","pSARL_v2","pSARL_v2r2lgsbhw","628e196e63bc7ab9e6c6caea","freqPrac","img/green_2bandit_a2.png","70","70","prac","1","","","","",""
"371.10000002384186","72009","pSARL_v2","pSARL_v2r2lgsbhw","628e196e63bc7ab9e6c6caea","freqPrac_resp","img/green_2bandit_a.png","70","70","prac","","","","","",""
"null","72170","pSARL_v2","pSARL_v2r2lgsbhw","628e196e63bc7ab9e6c6caea","fixation","img/fixation.png","null","","prac","","","","","",""
"24031.899999976158","96209","pSARL_v2","pSARL_v2r2lgsbhw","628e196e63bc7ab9e6c6caea","","","","","prac","","","","","",""
"857.6000000238419","97073","pSARL_v2","pSARL_v2r2lgsbhw","628e196e63bc7ab9e6c6caea","rewardPractice","img/slot.png","74","","prac","","","","","",""
"null","97829","pSARL_v2","pSARL_v2r2lgsbhw","628e196e63bc7ab9e6c6caea","feedback","<div class=""veryhighPoints""> +15 </div>","null","na","prac","","","","","",""
"null","97991","pSARL_v2","pSARL_v2r2lgsbhw","628e196e63bc7ab9e6c6caea","fixation","img/fixation.png","null","","prac","","","","","",""
"11908.200000047684","109906","pSARL_v2","pSARL_v2r2lgsbhw","628e196e63bc7ab9e6c6caea","","","","","prac","","","","","",""
"758.2000000476837","110671","pSARL_v2","pSARL_v2r2lgsbhw","628e196e63bc7ab9e6c6caea","freq","img/green_2bandit_a2.png","70","70","test","1","1","1","1","",""
"null","110728","pSARL_v2","pSARL_v2r2lgsbhw","628e196e63bc7ab9e6c6caea","freq_resp","img/green_2bandit_a.png","70","70","test","","","","1","",""
"null","110897","pSARL_v2","pSARL_v2r2lgsbhw","628e196e63bc7ab9e6c6caea","fixation","img/fixation.png","null","","test","","","","","",""
"386.10000002384186","111289","pSARL_v2","pSARL_v2r2lgsbhw","628e196e63bc7ab9e6c6caea","freq","img/green_2bandit_a2.png","70","70","test","1","2","2","1","",""
"null","111713","pSARL_v2","pSARL_v2r2lgsbhw","628e196e63bc7ab9e6c6caea","freq_resp","img/green_2bandit_a.png","70","70","test","","","","1","",""
"null","111873","pSARL_v2","pSARL_v2r2lgsbhw","628e196e63bc7ab9e6c6caea","fixation","img/fixation.png","null","","test","","","","","",""
"479.10000002384186","112359","pSARL_v2","pSARL_v2r2lgsbhw","628e196e63bc7ab9e6c6caea","freq","img/green_2bandit_a2.png","70","70","test","1","3","3","1","",""
"null","112692","pSARL_v2","pSARL_v2r2lgsbhw","628e196e63bc7ab9e6c6caea","freq_resp","img/green_2bandit_a.png","70","70","test","","","","1","",""
"null","112850","pSARL_v2","pSARL_v2r2lgsbhw","628e196e63bc7ab9e6c6caea","fixation","img/fixation.png","null","","test","","","","","",""
"415.40000009536743","113273","pSARL_v2","pSARL_v2r2lgsbhw","628e196e63bc7ab9e6c6caea","freq","img/green_2bandit_a2.png","70","70","test","1","4","4","1","",""
"null","113671","pSARL_v2","pSARL_v2r2lgsbhw","628e196e63bc7ab9e6c6caea","freq_resp","img/green_2bandit_a.png","70","70","test","","","","1","",""
"null","113841","pSARL_v2","pSARL_v2r2lgsbhw","628e196e63bc7ab9e6c6caea","fixation","img/fixation.png","null","","test","","","","","",""
"358.7999999523163","114207","pSARL_v2","pSARL_v2r2lgsbhw","628e196e63bc7ab9e6c6caea","freq","img/green_2bandit_a2.png","70","70","test","1","5","5","1","",""
"null","114663","pSARL_v2","pSARL_v2r2lgsbhw","628e196e63bc7ab9e6c6caea","freq_resp","img/green_2bandit_a.png","70","70","test","","","","1","",""
"null","114834","pSARL_v2","pSARL_v2r2lgsbhw","628e196e63bc7ab9e6c6caea","fixation","img/fixation.png","null","","test","","","","","",""
"357.60000002384186","115199","pSARL_v2","pSARL_v2r2lgsbhw","628e196e63bc7ab9e6c6caea","freq","img/green_2bandit_a2.png","70","70","test","1","6","6","1","",""
"null","115654","pSARL_v2","pSARL_v2r2lgsbhw","628e196e63bc7ab9e6c6caea","freq_resp","img/green_2bandit_a.png","70","70","test","","","","1","",""
"null","115818","pSARL_v2","pSARL_v2r2lgsbhw","628e196e63bc7ab9e6c6caea","fixation","img/fixation.png","null","","test","","","","","",""
"503","116328","pSARL_v2","pSARL_v2r2lgsbhw","628e196e63bc7ab9e6c6caea","infreq","img/orange_2bandit_a2.png","68","68","test","1","7","7","1","",""
"null","116636","pSARL_v2","pSARL_v2r2lgsbhw","628e196e63bc7ab9e6c6caea","infreq_resp","img/orange_2bandit_a.png","68","68","test","","","","1","",""
"null","116794","pSARL_v2","pSARL_v2r2lgsbhw","628e196e63bc7ab9e6c6caea","fixation","img/fixation.png","null","","test","","","","","",""
"453.6999999284744","117256","pSARL_v2","pSARL_v2r2lgsbhw","628e196e63bc7ab9e6c6caea","freq","img/green_2bandit_a2.png","70","70","test","1","8","8","1","",""
"null","117624","pSARL_v2","pSARL_v2r2lgsbhw","628e196e63bc7ab9e6c6caea","freq_resp","img/green_2bandit_a.png","70","70","test","","","","1","",""
"null","117793","pSARL_v2","pSARL_v2r2lgsbhw","628e196e63bc7ab9e6c6caea","fixation","img/fixation.png","null","","test","","","","","",""
"424.39999997615814","118225","pSARL_v2","pSARL_v2r2lgsbhw","628e196e63bc7ab9e6c6caea","freq","img/green_2bandit_a2.png","70","70","test","1","9","9","1","",""
"null","118617","pSARL_v2","pSARL_v2r2lgsbhw","628e196e63bc7ab9e6c6caea","freq_resp","img/green_2bandit_a.png","70","70","test","","","","1","",""
"null","118785","pSARL_v2","pSARL_v2r2lgsbhw","628e196e63bc7ab9e6c6caea","fixation","img/fixation.png","null","","test","","","","","",""
"354.5","119147","pSARL_v2","pSARL_v2r2lgsbhw","628e196e63bc7ab9e6c6caea","freq","img/green_2bandit_a2.png","70","70","test","1","10","10","1","",""
"null","119606","pSARL_v2","pSARL_v2r2lgsbhw","628e196e63bc7ab9e6c6caea","freq_resp","img/green_2bandit_a.png","70","70","test","","","","1","",""
"null","119778","pSARL_v2","pSARL_v2r2lgsbhw","628e196e63bc7ab9e6c6caea","fixation","img/fixation.png","null","","test","","","","","",""
"353.59999990463257","120140","pSARL_v2","pSARL_v2r2lgsbhw","628e196e63bc7ab9e6c6caea","freq","img/green_2bandit_a2.png","70","70","test","1","11","11","1","",""
"null","120601","pSARL_v2","pSARL_v2r2lgsbhw","628e196e63bc7ab9e6c6caea","freq_resp","img/green_2bandit_a.png","70","70","test","","","","1","",""
"null","120772","pSARL_v2","pSARL_v2r2lgsbhw","628e196e63bc7ab9e6c6caea","fixation","img/fixation.png","null","","test","","","","","",""
"421.7999999523163","121200","pSARL_v2","pSARL_v2r2lgsbhw","628e196e63bc7ab9e6c6caea","freq","img/green_2bandit_a2.png","70","70","test","1","12","12","1","",""
"null","121596","pSARL_v2","pSARL_v2r2lgsbhw","628e196e63bc7ab9e6c6caea","freq_resp","img/green_2bandit_a.png","70","70","test","","","","1","",""
"null","121764","pSARL_v2","pSARL_v2r2lgsbhw","628e196e63bc7ab9e6c6caea","fixation","img/fixation.png","null","","test","","","","","",""
"418.5","122192","pSARL_v2","pSARL_v2r2lgsbhw","628e196e63bc7ab9e6c6caea","freq","img/green_2bandit_a2.png","70","70","test","1","13","13","1","",""
"null","122591","pSARL_v2","pSARL_v2r2lgsbhw","628e196e63bc7ab9e6c6caea","freq_resp","img/green_2bandit_a.png","70","70","test","","","","1","",""
"null","122759","pSARL_v2","pSARL_v2r2lgsbhw","628e196e63bc7ab9e6c6caea","fixation","img/fixation.png","null","","test","","","","","",""
"432.5","123200","pSARL_v2","pSARL_v2r2lgsbhw","628e196e63bc7ab9e6c6caea","infreq","img/orange_2bandit_a2.png","68","68","test","1","14","14","1","",""
"null","123587","pSARL_v2","pSARL_v2r2lgsbhw","628e196e63bc7ab9e6c6caea","infreq_resp","img/orange_2bandit_a.png","68","68","test","","","","1","",""
"null","123753","pSARL_v2","pSARL_v2r2lgsbhw","628e196e63bc7ab9e6c6caea","fixation","img/fixation.png","null","","test","","","","","",""
"412.5","124174","pSARL_v2","pSARL_v2r2lgsbhw","628e196e63bc7ab9e6c6caea","freq","img/green_2bandit_a2.png","70","70","test","1","15","15","1","",""
"null","124578","pSARL_v2","pSARL_v2r2lgsbhw","628e196e63bc7ab9e6c6caea","freq_resp","img/green_2bandit_a.png","70","70","test","","","","1","",""
"null","124745","pSARL_v2","pSARL_v2r2lgsbhw","628e196e63bc7ab9e6c6caea","fixation","img/fixation.png","null","","test","","","","","",""
"382.6999999284744","125135","pSARL_v2","pSARL_v2r2lgsbhw","628e196e63bc7ab9e6c6caea","freq","img/green_2bandit_a2.png","70","70","test","1","16","16","1","",""
"null","125571","pSARL_v2","pSARL_v2r2lgsbhw","628e196e63bc7ab9e6c6caea","freq_resp","img/green_2bandit_a.png","70","70","test","","","","1","",""
"null","125728","pSARL_v2","pSARL_v2r2lgsbhw","628e196e63bc7ab9e6c6caea","fixation","img/fixation.png","null","","test","","","","","",""
"354.40000009536743","126090","pSARL_v2","pSARL_v2r2lgsbhw","628e196e63bc7ab9e6c6caea","freq","img/green_2bandit_a2.png","70","70","test","1","17","17","1","",""
"null","126553","pSARL_v2","pSARL_v2r2lgsbhw","628e196e63bc7ab9e6c6caea","freq_resp","img/green_2bandit_a.png","70","70","test","","","","1","",""
"null","126720","pSARL_v2","pSARL_v2r2lgsbhw","628e196e63bc7ab9e6c6caea","fixation","img/fixation.png","null","","test","","","","","",""
"378.2999999523163","127107","pSARL_v2","pSARL_v2r2lgsbhw","628e196e63bc7ab9e6c6caea","infreq","img/orange_2bandit_a2.png","68","68","test","1","18","18","1","",""
"null","127538","pSARL_v2","pSARL_v2r2lgsbhw","628e196e63bc7ab9e6c6caea","infreq_resp","img/orange_2bandit_a.png","68","68","test","","","","1","",""
"null","127701","pSARL_v2","pSARL_v2r2lgsbhw","628e196e63bc7ab9e6c6caea","fixation","img/fixation.png","null","","test","","","","","",""
"385.60000002384186","128095","pSARL_v2","pSARL_v2r2lgsbhw","628e196e63bc7ab9e6c6caea","freq","img/green_2bandit_a2.png","70","70","test","1","19","19","1","",""
"null","128516","pSARL_v2","pSARL_v2r2lgsbhw","628e196e63bc7ab9e6c6caea","freq_resp","img/green_2bandit_a.png","70","70","test","","","","1","",""
"null","128678","pSARL_v2","pSARL_v2r2lgsbhw","628e196e63bc7ab9e6c6caea","fixation","img/fixation.png","null","","test","","","","","",""
"310.10000002384186","128996","pSARL_v2","pSARL_v2r2lgsbhw","628e196e63bc7ab9e6c6caea","freq","img/green_2bandit_a2.png","70","70","test","1","20","20","1","",""
"null","129506","pSARL_v2","pSARL_v2r2lgsbhw","628e196e63bc7ab9e6c6caea","freq_resp","img/green_2bandit_a.png","70","70","test","","","","1","",""
"null","129666","pSARL_v2","pSARL_v2r2lgsbhw","628e196e63bc7ab9e6c6caea","fixation","img/fixation.png","null","","test","","","","","",""
"300.6999999284744","129976","pSARL_v2","pSARL_v2r2lgsbhw","628e196e63bc7ab9e6c6caea","freq","img/green_2bandit_a2.png","70","70","test","1","21","21","1","",""
"null","130481","pSARL_v2","pSARL_v2r2lgsbhw","628e196e63bc7ab9e6c6caea","freq_resp","img/green_2bandit_a.png","70","70","test","","","","1","",""
"null","130639","pSARL_v2","pSARL_v2r2lgsbhw","628e196e63bc7ab9e6c6caea","fixation","img/fixation.png","null","","test","","","","","",""
"323.5","130969","pSARL_v2","pSARL_v2r2lgsbhw","628e196e63bc7ab9e6c6caea","freq","img/green_2bandit_a2.png","70","70","test","1","22","22","1","",""
"null","131453","pSARL_v2","pSARL_v2r2lgsbhw","628e196e63bc7ab9e6c6caea","freq_resp","img/green_2bandit_a.png","70","70","test","","","","1","",""
"null","131614","pSARL_v2","pSARL_v2r2lgsbhw","628e196e63bc7ab9e6c6caea","fixation","img/fixation.png","null","","test","","","","","",""
"314.7000000476837","131934","pSARL_v2","pSARL_v2r2lgsbhw","628e196e63bc7ab9e6c6caea","freq","img/green_2bandit_a2.png","70","70","test","1","23","23","1","",""
"null","132431","pSARL_v2","pSARL_v2r2lgsbhw","628e196e63bc7ab9e6c6caea","freq_resp","img/green_2bandit_a.png","70","70","test","","","","1","",""
"null","132597","pSARL_v2","pSARL_v2r2lgsbhw","628e196e63bc7ab9e6c6caea","fixation","img/fixation.png","null","","test","","","","","",""
"341.60000002384186","132948","pSARL_v2","pSARL_v2r2lgsbhw","628e196e63bc7ab9e6c6caea","freq","img/green_2bandit_a2.png","70","70","test","1","24","24","1","",""
"null","133416","pSARL_v2","pSARL_v2r2lgsbhw","628e196e63bc7ab9e6c6caea","freq_resp","img/green_2bandit_a.png","70","70","test","","","","1","",""
"null","133578","pSARL_v2","pSARL_v2r2lgsbhw","628e196e63bc7ab9e6c6caea","fixation","img/fixation.png","null","","test","","","","","",""
"701.3999999761581","134287","pSARL_v2","pSARL_v2r2lgsbhw","628e196e63bc7ab9e6c6caea","reward","img/slot.png","74","","test","","","","","",""
"null","135056","pSARL_v2","pSARL_v2r2lgsbhw","628e196e63bc7ab9e6c6caea","points","<div class=""verylowPoints""> -6 </div>","null","na","test","","","","1","-6","0"
"null","135867","pSARL_v2","pSARL_v2r2lgsbhw","628e196e63bc7ab9e6c6caea","freq","img/green_2bandit_a2.png","null","70","test","0","25","25","2","",""
"null","136027","pSARL_v2","pSARL_v2r2lgsbhw","628e196e63bc7ab9e6c6caea","fixation","img/fixation.png","null","","test","","","","","",""
"525.6999999284744","136558","pSARL_v2","pSARL_v2r2lgsbhw","628e196e63bc7ab9e6c6caea","freq","img/green_2bandit_a2.png","70","70","test","1","26","26","2","",""
"null","136854","pSARL_v2","pSARL_v2r2lgsbhw","628e196e63bc7ab9e6c6caea","freq_resp","img/green_2bandit_a.png","70","70","test","","","","2","",""
"null","137017","pSARL_v2","pSARL_v2r2lgsbhw","628e196e63bc7ab9e6c6caea","fixation","img/fixation.png","null","","test","","","","","",""
"352.2000000476837","137377","pSARL_v2","pSARL_v2r2lgsbhw","628e196e63bc7ab9e6c6caea","freq","img/green_2bandit_a2.png","70","70","test","1","27","27","2","",""
"null","137846","pSARL_v2","pSARL_v2r2lgsbhw","628e196e63bc7ab9e6c6caea","freq_resp","img/green_2bandit_a.png","70","70","test","","","","2","",""
"null","138009","pSARL_v2","pSARL_v2r2lgsbhw","628e196e63bc7ab9e6c6caea","fixation","img/fixation.png","null","","test","","","","","",""
"302.89999997615814","138321","pSARL_v2","pSARL_v2r2lgsbhw","628e196e63bc7ab9e6c6caea","freq","img/green_2bandit_a2.png","70","70","test","1","28","28","2","",""
"null","138836","pSARL_v2","pSARL_v2r2lgsbhw","628e196e63bc7ab9e6c6caea","freq_resp","img/green_2bandit_a.png","70","70","test","","","","2","",""
"null","139006","pSARL_v2","pSARL_v2r2lgsbhw","628e196e63bc7ab9e6c6caea","fixation","img/fixation.png","null","","test","","","","","",""
"476.90000009536743","139489","pSARL_v2","pSARL_v2r2lgsbhw","628e196e63bc7ab9e6c6caea","infreq","img/orange_2bandit_a2.png","68","68","test","1","29","29","2","",""
"null","139832","pSARL_v2","pSARL_v2r2lgsbhw","628e196e63bc7ab9e6c6caea","infreq_resp","img/orange_2bandit_a.png","68","68","test","","","","2","",""
"null","140002","pSARL_v2","pSARL_v2r2lgsbhw","628e196e63bc7ab9e6c6caea","fixation","img/fixation.png","null","","test","","","","","",""
"408.39999997615814","140418","pSARL_v2","pSARL_v2r2lgsbhw","628e196e63bc7ab9e6c6caea","freq","img/green_2bandit_a2.png","70","70","test","1","30","30","2","",""
"null","140832","pSARL_v2","pSARL_v2r2lgsbhw","628e196e63bc7ab9e6c6caea","freq_resp","img/green_2bandit_a.png","70","70","test","","","","2","",""
"null","140995","pSARL_v2","pSARL_v2r2lgsbhw","628e196e63bc7ab9e6c6caea","fixation","img/fixation.png","null","","test","","","","","",""
"512.3000000715256","141514","pSARL_v2","pSARL_v2r2lgsbhw","628e196e63bc7ab9e6c6caea","infreq","img/orange_2bandit_a2.png","68","68","test","1","31","31","2","",""
"null","141811","pSARL_v2","pSARL_v2r2lgsbhw","628e196e63bc7ab9e6c6caea","infreq_resp","img/orange_2bandit_a.png","68","68","test","","","","2","",""
"null","141986","pSARL_v2","pSARL_v2r2lgsbhw","628e196e63bc7ab9e6c6caea","fixation","img/fixation.png","null","","test","","","","","",""
"369.60000002384186","142362","pSARL_v2","pSARL_v2r2lgsbhw","628e196e63bc7ab9e6c6caea","freq","img/green_2bandit_a2.png","70","70","test","1","32","32","2","",""
"null","142804","pSARL_v2","pSARL_v2r2lgsbhw","628e196e63bc7ab9e6c6caea","freq_resp","img/green_2bandit_a.png","70","70","test","","","","2","",""
"null","142966","pSARL_v2","pSARL_v2r2lgsbhw","628e196e63bc7ab9e6c6caea","fixation","img/fixation.png","null","","test","","","","","",""
"366.7999999523163","143339","pSARL_v2","pSARL_v2r2lgsbhw","628e196e63bc7ab9e6c6caea","freq","img/green_2bandit_a2.png","70","70","test","1","33","33","2","",""
"null","143788","pSARL_v2","pSARL_v2r2lgsbhw","628e196e63bc7ab9e6c6caea","freq_resp","img/green_2bandit_a.png","70","70","test","","","","2","",""
"null","143956","pSARL_v2","pSARL_v2r2lgsbhw","628e196e63bc7ab9e6c6caea","fixation","img/fixation.png","null","","test","","","","","",""
"283.10000002384186","144246","pSARL_v2","pSARL_v2r2lgsbhw","628e196e63bc7ab9e6c6caea","freq","img/green_2bandit_a2.png","70","70","test","1","34","34","2","",""
"null","144770","pSARL_v2","pSARL_v2r2lgsbhw","628e196e63bc7ab9e6c6caea","freq_resp","img/green_2bandit_a.png","70","70","test","","","","2","",""
"null","144935","pSARL_v2","pSARL_v2r2lgsbhw","628e196e63bc7ab9e6c6caea","fixation","img/fixation.png","null","","test","","","","","",""
"303.59999990463257","145246","pSARL_v2","pSARL_v2r2lgsbhw","628e196e63bc7ab9e6c6caea","freq","img/green_2bandit_a2.png","70","70","test","1","35","35","2","",""
"null","145758","pSARL_v2","pSARL_v2r2lgsbhw","628e196e63bc7ab9e6c6caea","freq_resp","img/green_2bandit_a.png","70","70","test","","","","2","",""
"null","145917","pSARL_v2","pSARL_v2r2lgsbhw","628e196e63bc7ab9e6c6caea","fixation","img/fixation.png","null","","test","","","","","",""
"290.40000009536743","146216","pSARL_v2","pSARL_v2r2lgsbhw","628e196e63bc7ab9e6c6caea","freq","img/green_2bandit_a2.png","70","70","test","1","36","36","2","",""
"null","146738","pSARL_v2","pSARL_v2r2lgsbhw","628e196e63bc7ab9e6c6caea","freq_resp","img/green_2bandit_a.png","70","70","test","","","","2","",""
"null","146910","pSARL_v2","pSARL_v2r2lgsbhw","628e196e63bc7ab9e6c6caea","fixation","img/fixation.png","null","","test","","","","","",""
"312.1999999284744","147232","pSARL_v2","pSARL_v2r2lgsbhw","628e196e63bc7ab9e6c6caea","freq","img/green_2bandit_a2.png","70","70","test","1","37","37","2","",""
"null","147730","pSARL_v2","pSARL_v2r2lgsbhw","628e196e63bc7ab9e6c6caea","freq_resp","img/green_2bandit_a.png","70","70","test","","","","2","",""
"null","147902","pSARL_v2","pSARL_v2r2lgsbhw","628e196e63bc7ab9e6c6caea","fixation","img/fixation.png","null","","test","","","","","",""
"308.3000000715256","148220","pSARL_v2","pSARL_v2r2lgsbhw","628e196e63bc7ab9e6c6caea","freq","img/green_2bandit_a2.png","70","70","test","1","38","38","2","",""
"null","148730","pSARL_v2","pSARL_v2r2lgsbhw","628e196e63bc7ab9e6c6caea","freq_resp","img/green_2bandit_a.png","70","70","test","","","","2","",""
"null","148900","pSARL_v2","pSARL_v2r2lgsbhw","628e196e63bc7ab9e6c6caea","fixation","img/fixation.png","null","","test","","","","","",""
"278","149187","pSARL_v2","pSARL_v2r2lgsbhw","628e196e63bc7ab9e6c6caea","freq","img/green_2bandit_a2.png","70","70","test","1","39","39","2","",""
"null","149725","pSARL_v2","pSARL_v2r2lgsbhw","628e196e63bc7ab9e6c6caea","freq_resp","img/green_2bandit_a.png","70","70","test","","","","2","",""
"null","149896","pSARL_v2","pSARL_v2r2lgsbhw","628e196e63bc7ab9e6c6caea","fixation","img/fixation.png","null","","test","","","","","",""
"353.39999997615814","150256","pSARL_v2","pSARL_v2r2lgsbhw","628e196e63bc7ab9e6c6caea","freq","img/green_2bandit_a2.png","70","70","test","1","40","40","2","",""
"null","150710","pSARL_v2","pSARL_v2r2lgsbhw","628e196e63bc7ab9e6c6caea","freq_resp","img/green_2bandit_a.png","70","70","test","","","","2","",""
"null","150871","pSARL_v2","pSARL_v2r2lgsbhw","628e196e63bc7ab9e6c6caea","fixation","img/fixation.png","null","","test","","","","","",""
"287.09999990463257","151168","pSARL_v2","pSARL_v2r2lgsbhw","628e196e63bc7ab9e6c6caea","freq","img/green_2bandit_a2.png","70","70","test","1","41","41","2","",""
"null","151691","pSARL_v2","pSARL_v2r2lgsbhw","628e196e63bc7ab9e6c6caea","freq_resp","img/green_2bandit_a.png","70","70","test","","","","2","",""
"null","151859","pSARL_v2","pSARL_v2r2lgsbhw","628e196e63bc7ab9e6c6caea","fixation","img/fixation.png","null","","test","","","","","",""
"302.1999999284744","152169","pSARL_v2","pSARL_v2r2lgsbhw","628e196e63bc7ab9e6c6caea","freq","img/green_2bandit_a2.png","70","70","test","1","42","42","2","",""
"null","152676","pSARL_v2","pSARL_v2r2lgsbhw","628e196e63bc7ab9e6c6caea","freq_resp","img/green_2bandit_a.png","70","70","test","","","","2","",""
"null","152847","pSARL_v2","pSARL_v2r2lgsbhw","628e196e63bc7ab9e6c6caea","fixation","img/fixation.png","null","","test","","","","","",""
"325.60000002384186","153181","pSARL_v2","pSARL_v2r2lgsbhw","628e196e63bc7ab9e6c6caea","freq","img/green_2bandit_a2.png","70","70","test","1","43","43","2","",""
"null","153663","pSARL_v2","pSARL_v2r2lgsbhw","628e196e63bc7ab9e6c6caea","freq_resp","img/green_2bandit_a.png","70","70","test","","","","2","",""
"null","153826","pSARL_v2","pSARL_v2r2lgsbhw","628e196e63bc7ab9e6c6caea","fixation","img/fixation.png","null","","test","","","","","",""
"266.09999990463257","154102","pSARL_v2","pSARL_v2r2lgsbhw","628e196e63bc7ab9e6c6caea","freq","img/green_2bandit_a2.png","70","70","test","1","44","44","2","",""
"null","154654","pSARL_v2","pSARL_v2r2lgsbhw","628e196e63bc7ab9e6c6caea","freq_resp","img/green_2bandit_a.png","70","70","test","","","","2","",""
"null","154814","pSARL_v2","pSARL_v2r2lgsbhw","628e196e63bc7ab9e6c6caea","fixation","img/fixation.png","null","","test","","","","","",""
"277.09999990463257","155100","pSARL_v2","pSARL_v2r2lgsbhw","628e196e63bc7ab9e6c6caea","freq","img/green_2bandit_a2.png","70","70","test","1","45","45","2","",""
"null","155640","pSARL_v2","pSARL_v2r2lgsbhw","628e196e63bc7ab9e6c6caea","freq_resp","img/green_2bandit_a.png","70","70","test","","","","2","",""
"null","155805","pSARL_v2","pSARL_v2r2lgsbhw","628e196e63bc7ab9e6c6caea","fixation","img/fixation.png","null","","test","","","","","",""
"238.10000002384186","156052","pSARL_v2","pSARL_v2r2lgsbhw","628e196e63bc7ab9e6c6caea","freq","img/green_2bandit_a2.png","70","70","test","1","46","46","2","",""
"null","156621","pSARL_v2","pSARL_v2r2lgsbhw","628e196e63bc7ab9e6c6caea","freq_resp","img/green_2bandit_a.png","70","70","test","","","","2","",""
"null","156783","pSARL_v2","pSARL_v2r2lgsbhw","628e196e63bc7ab9e6c6caea","fixation","img/fixation.png","null","","test","","","","","",""
"112.5","156905","pSARL_v2","pSARL_v2r2lgsbhw","628e196e63bc7ab9e6c6caea","freq","img/green_2bandit_a2.png","70","70","test","1","47","47","2","",""
"null","157610","pSARL_v2","pSARL_v2r2lgsbhw","628e196e63bc7ab9e6c6caea","freq_resp","img/green_2bandit_a.png","70","70","test","","","","2","",""
"null","157776","pSARL_v2","pSARL_v2r2lgsbhw","628e196e63bc7ab9e6c6caea","fixation","img/fixation.png","null","","test","","","","","",""
"85.5","157869","pSARL_v2","pSARL_v2r2lgsbhw","628e196e63bc7ab9e6c6caea","freq","img/green_2bandit_a2.png","70","70","test","1","48","48","2","",""
"null","158601","pSARL_v2","pSARL_v2r2lgsbhw","628e196e63bc7ab9e6c6caea","freq_resp","img/green_2bandit_a.png","70","70","test","","","","2","",""
"null","158769","pSARL_v2","pSARL_v2r2lgsbhw","628e196e63bc7ab9e6c6caea","fixation","img/fixation.png","null","","test","","","","","",""
"570.3999999761581","159348","pSARL_v2","pSARL_v2r2lgsbhw","628e196e63bc7ab9e6c6caea","reward","img/slot.png","74","","test","","","","","",""
"null","160104","pSARL_v2","pSARL_v2r2lgsbhw","628e196e63bc7ab9e6c6caea","points","<div class=""verylowPoints""> -11 </div>","null","na","test","","","","2","-11","1"
"534.6000000238419","160646","pSARL_v2","pSARL_v2r2lgsbhw","628e196e63bc7ab9e6c6caea","freq","img/green_2bandit_a2.png","70","70","test","1","49","49","3","",""
"null","160927","pSARL_v2","pSARL_v2r2lgsbhw","628e196e63bc7ab9e6c6caea","freq_resp","img/green_2bandit_a.png","70","70","test","","","","3","",""
"null","161089","pSARL_v2","pSARL_v2r2lgsbhw","628e196e63bc7ab9e6c6caea","fixation","img/fixation.png","null","","test","","","","","",""
"579.3000000715256","161676","pSARL_v2","pSARL_v2r2lgsbhw","628e196e63bc7ab9e6c6caea","infreq","img/orange_2bandit_a2.png","68","68","test","1","50","50","3","",""
"null","161911","pSARL_v2","pSARL_v2r2lgsbhw","628e196e63bc7ab9e6c6caea","infreq_resp","img/orange_2bandit_a.png","68","68","test","","","","3","",""
"null","162081","pSARL_v2","pSARL_v2r2lgsbhw","628e196e63bc7ab9e6c6caea","fixation","img/fixation.png","null","","test","","","","","",""
"425.60000002384186","162512","pSARL_v2","pSARL_v2r2lgsbhw","628e196e63bc7ab9e6c6caea","freq","img/green_2bandit_a2.png","70","70","test","1","51","51","3","",""
"null","162898","pSARL_v2","pSARL_v2r2lgsbhw","628e196e63bc7ab9e6c6caea","freq_resp","img/green_2bandit_a.png","70","70","test","","","","3","",""
"null","163058","pSARL_v2","pSARL_v2r2lgsbhw","628e196e63bc7ab9e6c6caea","fixation","img/fixation.png","null","","test","","","","","",""
"376.7000000476837","163442","pSARL_v2","pSARL_v2r2lgsbhw","628e196e63bc7ab9e6c6caea","freq","img/green_2bandit_a2.png","70","70","test","1","52","52","3","",""
"null","163878","pSARL_v2","pSARL_v2r2lgsbhw","628e196e63bc7ab9e6c6caea","freq_resp","img/green_2bandit_a.png","70","70","test","","","","3","",""
"null","164039","pSARL_v2","pSARL_v2r2lgsbhw","628e196e63bc7ab9e6c6caea","fixation","img/fixation.png","null","","test","","","","","",""
"299.2999999523163","164345","pSARL_v2","pSARL_v2r2lgsbhw","628e196e63bc7ab9e6c6caea","freq","img/green_2bandit_a2.png","70","70","test","1","53","53","3","",""
"null","164856","pSARL_v2","pSARL_v2r2lgsbhw","628e196e63bc7ab9e6c6caea","freq_resp","img/green_2bandit_a.png","70","70","test","","","","3","",""
"null","165018","pSARL_v2","pSARL_v2r2lgsbhw","628e196e63bc7ab9e6c6caea","fixation","img/fixation.png","null","","test","","","","","",""
"416.5","165443","pSARL_v2","pSARL_v2r2lgsbhw","628e196e63bc7ab9e6c6caea","infreq","img/orange_2bandit_a2.png","68","68","test","1","54","54","3","",""
"null","165843","pSARL_v2","pSARL_v2r2lgsbhw","628e196e63bc7ab9e6c6caea","infreq_resp","img/orange_2bandit_a.png","68","68","test","","","","3","",""
"null","166015","pSARL_v2","pSARL_v2r2lgsbhw","628e196e63bc7ab9e6c6caea","fixation","img/fixation.png","null","","test","","","","","",""
"351.5","166374","pSARL_v2","pSARL_v2r2lgsbhw","628e196e63bc7ab9e6c6caea","freq","img/green_2bandit_a2.png","70","70","test","1","55","55","3","",""
"null","166840","pSARL_v2","pSARL_v2r2lgsbhw","628e196e63bc7ab9e6c6caea","freq_resp","img/green_2bandit_a.png","70","70","test","","","","3","",""
"null","166999","pSARL_v2","pSARL_v2r2lgsbhw","628e196e63bc7ab9e6c6caea","fixation","img/fixation.png","null","","test","","","","","",""
"270.39999985694885","167276","pSARL_v2","pSARL_v2r2lgsbhw","628e196e63bc7ab9e6c6caea","freq","img/green_2bandit_a2.png","70","70","test","1","56","56","3","",""
"null","167818","pSARL_v2","pSARL_v2r2lgsbhw","628e196e63bc7ab9e6c6caea","freq_resp","img/green_2bandit_a.png","70","70","test","","","","3","",""
"null","167990","pSARL_v2","pSARL_v2r2lgsbhw","628e196e63bc7ab9e6c6caea","fixation","img/fixation.png","null","","test","","","","","",""
"281.7999999523163","168281","pSARL_v2","pSARL_v2r2lgsbhw","628e196e63bc7ab9e6c6caea","freq","img/green_2bandit_a2.png","70","70","test","1","57","57","3","",""
"null","168811","pSARL_v2","pSARL_v2r2lgsbhw","628e196e63bc7ab9e6c6caea","freq_resp","img/green_2bandit_a.png","70","70","test","","","","3","",""
"null","168976","pSARL_v2","pSARL_v2r2lgsbhw","628e196e63bc7ab9e6c6caea","fixation","img/fixation.png","null","","test","","","","","",""
"324","169306","pSARL_v2","pSARL_v2r2lgsbhw","628e196e63bc7ab9e6c6caea","freq","img/green_2bandit_a2.png","70","70","test","1","58","58","3","",""
"null","169793","pSARL_v2","pSARL_v2r2lgsbhw","628e196e63bc7ab9e6c6caea","freq_resp","img/green_2bandit_a.png","70","70","test","","","","3","",""
"null","169949","pSARL_v2","pSARL_v2r2lgsbhw","628e196e63bc7ab9e6c6caea","fixation","img/fixation.png","null","","test","","","","","",""
"295.09999990463257","170252","pSARL_v2","pSARL_v2r2lgsbhw","628e196e63bc7ab9e6c6caea","freq","img/green_2bandit_a2.png","70","70","test","1","59","59","3","",""
"null","170772","pSARL_v2","pSARL_v2r2lgsbhw","628e196e63bc7ab9e6c6caea","freq_resp","img/green_2bandit_a.png","70","70","test","","","","3","",""
"null","170943","pSARL_v2","pSARL_v2r2lgsbhw","628e196e63bc7ab9e6c6caea","fixation","img/fixation.png","null","","test","","","","","",""
"214.09999990463257","171166","pSARL_v2","pSARL_v2r2lgsbhw","628e196e63bc7ab9e6c6caea","freq","img/green_2bandit_a2.png","70","70","test","1","60","60","3","",""
"null","171766","pSARL_v2","pSARL_v2r2lgsbhw","628e196e63bc7ab9e6c6caea","freq_resp","img/green_2bandit_a.png","70","70","test","","","","3","",""
"null","171939","pSARL_v2","pSARL_v2r2lgsbhw","628e196e63bc7ab9e6c6caea","fixation","img/fixation.png","null","","test","","","","","",""
"304.5","172253","pSARL_v2","pSARL_v2r2lgsbhw","628e196e63bc7ab9e6c6caea","freq","img/green_2bandit_a2.png","70","70","test","1","61","61","3","",""
"null","172761","pSARL_v2","pSARL_v2r2lgsbhw","628e196e63bc7ab9e6c6caea","freq_resp","img/green_2bandit_a.png","70","70","test","","","","3","",""
"null","172925","pSARL_v2","pSARL_v2r2lgsbhw","628e196e63bc7ab9e6c6caea","fixation","img/fixation.png","null","","test","","","","","",""
"262.09999990463257","173195","pSARL_v2","pSARL_v2r2lgsbhw","628e196e63bc7ab9e6c6caea","freq","img/green_2bandit_a2.png","70","70","test","1","62","62","3","",""
"null","173742","pSARL_v2","pSARL_v2r2lgsbhw","628e196e63bc7ab9e6c6caea","freq_resp","img/green_2bandit_a.png","70","70","test","","","","3","",""
"null","173913","pSARL_v2","pSARL_v2r2lgsbhw","628e196e63bc7ab9e6c6caea","fixation","img/fixation.png","null","","test","","","","","",""
"272.39999985694885","174191","pSARL_v2","pSARL_v2r2lgsbhw","628e196e63bc7ab9e6c6caea","freq","img/green_2bandit_a2.png","70","70","test","1","63","63","3","",""
"null","174729","pSARL_v2","pSARL_v2r2lgsbhw","628e196e63bc7ab9e6c6caea","freq_resp","img/green_2bandit_a.png","70","70","test","","","","3","",""
"null","174894","pSARL_v2","pSARL_v2r2lgsbhw","628e196e63bc7ab9e6c6caea","fixation","img/fixation.png","null","","test","","","","","",""
"274.89999985694885","175176","pSARL_v2","pSARL_v2r2lgsbhw","628e196e63bc7ab9e6c6caea","freq","img/green_2bandit_a2.png","70","70","test","1","64","64","3","",""
"null","175720","pSARL_v2","pSARL_v2r2lgsbhw","628e196e63bc7ab9e6c6caea","freq_resp","img/green_2bandit_a.png","70","70","test","","","","3","",""
"null","175890","pSARL_v2","pSARL_v2r2lgsbhw","628e196e63bc7ab9e6c6caea","fixation","img/fixation.png","null","","test","","","","","",""
"360.5","176257","pSARL_v2","pSARL_v2r2lgsbhw","628e196e63bc7ab9e6c6caea","freq","img/green_2bandit_a2.png","70","70","test","1","65","65","3","",""
"null","176716","pSARL_v2","pSARL_v2r2lgsbhw","628e196e63bc7ab9e6c6caea","freq_resp","img/green_2bandit_a.png","70","70","test","","","","3","",""
"null","176876","pSARL_v2","pSARL_v2r2lgsbhw","628e196e63bc7ab9e6c6caea","fixation","img/fixation.png","null","","test","","","","","",""
"281.09999990463257","177164","pSARL_v2","pSARL_v2r2lgsbhw","628e196e63bc7ab9e6c6caea","freq","img/green_2bandit_a2.png","70","70","test","1","66","66","3","",""
"null","177697","pSARL_v2","pSARL_v2r2lgsbhw","628e196e63bc7ab9e6c6caea","freq_resp","img/green_2bandit_a.png","70","70","test","","","","3","",""
"null","177865","pSARL_v2","pSARL_v2r2lgsbhw","628e196e63bc7ab9e6c6caea","fixation","img/fixation.png","null","","test","","","","","",""
"229.20000004768372","178104","pSARL_v2","pSARL_v2r2lgsbhw","628e196e63bc7ab9e6c6caea","freq","img/green_2bandit_a2.png","70","70","test","1","67","67","3","",""
"null","178680","pSARL_v2","pSARL_v2r2lgsbhw","628e196e63bc7ab9e6c6caea","freq_resp","img/green_2bandit_a.png","70","70","test","","","","3","",""
"null","178847","pSARL_v2","pSARL_v2r2lgsbhw","628e196e63bc7ab9e6c6caea","fixation","img/fixation.png","null","","test","","","","","",""
"747.6000001430511","179602","pSARL_v2","pSARL_v2r2lgsbhw","628e196e63bc7ab9e6c6caea","reward","img/slot.png","74","","test","","","","","",""
"null","180366","pSARL_v2","pSARL_v2r2lgsbhw","628e196e63bc7ab9e6c6caea","points","<div class=""verylowPoints""> -7 </div>","null","na","test","","","","3","-7","2"
"503.7999999523163","180878","pSARL_v2","pSARL_v2r2lgsbhw","628e196e63bc7ab9e6c6caea","freq","img/green_2bandit_a2.png","70","70","test","1","68","68","4","",""
"null","181184","pSARL_v2","pSARL_v2r2lgsbhw","628e196e63bc7ab9e6c6caea","freq_resp","img/green_2bandit_a.png","70","70","test","","","","4","",""
"null","181338","pSARL_v2","pSARL_v2r2lgsbhw","628e196e63bc7ab9e6c6caea","fixation","img/fixation.png","null","","test","","","","","",""
"447.7999999523163","181802","pSARL_v2","pSARL_v2r2lgsbhw","628e196e63bc7ab9e6c6caea","freq","img/green_2bandit_a2.png","70","70","test","1","69","69","4","",""
"null","182167","pSARL_v2","pSARL_v2r2lgsbhw","628e196e63bc7ab9e6c6caea","freq_resp","img/green_2bandit_a.png","70","70","test","","","","4","",""
"null","182337","pSARL_v2","pSARL_v2r2lgsbhw","628e196e63bc7ab9e6c6caea","fixation","img/fixation.png","null","","test","","","","","",""
"319.7000000476837","182663","pSARL_v2","pSARL_v2r2lgsbhw","628e196e63bc7ab9e6c6caea","freq","img/green_2bandit_a2.png","70","70","test","1","70","70","4","",""
"null","183167","pSARL_v2","pSARL_v2r2lgsbhw","628e196e63bc7ab9e6c6caea","freq_resp","img/green_2bandit_a.png","70","70","test","","","","4","",""
"null","183332","pSARL_v2","pSARL_v2r2lgsbhw","628e196e63bc7ab9e6c6caea","fixation","img/fixation.png","null","","test","","","","","",""
"307.39999985694885","183648","pSARL_v2","pSARL_v2r2lgsbhw","628e196e63bc7ab9e6c6caea","freq","img/green_2bandit_a2.png","70","70","test","1","71","71","4","",""
"null","184152","pSARL_v2","pSARL_v2r2lgsbhw","628e196e63bc7ab9e6c6caea","freq_resp","img/green_2bandit_a.png","70","70","test","","","","4","",""
"null","184311","pSARL_v2","pSARL_v2r2lgsbhw","628e196e63bc7ab9e6c6caea","fixation","img/fixation.png","null","","test","","","","","",""
"140.20000004768372","184458","pSARL_v2","pSARL_v2r2lgsbhw","628e196e63bc7ab9e6c6caea","freq","img/green_2bandit_a2.png","70","70","test","1","72","72","4","",""
"null","185133","pSARL_v2","pSARL_v2r2lgsbhw","628e196e63bc7ab9e6c6caea","freq_resp","img/green_2bandit_a.png","70","70","test","","","","4","",""
"null","185291","pSARL_v2","pSARL_v2r2lgsbhw","628e196e63bc7ab9e6c6caea","fixation","img/fixation.png","null","","test","","","","","",""
"111.79999995231628","185412","pSARL_v2","pSARL_v2r2lgsbhw","628e196e63bc7ab9e6c6caea","freq","img/green_2bandit_a2.png","70","70","test","1","73","73","4","",""
"null","186122","pSARL_v2","pSARL_v2r2lgsbhw","628e196e63bc7ab9e6c6caea","freq_resp","img/green_2bandit_a.png","70","70","test","","","","4","",""
"null","186286","pSARL_v2","pSARL_v2r2lgsbhw","628e196e63bc7ab9e6c6caea","fixation","img/fixation.png","null","","test","","","","","",""
"266.09999990463257","186561","pSARL_v2","pSARL_v2r2lgsbhw","628e196e63bc7ab9e6c6caea","freq","img/green_2bandit_a2.png","70","70","test","1","74","74","4","",""
"null","187102","pSARL_v2","pSARL_v2r2lgsbhw","628e196e63bc7ab9e6c6caea","freq_resp","img/green_2bandit_a.png","70","70","test","","","","4","",""
"null","187274","pSARL_v2","pSARL_v2r2lgsbhw","628e196e63bc7ab9e6c6caea","fixation","img/fixation.png","null","","test","","","","","",""
"323","187604","pSARL_v2","pSARL_v2r2lgsbhw","628e196e63bc7ab9e6c6caea","infreq","img/orange_2bandit_a2.png","68","68","test","1","75","75","4","",""
"null","188100","pSARL_v2","pSARL_v2r2lgsbhw","628e196e63bc7ab9e6c6caea","infreq_resp","img/orange_2bandit_a.png","68","68","test","","","","4","",""
"null","188262","pSARL_v2","pSARL_v2r2lgsbhw","628e196e63bc7ab9e6c6caea","fixation","img/fixation.png","null","","test","","","","","",""
"369.40000009536743","188635","pSARL_v2","pSARL_v2r2lgsbhw","628e196e63bc7ab9e6c6caea","freq","img/green_2bandit_a2.png","70","70","test","1","76","76","4","",""
"null","189073","pSARL_v2","pSARL_v2r2lgsbhw","628e196e63bc7ab9e6c6caea","freq_resp","img/green_2bandit_a.png","70","70","test","","","","4","",""
"null","189238","pSARL_v2","pSARL_v2r2lgsbhw","628e196e63bc7ab9e6c6caea","fixation","img/fixation.png","null","","test","","","","","",""
"277.10000014305115","189523","pSARL_v2","pSARL_v2r2lgsbhw","628e196e63bc7ab9e6c6caea","freq","img/green_2bandit_a2.png","70","70","test","1","77","77","4","",""
"null","190050","pSARL_v2","pSARL_v2r2lgsbhw","628e196e63bc7ab9e6c6caea","freq_resp","img/green_2bandit_a.png","70","70","test","","","","4","",""
"null","190216","pSARL_v2","pSARL_v2r2lgsbhw","628e196e63bc7ab9e6c6caea","fixation","img/fixation.png","null","","test","","","","","",""
"496","190719","pSARL_v2","pSARL_v2r2lgsbhw","628e196e63bc7ab9e6c6caea","infreq","img/orange_2bandit_a2.png","68","68","test","1","78","78","4","",""
"null","191032","pSARL_v2","pSARL_v2r2lgsbhw","628e196e63bc7ab9e6c6caea","infreq_resp","img/orange_2bandit_a.png","68","68","test","","","","4","",""
"null","191194","pSARL_v2","pSARL_v2r2lgsbhw","628e196e63bc7ab9e6c6caea","fixation","img/fixation.png","null","","test","","","","","",""
"417.60000014305115","191621","pSARL_v2","pSARL_v2r2lgsbhw","628e196e63bc7ab9e6c6caea","freq","img/green_2bandit_a2.png","70","70","test","1","79","79","4","",""
"null","192027","pSARL_v2","pSARL_v2r2lgsbhw","628e196e63bc7ab9e6c6caea","freq_resp","img/green_2bandit_a.png","70","70","test","","","","4","",""
"null","192196","pSARL_v2","pSARL_v2r2lgsbhw","628e196e63bc7ab9e6c6caea","fixation","img/fixation.png","null","","test","","","","","",""
"356.59999990463257","192558","pSARL_v2","pSARL_v2r2lgsbhw","628e196e63bc7ab9e6c6caea","freq","img/green_2bandit_a2.png","70","70","test","1","80","80","4","",""
"null","193020","pSARL_v2","pSARL_v2r2lgsbhw","628e196e63bc7ab9e6c6caea","freq_resp","img/green_2bandit_a.png","70","70","test","","","","4","",""
"null","193189","pSARL_v2","pSARL_v2r2lgsbhw","628e196e63bc7ab9e6c6caea","fixation","img/fixation.png","null","","test","","","","","",""
"253","193450","pSARL_v2","pSARL_v2r2lgsbhw","628e196e63bc7ab9e6c6caea","freq","img/green_2bandit_a2.png","70","70","test","1","81","81","4","",""
"null","194017","pSARL_v2","pSARL_v2r2lgsbhw","628e196e63bc7ab9e6c6caea","freq_resp","img/green_2bandit_a.png","70","70","test","","","","4","",""
"null","194190","pSARL_v2","pSARL_v2r2lgsbhw","628e196e63bc7ab9e6c6caea","fixation","img/fixation.png","null","","test","","","","","",""
"274.7000000476837","194473","pSARL_v2","pSARL_v2r2lgsbhw","628e196e63bc7ab9e6c6caea","freq","img/green_2bandit_a2.png","70","70","test","1","82","82","4","",""
"null","195010","pSARL_v2","pSARL_v2r2lgsbhw","628e196e63bc7ab9e6c6caea","freq_resp","img/green_2bandit_a.png","70","70","test","","","","4","",""
"null","195180","pSARL_v2","pSARL_v2r2lgsbhw","628e196e63bc7ab9e6c6caea","fixation","img/fixation.png","null","","test","","","","","",""
"293.2999999523163","195483","pSARL_v2","pSARL_v2r2lgsbhw","628e196e63bc7ab9e6c6caea","freq","img/green_2bandit_a2.png","70","70","test","1","83","83","4","",""
"null","196006","pSARL_v2","pSARL_v2r2lgsbhw","628e196e63bc7ab9e6c6caea","freq_resp","img/green_2bandit_a.png","70","70","test","","","","4","",""
"null","196164","pSARL_v2","pSARL_v2r2lgsbhw","628e196e63bc7ab9e6c6caea","fixation","img/fixation.png","null","","test","","","","","",""
"335.5","196508","pSARL_v2","pSARL_v2r2lgsbhw","628e196e63bc7ab9e6c6caea","freq","img/green_2bandit_a2.png","70","70","test","1","84","84","4","",""
"null","196984","pSARL_v2","pSARL_v2r2lgsbhw","628e196e63bc7ab9e6c6caea","freq_resp","img/green_2bandit_a.png","70","70","test","","","","4","",""
"null","197155","pSARL_v2","pSARL_v2r2lgsbhw","628e196e63bc7ab9e6c6caea","fixation","img/fixation.png","null","","test","","","","","",""
"307","197471","pSARL_v2","pSARL_v2r2lgsbhw","628e196e63bc7ab9e6c6caea","freq","img/green_2bandit_a2.png","70","70","test","1","85","85","4","",""
"null","197971","pSARL_v2","pSARL_v2r2lgsbhw","628e196e63bc7ab9e6c6caea","freq_resp","img/green_2bandit_a.png","70","70","test","","","","4","",""
"null","198132","pSARL_v2","pSARL_v2r2lgsbhw","628e196e63bc7ab9e6c6caea","fixation","img/fixation.png","null","","test","","","","","",""
"281.59999990463257","198422","pSARL_v2","pSARL_v2r2lgsbhw","628e196e63bc7ab9e6c6caea","freq","img/green_2bandit_a2.png","70","70","test","1","86","86","4","",""
"null","198958","pSARL_v2","pSARL_v2r2lgsbhw","628e196e63bc7ab9e6c6caea","freq_resp","img/green_2bandit_a.png","70","70","test","","","","4","",""
"null","199117","pSARL_v2","pSARL_v2r2lgsbhw","628e196e63bc7ab9e6c6caea","fixation","img/fixation.png","null","","test","","","","","",""
"332","199458","pSARL_v2","pSARL_v2r2lgsbhw","628e196e63bc7ab9e6c6caea","freq","img/green_2bandit_a2.png","70","70","test","1","87","87","4","",""
"null","199937","pSARL_v2","pSARL_v2r2lgsbhw","628e196e63bc7ab9e6c6caea","freq_resp","img/green_2bandit_a.png","70","70","test","","","","4","",""
"null","200107","pSARL_v2","pSARL_v2r2lgsbhw","628e196e63bc7ab9e6c6caea","fixation","img/fixation.png","null","","test","","","","","",""
"312.09999990463257","200426","pSARL_v2","pSARL_v2r2lgsbhw","628e196e63bc7ab9e6c6caea","freq","img/green_2bandit_a2.png","70","70","test","1","88","88","4","",""
"null","200922","pSARL_v2","pSARL_v2r2lgsbhw","628e196e63bc7ab9e6c6caea","freq_resp","img/green_2bandit_a.png","70","70","test","","","","4","",""
"null","201094","pSARL_v2","pSARL_v2r2lgsbhw","628e196e63bc7ab9e6c6caea","fixation","img/fixation.png","null","","test","","","","","",""
"308.39999985694885","201410","pSARL_v2","pSARL_v2r2lgsbhw","628e196e63bc7ab9e6c6caea","freq","img/green_2bandit_a2.png","70","70","test","1","89","89","4","",""
"null","201918","pSARL_v2","pSARL_v2r2lgsbhw","628e196e63bc7ab9e6c6caea","freq_resp","img/green_2bandit_a.png","70","70","test","","","","4","",""
"null","202081","pSARL_v2","pSARL_v2r2lgsbhw","628e196e63bc7ab9e6c6caea","fixation","img/fixation.png","null","","test","","","","","",""
"293","202380","pSARL_v2","pSARL_v2r2lgsbhw","628e196e63bc7ab9e6c6caea","freq","img/green_2bandit_a2.png","70","70","test","1","90","90","4","",""
"null","202900","pSARL_v2","pSARL_v2r2lgsbhw","628e196e63bc7ab9e6c6caea","freq_resp","img/green_2bandit_a.png","70","70","test","","","","4","",""
"null","203069","pSARL_v2","pSARL_v2r2lgsbhw","628e196e63bc7ab9e6c6caea","fixation","img/fixation.png","null","","test","","","","","",""
"520.0999999046326","203596","pSARL_v2","pSARL_v2r2lgsbhw","628e196e63bc7ab9e6c6caea","reward","img/slot.png","74","","test","","","","","",""
"null","204367","pSARL_v2","pSARL_v2r2lgsbhw","628e196e63bc7ab9e6c6caea","points","<div class=""verylowPoints""> -3 </div>","null","na","test","","","","4","-3","3"
"461.2000000476837","204837","pSARL_v2","pSARL_v2r2lgsbhw","628e196e63bc7ab9e6c6caea","freq","img/green_2bandit_a2.png","70","70","test","1","91","91","5","",""
"null","205190","pSARL_v2","pSARL_v2r2lgsbhw","628e196e63bc7ab9e6c6caea","freq_resp","img/green_2bandit_a.png","70","70","test","","","","5","",""
"null","205357","pSARL_v2","pSARL_v2r2lgsbhw","628e196e63bc7ab9e6c6caea","fixation","img/fixation.png","null","","test","","","","","",""
"259.7999999523163","205624","pSARL_v2","pSARL_v2r2lgsbhw","628e196e63bc7ab9e6c6caea","freq","img/green_2bandit_a2.png","70","70","test","1","92","92","5","",""
"null","206185","pSARL_v2","pSARL_v2r2lgsbhw","628e196e63bc7ab9e6c6caea","freq_resp","img/green_2bandit_a.png","70","70","test","","","","5","",""
"null","206343","pSARL_v2","pSARL_v2r2lgsbhw","628e196e63bc7ab9e6c6caea","fixation","img/fixation.png","null","","test","","","","","",""
"231.59999990463257","206582","pSARL_v2","pSARL_v2r2lgsbhw","628e196e63bc7ab9e6c6caea","freq","img/green_2bandit_a2.png","70","70","test","1","93","93","5","",""
"null","207162","pSARL_v2","pSARL_v2r2lgsbhw","628e196e63bc7ab9e6c6caea","freq_resp","img/green_2bandit_a.png","70","70","test","","","","5","",""
"null","207322","pSARL_v2","pSARL_v2r2lgsbhw","628e196e63bc7ab9e6c6caea","fixation","img/fixation.png","null","","test","","","","","",""
"303.40000009536743","207635","pSARL_v2","pSARL_v2r2lgsbhw","628e196e63bc7ab9e6c6caea","freq","img/green_2bandit_a2.png","70","70","test","1","94","94","5","",""
"null","208148","pSARL_v2","pSARL_v2r2lgsbhw","628e196e63bc7ab9e6c6caea","freq_resp","img/green_2bandit_a.png","70","70","test","","","","5","",""
"null","208310","pSARL_v2","pSARL_v2r2lgsbhw","628e196e63bc7ab9e6c6caea","fixation","img/fixation.png","null","","test","","","","","",""
"231.09999990463257","208549","pSARL_v2","pSARL_v2r2lgsbhw","628e196e63bc7ab9e6c6caea","freq","img/green_2bandit_a2.png","70","70","test","1","95","95","5","",""
"null","209137","pSARL_v2","pSARL_v2r2lgsbhw","628e196e63bc7ab9e6c6caea","freq_resp","img/green_2bandit_a.png","70","70","test","","","","5","",""
"null","209302","pSARL_v2","pSARL_v2r2lgsbhw","628e196e63bc7ab9e6c6caea","fixation","img/fixation.png","null","","test","","","","","",""
"292.60000014305115","209601","pSARL_v2","pSARL_v2r2lgsbhw","628e196e63bc7ab9e6c6caea","freq","img/green_2bandit_a2.png","70","70","test","1","96","96","5","",""
"null","210121","pSARL_v2","pSARL_v2r2lgsbhw","628e196e63bc7ab9e6c6caea","freq_resp","img/green_2bandit_a.png","70","70","test","","","","5","",""
"null","210280","pSARL_v2","pSARL_v2r2lgsbhw","628e196e63bc7ab9e6c6caea","fixation","img/fixation.png","null","","test","","","","","",""
"317.5","210606","pSARL_v2","pSARL_v2r2lgsbhw","628e196e63bc7ab9e6c6caea","freq","img/green_2bandit_a2.png","70","70","test","1","97","97","5","",""
"null","211104","pSARL_v2","pSARL_v2r2lgsbhw","628e196e63bc7ab9e6c6caea","freq_resp","img/green_2bandit_a.png","70","70","test","","","","5","",""
"null","211267","pSARL_v2","pSARL_v2r2lgsbhw","628e196e63bc7ab9e6c6caea","fixation","img/fixation.png","null","","test","","","","","",""
"260.59999990463257","211535","pSARL_v2","pSARL_v2r2lgsbhw","628e196e63bc7ab9e6c6caea","infreq","img/orange_2bandit_a2.png","70","68","test","0","98","98","5","",""
"null","212091","pSARL_v2","pSARL_v2r2lgsbhw","628e196e63bc7ab9e6c6caea","infreq_resp","img/orange_2bandit_a.png","70","68","test","","","","5","",""
"null","212262","pSARL_v2","pSARL_v2r2lgsbhw","628e196e63bc7ab9e6c6caea","fixation","img/fixation.png","null","","test","","","","","",""
"396","212665","pSARL_v2","pSARL_v2r2lgsbhw","628e196e63bc7ab9e6c6caea","freq","img/green_2bandit_a2.png","70","70","test","1","99","99","5","",""
"null","213089","pSARL_v2","pSARL_v2r2lgsbhw","628e196e63bc7ab9e6c6caea","freq_resp","img/green_2bandit_a.png","70","70","test","","","","5","",""
"null","213252","pSARL_v2","pSARL_v2r2lgsbhw","628e196e63bc7ab9e6c6caea","fixation","img/fixation.png","null","","test","","","","","",""
"294.7999999523163","213556","pSARL_v2","pSARL_v2r2lgsbhw","628e196e63bc7ab9e6c6caea","freq","img/green_2bandit_a2.png","70","70","test","1","100","100","5","",""
"null","214069","pSARL_v2","pSARL_v2r2lgsbhw","628e196e63bc7ab9e6c6caea","freq_resp","img/green_2bandit_a.png","70","70","test","","","","5","",""
"null","214233","pSARL_v2","pSARL_v2r2lgsbhw","628e196e63bc7ab9e6c6caea","fixation","img/fixation.png","null","","test","","","","","",""
"276.39999985694885","214519","pSARL_v2","pSARL_v2r2lgsbhw","628e196e63bc7ab9e6c6caea","freq","img/green_2bandit_a2.png","70","70","test","1","101","101","5","",""
"null","215054","pSARL_v2","pSARL_v2r2lgsbhw","628e196e63bc7ab9e6c6caea","freq_resp","img/green_2bandit_a.png","70","70","test","","","","5","",""
"null","215220","pSARL_v2","pSARL_v2r2lgsbhw","628e196e63bc7ab9e6c6caea","fixation","img/fixation.png","null","","test","","","","","",""
"318.5","215545","pSARL_v2","pSARL_v2r2lgsbhw","628e196e63bc7ab9e6c6caea","freq","img/green_2bandit_a2.png","70","70","test","1","102","102","5","",""
"null","216048","pSARL_v2","pSARL_v2r2lgsbhw","628e196e63bc7ab9e6c6caea","freq_resp","img/green_2bandit_a.png","70","70","test","","","","5","",""
"null","216217","pSARL_v2","pSARL_v2r2lgsbhw","628e196e63bc7ab9e6c6caea","fixation","img/fixation.png","null","","test","","","","","",""
"282.5","216506","pSARL_v2","pSARL_v2r2lgsbhw","628e196e63bc7ab9e6c6caea","freq","img/green_2bandit_a2.png","70","70","test","1","103","103","5","",""
"null","217040","pSARL_v2","pSARL_v2r2lgsbhw","628e196e63bc7ab9e6c6caea","freq_resp","img/green_2bandit_a.png","70","70","test","","","","5","",""
"null","217207","pSARL_v2","pSARL_v2r2lgsbhw","628e196e63bc7ab9e6c6caea","fixation","img/fixation.png","null","","test","","","","","",""
"343.2999999523163","217554","pSARL_v2","pSARL_v2r2lgsbhw","628e196e63bc7ab9e6c6caea","freq","img/green_2bandit_a2.png","70","70","test","1","104","104","5","",""
"null","218029","pSARL_v2","pSARL_v2r2lgsbhw","628e196e63bc7ab9e6c6caea","freq_resp","img/green_2bandit_a.png","70","70","test","","","","5","",""
"null","218194","pSARL_v2","pSARL_v2r2lgsbhw","628e196e63bc7ab9e6c6caea","fixation","img/fixation.png","null","","test","","","","","",""
"322.30000019073486","218526","pSARL_v2","pSARL_v2r2lgsbhw","628e196e63bc7ab9e6c6caea","freq","img/green_2bandit_a2.png","70","70","test","1","105","105","5","",""
"null","219014","pSARL_v2","pSARL_v2r2lgsbhw","628e196e63bc7ab9e6c6caea","freq_resp","img/green_2bandit_a.png","70","70","test","","","","5","",""
"null","219173","pSARL_v2","pSARL_v2r2lgsbhw","628e196e63bc7ab9e6c6caea","fixation","img/fixation.png","null","","test","","","","","",""
"341","219522","pSARL_v2","pSARL_v2r2lgsbhw","628e196e63bc7ab9e6c6caea","freq","img/green_2bandit_a2.png","70","70","test","1","106","106","5","",""
"null","220000","pSARL_v2","pSARL_v2r2lgsbhw","628e196e63bc7ab9e6c6caea","freq_resp","img/green_2bandit_a.png","70","70","test","","","","5","",""
"null","220160","pSARL_v2","pSARL_v2r2lgsbhw","628e196e63bc7ab9e6c6caea","fixation","img/fixation.png","null","","test","","","","","",""
"341.2999999523163","220510","pSARL_v2","pSARL_v2r2lgsbhw","628e196e63bc7ab9e6c6caea","freq","img/green_2bandit_a2.png","70","70","test","1","107","107","5","",""
"null","220986","pSARL_v2","pSARL_v2r2lgsbhw","628e196e63bc7ab9e6c6caea","freq_resp","img/green_2bandit_a.png","70","70","test","","","","5","",""
"null","221147","pSARL_v2","pSARL_v2r2lgsbhw","628e196e63bc7ab9e6c6caea","fixation","img/fixation.png","null","","test","","","","","",""
"293.89999985694885","221449","pSARL_v2","pSARL_v2r2lgsbhw","628e196e63bc7ab9e6c6caea","freq","img/green_2bandit_a2.png","70","70","test","1","108","108","5","",""
"null","221967","pSARL_v2","pSARL_v2r2lgsbhw","628e196e63bc7ab9e6c6caea","freq_resp","img/green_2bandit_a.png","70","70","test","","","","5","",""
"null","222126","pSARL_v2","pSARL_v2r2lgsbhw","628e196e63bc7ab9e6c6caea","fixation","img/fixation.png","null","","test","","","","","",""
"375.39999985694885","222508","pSARL_v2","pSARL_v2r2lgsbhw","628e196e63bc7ab9e6c6caea","freq","img/green_2bandit_a2.png","70","70","test","1","109","109","5","",""
"null","222942","pSARL_v2","pSARL_v2r2lgsbhw","628e196e63bc7ab9e6c6caea","freq_resp","img/green_2bandit_a.png","70","70","test","","","","5","",""
"null","223104","pSARL_v2","pSARL_v2r2lgsbhw","628e196e63bc7ab9e6c6caea","fixation","img/fixation.png","null","","test","","","","","",""
"460.59999990463257","223573","pSARL_v2","pSARL_v2r2lgsbhw","628e196e63bc7ab9e6c6caea","infreq","img/orange_2bandit_a2.png","68","68","test","1","110","110","5","",""
"null","223927","pSARL_v2","pSARL_v2r2lgsbhw","628e196e63bc7ab9e6c6caea","infreq_resp","img/orange_2bandit_a.png","68","68","test","","","","5","",""
"null","224100","pSARL_v2","pSARL_v2r2lgsbhw","628e196e63bc7ab9e6c6caea","fixation","img/fixation.png","null","","test","","","","","",""
"351.5","224458","pSARL_v2","pSARL_v2r2lgsbhw","628e196e63bc7ab9e6c6caea","freq","img/green_2bandit_a2.png","70","70","test","1","111","111","5","",""
"null","224927","pSARL_v2","pSARL_v2r2lgsbhw","628e196e63bc7ab9e6c6caea","freq_resp","img/green_2bandit_a.png","70","70","test","","","","5","",""
"null","225088","pSARL_v2","pSARL_v2r2lgsbhw","628e196e63bc7ab9e6c6caea","fixation","img/fixation.png","null","","test","","","","","",""
"339.89999985694885","225436","pSARL_v2","pSARL_v2r2lgsbhw","628e196e63bc7ab9e6c6caea","freq","img/green_2bandit_a2.png","70","70","test","1","112","112","5","",""
"null","225907","pSARL_v2","pSARL_v2r2lgsbhw","628e196e63bc7ab9e6c6caea","freq_resp","img/green_2bandit_a.png","70","70","test","","","","5","",""
"null","226074","pSARL_v2","pSARL_v2r2lgsbhw","628e196e63bc7ab9e6c6caea","fixation","img/fixation.png","null","","test","","","","","",""
"542.6000001430511","226625","pSARL_v2","pSARL_v2r2lgsbhw","628e196e63bc7ab9e6c6caea","reward","img/slot.png","74","","test","","","","","",""
"null","227391","pSARL_v2","pSARL_v2r2lgsbhw","628e196e63bc7ab9e6c6caea","points","<div class=""veryhighPoints""> +1 </div>","null","na","test","","","","5","1","4"
"470.69999980926514","227869","pSARL_v2","pSARL_v2r2lgsbhw","628e196e63bc7ab9e6c6caea","freq","img/green_2bandit_a2.png","70","70","test","1","113","113","6","",""
"null","228216","pSARL_v2","pSARL_v2r2lgsbhw","628e196e63bc7ab9e6c6caea","freq_resp","img/green_2bandit_a.png","70","70","test","","","","6","",""
"null","228385","pSARL_v2","pSARL_v2r2lgsbhw","628e196e63bc7ab9e6c6caea","fixation","img/fixation.png","null","","test","","","","","",""
"326.59999990463257","228720","pSARL_v2","pSARL_v2r2lgsbhw","628e196e63bc7ab9e6c6caea","freq","img/green_2bandit_a2.png","70","70","test","1","114","114","6","",""
"null","229210","pSARL_v2","pSARL_v2r2lgsbhw","628e196e63bc7ab9e6c6caea","freq_resp","img/green_2bandit_a.png","70","70","test","","","","6","",""
"null","229375","pSARL_v2","pSARL_v2r2lgsbhw","628e196e63bc7ab9e6c6caea","fixation","img/fixation.png","null","","test","","","","","",""
"273.2000000476837","229655","pSARL_v2","pSARL_v2r2lgsbhw","628e196e63bc7ab9e6c6caea","freq","img/green_2bandit_a2.png","70","70","test","1","115","115","6","",""
"null","230191","pSARL_v2","pSARL_v2r2lgsbhw","628e196e63bc7ab9e6c6caea","freq_resp","img/green_2bandit_a.png","70","70","test","","","","6","",""
"null","230355","pSARL_v2","pSARL_v2r2lgsbhw","628e196e63bc7ab9e6c6caea","fixation","img/fixation.png","null","","test","","","","","",""
"374.39999985694885","230737","pSARL_v2","pSARL_v2r2lgsbhw","628e196e63bc7ab9e6c6caea","freq","img/green_2bandit_a2.png","70","70","test","1","116","116","6","",""
"null","231173","pSARL_v2","pSARL_v2r2lgsbhw","628e196e63bc7ab9e6c6caea","freq_resp","img/green_2bandit_a.png","70","70","test","","","","6","",""
"null","231334","pSARL_v2","pSARL_v2r2lgsbhw","628e196e63bc7ab9e6c6caea","fixation","img/fixation.png","null","","test","","","","","",""
"288.59999990463257","231629","pSARL_v2","pSARL_v2r2lgsbhw","628e196e63bc7ab9e6c6caea","freq","img/green_2bandit_a2.png","70","70","test","1","117","117","6","",""
"null","232147","pSARL_v2","pSARL_v2r2lgsbhw","628e196e63bc7ab9e6c6caea","freq_resp","img/green_2bandit_a.png","70","70","test","","","","6","",""
"null","232317","pSARL_v2","pSARL_v2r2lgsbhw","628e196e63bc7ab9e6c6caea","fixation","img/fixation.png","null","","test","","","","","",""
"255.20000004768372","232580","pSARL_v2","pSARL_v2r2lgsbhw","628e196e63bc7ab9e6c6caea","freq","img/green_2bandit_a2.png","70","70","test","1","118","118","6","",""
"null","233130","pSARL_v2","pSARL_v2r2lgsbhw","628e196e63bc7ab9e6c6caea","freq_resp","img/green_2bandit_a.png","70","70","test","","","","6","",""
"null","233291","pSARL_v2","pSARL_v2r2lgsbhw","628e196e63bc7ab9e6c6caea","fixation","img/fixation.png","null","","test","","","","","",""
"318.7000000476837","233617","pSARL_v2","pSARL_v2r2lgsbhw","628e196e63bc7ab9e6c6caea","freq","img/green_2bandit_a2.png","70","70","test","1","119","119","6","",""
"null","234113","pSARL_v2","pSARL_v2r2lgsbhw","628e196e63bc7ab9e6c6caea","freq_resp","img/green_2bandit_a.png","70","70","test","","","","6","",""
"null","234270","pSARL_v2","pSARL_v2r2lgsbhw","628e196e63bc7ab9e6c6caea","fixation","img/fixation.png","null","","test","","","","","",""
"323.10000014305115","234603","pSARL_v2","pSARL_v2r2lgsbhw","628e196e63bc7ab9e6c6caea","freq","img/green_2bandit_a2.png","70","70","test","1","120","120","6","",""
"null","235097","pSARL_v2","pSARL_v2r2lgsbhw","628e196e63bc7ab9e6c6caea","freq_resp","img/green_2bandit_a.png","70","70","test","","","","6","",""
"null","235254","pSARL_v2","pSARL_v2r2lgsbhw","628e196e63bc7ab9e6c6caea","fixation","img/fixation.png","null","","test","","","","","",""
"287.2000000476837","235550","pSARL_v2","pSARL_v2r2lgsbhw","628e196e63bc7ab9e6c6caea","freq","img/green_2bandit_a2.png","70","70","test","1","121","121","6","",""
"null","236071","pSARL_v2","pSARL_v2r2lgsbhw","628e196e63bc7ab9e6c6caea","freq_resp","img/green_2bandit_a.png","70","70","test","","","","6","",""
"null","236244","pSARL_v2","pSARL_v2r2lgsbhw","628e196e63bc7ab9e6c6caea","fixation","img/fixation.png","null","","test","","","","","",""
"284.19999980926514","236536","pSARL_v2","pSARL_v2r2lgsbhw","628e196e63bc7ab9e6c6caea","freq","img/green_2bandit_a2.png","70","70","test","1","122","122","6","",""
"null","237070","pSARL_v2","pSARL_v2r2lgsbhw","628e196e63bc7ab9e6c6caea","freq_resp","img/green_2bandit_a.png","70","70","test","","","","6","",""
"null","237241","pSARL_v2","pSARL_v2r2lgsbhw","628e196e63bc7ab9e6c6caea","fixation","img/fixation.png","null","","test","","","","","",""
"284.5","237535","pSARL_v2","pSARL_v2r2lgsbhw","628e196e63bc7ab9e6c6caea","freq","img/green_2bandit_a2.png","70","70","test","1","123","123","6","",""
"null","238062","pSARL_v2","pSARL_v2r2lgsbhw","628e196e63bc7ab9e6c6caea","freq_resp","img/green_2bandit_a.png","70","70","test","","","","6","",""
"null","238221","pSARL_v2","pSARL_v2r2lgsbhw","628e196e63bc7ab9e6c6caea","fixation","img/fixation.png","null","","test","","","","","",""
"302.39999985694885","238530","pSARL_v2","pSARL_v2r2lgsbhw","628e196e63bc7ab9e6c6caea","freq","img/green_2bandit_a2.png","70","70","test","1","124","124","6","",""
"null","239038","pSARL_v2","pSARL_v2r2lgsbhw","628e196e63bc7ab9e6c6caea","freq_resp","img/green_2bandit_a.png","70","70","test","","","","6","",""
"null","239205","pSARL_v2","pSARL_v2r2lgsbhw","628e196e63bc7ab9e6c6caea","fixation","img/fixation.png","null","","test","","","","","",""
"258.2000000476837","239472","pSARL_v2","pSARL_v2r2lgsbhw","628e196e63bc7ab9e6c6caea","freq","img/green_2bandit_a2.png","70","70","test","1","125","125","6","",""
"null","240029","pSARL_v2","pSARL_v2r2lgsbhw","628e196e63bc7ab9e6c6caea","freq_resp","img/green_2bandit_a.png","70","70","test","","","","6","",""
"null","240188","pSARL_v2","pSARL_v2r2lgsbhw","628e196e63bc7ab9e6c6caea","fixation","img/fixation.png","null","","test","","","","","",""
"449.19999980926514","240644","pSARL_v2","pSARL_v2r2lgsbhw","628e196e63bc7ab9e6c6caea","infreq","img/orange_2bandit_a2.png","68","68","test","1","126","126","6","",""
"null","241009","pSARL_v2","pSARL_v2r2lgsbhw","628e196e63bc7ab9e6c6caea","infreq_resp","img/orange_2bandit_a.png","68","68","test","","","","6","",""
"null","241173","pSARL_v2","pSARL_v2r2lgsbhw","628e196e63bc7ab9e6c6caea","fixation","img/fixation.png","null","","test","","","","","",""
"431.40000009536743","241612","pSARL_v2","pSARL_v2r2lgsbhw","628e196e63bc7ab9e6c6caea","freq","img/green_2bandit_a2.png","70","70","test","1","127","127","6","",""
"null","241989","pSARL_v2","pSARL_v2r2lgsbhw","628e196e63bc7ab9e6c6caea","freq_resp","img/green_2bandit_a.png","70","70","test","","","","6","",""
"null","242146","pSARL_v2","pSARL_v2r2lgsbhw","628e196e63bc7ab9e6c6caea","fixation","img/fixation.png","null","","test","","","","","",""
"510.5","242663","pSARL_v2","pSARL_v2r2lgsbhw","628e196e63bc7ab9e6c6caea","infreq","img/orange_2bandit_a2.png","68","68","test","1","128","128","6","",""
"null","242967","pSARL_v2","pSARL_v2r2lgsbhw","628e196e63bc7ab9e6c6caea","infreq_resp","img/orange_2bandit_a.png","68","68","test","","","","6","",""
"null","243129","pSARL_v2","pSARL_v2r2lgsbhw","628e196e63bc7ab9e6c6caea","fixation","img/fixation.png","null","","test","","","","","",""
"352.59999990463257","243491","pSARL_v2","pSARL_v2r2lgsbhw","628e196e63bc7ab9e6c6caea","freq","img/green_2bandit_a2.png","70","70","test","1","129","129","6","",""
"null","243945","pSARL_v2","pSARL_v2r2lgsbhw","628e196e63bc7ab9e6c6caea","freq_resp","img/green_2bandit_a.png","70","70","test","","","","6","",""
"null","244116","pSARL_v2","pSARL_v2r2lgsbhw","628e196e63bc7ab9e6c6caea","fixation","img/fixation.png","null","","test","","","","","",""
"354.7000000476837","244478","pSARL_v2","pSARL_v2r2lgsbhw","628e196e63bc7ab9e6c6caea","infreq","img/orange_2bandit_a2.png","68","68","test","1","130","130","6","",""
"null","244942","pSARL_v2","pSARL_v2r2lgsbhw","628e196e63bc7ab9e6c6caea","infreq_resp","img/orange_2bandit_a.png","68","68","test","","","","6","",""
"null","245105","pSARL_v2","pSARL_v2r2lgsbhw","628e196e63bc7ab9e6c6caea","fixation","img/fixation.png","null","","test","","","","","",""
"288.7000000476837","245400","pSARL_v2","pSARL_v2r2lgsbhw","628e196e63bc7ab9e6c6caea","freq","img/green_2bandit_a2.png","70","70","test","1","131","131","6","",""
"null","245930","pSARL_v2","pSARL_v2r2lgsbhw","628e196e63bc7ab9e6c6caea","freq_resp","img/green_2bandit_a.png","70","70","test","","","","6","",""
"null","246101","pSARL_v2","pSARL_v2r2lgsbhw","628e196e63bc7ab9e6c6caea","fixation","img/fixation.png","null","","test","","","","","",""
"317.2000000476837","246426","pSARL_v2","pSARL_v2r2lgsbhw","628e196e63bc7ab9e6c6caea","freq","img/green_2bandit_a2.png","70","70","test","1","132","132","6","",""
"null","246917","pSARL_v2","pSARL_v2r2lgsbhw","628e196e63bc7ab9e6c6caea","freq_resp","img/green_2bandit_a.png","70","70","test","","","","6","",""
"null","247085","pSARL_v2","pSARL_v2r2lgsbhw","628e196e63bc7ab9e6c6caea","fixation","img/fixation.png","null","","test","","","","","",""
"287.2000000476837","247379","pSARL_v2","pSARL_v2r2lgsbhw","628e196e63bc7ab9e6c6caea","freq","img/green_2bandit_a2.png","70","70","test","1","133","133","6","",""
"null","247903","pSARL_v2","pSARL_v2r2lgsbhw","628e196e63bc7ab9e6c6caea","freq_resp","img/green_2bandit_a.png","70","70","test","","","","6","",""
"null","248076","pSARL_v2","pSARL_v2r2lgsbhw","628e196e63bc7ab9e6c6caea","fixation","img/fixation.png","null","","test","","","","","",""
"297.90000009536743","248383","pSARL_v2","pSARL_v2r2lgsbhw","628e196e63bc7ab9e6c6caea","freq","img/green_2bandit_a2.png","70","70","test","1","134","134","6","",""
"null","248899","pSARL_v2","pSARL_v2r2lgsbhw","628e196e63bc7ab9e6c6caea","freq_resp","img/green_2bandit_a.png","70","70","test","","","","6","",""
"null","249070","pSARL_v2","pSARL_v2r2lgsbhw","628e196e63bc7ab9e6c6caea","fixation","img/fixation.png","null","","test","","","","","",""
"310.09999990463257","249389","pSARL_v2","pSARL_v2r2lgsbhw","628e196e63bc7ab9e6c6caea","freq","img/green_2bandit_a2.png","70","70","test","1","135","135","6","",""
"null","249888","pSARL_v2","pSARL_v2r2lgsbhw","628e196e63bc7ab9e6c6caea","freq_resp","img/green_2bandit_a.png","70","70","test","","","","6","",""
"null","250054","pSARL_v2","pSARL_v2r2lgsbhw","628e196e63bc7ab9e6c6caea","fixation","img/fixation.png","null","","test","","","","","",""
"299.09999990463257","250361","pSARL_v2","pSARL_v2r2lgsbhw","628e196e63bc7ab9e6c6caea","freq","img/green_2bandit_a2.png","70","70","test","1","136","136","6","",""
"null","250884","pSARL_v2","pSARL_v2r2lgsbhw","628e196e63bc7ab9e6c6caea","freq_resp","img/green_2bandit_a.png","70","70","test","","","","6","",""
"null","251051","pSARL_v2","pSARL_v2r2lgsbhw","628e196e63bc7ab9e6c6caea","fixation","img/fixation.png","null","","test","","","","","",""
"304.59999990463257","251365","pSARL_v2","pSARL_v2r2lgsbhw","628e196e63bc7ab9e6c6caea","freq","img/green_2bandit_a2.png","70","70","test","1","137","137","6","",""
"null","251879","pSARL_v2","pSARL_v2r2lgsbhw","628e196e63bc7ab9e6c6caea","freq_resp","img/green_2bandit_a.png","70","70","test","","","","6","",""
"null","252039","pSARL_v2","pSARL_v2r2lgsbhw","628e196e63bc7ab9e6c6caea","fixation","img/fixation.png","null","","test","","","","","",""
"237.29999995231628","252283","pSARL_v2","pSARL_v2r2lgsbhw","628e196e63bc7ab9e6c6caea","freq","img/green_2bandit_a2.png","70","70","test","1","138","138","6","",""
"null","252859","pSARL_v2","pSARL_v2r2lgsbhw","628e196e63bc7ab9e6c6caea","freq_resp","img/green_2bandit_a.png","70","70","test","","","","6","",""
"null","253026","pSARL_v2","pSARL_v2r2lgsbhw","628e196e63bc7ab9e6c6caea","fixation","img/fixation.png","null","","test","","","","","",""
"553.9000000953674","253586","pSARL_v2","pSARL_v2r2lgsbhw","628e196e63bc7ab9e6c6caea","reward","img/slot.png","74","","test","","","","","",""
"null","254345","pSARL_v2","pSARL_v2r2lgsbhw","628e196e63bc7ab9e6c6caea","points","<div class=""verylowPoints""> -7 </div>","null","na","test","","","","6","-7","5"
"418.19999980926514","254772","pSARL_v2","pSARL_v2r2lgsbhw","628e196e63bc7ab9e6c6caea","freq","img/green_2bandit_a2.png","70","70","test","1","139","139","7","",""
"null","255172","pSARL_v2","pSARL_v2r2lgsbhw","628e196e63bc7ab9e6c6caea","freq_resp","img/green_2bandit_a.png","70","70","test","","","","7","",""
"null","255337","pSARL_v2","pSARL_v2r2lgsbhw","628e196e63bc7ab9e6c6caea","fixation","img/fixation.png","null","","test","","","","","",""
"315","255661","pSARL_v2","pSARL_v2r2lgsbhw","628e196e63bc7ab9e6c6caea","freq","img/green_2bandit_a2.png","70","70","test","1","140","140","7","",""
"null","256151","pSARL_v2","pSARL_v2r2lgsbhw","628e196e63bc7ab9e6c6caea","freq_resp","img/green_2bandit_a.png","70","70","test","","","","7","",""
"null","256319","pSARL_v2","pSARL_v2r2lgsbhw","628e196e63bc7ab9e6c6caea","fixation","img/fixation.png","null","","test","","","","","",""
"264.09999990463257","256591","pSARL_v2","pSARL_v2r2lgsbhw","628e196e63bc7ab9e6c6caea","freq","img/green_2bandit_a2.png","70","70","test","1","141","141","7","",""
"null","257141","pSARL_v2","pSARL_v2r2lgsbhw","628e196e63bc7ab9e6c6caea","freq_resp","img/green_2bandit_a.png","70","70","test","","","","7","",""
"null","257298","pSARL_v2","pSARL_v2r2lgsbhw","628e196e63bc7ab9e6c6caea","fixation","img/fixation.png","null","","test","","","","","",""
"279.2999999523163","257586","pSARL_v2","pSARL_v2r2lgsbhw","628e196e63bc7ab9e6c6caea","freq","img/green_2bandit_a2.png","70","70","test","1","142","142","7","",""
"null","258116","pSARL_v2","pSARL_v2r2lgsbhw","628e196e63bc7ab9e6c6caea","freq_resp","img/green_2bandit_a.png","70","70","test","","","","7","",""
"null","258285","pSARL_v2","pSARL_v2r2lgsbhw","628e196e63bc7ab9e6c6caea","fixation","img/fixation.png","null","","test","","","","","",""
"268.7000000476837","258562","pSARL_v2","pSARL_v2r2lgsbhw","628e196e63bc7ab9e6c6caea","freq","img/green_2bandit_a2.png","70","70","test","1","143","143","7","",""
"null","259108","pSARL_v2","pSARL_v2r2lgsbhw","628e196e63bc7ab9e6c6caea","freq_resp","img/green_2bandit_a.png","70","70","test","","","","7","",""
"null","259268","pSARL_v2","pSARL_v2r2lgsbhw","628e196e63bc7ab9e6c6caea","fixation","img/fixation.png","null","","test","","","","","",""
"300.09999990463257","259578","pSARL_v2","pSARL_v2r2lgsbhw","628e196e63bc7ab9e6c6caea","freq","img/green_2bandit_a2.png","70","70","test","1","144","144","7","",""
"null","260096","pSARL_v2","pSARL_v2r2lgsbhw","628e196e63bc7ab9e6c6caea","freq_resp","img/green_2bandit_a.png","70","70","test","","","","7","",""
"null","260261","pSARL_v2","pSARL_v2r2lgsbhw","628e196e63bc7ab9e6c6caea","fixation","img/fixation.png","null","","test","","","","","",""
"283.2000000476837","260551","pSARL_v2","pSARL_v2r2lgsbhw","628e196e63bc7ab9e6c6caea","freq","img/green_2bandit_a2.png","70","70","test","1","145","145","7","",""
"null","261081","pSARL_v2","pSARL_v2r2lgsbhw","628e196e63bc7ab9e6c6caea","freq_resp","img/green_2bandit_a.png","70","70","test","","","","7","",""
"null","261238","pSARL_v2","pSARL_v2r2lgsbhw","628e196e63bc7ab9e6c6caea","fixation","img/fixation.png","null","","test","","","","","",""
"315.40000009536743","261562","pSARL_v2","pSARL_v2r2lgsbhw","628e196e63bc7ab9e6c6caea","freq","img/green_2bandit_a2.png","70","70","test","1","146","146","7","",""
"null","262066","pSARL_v2","pSARL_v2r2lgsbhw","628e196e63bc7ab9e6c6caea","freq_resp","img/green_2bandit_a.png","70","70","test","","","","7","",""
"null","262234","pSARL_v2","pSARL_v2r2lgsbhw","628e196e63bc7ab9e6c6caea","fixation","img/fixation.png","null","","test","","","","","",""
"299.2999999523163","262542","pSARL_v2","pSARL_v2r2lgsbhw","628e196e63bc7ab9e6c6caea","freq","img/green_2bandit_a2.png","70","70","test","1","147","147","7","",""
"null","263065","pSARL_v2","pSARL_v2r2lgsbhw","628e196e63bc7ab9e6c6caea","freq_resp","img/green_2bandit_a.png","70","70","test","","","","7","",""
"null","263231","pSARL_v2","pSARL_v2r2lgsbhw","628e196e63bc7ab9e6c6caea","fixation","img/fixation.png","null","","test","","","","","",""
"301.2000000476837","263542","pSARL_v2","pSARL_v2r2lgsbhw","628e196e63bc7ab9e6c6caea","freq","img/green_2bandit_a2.png","70","70","test","1","148","148","7","",""
"null","264047","pSARL_v2","pSARL_v2r2lgsbhw","628e196e63bc7ab9e6c6caea","freq_resp","img/green_2bandit_a.png","70","70","test","","","","7","",""
"null","264213","pSARL_v2","pSARL_v2r2lgsbhw","628e196e63bc7ab9e6c6caea","fixation","img/fixation.png","null","","test","","","","","",""
"343.90000009536743","264565","pSARL_v2","pSARL_v2r2lgsbhw","628e196e63bc7ab9e6c6caea","freq","img/green_2bandit_a2.png","70","70","test","1","149","149","7","",""
"null","265032","pSARL_v2","pSARL_v2r2lgsbhw","628e196e63bc7ab9e6c6caea","freq_resp","img/green_2bandit_a.png","70","70","test","","","","7","",""
"null","265194","pSARL_v2","pSARL_v2r2lgsbhw","628e196e63bc7ab9e6c6caea","fixation","img/fixation.png","null","","test","","","","","",""
"325.2000000476837","265528","pSARL_v2","pSARL_v2r2lgsbhw","628e196e63bc7ab9e6c6caea","freq","img/green_2bandit_a2.png","70","70","test","1","150","150","7","",""
"null","266021","pSARL_v2","pSARL_v2r2lgsbhw","628e196e63bc7ab9e6c6caea","freq_resp","img/green_2bandit_a.png","70","70","test","","","","7","",""
"null","266195","pSARL_v2","pSARL_v2r2lgsbhw","628e196e63bc7ab9e6c6caea","fixation","img/fixation.png","null","","test","","","","","",""
"268.40000009536743","266471","pSARL_v2","pSARL_v2r2lgsbhw","628e196e63bc7ab9e6c6caea","freq","img/green_2bandit_a2.png","70","70","test","1","151","151","7","",""
"null","267023","pSARL_v2","pSARL_v2r2lgsbhw","628e196e63bc7ab9e6c6caea","freq_resp","img/green_2bandit_a.png","70","70","test","","","","7","",""
"null","267183","pSARL_v2","pSARL_v2r2lgsbhw","628e196e63bc7ab9e6c6caea","fixation","img/fixation.png","null","","test","","","","","",""
"305.30000019073486","267496","pSARL_v2","pSARL_v2r2lgsbhw","628e196e63bc7ab9e6c6caea","freq","img/green_2bandit_a2.png","70","70","test","1","152","152","7","",""
"null","268008","pSARL_v2","pSARL_v2r2lgsbhw","628e196e63bc7ab9e6c6caea","freq_resp","img/green_2bandit_a.png","70","70","test","","","","7","",""
"null","268167","pSARL_v2","pSARL_v2r2lgsbhw","628e196e63bc7ab9e6c6caea","fixation","img/fixation.png","null","","test","","","","","",""
"344.89999985694885","268521","pSARL_v2","pSARL_v2r2lgsbhw","628e196e63bc7ab9e6c6caea","freq","img/green_2bandit_a2.png","70","70","test","1","153","153","7","",""
"null","268985","pSARL_v2","pSARL_v2r2lgsbhw","628e196e63bc7ab9e6c6caea","freq_resp","img/green_2bandit_a.png","70","70","test","","","","7","",""
"null","269146","pSARL_v2","pSARL_v2r2lgsbhw","628e196e63bc7ab9e6c6caea","fixation","img/fixation.png","null","","test","","","","","",""
"337.60000014305115","269491","pSARL_v2","pSARL_v2r2lgsbhw","628e196e63bc7ab9e6c6caea","freq","img/green_2bandit_a2.png","70","70","test","1","154","154","7","",""
"null","269971","pSARL_v2","pSARL_v2r2lgsbhw","628e196e63bc7ab9e6c6caea","freq_resp","img/green_2bandit_a.png","70","70","test","","","","7","",""
"null","270139","pSARL_v2","pSARL_v2r2lgsbhw","628e196e63bc7ab9e6c6caea","fixation","img/fixation.png","null","","test","","","","","",""
"308.40000009536743","270456","pSARL_v2","pSARL_v2r2lgsbhw","628e196e63bc7ab9e6c6caea","freq","img/green_2bandit_a2.png","70","70","test","1","155","155","7","",""
"null","270961","pSARL_v2","pSARL_v2r2lgsbhw","628e196e63bc7ab9e6c6caea","freq_resp","img/green_2bandit_a.png","70","70","test","","","","7","",""
"null","271130","pSARL_v2","pSARL_v2r2lgsbhw","628e196e63bc7ab9e6c6caea","fixation","img/fixation.png","null","","test","","","","","",""
"314.90000009536743","271453","pSARL_v2","pSARL_v2r2lgsbhw","628e196e63bc7ab9e6c6caea","freq","img/green_2bandit_a2.png","70","70","test","1","156","156","7","",""
"null","271960","pSARL_v2","pSARL_v2r2lgsbhw","628e196e63bc7ab9e6c6caea","freq_resp","img/green_2bandit_a.png","70","70","test","","","","7","",""
"null","272127","pSARL_v2","pSARL_v2r2lgsbhw","628e196e63bc7ab9e6c6caea","fixation","img/fixation.png","null","","test","","","","","",""
"289","272425","pSARL_v2","pSARL_v2r2lgsbhw","628e196e63bc7ab9e6c6caea","freq","img/green_2bandit_a2.png","70","70","test","1","157","157","7","",""
"null","272957","pSARL_v2","pSARL_v2r2lgsbhw","628e196e63bc7ab9e6c6caea","freq_resp","img/green_2bandit_a.png","70","70","test","","","","7","",""
"null","273131","pSARL_v2","pSARL_v2r2lgsbhw","628e196e63bc7ab9e6c6caea","fixation","img/fixation.png","null","","test","","","","","",""
"276.2999999523163","273413","pSARL_v2","pSARL_v2r2lgsbhw","628e196e63bc7ab9e6c6caea","freq","img/green_2bandit_a2.png","70","70","test","1","158","158","7","",""
"null","273948","pSARL_v2","pSARL_v2r2lgsbhw","628e196e63bc7ab9e6c6caea","freq_resp","img/green_2bandit_a.png","70","70","test","","","","7","",""
"null","274111","pSARL_v2","pSARL_v2r2lgsbhw","628e196e63bc7ab9e6c6caea","fixation","img/fixation.png","null","","test","","","","","",""
"278.40000009536743","274398","pSARL_v2","pSARL_v2r2lgsbhw","628e196e63bc7ab9e6c6caea","freq","img/green_2bandit_a2.png","70","70","test","1","159","159","7","",""
"null","274928","pSARL_v2","pSARL_v2r2lgsbhw","628e196e63bc7ab9e6c6caea","freq_resp","img/green_2bandit_a.png","70","70","test","","","","7","",""
"null","275095","pSARL_v2","pSARL_v2r2lgsbhw","628e196e63bc7ab9e6c6caea","fixation","img/fixation.png","null","","test","","","","","",""
"359.89999985694885","275461","pSARL_v2","pSARL_v2r2lgsbhw","628e196e63bc7ab9e6c6caea","freq","img/green_2bandit_a2.png","70","70","test","1","160","160","7","",""
"null","275914","pSARL_v2","pSARL_v2r2lgsbhw","628e196e63bc7ab9e6c6caea","freq_resp","img/green_2bandit_a.png","70","70","test","","","","7","",""
"null","276075","pSARL_v2","pSARL_v2r2lgsbhw","628e196e63bc7ab9e6c6caea","fixation","img/fixation.png","null","","test","","","","","",""
"730.2000000476837","276813","pSARL_v2","pSARL_v2r2lgsbhw","628e196e63bc7ab9e6c6caea","infreq","img/orange_2bandit_a2.png","68","68","test","1","161","161","7","",""
"null","276894","pSARL_v2","pSARL_v2r2lgsbhw","628e196e63bc7ab9e6c6caea","infreq_resp","img/orange_2bandit_a.png","68","68","test","","","","7","",""
"null","277060","pSARL_v2","pSARL_v2r2lgsbhw","628e196e63bc7ab9e6c6caea","fixation","img/fixation.png","null","","test","","","","","",""
"527","277594","pSARL_v2","pSARL_v2r2lgsbhw","628e196e63bc7ab9e6c6caea","infreq","img/orange_2bandit_a2.png","68","68","test","1","162","162","7","",""
"null","277886","pSARL_v2","pSARL_v2r2lgsbhw","628e196e63bc7ab9e6c6caea","infreq_resp","img/orange_2bandit_a.png","68","68","test","","","","7","",""
"null","278057","pSARL_v2","pSARL_v2r2lgsbhw","628e196e63bc7ab9e6c6caea","fixation","img/fixation.png","null","","test","","","","","",""
"424.5","278489","pSARL_v2","pSARL_v2r2lgsbhw","628e196e63bc7ab9e6c6caea","freq","img/green_2bandit_a2.png","70","70","test","1","163","163","7","",""
"null","278886","pSARL_v2","pSARL_v2r2lgsbhw","628e196e63bc7ab9e6c6caea","freq_resp","img/green_2bandit_a.png","70","70","test","","","","7","",""
"null","279047","pSARL_v2","pSARL_v2r2lgsbhw","628e196e63bc7ab9e6c6caea","fixation","img/fixation.png","null","","test","","","","","",""
"569.5","279624","pSARL_v2","pSARL_v2r2lgsbhw","628e196e63bc7ab9e6c6caea","reward","img/slot.png","74","","test","","","","","",""
"null","280395","pSARL_v2","pSARL_v2r2lgsbhw","628e196e63bc7ab9e6c6caea","points","<div class=""verylowPoints""> -6 </div>","null","na","test","","","","7","-6","6"
"382.09999990463257","280784","pSARL_v2","pSARL_v2r2lgsbhw","628e196e63bc7ab9e6c6caea","freq","img/green_2bandit_a2.png","70","70","test","1","164","164","8","",""
"null","281222","pSARL_v2","pSARL_v2r2lgsbhw","628e196e63bc7ab9e6c6caea","freq_resp","img/green_2bandit_a.png","70","70","test","","","","8","",""
"null","281378","pSARL_v2","pSARL_v2r2lgsbhw","628e196e63bc7ab9e6c6caea","fixation","img/fixation.png","null","","test","","","","","",""
"154.09999990463257","281536","pSARL_v2","pSARL_v2r2lgsbhw","628e196e63bc7ab9e6c6caea","freq","img/green_2bandit_a2.png","70","70","test","1","165","165","8","",""
"null","282202","pSARL_v2","pSARL_v2r2lgsbhw","628e196e63bc7ab9e6c6caea","freq_resp","img/green_2bandit_a.png","70","70","test","","","","8","",""
"null","282361","pSARL_v2","pSARL_v2r2lgsbhw","628e196e63bc7ab9e6c6caea","fixation","img/fixation.png","null","","test","","","","","",""
"322.2000000476837","282691","pSARL_v2","pSARL_v2r2lgsbhw","628e196e63bc7ab9e6c6caea","freq","img/green_2bandit_a2.png","70","70","test","1","166","166","8","",""
"null","283184","pSARL_v2","pSARL_v2r2lgsbhw","628e196e63bc7ab9e6c6caea","freq_resp","img/green_2bandit_a.png","70","70","test","","","","8","",""
"null","283351","pSARL_v2","pSARL_v2r2lgsbhw","628e196e63bc7ab9e6c6caea","fixation","img/fixation.png","null","","test","","","","","",""
"125.30000019073486","283484","pSARL_v2","pSARL_v2r2lgsbhw","628e196e63bc7ab9e6c6caea","freq","img/green_2bandit_a2.png","70","70","test","1","167","167","8","",""
"null","284169","pSARL_v2","pSARL_v2r2lgsbhw","628e196e63bc7ab9e6c6caea","freq_resp","img/green_2bandit_a.png","70","70","test","","","","8","",""
"null","284332","pSARL_v2","pSARL_v2r2lgsbhw","628e196e63bc7ab9e6c6caea","fixation","img/fixation.png","null","","test","","","","","",""
"101.29999995231628","284443","pSARL_v2","pSARL_v2r2lgsbhw","628e196e63bc7ab9e6c6caea","freq","img/green_2bandit_a2.png","70","70","test","1","168","168","8","",""
"null","285153","pSARL_v2","pSARL_v2r2lgsbhw","628e196e63bc7ab9e6c6caea","freq_resp","img/green_2bandit_a.png","70","70","test","","","","8","",""
"null","285319","pSARL_v2","pSARL_v2r2lgsbhw","628e196e63bc7ab9e6c6caea","fixation","img/fixation.png","null","","test","","","","","",""
"314.2000000476837","285642","pSARL_v2","pSARL_v2r2lgsbhw","628e196e63bc7ab9e6c6caea","freq","img/green_2bandit_a2.png","70","70","test","1","169","169","8","",""
"null","286134","pSARL_v2","pSARL_v2r2lgsbhw","628e196e63bc7ab9e6c6caea","freq_resp","img/green_2bandit_a.png","70","70","test","","","","8","",""
"null","286303","pSARL_v2","pSARL_v2r2lgsbhw","628e196e63bc7ab9e6c6caea","fixation","img/fixation.png","null","","test","","","","","",""
"301.5","286613","pSARL_v2","pSARL_v2r2lgsbhw","628e196e63bc7ab9e6c6caea","freq","img/green_2bandit_a2.png","70","70","test","1","170","170","8","",""
"null","287123","pSARL_v2","pSARL_v2r2lgsbhw","628e196e63bc7ab9e6c6caea","freq_resp","img/green_2bandit_a.png","70","70","test","","","","8","",""
"null","287283","pSARL_v2","pSARL_v2r2lgsbhw","628e196e63bc7ab9e6c6caea","fixation","img/fixation.png","null","","test","","","","","",""
"327.59999990463257","287618","pSARL_v2","pSARL_v2r2lgsbhw","628e196e63bc7ab9e6c6caea","freq","img/green_2bandit_a2.png","70","70","test","1","171","171","8","",""
"null","288104","pSARL_v2","pSARL_v2r2lgsbhw","628e196e63bc7ab9e6c6caea","freq_resp","img/green_2bandit_a.png","70","70","test","","","","8","",""
"null","288264","pSARL_v2","pSARL_v2r2lgsbhw","628e196e63bc7ab9e6c6caea","fixation","img/fixation.png","null","","test","","","","","",""
"264.39999985694885","288536","pSARL_v2","pSARL_v2r2lgsbhw","628e196e63bc7ab9e6c6caea","freq","img/green_2bandit_a2.png","70","70","test","1","172","172","8","",""
"null","289087","pSARL_v2","pSARL_v2r2lgsbhw","628e196e63bc7ab9e6c6caea","freq_resp","img/green_2bandit_a.png","70","70","test","","","","8","",""
"null","289245","pSARL_v2","pSARL_v2r2lgsbhw","628e196e63bc7ab9e6c6caea","fixation","img/fixation.png","null","","test","","","","","",""
"220.40000009536743","289473","pSARL_v2","pSARL_v2r2lgsbhw","628e196e63bc7ab9e6c6caea","infreq","img/orange_2bandit_a2.png","70","68","test","0","173","173","8","",""
"null","290059","pSARL_v2","pSARL_v2r2lgsbhw","628e196e63bc7ab9e6c6caea","infreq_resp","img/orange_2bandit_a.png","70","68","test","","","","8","",""
"null","290220","pSARL_v2","pSARL_v2r2lgsbhw","628e196e63bc7ab9e6c6caea","fixation","img/fixation.png","null","","test","","","","","",""
"436.7999999523163","290664","pSARL_v2","pSARL_v2r2lgsbhw","628e196e63bc7ab9e6c6caea","freq","img/green_2bandit_a2.png","70","70","test","1","174","174","8","",""
"null","291046","pSARL_v2","pSARL_v2r2lgsbhw","628e196e63bc7ab9e6c6caea","freq_resp","img/green_2bandit_a.png","70","70","test","","","","8","",""
"null","291217","pSARL_v2","pSARL_v2r2lgsbhw","628e196e63bc7ab9e6c6caea","fixation","img/fixation.png","null","","test","","","","","",""
"520.2000000476837","291746","pSARL_v2","pSARL_v2r2lgsbhw","628e196e63bc7ab9e6c6caea","infreq","img/orange_2bandit_a2.png","68","68","test","1","175","175","8","",""
"null","292043","pSARL_v2","pSARL_v2r2lgsbhw","628e196e63bc7ab9e6c6caea","infreq_resp","img/orange_2bandit_a.png","68","68","test","","","","8","",""
"null","292211","pSARL_v2","pSARL_v2r2lgsbhw","628e196e63bc7ab9e6c6caea","fixation","img/fixation.png","null","","test","","","","","",""
"384.30000019073486","292602","pSARL_v2","pSARL_v2r2lgsbhw","628e196e63bc7ab9e6c6caea","freq","img/green_2bandit_a2.png","70","70","test","1","176","176","8","",""
"null","293029","pSARL_v2","pSARL_v2r2lgsbhw","628e196e63bc7ab9e6c6caea","freq_resp","img/green_2bandit_a.png","70","70","test","","","","8","",""
"null","293192","pSARL_v2","pSARL_v2r2lgsbhw","628e196e63bc7ab9e6c6caea","fixation","img/fixation.png","null","","test","","","","","",""
"380.2999999523163","293579","pSARL_v2","pSARL_v2r2lgsbhw","628e196e63bc7ab9e6c6caea","freq","img/green_2bandit_a2.png","70","70","test","1","177","177","8","",""
"null","294011","pSARL_v2","pSARL_v2r2lgsbhw","628e196e63bc7ab9e6c6caea","freq_resp","img/green_2bandit_a.png","70","70","test","","","","8","",""
"null","294179","pSARL_v2","pSARL_v2r2lgsbhw","628e196e63bc7ab9e6c6caea","fixation","img/fixation.png","null","","test","","","","","",""
"334.2000000476837","294522","pSARL_v2","pSARL_v2r2lgsbhw","628e196e63bc7ab9e6c6caea","freq","img/green_2bandit_a2.png","70","70","test","1","178","178","8","",""
"null","295001","pSARL_v2","pSARL_v2r2lgsbhw","628e196e63bc7ab9e6c6caea","freq_resp","img/green_2bandit_a.png","70","70","test","","","","8","",""
"null","295173","pSARL_v2","pSARL_v2r2lgsbhw","628e196e63bc7ab9e6c6caea","fixation","img/fixation.png","null","","test","","","","","",""
"300.40000009536743","295482","pSARL_v2","pSARL_v2r2lgsbhw","628e196e63bc7ab9e6c6caea","freq","img/green_2bandit_a2.png","70","70","test","1","179","179","8","",""
"null","295999","pSARL_v2","pSARL_v2r2lgsbhw","628e196e63bc7ab9e6c6caea","freq_resp","img/green_2bandit_a.png","70","70","test","","","","8","",""
"null","296171","pSARL_v2","pSARL_v2r2lgsbhw","628e196e63bc7ab9e6c6caea","fixation","img/fixation.png","null","","test","","","","","",""
"291.30000019073486","296472","pSARL_v2","pSARL_v2r2lgsbhw","628e196e63bc7ab9e6c6caea","freq","img/green_2bandit_a2.png","70","70","test","1","180","180","8","",""
"null","296998","pSARL_v2","pSARL_v2r2lgsbhw","628e196e63bc7ab9e6c6caea","freq_resp","img/green_2bandit_a.png","70","70","test","","","","8","",""
"null","297159","pSARL_v2","pSARL_v2r2lgsbhw","628e196e63bc7ab9e6c6caea","fixation","img/fixation.png","null","","test","","","","","",""
"307.59999990463257","297474","pSARL_v2","pSARL_v2r2lgsbhw","628e196e63bc7ab9e6c6caea","freq","img/green_2bandit_a2.png","70","70","test","1","181","181","8","",""
"null","297973","pSARL_v2","pSARL_v2r2lgsbhw","628e196e63bc7ab9e6c6caea","freq_resp","img/green_2bandit_a.png","70","70","test","","","","8","",""
"null","298142","pSARL_v2","pSARL_v2r2lgsbhw","628e196e63bc7ab9e6c6caea","fixation","img/fixation.png","null","","test","","","","","",""
"302.59999990463257","298452","pSARL_v2","pSARL_v2r2lgsbhw","628e196e63bc7ab9e6c6caea","freq","img/green_2bandit_a2.png","70","70","test","1","182","182","8","",""
"null","298971","pSARL_v2","pSARL_v2r2lgsbhw","628e196e63bc7ab9e6c6caea","freq_resp","img/green_2bandit_a.png","70","70","test","","","","8","",""
"null","299139","pSARL_v2","pSARL_v2r2lgsbhw","628e196e63bc7ab9e6c6caea","fixation","img/fixation.png","null","","test","","","","","",""
"305.5","299454","pSARL_v2","pSARL_v2r2lgsbhw","628e196e63bc7ab9e6c6caea","freq","img/green_2bandit_a2.png","70","70","test","1","183","183","8","",""
"null","299959","pSARL_v2","pSARL_v2r2lgsbhw","628e196e63bc7ab9e6c6caea","freq_resp","img/green_2bandit_a.png","70","70","test","","","","8","",""
"null","300115","pSARL_v2","pSARL_v2r2lgsbhw","628e196e63bc7ab9e6c6caea","fixation","img/fixation.png","null","","test","","","","","",""
"309.10000014305115","300431","pSARL_v2","pSARL_v2r2lgsbhw","628e196e63bc7ab9e6c6caea","freq","img/green_2bandit_a2.png","70","70","test","1","184","184","8","",""
"null","300937","pSARL_v2","pSARL_v2r2lgsbhw","628e196e63bc7ab9e6c6caea","freq_resp","img/green_2bandit_a.png","70","70","test","","","","8","",""
"null","301111","pSARL_v2","pSARL_v2r2lgsbhw","628e196e63bc7ab9e6c6caea","fixation","img/fixation.png","null","","test","","","","","",""
"521.5","301639","pSARL_v2","pSARL_v2r2lgsbhw","628e196e63bc7ab9e6c6caea","infreq","img/orange_2bandit_a2.png","68","68","test","1","185","185","8","",""
"null","301935","pSARL_v2","pSARL_v2r2lgsbhw","628e196e63bc7ab9e6c6caea","infreq_resp","img/orange_2bandit_a.png","68","68","test","","","","8","",""
"null","302114","pSARL_v2","pSARL_v2r2lgsbhw","628e196e63bc7ab9e6c6caea","fixation","img/fixation.png","null","","test","","","","","",""
"423.80000019073486","302545","pSARL_v2","pSARL_v2r2lgsbhw","628e196e63bc7ab9e6c6caea","freq","img/green_2bandit_a2.png","70","70","test","1","186","186","8","",""
"null","302939","pSARL_v2","pSARL_v2r2lgsbhw","628e196e63bc7ab9e6c6caea","freq_resp","img/green_2bandit_a.png","70","70","test","","","","8","",""
"null","303108","pSARL_v2","pSARL_v2r2lgsbhw","628e196e63bc7ab9e6c6caea","fixation","img/fixation.png","null","","test","","","","","",""
"435.90000009536743","303552","pSARL_v2","pSARL_v2r2lgsbhw","628e196e63bc7ab9e6c6caea","freq","img/green_2bandit_a2.png","70","70","test","1","187","187","8","",""
"null","303936","pSARL_v2","pSARL_v2r2lgsbhw","628e196e63bc7ab9e6c6caea","freq_resp","img/green_2bandit_a.png","70","70","test","","","","8","",""
"null","304100","pSARL_v2","pSARL_v2r2lgsbhw","628e196e63bc7ab9e6c6caea","fixation","img/fixation.png","null","","test","","","","","",""
"371.7000000476837","304478","pSARL_v2","pSARL_v2r2lgsbhw","628e196e63bc7ab9e6c6caea","freq","img/green_2bandit_a2.png","70","70","test","1","188","188","8","",""
"null","304925","pSARL_v2","pSARL_v2r2lgsbhw","628e196e63bc7ab9e6c6caea","freq_resp","img/green_2bandit_a.png","70","70","test","","","","8","",""
"null","305089","pSARL_v2","pSARL_v2r2lgsbhw","628e196e63bc7ab9e6c6caea","fixation","img/fixation.png","null","","test","","","","","",""
"632.3999998569489","305728","pSARL_v2","pSARL_v2r2lgsbhw","628e196e63bc7ab9e6c6caea","reward","img/slot.png","74","","test","","","","","",""
"null","306499","pSARL_v2","pSARL_v2r2lgsbhw","628e196e63bc7ab9e6c6caea","points","<div class=""verylowPoints""> -4 </div>","null","na","test","","","","8","-4","7"
"527.4000000953674","307035","pSARL_v2","pSARL_v2r2lgsbhw","628e196e63bc7ab9e6c6caea","freq","img/green_2bandit_a2.png","70","70","test","1","189","189","9","",""
"null","307326","pSARL_v2","pSARL_v2r2lgsbhw","628e196e63bc7ab9e6c6caea","freq_resp","img/green_2bandit_a.png","70","70","test","","","","9","",""
"null","307491","pSARL_v2","pSARL_v2r2lgsbhw","628e196e63bc7ab9e6c6caea","fixation","img/fixation.png","null","","test","","","","","",""
"544.6999998092651","308044","pSARL_v2","pSARL_v2r2lgsbhw","628e196e63bc7ab9e6c6caea","freq","img/green_2bandit_a2.png","70","70","test","1","190","190","9","",""
"null","308315","pSARL_v2","pSARL_v2r2lgsbhw","628e196e63bc7ab9e6c6caea","freq_resp","img/green_2bandit_a.png","70","70","test","","","","9","",""
"null","308478","pSARL_v2","pSARL_v2r2lgsbhw","628e196e63bc7ab9e6c6caea","fixation","img/fixation.png","null","","test","","","","","",""
"381.80000019073486","308867","pSARL_v2","pSARL_v2r2lgsbhw","628e196e63bc7ab9e6c6caea","freq","img/green_2bandit_a2.png","70","70","test","1","191","191","9","",""
"null","309298","pSARL_v2","pSARL_v2r2lgsbhw","628e196e63bc7ab9e6c6caea","freq_resp","img/green_2bandit_a.png","70","70","test","","","","9","",""
"null","309459","pSARL_v2","pSARL_v2r2lgsbhw","628e196e63bc7ab9e6c6caea","fixation","img/fixation.png","null","","test","","","","","",""
"297.89999985694885","309766","pSARL_v2","pSARL_v2r2lgsbhw","628e196e63bc7ab9e6c6caea","freq","img/green_2bandit_a2.png","70","70","test","1","192","192","9","",""
"null","310282","pSARL_v2","pSARL_v2r2lgsbhw","628e196e63bc7ab9e6c6caea","freq_resp","img/green_2bandit_a.png","70","70","test","","","","9","",""
"null","310445","pSARL_v2","pSARL_v2r2lgsbhw","628e196e63bc7ab9e6c6caea","fixation","img/fixation.png","null","","test","","","","","",""
"314.40000009536743","310766","pSARL_v2","pSARL_v2r2lgsbhw","628e196e63bc7ab9e6c6caea","freq","img/green_2bandit_a2.png","70","70","test","1","193","193","9","",""
"null","311260","pSARL_v2","pSARL_v2r2lgsbhw","628e196e63bc7ab9e6c6caea","freq_resp","img/green_2bandit_a.png","70","70","test","","","","9","",""
"null","311425","pSARL_v2","pSARL_v2r2lgsbhw","628e196e63bc7ab9e6c6caea","fixation","img/fixation.png","null","","test","","","","","",""
"331.5","311766","pSARL_v2","pSARL_v2r2lgsbhw","628e196e63bc7ab9e6c6caea","freq","img/green_2bandit_a2.png","70","70","test","1","194","194","9","",""
"null","312251","pSARL_v2","pSARL_v2r2lgsbhw","628e196e63bc7ab9e6c6caea","freq_resp","img/green_2bandit_a.png","70","70","test","","","","9","",""
"null","312419","pSARL_v2","pSARL_v2r2lgsbhw","628e196e63bc7ab9e6c6caea","fixation","img/fixation.png","null","","test","","","","","",""
"428.7999999523163","312856","pSARL_v2","pSARL_v2r2lgsbhw","628e196e63bc7ab9e6c6caea","infreq","img/orange_2bandit_a2.png","68","68","test","1","195","195","9","",""
"null","313237","pSARL_v2","pSARL_v2r2lgsbhw","628e196e63bc7ab9e6c6caea","infreq_resp","img/orange_2bandit_a.png","68","68","test","","","","9","",""
"null","313403","pSARL_v2","pSARL_v2r2lgsbhw","628e196e63bc7ab9e6c6caea","fixation","img/fixation.png","null","","test","","","","","",""
"340.5","313751","pSARL_v2","pSARL_v2r2lgsbhw","628e196e63bc7ab9e6c6caea","freq","img/green_2bandit_a2.png","70","70","test","1","196","196","9","",""
"null","314230","pSARL_v2","pSARL_v2r2lgsbhw","628e196e63bc7ab9e6c6caea","freq_resp","img/green_2bandit_a.png","70","70","test","","","","9","",""
"null","314399","pSARL_v2","pSARL_v2r2lgsbhw","628e196e63bc7ab9e6c6caea","fixation","img/fixation.png","null","","test","","","","","",""
"322.69999980926514","314728","pSARL_v2","pSARL_v2r2lgsbhw","628e196e63bc7ab9e6c6caea","freq","img/green_2bandit_a2.png","70","70","test","1","197","197","9","",""
"null","315226","pSARL_v2","pSARL_v2r2lgsbhw","628e196e63bc7ab9e6c6caea","freq_resp","img/green_2bandit_a.png","70","70","test","","","","9","",""
"null","315396","pSARL_v2","pSARL_v2r2lgsbhw","628e196e63bc7ab9e6c6caea","fixation","img/fixation.png","null","","test","","","","","",""
"303.2000000476837","315706","pSARL_v2","pSARL_v2r2lgsbhw","628e196e63bc7ab9e6c6caea","freq","img/green_2bandit_a2.png","70","70","test","1","198","198","9","",""
"null","316217","pSARL_v2","pSARL_v2r2lgsbhw","628e196e63bc7ab9e6c6caea","freq_resp","img/green_2bandit_a.png","70","70","test","","","","9","",""
"null","316388","pSARL_v2","pSARL_v2r2lgsbhw","628e196e63bc7ab9e6c6caea","fixation","img/fixation.png","null","","test","","","","","",""
"300.5","316696","pSARL_v2","pSARL_v2r2lgsbhw","628e196e63bc7ab9e6c6caea","freq","img/green_2bandit_a2.png","70","70","test","1","199","199","9","",""
"null","317205","pSARL_v2","pSARL_v2r2lgsbhw","628e196e63bc7ab9e6c6caea","freq_resp","img/green_2bandit_a.png","70","70","test","","","","9","",""
"null","317375","pSARL_v2","pSARL_v2r2lgsbhw","628e196e63bc7ab9e6c6caea","fixation","img/fixation.png","null","","test","","","","","",""
"287.09999990463257","317672","pSARL_v2","pSARL_v2r2lgsbhw","628e196e63bc7ab9e6c6caea","freq","img/green_2bandit_a2.png","70","70","test","1","200","200","9","",""
"null","318200","pSARL_v2","pSARL_v2r2lgsbhw","628e196e63bc7ab9e6c6caea","freq_resp","img/green_2bandit_a.png","70","70","test","","","","9","",""
"null","318368","pSARL_v2","pSARL_v2r2lgsbhw","628e196e63bc7ab9e6c6caea","fixation","img/fixation.png","null","","test","","","","","",""
"293.2999999523163","318669","pSARL_v2","pSARL_v2r2lgsbhw","628e196e63bc7ab9e6c6caea","freq","img/green_2bandit_a2.png","70","70","test","1","201","201","9","",""
"null","319189","pSARL_v2","pSARL_v2r2lgsbhw","628e196e63bc7ab9e6c6caea","freq_resp","img/green_2bandit_a.png","70","70","test","","","","9","",""
"null","319349","pSARL_v2","pSARL_v2r2lgsbhw","628e196e63bc7ab9e6c6caea","fixation","img/fixation.png","null","","test","","","","","",""
"280.59999990463257","319639","pSARL_v2","pSARL_v2r2lgsbhw","628e196e63bc7ab9e6c6caea","freq","img/green_2bandit_a2.png","70","70","test","1","202","202","9","",""
"null","320164","pSARL_v2","pSARL_v2r2lgsbhw","628e196e63bc7ab9e6c6caea","freq_resp","img/green_2bandit_a.png","70","70","test","","","","9","",""
"null","320335","pSARL_v2","pSARL_v2r2lgsbhw","628e196e63bc7ab9e6c6caea","fixation","img/fixation.png","null","","test","","","","","",""
"498.60000014305115","320841","pSARL_v2","pSARL_v2r2lgsbhw","628e196e63bc7ab9e6c6caea","infreq","img/orange_2bandit_a2.png","68","68","test","1","203","203","9","",""
"null","321163","pSARL_v2","pSARL_v2r2lgsbhw","628e196e63bc7ab9e6c6caea","infreq_resp","img/orange_2bandit_a.png","68","68","test","","","","9","",""
"null","321331","pSARL_v2","pSARL_v2r2lgsbhw","628e196e63bc7ab9e6c6caea","fixation","img/fixation.png","null","","test","","","","","",""
"397.5","321736","pSARL_v2","pSARL_v2r2lgsbhw","628e196e63bc7ab9e6c6caea","freq","img/green_2bandit_a2.png","70","70","test","1","204","204","9","",""
"null","322148","pSARL_v2","pSARL_v2r2lgsbhw","628e196e63bc7ab9e6c6caea","freq_resp","img/green_2bandit_a.png","70","70","test","","","","9","",""
"null","322320","pSARL_v2","pSARL_v2r2lgsbhw","628e196e63bc7ab9e6c6caea","fixation","img/fixation.png","null","","test","","","","","",""
"292.2999999523163","322621","pSARL_v2","pSARL_v2r2lgsbhw","628e196e63bc7ab9e6c6caea","freq","img/green_2bandit_a2.png","70","70","test","1","205","205","9","",""
"null","323146","pSARL_v2","pSARL_v2r2lgsbhw","628e196e63bc7ab9e6c6caea","freq_resp","img/green_2bandit_a.png","70","70","test","","","","9","",""
"null","323312","pSARL_v2","pSARL_v2r2lgsbhw","628e196e63bc7ab9e6c6caea","fixation","img/fixation.png","null","","test","","","","","",""
"313.2999999523163","323633","pSARL_v2","pSARL_v2r2lgsbhw","628e196e63bc7ab9e6c6caea","freq","img/green_2bandit_a2.png","70","70","test","1","206","206","9","",""
"null","324135","pSARL_v2","pSARL_v2r2lgsbhw","628e196e63bc7ab9e6c6caea","freq_resp","img/green_2bandit_a.png","70","70","test","","","","9","",""
"null","324303","pSARL_v2","pSARL_v2r2lgsbhw","628e196e63bc7ab9e6c6caea","fixation","img/fixation.png","null","","test","","","","","",""
"292.7999999523163","324604","pSARL_v2","pSARL_v2r2lgsbhw","628e196e63bc7ab9e6c6caea","freq","img/green_2bandit_a2.png","70","70","test","1","207","207","9","",""
