"rt","time_elapsed","expId","subject","prolificID","trialType","stimulus","key_press","corrresp","phase","corr","trialNum","attentionRunNum","blockNum","points","rlNum"
"10701.5","10710","pSARL_v2","pSARL_v284s1q36k","5e3b8f110d41ad3a7bc35019","","","","","","","","","","",""
"","15463","pSARL_v2","pSARL_v284s1q36k","5e3b8f110d41ad3a7bc35019","fullscreen","","","","","","","","","",""
"72875.60000002384","88346","pSARL_v2","pSARL_v284s1q36k","5e3b8f110d41ad3a7bc35019","","","","","","","","","","",""
"null","89153","pSARL_v2","pSARL_v284s1q36k","5e3b8f110d41ad3a7bc35019","freqPrac","img/green_2bandit_b2.png","null","70","prac","0","","","","",""
"null","90161","pSARL_v2","pSARL_v284s1q36k","5e3b8f110d41ad3a7bc35019","feedback","img/tooSlow.png","null","na","prac","","","","","",""
"null","90320","pSARL_v2","pSARL_v284s1q36k","5e3b8f110d41ad3a7bc35019","fixation","img/fixation.png","null","","prac","","","","","",""
"458.7999999523163","90783","pSARL_v2","pSARL_v284s1q36k","5e3b8f110d41ad3a7bc35019","infreqPrac","img/orange_2bandit_b2.png","68","68","prac","1","","","","",""
"458.7999999523163","91138","pSARL_v2","pSARL_v284s1q36k","5e3b8f110d41ad3a7bc35019","infreqPrac_resp","img/orange_2bandit_b.png","68","68","prac","","","","","",""
"null","91297","pSARL_v2","pSARL_v284s1q36k","5e3b8f110d41ad3a7bc35019","fixation","img/fixation.png","null","","prac","","","","","",""
"624.9000000953674","91926","pSARL_v2","pSARL_v284s1q36k","5e3b8f110d41ad3a7bc35019","freqPrac","img/green_2bandit_b2.png","70","70","prac","1","","","","",""
"624.9000000953674","92107","pSARL_v2","pSARL_v284s1q36k","5e3b8f110d41ad3a7bc35019","freqPrac_resp","img/green_2bandit_b.png","70","70","prac","","","","","",""
"null","92266","pSARL_v2","pSARL_v284s1q36k","5e3b8f110d41ad3a7bc35019","fixation","img/fixation.png","null","","prac","","","","","",""
"688.4000000953674","92958","pSARL_v2","pSARL_v284s1q36k","5e3b8f110d41ad3a7bc35019","infreqPrac","img/orange_2bandit_b2.png","68","68","prac","1","","","","",""
"688.4000000953674","93077","pSARL_v2","pSARL_v284s1q36k","5e3b8f110d41ad3a7bc35019","infreqPrac_resp","img/orange_2bandit_b.png","68","68","prac","","","","","",""
"null","93246","pSARL_v2","pSARL_v284s1q36k","5e3b8f110d41ad3a7bc35019","fixation","img/fixation.png","null","","prac","","","","","",""
"500.2999999523163","93750","pSARL_v2","pSARL_v284s1q36k","5e3b8f110d41ad3a7bc35019","infreqPrac","img/orange_2bandit_b2.png","68","68","prac","1","","","","",""
"500.2999999523163","94059","pSARL_v2","pSARL_v284s1q36k","5e3b8f110d41ad3a7bc35019","infreqPrac_resp","img/orange_2bandit_b.png","68","68","prac","","","","","",""
"null","94222","pSARL_v2","pSARL_v284s1q36k","5e3b8f110d41ad3a7bc35019","fixation","img/fixation.png","null","","prac","","","","","",""
"404.7999999523163","94631","pSARL_v2","pSARL_v284s1q36k","5e3b8f110d41ad3a7bc35019","infreqPrac","img/orange_2bandit_b2.png","68","68","prac","1","","","","",""
"404.7999999523163","95033","pSARL_v2","pSARL_v284s1q36k","5e3b8f110d41ad3a7bc35019","infreqPrac_resp","img/orange_2bandit_b.png","68","68","prac","","","","","",""
"null","95196","pSARL_v2","pSARL_v284s1q36k","5e3b8f110d41ad3a7bc35019","fixation","img/fixation.png","null","","prac","","","","","",""
"446.6999999284744","95646","pSARL_v2","pSARL_v284s1q36k","5e3b8f110d41ad3a7bc35019","freqPrac","img/green_2bandit_b2.png","70","70","prac","1","","","","",""
"446.6999999284744","96009","pSARL_v2","pSARL_v284s1q36k","5e3b8f110d41ad3a7bc35019","freqPrac_resp","img/green_2bandit_b.png","70","70","prac","","","","","",""
"null","96172","pSARL_v2","pSARL_v284s1q36k","5e3b8f110d41ad3a7bc35019","fixation","img/fixation.png","null","","prac","","","","","",""
"526.2000000476837","96702","pSARL_v2","pSARL_v284s1q36k","5e3b8f110d41ad3a7bc35019","infreqPrac","img/orange_2bandit_b2.png","68","68","prac","1","","","","",""
"526.2000000476837","96989","pSARL_v2","pSARL_v284s1q36k","5e3b8f110d41ad3a7bc35019","infreqPrac_resp","img/orange_2bandit_b.png","68","68","prac","","","","","",""
"null","97155","pSARL_v2","pSARL_v284s1q36k","5e3b8f110d41ad3a7bc35019","fixation","img/fixation.png","null","","prac","","","","","",""
"472.09999990463257","97631","pSARL_v2","pSARL_v284s1q36k","5e3b8f110d41ad3a7bc35019","freqPrac","img/green_2bandit_b2.png","70","70","prac","1","","","","",""
"472.09999990463257","97971","pSARL_v2","pSARL_v284s1q36k","5e3b8f110d41ad3a7bc35019","freqPrac_resp","img/green_2bandit_b.png","70","70","prac","","","","","",""
"null","98133","pSARL_v2","pSARL_v284s1q36k","5e3b8f110d41ad3a7bc35019","fixation","img/fixation.png","null","","prac","","","","","",""
"580.6000000238419","98718","pSARL_v2","pSARL_v284s1q36k","5e3b8f110d41ad3a7bc35019","freqPrac","img/green_2bandit_b2.png","70","70","prac","1","","","","",""
"580.6000000238419","98947","pSARL_v2","pSARL_v284s1q36k","5e3b8f110d41ad3a7bc35019","freqPrac_resp","img/green_2bandit_b.png","70","70","prac","","","","","",""
"null","99106","pSARL_v2","pSARL_v284s1q36k","5e3b8f110d41ad3a7bc35019","fixation","img/fixation.png","null","","prac","","","","","",""
"30089.5","129200","pSARL_v2","pSARL_v284s1q36k","5e3b8f110d41ad3a7bc35019","","","","","prac","","","","","",""
"3212.2000000476837","132416","pSARL_v2","pSARL_v284s1q36k","5e3b8f110d41ad3a7bc35019","rewardPractice","img/slot.png","74","","prac","","","","","",""
"null","133179","pSARL_v2","pSARL_v284s1q36k","5e3b8f110d41ad3a7bc35019","feedback","<div class=""veryhighPoints""> +15 </div>","null","na","prac","","","","","",""
"null","133343","pSARL_v2","pSARL_v284s1q36k","5e3b8f110d41ad3a7bc35019","fixation","img/fixation.png","null","","prac","","","","","",""
"15540.300000071526","148887","pSARL_v2","pSARL_v284s1q36k","5e3b8f110d41ad3a7bc35019","","","","","prac","","","","","",""
"473.8000000715256","149365","pSARL_v2","pSARL_v284s1q36k","5e3b8f110d41ad3a7bc35019","freq","img/green_2bandit_b2.png","70","70","test","1","1","1","1","",""
"null","149700","pSARL_v2","pSARL_v284s1q36k","5e3b8f110d41ad3a7bc35019","freq_resp","img/green_2bandit_b.png","70","70","test","","","","1","",""
"null","149857","pSARL_v2","pSARL_v284s1q36k","5e3b8f110d41ad3a7bc35019","fixation","img/fixation.png","null","","test","","","","","",""
"368.1999999284744","150229","pSARL_v2","pSARL_v284s1q36k","5e3b8f110d41ad3a7bc35019","freq","img/green_2bandit_b2.png","70","70","test","1","2","2","1","",""
"null","150668","pSARL_v2","pSARL_v284s1q36k","5e3b8f110d41ad3a7bc35019","freq_resp","img/green_2bandit_b.png","70","70","test","","","","1","",""
"null","150829","pSARL_v2","pSARL_v284s1q36k","5e3b8f110d41ad3a7bc35019","fixation","img/fixation.png","null","","test","","","","","",""
"380.60000002384186","151213","pSARL_v2","pSARL_v284s1q36k","5e3b8f110d41ad3a7bc35019","freq","img/green_2bandit_b2.png","70","70","test","1","3","3","1","",""
"null","151646","pSARL_v2","pSARL_v284s1q36k","5e3b8f110d41ad3a7bc35019","freq_resp","img/green_2bandit_b.png","70","70","test","","","","1","",""
"null","151802","pSARL_v2","pSARL_v284s1q36k","5e3b8f110d41ad3a7bc35019","fixation","img/fixation.png","null","","test","","","","","",""
"408","152213","pSARL_v2","pSARL_v284s1q36k","5e3b8f110d41ad3a7bc35019","freq","img/green_2bandit_b2.png","70","70","test","1","4","4","1","",""
"null","152624","pSARL_v2","pSARL_v284s1q36k","5e3b8f110d41ad3a7bc35019","freq_resp","img/green_2bandit_b.png","70","70","test","","","","1","",""
"null","152789","pSARL_v2","pSARL_v284s1q36k","5e3b8f110d41ad3a7bc35019","fixation","img/fixation.png","null","","test","","","","","",""
"468.1999999284744","153262","pSARL_v2","pSARL_v284s1q36k","5e3b8f110d41ad3a7bc35019","freq","img/green_2bandit_b2.png","70","70","test","1","5","5","1","",""
"null","153602","pSARL_v2","pSARL_v284s1q36k","5e3b8f110d41ad3a7bc35019","freq_resp","img/green_2bandit_b.png","70","70","test","","","","1","",""
"null","153760","pSARL_v2","pSARL_v284s1q36k","5e3b8f110d41ad3a7bc35019","fixation","img/fixation.png","null","","test","","","","","",""
"441.8000000715256","154205","pSARL_v2","pSARL_v284s1q36k","5e3b8f110d41ad3a7bc35019","freq","img/green_2bandit_b2.png","70","70","test","1","6","6","1","",""
"null","154570","pSARL_v2","pSARL_v284s1q36k","5e3b8f110d41ad3a7bc35019","freq_resp","img/green_2bandit_b.png","70","70","test","","","","1","",""
"null","154730","pSARL_v2","pSARL_v284s1q36k","5e3b8f110d41ad3a7bc35019","fixation","img/fixation.png","null","","test","","","","","",""
"472.10000002384186","155206","pSARL_v2","pSARL_v284s1q36k","5e3b8f110d41ad3a7bc35019","freq","img/green_2bandit_b2.png","70","70","test","1","7","7","1","",""
"null","155542","pSARL_v2","pSARL_v284s1q36k","5e3b8f110d41ad3a7bc35019","freq_resp","img/green_2bandit_b.png","70","70","test","","","","1","",""
"null","155702","pSARL_v2","pSARL_v284s1q36k","5e3b8f110d41ad3a7bc35019","fixation","img/fixation.png","null","","test","","","","","",""
"450.89999997615814","156157","pSARL_v2","pSARL_v284s1q36k","5e3b8f110d41ad3a7bc35019","infreq","img/orange_2bandit_b2.png","68","68","test","1","8","8","1","",""
"null","156515","pSARL_v2","pSARL_v284s1q36k","5e3b8f110d41ad3a7bc35019","infreq_resp","img/orange_2bandit_b.png","68","68","test","","","","1","",""
"null","156677","pSARL_v2","pSARL_v284s1q36k","5e3b8f110d41ad3a7bc35019","fixation","img/fixation.png","null","","test","","","","","",""
"565.6999999284744","157246","pSARL_v2","pSARL_v284s1q36k","5e3b8f110d41ad3a7bc35019","freq","img/green_2bandit_b2.png","70","70","test","1","9","9","1","",""
"null","157486","pSARL_v2","pSARL_v284s1q36k","5e3b8f110d41ad3a7bc35019","freq_resp","img/green_2bandit_b.png","70","70","test","","","","1","",""
"null","157642","pSARL_v2","pSARL_v284s1q36k","5e3b8f110d41ad3a7bc35019","fixation","img/fixation.png","null","","test","","","","","",""
"415.40000009536743","158062","pSARL_v2","pSARL_v284s1q36k","5e3b8f110d41ad3a7bc35019","freq","img/green_2bandit_b2.png","70","70","test","1","10","10","1","",""
"null","158462","pSARL_v2","pSARL_v284s1q36k","5e3b8f110d41ad3a7bc35019","freq_resp","img/green_2bandit_b.png","70","70","test","","","","1","",""
"null","158623","pSARL_v2","pSARL_v284s1q36k","5e3b8f110d41ad3a7bc35019","fixation","img/fixation.png","null","","test","","","","","",""
"411.60000002384186","159038","pSARL_v2","pSARL_v284s1q36k","5e3b8f110d41ad3a7bc35019","freq","img/green_2bandit_b2.png","70","70","test","1","11","11","1","",""
"null","159438","pSARL_v2","pSARL_v284s1q36k","5e3b8f110d41ad3a7bc35019","freq_resp","img/green_2bandit_b.png","70","70","test","","","","1","",""
"null","159599","pSARL_v2","pSARL_v284s1q36k","5e3b8f110d41ad3a7bc35019","fixation","img/fixation.png","null","","test","","","","","",""
"378.10000002384186","159982","pSARL_v2","pSARL_v284s1q36k","5e3b8f110d41ad3a7bc35019","freq","img/green_2bandit_b2.png","70","70","test","1","12","12","1","",""
"null","160415","pSARL_v2","pSARL_v284s1q36k","5e3b8f110d41ad3a7bc35019","freq_resp","img/green_2bandit_b.png","70","70","test","","","","1","",""
"null","160572","pSARL_v2","pSARL_v284s1q36k","5e3b8f110d41ad3a7bc35019","fixation","img/fixation.png","null","","test","","","","","",""
"405.7999999523163","160982","pSARL_v2","pSARL_v284s1q36k","5e3b8f110d41ad3a7bc35019","freq","img/green_2bandit_b2.png","70","70","test","1","13","13","1","",""
"null","161387","pSARL_v2","pSARL_v284s1q36k","5e3b8f110d41ad3a7bc35019","freq_resp","img/green_2bandit_b.png","70","70","test","","","","1","",""
"null","161550","pSARL_v2","pSARL_v284s1q36k","5e3b8f110d41ad3a7bc35019","fixation","img/fixation.png","null","","test","","","","","",""
"373.89999997615814","161930","pSARL_v2","pSARL_v284s1q36k","5e3b8f110d41ad3a7bc35019","freq","img/green_2bandit_b2.png","70","70","test","1","14","14","1","",""
"null","162363","pSARL_v2","pSARL_v284s1q36k","5e3b8f110d41ad3a7bc35019","freq_resp","img/green_2bandit_b.png","70","70","test","","","","1","",""
"null","162527","pSARL_v2","pSARL_v284s1q36k","5e3b8f110d41ad3a7bc35019","fixation","img/fixation.png","null","","test","","","","","",""
"403.6999999284744","162934","pSARL_v2","pSARL_v284s1q36k","5e3b8f110d41ad3a7bc35019","freq","img/green_2bandit_b2.png","70","70","test","1","15","15","1","",""
"null","163340","pSARL_v2","pSARL_v284s1q36k","5e3b8f110d41ad3a7bc35019","freq_resp","img/green_2bandit_b.png","70","70","test","","","","1","",""
"null","163499","pSARL_v2","pSARL_v284s1q36k","5e3b8f110d41ad3a7bc35019","fixation","img/fixation.png","null","","test","","","","","",""
"430.90000009536743","163933","pSARL_v2","pSARL_v284s1q36k","5e3b8f110d41ad3a7bc35019","freq","img/green_2bandit_b2.png","70","70","test","1","16","16","1","",""
"null","164318","pSARL_v2","pSARL_v284s1q36k","5e3b8f110d41ad3a7bc35019","freq_resp","img/green_2bandit_b.png","70","70","test","","","","1","",""
"null","164478","pSARL_v2","pSARL_v284s1q36k","5e3b8f110d41ad3a7bc35019","fixation","img/fixation.png","null","","test","","","","","",""
"380.5","164862","pSARL_v2","pSARL_v284s1q36k","5e3b8f110d41ad3a7bc35019","freq","img/green_2bandit_b2.png","70","70","test","1","17","17","1","",""
"null","165295","pSARL_v2","pSARL_v284s1q36k","5e3b8f110d41ad3a7bc35019","freq_resp","img/green_2bandit_b.png","70","70","test","","","","1","",""
"null","165453","pSARL_v2","pSARL_v284s1q36k","5e3b8f110d41ad3a7bc35019","fixation","img/fixation.png","null","","test","","","","","",""
"397.60000002384186","165854","pSARL_v2","pSARL_v284s1q36k","5e3b8f110d41ad3a7bc35019","freq","img/green_2bandit_b2.png","70","70","test","1","18","18","1","",""
"null","166264","pSARL_v2","pSARL_v284s1q36k","5e3b8f110d41ad3a7bc35019","freq_resp","img/green_2bandit_b.png","70","70","test","","","","1","",""
"null","166431","pSARL_v2","pSARL_v284s1q36k","5e3b8f110d41ad3a7bc35019","fixation","img/fixation.png","null","","test","","","","","",""
"387.1999999284744","166822","pSARL_v2","pSARL_v284s1q36k","5e3b8f110d41ad3a7bc35019","freq","img/green_2bandit_b2.png","70","70","test","1","19","19","1","",""
"null","167245","pSARL_v2","pSARL_v284s1q36k","5e3b8f110d41ad3a7bc35019","freq_resp","img/green_2bandit_b.png","70","70","test","","","","1","",""
"null","167406","pSARL_v2","pSARL_v284s1q36k","5e3b8f110d41ad3a7bc35019","fixation","img/fixation.png","null","","test","","","","","",""
"580.3999999761581","167990","pSARL_v2","pSARL_v284s1q36k","5e3b8f110d41ad3a7bc35019","infreq","img/orange_2bandit_b2.png","68","68","test","1","20","20","1","",""
"null","168221","pSARL_v2","pSARL_v284s1q36k","5e3b8f110d41ad3a7bc35019","infreq_resp","img/orange_2bandit_b.png","68","68","test","","","","1","",""
"null","168383","pSARL_v2","pSARL_v284s1q36k","5e3b8f110d41ad3a7bc35019","fixation","img/fixation.png","null","","test","","","","","",""
"474.2999999523163","168861","pSARL_v2","pSARL_v284s1q36k","5e3b8f110d41ad3a7bc35019","freq","img/green_2bandit_b2.png","70","70","test","1","21","21","1","",""
"null","169197","pSARL_v2","pSARL_v284s1q36k","5e3b8f110d41ad3a7bc35019","freq_resp","img/green_2bandit_b.png","70","70","test","","","","1","",""
"null","169357","pSARL_v2","pSARL_v284s1q36k","5e3b8f110d41ad3a7bc35019","fixation","img/fixation.png","null","","test","","","","","",""
"6033.899999976158","175395","pSARL_v2","pSARL_v284s1q36k","5e3b8f110d41ad3a7bc35019","reward","img/slot.png","74","","test","","","","","",""
"null","176154","pSARL_v2","pSARL_v284s1q36k","5e3b8f110d41ad3a7bc35019","points","<div class=""verylowPoints""> -6 </div>","null","na","test","","","","1","-6","0"
"706.1000000238419","176864","pSARL_v2","pSARL_v284s1q36k","5e3b8f110d41ad3a7bc35019","freq","img/green_2bandit_b2.png","70","70","test","1","22","22","2","",""
"null","176965","pSARL_v2","pSARL_v284s1q36k","5e3b8f110d41ad3a7bc35019","freq_resp","img/green_2bandit_b.png","70","70","test","","","","2","",""
"null","177123","pSARL_v2","pSARL_v284s1q36k","5e3b8f110d41ad3a7bc35019","fixation","img/fixation.png","null","","test","","","","","",""
"553.4000000953674","177680","pSARL_v2","pSARL_v284s1q36k","5e3b8f110d41ad3a7bc35019","freq","img/green_2bandit_b2.png","70","70","test","1","23","23","2","",""
"null","177943","pSARL_v2","pSARL_v284s1q36k","5e3b8f110d41ad3a7bc35019","freq_resp","img/green_2bandit_b.png","70","70","test","","","","2","",""
"null","178104","pSARL_v2","pSARL_v284s1q36k","5e3b8f110d41ad3a7bc35019","fixation","img/fixation.png","null","","test","","","","","",""
"588.5","178696","pSARL_v2","pSARL_v284s1q36k","5e3b8f110d41ad3a7bc35019","infreq","img/orange_2bandit_b2.png","68","68","test","1","24","24","2","",""
"null","178919","pSARL_v2","pSARL_v284s1q36k","5e3b8f110d41ad3a7bc35019","infreq_resp","img/orange_2bandit_b.png","68","68","test","","","","2","",""
"null","179076","pSARL_v2","pSARL_v284s1q36k","5e3b8f110d41ad3a7bc35019","fixation","img/fixation.png","null","","test","","","","","",""
"504.1999999284744","179584","pSARL_v2","pSARL_v284s1q36k","5e3b8f110d41ad3a7bc35019","freq","img/green_2bandit_b2.png","70","70","test","1","25","25","2","",""
"null","179893","pSARL_v2","pSARL_v284s1q36k","5e3b8f110d41ad3a7bc35019","freq_resp","img/green_2bandit_b.png","70","70","test","","","","2","",""
"null","180055","pSARL_v2","pSARL_v284s1q36k","5e3b8f110d41ad3a7bc35019","fixation","img/fixation.png","null","","test","","","","","",""
"461.10000002384186","180520","pSARL_v2","pSARL_v284s1q36k","5e3b8f110d41ad3a7bc35019","infreq","img/orange_2bandit_b2.png","68","68","test","1","26","26","2","",""
"null","180863","pSARL_v2","pSARL_v284s1q36k","5e3b8f110d41ad3a7bc35019","infreq_resp","img/orange_2bandit_b.png","68","68","test","","","","2","",""
"null","181025","pSARL_v2","pSARL_v284s1q36k","5e3b8f110d41ad3a7bc35019","fixation","img/fixation.png","null","","test","","","","","",""
"483.1999999284744","181512","pSARL_v2","pSARL_v284s1q36k","5e3b8f110d41ad3a7bc35019","freq","img/green_2bandit_b2.png","70","70","test","1","27","27","2","",""
"null","181838","pSARL_v2","pSARL_v284s1q36k","5e3b8f110d41ad3a7bc35019","freq_resp","img/green_2bandit_b.png","70","70","test","","","","2","",""
"null","181996","pSARL_v2","pSARL_v284s1q36k","5e3b8f110d41ad3a7bc35019","fixation","img/fixation.png","null","","test","","","","","",""
"391.7000000476837","182392","pSARL_v2","pSARL_v284s1q36k","5e3b8f110d41ad3a7bc35019","freq","img/green_2bandit_b2.png","70","70","test","1","28","28","2","",""
"null","182813","pSARL_v2","pSARL_v284s1q36k","5e3b8f110d41ad3a7bc35019","freq_resp","img/green_2bandit_b.png","70","70","test","","","","2","",""
"null","182975","pSARL_v2","pSARL_v284s1q36k","5e3b8f110d41ad3a7bc35019","fixation","img/fixation.png","null","","test","","","","","",""
"373.90000009536743","183353","pSARL_v2","pSARL_v284s1q36k","5e3b8f110d41ad3a7bc35019","freq","img/green_2bandit_b2.png","70","70","test","1","29","29","2","",""
"null","183788","pSARL_v2","pSARL_v284s1q36k","5e3b8f110d41ad3a7bc35019","freq_resp","img/green_2bandit_b.png","70","70","test","","","","2","",""
"null","183951","pSARL_v2","pSARL_v284s1q36k","5e3b8f110d41ad3a7bc35019","fixation","img/fixation.png","null","","test","","","","","",""
"389.39999997615814","184344","pSARL_v2","pSARL_v284s1q36k","5e3b8f110d41ad3a7bc35019","freq","img/green_2bandit_b2.png","70","70","test","1","30","30","2","",""
"null","184764","pSARL_v2","pSARL_v284s1q36k","5e3b8f110d41ad3a7bc35019","freq_resp","img/green_2bandit_b.png","70","70","test","","","","2","",""
"null","184927","pSARL_v2","pSARL_v284s1q36k","5e3b8f110d41ad3a7bc35019","fixation","img/fixation.png","null","","test","","","","","",""
"429.2000000476837","185360","pSARL_v2","pSARL_v284s1q36k","5e3b8f110d41ad3a7bc35019","freq","img/green_2bandit_b2.png","70","70","test","1","31","31","2","",""
"null","185744","pSARL_v2","pSARL_v284s1q36k","5e3b8f110d41ad3a7bc35019","freq_resp","img/green_2bandit_b.png","70","70","test","","","","2","",""
"null","185907","pSARL_v2","pSARL_v284s1q36k","5e3b8f110d41ad3a7bc35019","fixation","img/fixation.png","null","","test","","","","","",""
"393.39999997615814","186304","pSARL_v2","pSARL_v284s1q36k","5e3b8f110d41ad3a7bc35019","freq","img/green_2bandit_b2.png","70","70","test","1","32","32","2","",""
"null","186721","pSARL_v2","pSARL_v284s1q36k","5e3b8f110d41ad3a7bc35019","freq_resp","img/green_2bandit_b.png","70","70","test","","","","2","",""
"null","186888","pSARL_v2","pSARL_v284s1q36k","5e3b8f110d41ad3a7bc35019","fixation","img/fixation.png","null","","test","","","","","",""
"388.2000000476837","187280","pSARL_v2","pSARL_v284s1q36k","5e3b8f110d41ad3a7bc35019","freq","img/green_2bandit_b2.png","70","70","test","1","33","33","2","",""
"null","187701","pSARL_v2","pSARL_v284s1q36k","5e3b8f110d41ad3a7bc35019","freq_resp","img/green_2bandit_b.png","70","70","test","","","","2","",""
"null","187863","pSARL_v2","pSARL_v284s1q36k","5e3b8f110d41ad3a7bc35019","fixation","img/fixation.png","null","","test","","","","","",""
"332.7000000476837","188200","pSARL_v2","pSARL_v284s1q36k","5e3b8f110d41ad3a7bc35019","freq","img/green_2bandit_b2.png","70","70","test","1","34","34","2","",""
"null","188676","pSARL_v2","pSARL_v284s1q36k","5e3b8f110d41ad3a7bc35019","freq_resp","img/green_2bandit_b.png","70","70","test","","","","2","",""
"null","188839","pSARL_v2","pSARL_v284s1q36k","5e3b8f110d41ad3a7bc35019","fixation","img/fixation.png","null","","test","","","","","",""
"333.89999997615814","189177","pSARL_v2","pSARL_v284s1q36k","5e3b8f110d41ad3a7bc35019","freq","img/green_2bandit_b2.png","70","70","test","1","35","35","2","",""
"null","189651","pSARL_v2","pSARL_v284s1q36k","5e3b8f110d41ad3a7bc35019","freq_resp","img/green_2bandit_b.png","70","70","test","","","","2","",""
"null","189815","pSARL_v2","pSARL_v284s1q36k","5e3b8f110d41ad3a7bc35019","fixation","img/fixation.png","null","","test","","","","","",""
"381.60000002384186","190200","pSARL_v2","pSARL_v284s1q36k","5e3b8f110d41ad3a7bc35019","freq","img/green_2bandit_b2.png","70","70","test","1","36","36","2","",""
"null","190628","pSARL_v2","pSARL_v284s1q36k","5e3b8f110d41ad3a7bc35019","freq_resp","img/green_2bandit_b.png","70","70","test","","","","2","",""
"null","190789","pSARL_v2","pSARL_v284s1q36k","5e3b8f110d41ad3a7bc35019","fixation","img/fixation.png","null","","test","","","","","",""
"358.7999999523163","191152","pSARL_v2","pSARL_v284s1q36k","5e3b8f110d41ad3a7bc35019","freq","img/green_2bandit_b2.png","70","70","test","1","37","37","2","",""
"null","191604","pSARL_v2","pSARL_v284s1q36k","5e3b8f110d41ad3a7bc35019","freq_resp","img/green_2bandit_b.png","70","70","test","","","","2","",""
"null","191760","pSARL_v2","pSARL_v284s1q36k","5e3b8f110d41ad3a7bc35019","fixation","img/fixation.png","null","","test","","","","","",""
"332.39999997615814","192097","pSARL_v2","pSARL_v284s1q36k","5e3b8f110d41ad3a7bc35019","freq","img/green_2bandit_b2.png","70","70","test","1","38","38","2","",""
"null","192575","pSARL_v2","pSARL_v284s1q36k","5e3b8f110d41ad3a7bc35019","freq_resp","img/green_2bandit_b.png","70","70","test","","","","2","",""
"null","192733","pSARL_v2","pSARL_v284s1q36k","5e3b8f110d41ad3a7bc35019","fixation","img/fixation.png","null","","test","","","","","",""
"439.1999999284744","193176","pSARL_v2","pSARL_v284s1q36k","5e3b8f110d41ad3a7bc35019","freq","img/green_2bandit_b2.png","70","70","test","1","39","39","2","",""
"null","193550","pSARL_v2","pSARL_v284s1q36k","5e3b8f110d41ad3a7bc35019","freq_resp","img/green_2bandit_b.png","70","70","test","","","","2","",""
"null","193709","pSARL_v2","pSARL_v284s1q36k","5e3b8f110d41ad3a7bc35019","fixation","img/fixation.png","null","","test","","","","","",""
"391.60000002384186","194104","pSARL_v2","pSARL_v284s1q36k","5e3b8f110d41ad3a7bc35019","freq","img/green_2bandit_b2.png","70","70","test","1","40","40","2","",""
"null","194520","pSARL_v2","pSARL_v284s1q36k","5e3b8f110d41ad3a7bc35019","freq_resp","img/green_2bandit_b.png","70","70","test","","","","2","",""
"null","194678","pSARL_v2","pSARL_v284s1q36k","5e3b8f110d41ad3a7bc35019","fixation","img/fixation.png","null","","test","","","","","",""
"8365.199999928474","203048","pSARL_v2","pSARL_v284s1q36k","5e3b8f110d41ad3a7bc35019","reward","img/slot.png","74","","test","","","","","",""
"null","203805","pSARL_v2","pSARL_v284s1q36k","5e3b8f110d41ad3a7bc35019","points","<div class=""verylowPoints""> -11 </div>","null","na","test","","","","2","-11","1"
"493.39999997615814","204302","pSARL_v2","pSARL_v284s1q36k","5e3b8f110d41ad3a7bc35019","freq","img/green_2bandit_b2.png","70","70","test","1","41","41","3","",""
"null","204621","pSARL_v2","pSARL_v284s1q36k","5e3b8f110d41ad3a7bc35019","freq_resp","img/green_2bandit_b.png","70","70","test","","","","3","",""
"null","204780","pSARL_v2","pSARL_v284s1q36k","5e3b8f110d41ad3a7bc35019","fixation","img/fixation.png","null","","test","","","","","",""
"366.5","205150","pSARL_v2","pSARL_v284s1q36k","5e3b8f110d41ad3a7bc35019","freq","img/green_2bandit_b2.png","70","70","test","1","42","42","3","",""
"null","205598","pSARL_v2","pSARL_v284s1q36k","5e3b8f110d41ad3a7bc35019","freq_resp","img/green_2bandit_b.png","70","70","test","","","","3","",""
"null","205760","pSARL_v2","pSARL_v284s1q36k","5e3b8f110d41ad3a7bc35019","fixation","img/fixation.png","null","","test","","","","","",""
"339","206102","pSARL_v2","pSARL_v284s1q36k","5e3b8f110d41ad3a7bc35019","freq","img/green_2bandit_b2.png","70","70","test","1","43","43","3","",""
"null","206573","pSARL_v2","pSARL_v284s1q36k","5e3b8f110d41ad3a7bc35019","freq_resp","img/green_2bandit_b.png","70","70","test","","","","3","",""
"null","206736","pSARL_v2","pSARL_v284s1q36k","5e3b8f110d41ad3a7bc35019","fixation","img/fixation.png","null","","test","","","","","",""
"313.8000000715256","207054","pSARL_v2","pSARL_v284s1q36k","5e3b8f110d41ad3a7bc35019","freq","img/green_2bandit_b2.png","70","70","test","1","44","44","3","",""
"null","207549","pSARL_v2","pSARL_v284s1q36k","5e3b8f110d41ad3a7bc35019","freq_resp","img/green_2bandit_b.png","70","70","test","","","","3","",""
"null","207713","pSARL_v2","pSARL_v284s1q36k","5e3b8f110d41ad3a7bc35019","fixation","img/fixation.png","null","","test","","","","","",""
"306.2000000476837","208023","pSARL_v2","pSARL_v284s1q36k","5e3b8f110d41ad3a7bc35019","freq","img/green_2bandit_b2.png","70","70","test","1","45","45","3","",""
"null","208529","pSARL_v2","pSARL_v284s1q36k","5e3b8f110d41ad3a7bc35019","freq_resp","img/green_2bandit_b.png","70","70","test","","","","3","",""
"null","208693","pSARL_v2","pSARL_v284s1q36k","5e3b8f110d41ad3a7bc35019","fixation","img/fixation.png","null","","test","","","","","",""
"299.89999997615814","208997","pSARL_v2","pSARL_v284s1q36k","5e3b8f110d41ad3a7bc35019","freq","img/green_2bandit_b2.png","70","70","test","1","46","46","3","",""
"null","209508","pSARL_v2","pSARL_v284s1q36k","5e3b8f110d41ad3a7bc35019","freq_resp","img/green_2bandit_b.png","70","70","test","","","","3","",""
"null","209668","pSARL_v2","pSARL_v284s1q36k","5e3b8f110d41ad3a7bc35019","fixation","img/fixation.png","null","","test","","","","","",""
"286.5","209958","pSARL_v2","pSARL_v284s1q36k","5e3b8f110d41ad3a7bc35019","freq","img/green_2bandit_b2.png","70","70","test","1","47","47","3","",""
"null","210484","pSARL_v2","pSARL_v284s1q36k","5e3b8f110d41ad3a7bc35019","freq_resp","img/green_2bandit_b.png","70","70","test","","","","3","",""
"null","210644","pSARL_v2","pSARL_v284s1q36k","5e3b8f110d41ad3a7bc35019","fixation","img/fixation.png","null","","test","","","","","",""
"325.89999997615814","210974","pSARL_v2","pSARL_v284s1q36k","5e3b8f110d41ad3a7bc35019","freq","img/green_2bandit_b2.png","70","70","test","1","48","48","3","",""
"null","211460","pSARL_v2","pSARL_v284s1q36k","5e3b8f110d41ad3a7bc35019","freq_resp","img/green_2bandit_b.png","70","70","test","","","","3","",""
"null","211625","pSARL_v2","pSARL_v284s1q36k","5e3b8f110d41ad3a7bc35019","fixation","img/fixation.png","null","","test","","","","","",""
"304.2000000476837","211934","pSARL_v2","pSARL_v284s1q36k","5e3b8f110d41ad3a7bc35019","freq","img/green_2bandit_b2.png","70","70","test","1","49","49","3","",""
"null","212436","pSARL_v2","pSARL_v284s1q36k","5e3b8f110d41ad3a7bc35019","freq_resp","img/green_2bandit_b.png","70","70","test","","","","3","",""
"null","212599","pSARL_v2","pSARL_v284s1q36k","5e3b8f110d41ad3a7bc35019","fixation","img/fixation.png","null","","test","","","","","",""
"306.2000000476837","212909","pSARL_v2","pSARL_v284s1q36k","5e3b8f110d41ad3a7bc35019","freq","img/green_2bandit_b2.png","70","70","test","1","50","50","3","",""
"null","213411","pSARL_v2","pSARL_v284s1q36k","5e3b8f110d41ad3a7bc35019","freq_resp","img/green_2bandit_b.png","70","70","test","","","","3","",""
"null","213573","pSARL_v2","pSARL_v284s1q36k","5e3b8f110d41ad3a7bc35019","fixation","img/fixation.png","null","","test","","","","","",""
"324.2000000476837","213901","pSARL_v2","pSARL_v284s1q36k","5e3b8f110d41ad3a7bc35019","freq","img/green_2bandit_b2.png","70","70","test","1","51","51","3","",""
"null","214389","pSARL_v2","pSARL_v284s1q36k","5e3b8f110d41ad3a7bc35019","freq_resp","img/green_2bandit_b.png","70","70","test","","","","3","",""
"null","214550","pSARL_v2","pSARL_v284s1q36k","5e3b8f110d41ad3a7bc35019","fixation","img/fixation.png","null","","test","","","","","",""
"285.39999997615814","214839","pSARL_v2","pSARL_v284s1q36k","5e3b8f110d41ad3a7bc35019","freq","img/green_2bandit_b2.png","70","70","test","1","52","52","3","",""
"null","215366","pSARL_v2","pSARL_v284s1q36k","5e3b8f110d41ad3a7bc35019","freq_resp","img/green_2bandit_b.png","70","70","test","","","","3","",""
"null","215525","pSARL_v2","pSARL_v284s1q36k","5e3b8f110d41ad3a7bc35019","fixation","img/fixation.png","null","","test","","","","","",""
"283.8000000715256","215813","pSARL_v2","pSARL_v284s1q36k","5e3b8f110d41ad3a7bc35019","freq","img/green_2bandit_b2.png","70","70","test","1","53","53","3","",""
"null","216335","pSARL_v2","pSARL_v284s1q36k","5e3b8f110d41ad3a7bc35019","freq_resp","img/green_2bandit_b.png","70","70","test","","","","3","",""
"null","216495","pSARL_v2","pSARL_v284s1q36k","5e3b8f110d41ad3a7bc35019","fixation","img/fixation.png","null","","test","","","","","",""
"292.10000002384186","216791","pSARL_v2","pSARL_v284s1q36k","5e3b8f110d41ad3a7bc35019","freq","img/green_2bandit_b2.png","70","70","test","1","54","54","3","",""
"null","217311","pSARL_v2","pSARL_v284s1q36k","5e3b8f110d41ad3a7bc35019","freq_resp","img/green_2bandit_b.png","70","70","test","","","","3","",""
"null","217469","pSARL_v2","pSARL_v284s1q36k","5e3b8f110d41ad3a7bc35019","fixation","img/fixation.png","null","","test","","","","","",""
"261.60000002384186","217735","pSARL_v2","pSARL_v284s1q36k","5e3b8f110d41ad3a7bc35019","freq","img/green_2bandit_b2.png","70","70","test","1","55","55","3","",""
"null","218285","pSARL_v2","pSARL_v284s1q36k","5e3b8f110d41ad3a7bc35019","freq_resp","img/green_2bandit_b.png","70","70","test","","","","3","",""
"null","218446","pSARL_v2","pSARL_v284s1q36k","5e3b8f110d41ad3a7bc35019","fixation","img/fixation.png","null","","test","","","","","",""
"532","218982","pSARL_v2","pSARL_v284s1q36k","5e3b8f110d41ad3a7bc35019","infreq","img/orange_2bandit_b2.png","68","68","test","1","56","56","3","",""
"null","219256","pSARL_v2","pSARL_v284s1q36k","5e3b8f110d41ad3a7bc35019","infreq_resp","img/orange_2bandit_b.png","68","68","test","","","","3","",""
"null","219415","pSARL_v2","pSARL_v284s1q36k","5e3b8f110d41ad3a7bc35019","fixation","img/fixation.png","null","","test","","","","","",""
"403.3000000715256","219822","pSARL_v2","pSARL_v284s1q36k","5e3b8f110d41ad3a7bc35019","freq","img/green_2bandit_b2.png","70","70","test","1","57","57","3","",""
"null","220229","pSARL_v2","pSARL_v284s1q36k","5e3b8f110d41ad3a7bc35019","freq_resp","img/green_2bandit_b.png","70","70","test","","","","3","",""
"null","220388","pSARL_v2","pSARL_v284s1q36k","5e3b8f110d41ad3a7bc35019","fixation","img/fixation.png","null","","test","","","","","",""
"358.90000009536743","220751","pSARL_v2","pSARL_v284s1q36k","5e3b8f110d41ad3a7bc35019","freq","img/green_2bandit_b2.png","70","70","test","1","58","58","3","",""
"null","221209","pSARL_v2","pSARL_v284s1q36k","5e3b8f110d41ad3a7bc35019","freq_resp","img/green_2bandit_b.png","70","70","test","","","","3","",""
"null","221366","pSARL_v2","pSARL_v284s1q36k","5e3b8f110d41ad3a7bc35019","fixation","img/fixation.png","null","","test","","","","","",""
"332.39999997615814","221702","pSARL_v2","pSARL_v284s1q36k","5e3b8f110d41ad3a7bc35019","freq","img/green_2bandit_b2.png","70","70","test","1","59","59","3","",""
"null","222184","pSARL_v2","pSARL_v284s1q36k","5e3b8f110d41ad3a7bc35019","freq_resp","img/green_2bandit_b.png","70","70","test","","","","3","",""
"null","222340","pSARL_v2","pSARL_v284s1q36k","5e3b8f110d41ad3a7bc35019","fixation","img/fixation.png","null","","test","","","","","",""
"518.6000000238419","222863","pSARL_v2","pSARL_v284s1q36k","5e3b8f110d41ad3a7bc35019","infreq","img/orange_2bandit_b2.png","68","68","test","1","60","60","3","",""
"null","223159","pSARL_v2","pSARL_v284s1q36k","5e3b8f110d41ad3a7bc35019","infreq_resp","img/orange_2bandit_b.png","68","68","test","","","","3","",""
"null","223317","pSARL_v2","pSARL_v284s1q36k","5e3b8f110d41ad3a7bc35019","fixation","img/fixation.png","null","","test","","","","","",""
"365.39999997615814","223686","pSARL_v2","pSARL_v284s1q36k","5e3b8f110d41ad3a7bc35019","freq","img/green_2bandit_b2.png","70","70","test","1","61","61","3","",""
"null","224136","pSARL_v2","pSARL_v284s1q36k","5e3b8f110d41ad3a7bc35019","freq_resp","img/green_2bandit_b.png","70","70","test","","","","3","",""
"null","224295","pSARL_v2","pSARL_v284s1q36k","5e3b8f110d41ad3a7bc35019","fixation","img/fixation.png","null","","test","","","","","",""
"372.1999999284744","224671","pSARL_v2","pSARL_v284s1q36k","5e3b8f110d41ad3a7bc35019","freq","img/green_2bandit_b2.png","70","70","test","1","62","62","3","",""
"null","225113","pSARL_v2","pSARL_v284s1q36k","5e3b8f110d41ad3a7bc35019","freq_resp","img/green_2bandit_b.png","70","70","test","","","","3","",""
"null","225270","pSARL_v2","pSARL_v284s1q36k","5e3b8f110d41ad3a7bc35019","fixation","img/fixation.png","null","","test","","","","","",""
"7758.399999976158","233032","pSARL_v2","pSARL_v284s1q36k","5e3b8f110d41ad3a7bc35019","reward","img/slot.png","74","","test","","","","","",""
"null","233791","pSARL_v2","pSARL_v284s1q36k","5e3b8f110d41ad3a7bc35019","points","<div class=""verylowPoints""> -7 </div>","null","na","test","","","","3","-7","2"
"437.5","234232","pSARL_v2","pSARL_v284s1q36k","5e3b8f110d41ad3a7bc35019","freq","img/green_2bandit_b2.png","70","70","test","1","63","63","4","",""
"null","234607","pSARL_v2","pSARL_v284s1q36k","5e3b8f110d41ad3a7bc35019","freq_resp","img/green_2bandit_b.png","70","70","test","","","","4","",""
"null","234764","pSARL_v2","pSARL_v284s1q36k","5e3b8f110d41ad3a7bc35019","fixation","img/fixation.png","null","","test","","","","","",""
"455.89999997615814","235223","pSARL_v2","pSARL_v284s1q36k","5e3b8f110d41ad3a7bc35019","infreq","img/orange_2bandit_b2.png","68","68","test","1","64","64","4","",""
"null","235582","pSARL_v2","pSARL_v284s1q36k","5e3b8f110d41ad3a7bc35019","infreq_resp","img/orange_2bandit_b.png","68","68","test","","","","4","",""
"null","235743","pSARL_v2","pSARL_v284s1q36k","5e3b8f110d41ad3a7bc35019","fixation","img/fixation.png","null","","test","","","","","",""
"532.7000000476837","236279","pSARL_v2","pSARL_v284s1q36k","5e3b8f110d41ad3a7bc35019","freq","img/green_2bandit_b2.png","70","70","test","1","65","65","4","",""
"null","236561","pSARL_v2","pSARL_v284s1q36k","5e3b8f110d41ad3a7bc35019","freq_resp","img/green_2bandit_b.png","70","70","test","","","","4","",""
"null","236721","pSARL_v2","pSARL_v284s1q36k","5e3b8f110d41ad3a7bc35019","fixation","img/fixation.png","null","","test","","","","","",""
"403.10000002384186","237128","pSARL_v2","pSARL_v284s1q36k","5e3b8f110d41ad3a7bc35019","freq","img/green_2bandit_b2.png","70","70","test","1","66","66","4","",""
"null","237532","pSARL_v2","pSARL_v284s1q36k","5e3b8f110d41ad3a7bc35019","freq_resp","img/green_2bandit_b.png","70","70","test","","","","4","",""
"null","237694","pSARL_v2","pSARL_v284s1q36k","5e3b8f110d41ad3a7bc35019","fixation","img/fixation.png","null","","test","","","","","",""
"373.1999999284744","238071","pSARL_v2","pSARL_v284s1q36k","5e3b8f110d41ad3a7bc35019","freq","img/green_2bandit_b2.png","70","70","test","1","67","67","4","",""
"null","238514","pSARL_v2","pSARL_v284s1q36k","5e3b8f110d41ad3a7bc35019","freq_resp","img/green_2bandit_b.png","70","70","test","","","","4","",""
"null","238678","pSARL_v2","pSARL_v284s1q36k","5e3b8f110d41ad3a7bc35019","fixation","img/fixation.png","null","","test","","","","","",""
"526","239208","pSARL_v2","pSARL_v284s1q36k","5e3b8f110d41ad3a7bc35019","infreq","img/orange_2bandit_b2.png","68","68","test","1","68","68","4","",""
"null","239494","pSARL_v2","pSARL_v284s1q36k","5e3b8f110d41ad3a7bc35019","infreq_resp","img/orange_2bandit_b.png","68","68","test","","","","4","",""
"null","239657","pSARL_v2","pSARL_v284s1q36k","5e3b8f110d41ad3a7bc35019","fixation","img/fixation.png","null","","test","","","","","",""
"474.39999997615814","240135","pSARL_v2","pSARL_v284s1q36k","5e3b8f110d41ad3a7bc35019","freq","img/green_2bandit_b2.png","70","70","test","1","69","69","4","",""
"null","240470","pSARL_v2","pSARL_v284s1q36k","5e3b8f110d41ad3a7bc35019","freq_resp","img/green_2bandit_b.png","70","70","test","","","","4","",""
"null","240633","pSARL_v2","pSARL_v284s1q36k","5e3b8f110d41ad3a7bc35019","fixation","img/fixation.png","null","","test","","","","","",""
"395.2999999523163","241032","pSARL_v2","pSARL_v284s1q36k","5e3b8f110d41ad3a7bc35019","freq","img/green_2bandit_b2.png","70","70","test","1","70","70","4","",""
"null","241449","pSARL_v2","pSARL_v284s1q36k","5e3b8f110d41ad3a7bc35019","freq_resp","img/green_2bandit_b.png","70","70","test","","","","4","",""
"null","241608","pSARL_v2","pSARL_v284s1q36k","5e3b8f110d41ad3a7bc35019","fixation","img/fixation.png","null","","test","","","","","",""
"363.7999999523163","241976","pSARL_v2","pSARL_v284s1q36k","5e3b8f110d41ad3a7bc35019","freq","img/green_2bandit_b2.png","70","70","test","1","71","71","4","",""
"null","242423","pSARL_v2","pSARL_v284s1q36k","5e3b8f110d41ad3a7bc35019","freq_resp","img/green_2bandit_b.png","70","70","test","","","","4","",""
"null","242584","pSARL_v2","pSARL_v284s1q36k","5e3b8f110d41ad3a7bc35019","fixation","img/fixation.png","null","","test","","","","","",""
"348.60000002384186","242936","pSARL_v2","pSARL_v284s1q36k","5e3b8f110d41ad3a7bc35019","freq","img/green_2bandit_b2.png","70","70","test","1","72","72","4","",""
"null","243401","pSARL_v2","pSARL_v284s1q36k","5e3b8f110d41ad3a7bc35019","freq_resp","img/green_2bandit_b.png","70","70","test","","","","4","",""
"null","243559","pSARL_v2","pSARL_v284s1q36k","5e3b8f110d41ad3a7bc35019","fixation","img/fixation.png","null","","test","","","","","",""
"323.89999997615814","243887","pSARL_v2","pSARL_v284s1q36k","5e3b8f110d41ad3a7bc35019","freq","img/green_2bandit_b2.png","70","70","test","1","73","73","4","",""
"null","244377","pSARL_v2","pSARL_v284s1q36k","5e3b8f110d41ad3a7bc35019","freq_resp","img/green_2bandit_b.png","70","70","test","","","","4","",""
"null","244532","pSARL_v2","pSARL_v284s1q36k","5e3b8f110d41ad3a7bc35019","fixation","img/fixation.png","null","","test","","","","","",""
"359.89999997615814","244896","pSARL_v2","pSARL_v284s1q36k","5e3b8f110d41ad3a7bc35019","freq","img/green_2bandit_b2.png","70","70","test","1","74","74","4","",""
"null","245352","pSARL_v2","pSARL_v284s1q36k","5e3b8f110d41ad3a7bc35019","freq_resp","img/green_2bandit_b.png","70","70","test","","","","4","",""
"null","245514","pSARL_v2","pSARL_v284s1q36k","5e3b8f110d41ad3a7bc35019","fixation","img/fixation.png","null","","test","","","","","",""
"547.1999999284744","246065","pSARL_v2","pSARL_v284s1q36k","5e3b8f110d41ad3a7bc35019","freq","img/green_2bandit_b2.png","70","70","test","1","75","75","4","",""
"null","246326","pSARL_v2","pSARL_v284s1q36k","5e3b8f110d41ad3a7bc35019","freq_resp","img/green_2bandit_b.png","70","70","test","","","","4","",""
"null","246491","pSARL_v2","pSARL_v284s1q36k","5e3b8f110d41ad3a7bc35019","fixation","img/fixation.png","null","","test","","","","","",""
"408.5","246904","pSARL_v2","pSARL_v284s1q36k","5e3b8f110d41ad3a7bc35019","freq","img/green_2bandit_b2.png","70","70","test","1","76","76","4","",""
"null","247303","pSARL_v2","pSARL_v284s1q36k","5e3b8f110d41ad3a7bc35019","freq_resp","img/green_2bandit_b.png","70","70","test","","","","4","",""
"null","247462","pSARL_v2","pSARL_v284s1q36k","5e3b8f110d41ad3a7bc35019","fixation","img/fixation.png","null","","test","","","","","",""
"382.2000000476837","247848","pSARL_v2","pSARL_v284s1q36k","5e3b8f110d41ad3a7bc35019","freq","img/green_2bandit_b2.png","70","70","test","1","77","77","4","",""
"null","248278","pSARL_v2","pSARL_v284s1q36k","5e3b8f110d41ad3a7bc35019","freq_resp","img/green_2bandit_b.png","70","70","test","","","","4","",""
"null","248439","pSARL_v2","pSARL_v284s1q36k","5e3b8f110d41ad3a7bc35019","fixation","img/fixation.png","null","","test","","","","","",""
"341","248784","pSARL_v2","pSARL_v284s1q36k","5e3b8f110d41ad3a7bc35019","freq","img/green_2bandit_b2.png","70","70","test","1","78","78","4","",""
"null","249247","pSARL_v2","pSARL_v284s1q36k","5e3b8f110d41ad3a7bc35019","freq_resp","img/green_2bandit_b.png","70","70","test","","","","4","",""
"null","249408","pSARL_v2","pSARL_v284s1q36k","5e3b8f110d41ad3a7bc35019","fixation","img/fixation.png","null","","test","","","","","",""
"333","249744","pSARL_v2","pSARL_v284s1q36k","5e3b8f110d41ad3a7bc35019","freq","img/green_2bandit_b2.png","70","70","test","1","79","79","4","",""
"null","250224","pSARL_v2","pSARL_v284s1q36k","5e3b8f110d41ad3a7bc35019","freq_resp","img/green_2bandit_b.png","70","70","test","","","","4","",""
"null","250385","pSARL_v2","pSARL_v284s1q36k","5e3b8f110d41ad3a7bc35019","fixation","img/fixation.png","null","","test","","","","","",""
"362.7999999523163","250752","pSARL_v2","pSARL_v284s1q36k","5e3b8f110d41ad3a7bc35019","freq","img/green_2bandit_b2.png","70","70","test","1","80","80","4","",""
"null","251198","pSARL_v2","pSARL_v284s1q36k","5e3b8f110d41ad3a7bc35019","freq_resp","img/green_2bandit_b.png","70","70","test","","","","4","",""
"null","251361","pSARL_v2","pSARL_v284s1q36k","5e3b8f110d41ad3a7bc35019","fixation","img/fixation.png","null","","test","","","","","",""
"427.2999999523163","251792","pSARL_v2","pSARL_v284s1q36k","5e3b8f110d41ad3a7bc35019","freq","img/green_2bandit_b2.png","70","70","test","1","81","81","4","",""
"null","252172","pSARL_v2","pSARL_v284s1q36k","5e3b8f110d41ad3a7bc35019","freq_resp","img/green_2bandit_b.png","70","70","test","","","","4","",""
"null","252335","pSARL_v2","pSARL_v284s1q36k","5e3b8f110d41ad3a7bc35019","fixation","img/fixation.png","null","","test","","","","","",""
"405.2000000476837","252745","pSARL_v2","pSARL_v284s1q36k","5e3b8f110d41ad3a7bc35019","freq","img/green_2bandit_b2.png","70","70","test","1","82","82","4","",""
"null","253153","pSARL_v2","pSARL_v284s1q36k","5e3b8f110d41ad3a7bc35019","freq_resp","img/green_2bandit_b.png","70","70","test","","","","4","",""
"null","253313","pSARL_v2","pSARL_v284s1q36k","5e3b8f110d41ad3a7bc35019","fixation","img/fixation.png","null","","test","","","","","",""
"386.7999999523163","253705","pSARL_v2","pSARL_v284s1q36k","5e3b8f110d41ad3a7bc35019","freq","img/green_2bandit_b2.png","70","70","test","1","83","83","4","",""
"null","254127","pSARL_v2","pSARL_v284s1q36k","5e3b8f110d41ad3a7bc35019","freq_resp","img/green_2bandit_b.png","70","70","test","","","","4","",""
"null","254288","pSARL_v2","pSARL_v284s1q36k","5e3b8f110d41ad3a7bc35019","fixation","img/fixation.png","null","","test","","","","","",""
"13273.100000023842","267565","pSARL_v2","pSARL_v284s1q36k","5e3b8f110d41ad3a7bc35019","reward","img/slot.png","74","","test","","","","","",""
"null","268329","pSARL_v2","pSARL_v284s1q36k","5e3b8f110d41ad3a7bc35019","points","<div class=""verylowPoints""> -3 </div>","null","na","test","","","","4","-3","3"
"391.2000000476837","268724","pSARL_v2","pSARL_v284s1q36k","5e3b8f110d41ad3a7bc35019","freq","img/green_2bandit_b2.png","70","70","test","1","84","84","5","",""
"null","269143","pSARL_v2","pSARL_v284s1q36k","5e3b8f110d41ad3a7bc35019","freq_resp","img/green_2bandit_b.png","70","70","test","","","","5","",""
"null","269304","pSARL_v2","pSARL_v284s1q36k","5e3b8f110d41ad3a7bc35019","fixation","img/fixation.png","null","","test","","","","","",""
"335.89999997615814","269644","pSARL_v2","pSARL_v284s1q36k","5e3b8f110d41ad3a7bc35019","freq","img/green_2bandit_b2.png","70","70","test","1","85","85","5","",""
"null","270117","pSARL_v2","pSARL_v284s1q36k","5e3b8f110d41ad3a7bc35019","freq_resp","img/green_2bandit_b.png","70","70","test","","","","5","",""
"null","270281","pSARL_v2","pSARL_v284s1q36k","5e3b8f110d41ad3a7bc35019","fixation","img/fixation.png","null","","test","","","","","",""
"319.5","270604","pSARL_v2","pSARL_v284s1q36k","5e3b8f110d41ad3a7bc35019","freq","img/green_2bandit_b2.png","70","70","test","1","86","86","5","",""
"null","271098","pSARL_v2","pSARL_v284s1q36k","5e3b8f110d41ad3a7bc35019","freq_resp","img/green_2bandit_b.png","70","70","test","","","","5","",""
"null","271255","pSARL_v2","pSARL_v284s1q36k","5e3b8f110d41ad3a7bc35019","fixation","img/fixation.png","null","","test","","","","","",""
"345","271605","pSARL_v2","pSARL_v284s1q36k","5e3b8f110d41ad3a7bc35019","freq","img/green_2bandit_b2.png","70","70","test","1","87","87","5","",""
"null","272072","pSARL_v2","pSARL_v284s1q36k","5e3b8f110d41ad3a7bc35019","freq_resp","img/green_2bandit_b.png","70","70","test","","","","5","",""
"null","272230","pSARL_v2","pSARL_v284s1q36k","5e3b8f110d41ad3a7bc35019","fixation","img/fixation.png","null","","test","","","","","",""
"305.5","272540","pSARL_v2","pSARL_v284s1q36k","5e3b8f110d41ad3a7bc35019","freq","img/green_2bandit_b2.png","70","70","test","1","88","88","5","",""
"null","273048","pSARL_v2","pSARL_v284s1q36k","5e3b8f110d41ad3a7bc35019","freq_resp","img/green_2bandit_b.png","70","70","test","","","","5","",""
"null","273206","pSARL_v2","pSARL_v284s1q36k","5e3b8f110d41ad3a7bc35019","fixation","img/fixation.png","null","","test","","","","","",""
"338.8000000715256","273548","pSARL_v2","pSARL_v284s1q36k","5e3b8f110d41ad3a7bc35019","freq","img/green_2bandit_b2.png","70","70","test","1","89","89","5","",""
"null","274024","pSARL_v2","pSARL_v284s1q36k","5e3b8f110d41ad3a7bc35019","freq_resp","img/green_2bandit_b.png","70","70","test","","","","5","",""
"null","274186","pSARL_v2","pSARL_v284s1q36k","5e3b8f110d41ad3a7bc35019","fixation","img/fixation.png","null","","test","","","","","",""
"357.5","274548","pSARL_v2","pSARL_v284s1q36k","5e3b8f110d41ad3a7bc35019","freq","img/green_2bandit_b2.png","70","70","test","1","90","90","5","",""
"null","274999","pSARL_v2","pSARL_v284s1q36k","5e3b8f110d41ad3a7bc35019","freq_resp","img/green_2bandit_b.png","70","70","test","","","","5","",""
"null","275163","pSARL_v2","pSARL_v284s1q36k","5e3b8f110d41ad3a7bc35019","fixation","img/fixation.png","null","","test","","","","","",""
"356.6999999284744","275525","pSARL_v2","pSARL_v284s1q36k","5e3b8f110d41ad3a7bc35019","freq","img/green_2bandit_b2.png","70","70","test","1","91","91","5","",""
"null","275977","pSARL_v2","pSARL_v284s1q36k","5e3b8f110d41ad3a7bc35019","freq_resp","img/green_2bandit_b.png","70","70","test","","","","5","",""
"null","276138","pSARL_v2","pSARL_v284s1q36k","5e3b8f110d41ad3a7bc35019","fixation","img/fixation.png","null","","test","","","","","",""
"319.09999990463257","276460","pSARL_v2","pSARL_v284s1q36k","5e3b8f110d41ad3a7bc35019","freq","img/green_2bandit_b2.png","70","70","test","1","92","92","5","",""
"null","276953","pSARL_v2","pSARL_v284s1q36k","5e3b8f110d41ad3a7bc35019","freq_resp","img/green_2bandit_b.png","70","70","test","","","","5","",""
"null","277114","pSARL_v2","pSARL_v284s1q36k","5e3b8f110d41ad3a7bc35019","fixation","img/fixation.png","null","","test","","","","","",""
"366","277485","pSARL_v2","pSARL_v284s1q36k","5e3b8f110d41ad3a7bc35019","freq","img/green_2bandit_b2.png","70","70","test","1","93","93","5","",""
"null","277927","pSARL_v2","pSARL_v284s1q36k","5e3b8f110d41ad3a7bc35019","freq_resp","img/green_2bandit_b.png","70","70","test","","","","5","",""
"null","278089","pSARL_v2","pSARL_v284s1q36k","5e3b8f110d41ad3a7bc35019","fixation","img/fixation.png","null","","test","","","","","",""
"311.7999999523163","278404","pSARL_v2","pSARL_v284s1q36k","5e3b8f110d41ad3a7bc35019","freq","img/green_2bandit_b2.png","70","70","test","1","94","94","5","",""
"null","278906","pSARL_v2","pSARL_v284s1q36k","5e3b8f110d41ad3a7bc35019","freq_resp","img/green_2bandit_b.png","70","70","test","","","","5","",""
"null","279064","pSARL_v2","pSARL_v284s1q36k","5e3b8f110d41ad3a7bc35019","fixation","img/fixation.png","null","","test","","","","","",""
"345","279412","pSARL_v2","pSARL_v284s1q36k","5e3b8f110d41ad3a7bc35019","freq","img/green_2bandit_b2.png","70","70","test","1","95","95","5","",""
"null","279881","pSARL_v2","pSARL_v284s1q36k","5e3b8f110d41ad3a7bc35019","freq_resp","img/green_2bandit_b.png","70","70","test","","","","5","",""
"null","280042","pSARL_v2","pSARL_v284s1q36k","5e3b8f110d41ad3a7bc35019","fixation","img/fixation.png","null","","test","","","","","",""
"358.60000002384186","280405","pSARL_v2","pSARL_v284s1q36k","5e3b8f110d41ad3a7bc35019","freq","img/green_2bandit_b2.png","70","70","test","1","96","96","5","",""
"null","280857","pSARL_v2","pSARL_v284s1q36k","5e3b8f110d41ad3a7bc35019","freq_resp","img/green_2bandit_b.png","70","70","test","","","","5","",""
"null","281015","pSARL_v2","pSARL_v284s1q36k","5e3b8f110d41ad3a7bc35019","fixation","img/fixation.png","null","","test","","","","","",""
"370.09999990463257","281389","pSARL_v2","pSARL_v284s1q36k","5e3b8f110d41ad3a7bc35019","freq","img/green_2bandit_b2.png","70","70","test","1","97","97","5","",""
"null","281832","pSARL_v2","pSARL_v284s1q36k","5e3b8f110d41ad3a7bc35019","freq_resp","img/green_2bandit_b.png","70","70","test","","","","5","",""
"null","281994","pSARL_v2","pSARL_v284s1q36k","5e3b8f110d41ad3a7bc35019","fixation","img/fixation.png","null","","test","","","","","",""
"365.8000000715256","282364","pSARL_v2","pSARL_v284s1q36k","5e3b8f110d41ad3a7bc35019","freq","img/green_2bandit_b2.png","70","70","test","1","98","98","5","",""
"null","282807","pSARL_v2","pSARL_v284s1q36k","5e3b8f110d41ad3a7bc35019","freq_resp","img/green_2bandit_b.png","70","70","test","","","","5","",""
"null","282969","pSARL_v2","pSARL_v284s1q36k","5e3b8f110d41ad3a7bc35019","fixation","img/fixation.png","null","","test","","","","","",""
"344","283317","pSARL_v2","pSARL_v284s1q36k","5e3b8f110d41ad3a7bc35019","freq","img/green_2bandit_b2.png","70","70","test","1","99","99","5","",""
"null","283783","pSARL_v2","pSARL_v284s1q36k","5e3b8f110d41ad3a7bc35019","freq_resp","img/green_2bandit_b.png","70","70","test","","","","5","",""
"null","283941","pSARL_v2","pSARL_v284s1q36k","5e3b8f110d41ad3a7bc35019","fixation","img/fixation.png","null","","test","","","","","",""
"467.5","284412","pSARL_v2","pSARL_v284s1q36k","5e3b8f110d41ad3a7bc35019","infreq","img/orange_2bandit_b2.png","68","68","test","1","100","100","5","",""
"null","284754","pSARL_v2","pSARL_v284s1q36k","5e3b8f110d41ad3a7bc35019","infreq_resp","img/orange_2bandit_b.png","68","68","test","","","","5","",""
"null","284916","pSARL_v2","pSARL_v284s1q36k","5e3b8f110d41ad3a7bc35019","fixation","img/fixation.png","null","","test","","","","","",""
"436.10000002384186","285356","pSARL_v2","pSARL_v284s1q36k","5e3b8f110d41ad3a7bc35019","infreq","img/orange_2bandit_b2.png","68","68","test","1","101","101","5","",""
"null","285728","pSARL_v2","pSARL_v284s1q36k","5e3b8f110d41ad3a7bc35019","infreq_resp","img/orange_2bandit_b.png","68","68","test","","","","5","",""
"null","285888","pSARL_v2","pSARL_v284s1q36k","5e3b8f110d41ad3a7bc35019","fixation","img/fixation.png","null","","test","","","","","",""
"488.2999999523163","286380","pSARL_v2","pSARL_v284s1q36k","5e3b8f110d41ad3a7bc35019","freq","img/green_2bandit_b2.png","70","70","test","1","102","102","5","",""
"null","286697","pSARL_v2","pSARL_v284s1q36k","5e3b8f110d41ad3a7bc35019","freq_resp","img/green_2bandit_b.png","70","70","test","","","","5","",""
"null","286854","pSARL_v2","pSARL_v284s1q36k","5e3b8f110d41ad3a7bc35019","fixation","img/fixation.png","null","","test","","","","","",""
"506","287364","pSARL_v2","pSARL_v284s1q36k","5e3b8f110d41ad3a7bc35019","infreq","img/orange_2bandit_b2.png","68","68","test","1","103","103","5","",""
"null","287666","pSARL_v2","pSARL_v284s1q36k","5e3b8f110d41ad3a7bc35019","infreq_resp","img/orange_2bandit_b.png","68","68","test","","","","5","",""
"null","287824","pSARL_v2","pSARL_v284s1q36k","5e3b8f110d41ad3a7bc35019","fixation","img/fixation.png","null","","test","","","","","",""
"457","288285","pSARL_v2","pSARL_v284s1q36k","5e3b8f110d41ad3a7bc35019","freq","img/green_2bandit_b2.png","70","70","test","1","104","104","5","",""
"null","288641","pSARL_v2","pSARL_v284s1q36k","5e3b8f110d41ad3a7bc35019","freq_resp","img/green_2bandit_b.png","70","70","test","","","","5","",""
"null","288800","pSARL_v2","pSARL_v284s1q36k","5e3b8f110d41ad3a7bc35019","fixation","img/fixation.png","null","","test","","","","","",""
"408.89999997615814","289213","pSARL_v2","pSARL_v284s1q36k","5e3b8f110d41ad3a7bc35019","freq","img/green_2bandit_b2.png","70","70","test","1","105","105","5","",""
"null","289616","pSARL_v2","pSARL_v284s1q36k","5e3b8f110d41ad3a7bc35019","freq_resp","img/green_2bandit_b.png","70","70","test","","","","5","",""
"null","289777","pSARL_v2","pSARL_v284s1q36k","5e3b8f110d41ad3a7bc35019","fixation","img/fixation.png","null","","test","","","","","",""
"399.5","290181","pSARL_v2","pSARL_v284s1q36k","5e3b8f110d41ad3a7bc35019","freq","img/green_2bandit_b2.png","70","70","test","1","106","106","5","",""
"null","290588","pSARL_v2","pSARL_v284s1q36k","5e3b8f110d41ad3a7bc35019","freq_resp","img/green_2bandit_b.png","70","70","test","","","","5","",""
"null","290756","pSARL_v2","pSARL_v284s1q36k","5e3b8f110d41ad3a7bc35019","fixation","img/fixation.png","null","","test","","","","","",""
"12602.799999952316","303363","pSARL_v2","pSARL_v284s1q36k","5e3b8f110d41ad3a7bc35019","reward","img/slot.png","74","","test","","","","","",""
"null","304122","pSARL_v2","pSARL_v284s1q36k","5e3b8f110d41ad3a7bc35019","points","<div class=""veryhighPoints""> +1 </div>","null","na","test","","","","5","1","4"
"532.1999999284744","304658","pSARL_v2","pSARL_v284s1q36k","5e3b8f110d41ad3a7bc35019","freq","img/green_2bandit_b2.png","70","70","test","1","107","107","6","",""
"null","304936","pSARL_v2","pSARL_v284s1q36k","5e3b8f110d41ad3a7bc35019","freq_resp","img/green_2bandit_b.png","70","70","test","","","","6","",""
"null","305099","pSARL_v2","pSARL_v284s1q36k","5e3b8f110d41ad3a7bc35019","fixation","img/fixation.png","null","","test","","","","","",""
"354.89999997615814","305458","pSARL_v2","pSARL_v284s1q36k","5e3b8f110d41ad3a7bc35019","freq","img/green_2bandit_b2.png","70","70","test","1","108","108","6","",""
"null","305915","pSARL_v2","pSARL_v284s1q36k","5e3b8f110d41ad3a7bc35019","freq_resp","img/green_2bandit_b.png","70","70","test","","","","6","",""
"null","306073","pSARL_v2","pSARL_v284s1q36k","5e3b8f110d41ad3a7bc35019","fixation","img/fixation.png","null","","test","","","","","",""
"413.39999997615814","306490","pSARL_v2","pSARL_v284s1q36k","5e3b8f110d41ad3a7bc35019","freq","img/green_2bandit_b2.png","70","70","test","1","109","109","6","",""
"null","306883","pSARL_v2","pSARL_v284s1q36k","5e3b8f110d41ad3a7bc35019","freq_resp","img/green_2bandit_b.png","70","70","test","","","","6","",""
"null","307039","pSARL_v2","pSARL_v284s1q36k","5e3b8f110d41ad3a7bc35019","fixation","img/fixation.png","null","","test","","","","","",""
"334.09999990463257","307377","pSARL_v2","pSARL_v284s1q36k","5e3b8f110d41ad3a7bc35019","freq","img/green_2bandit_b2.png","70","70","test","1","110","110","6","",""
"null","307859","pSARL_v2","pSARL_v284s1q36k","5e3b8f110d41ad3a7bc35019","freq_resp","img/green_2bandit_b.png","70","70","test","","","","6","",""
"null","308019","pSARL_v2","pSARL_v284s1q36k","5e3b8f110d41ad3a7bc35019","fixation","img/fixation.png","null","","test","","","","","",""
"346.6999999284744","308370","pSARL_v2","pSARL_v284s1q36k","5e3b8f110d41ad3a7bc35019","freq","img/green_2bandit_b2.png","70","70","test","1","111","111","6","",""
"null","308832","pSARL_v2","pSARL_v284s1q36k","5e3b8f110d41ad3a7bc35019","freq_resp","img/green_2bandit_b.png","70","70","test","","","","6","",""
"null","308992","pSARL_v2","pSARL_v284s1q36k","5e3b8f110d41ad3a7bc35019","fixation","img/fixation.png","null","","test","","","","","",""
"309.89999997615814","309306","pSARL_v2","pSARL_v284s1q36k","5e3b8f110d41ad3a7bc35019","freq","img/green_2bandit_b2.png","70","70","test","1","112","112","6","",""
"null","309809","pSARL_v2","pSARL_v284s1q36k","5e3b8f110d41ad3a7bc35019","freq_resp","img/green_2bandit_b.png","70","70","test","","","","6","",""
"null","309965","pSARL_v2","pSARL_v284s1q36k","5e3b8f110d41ad3a7bc35019","fixation","img/fixation.png","null","","test","","","","","",""
"289.10000002384186","310258","pSARL_v2","pSARL_v284s1q36k","5e3b8f110d41ad3a7bc35019","freq","img/green_2bandit_b2.png","70","70","test","1","113","113","6","",""
"null","310777","pSARL_v2","pSARL_v284s1q36k","5e3b8f110d41ad3a7bc35019","freq_resp","img/green_2bandit_b.png","70","70","test","","","","6","",""
"null","310939","pSARL_v2","pSARL_v284s1q36k","5e3b8f110d41ad3a7bc35019","fixation","img/fixation.png","null","","test","","","","","",""
"314.89999997615814","311258","pSARL_v2","pSARL_v284s1q36k","5e3b8f110d41ad3a7bc35019","freq","img/green_2bandit_b2.png","70","70","test","1","114","114","6","",""
"null","311755","pSARL_v2","pSARL_v284s1q36k","5e3b8f110d41ad3a7bc35019","freq_resp","img/green_2bandit_b.png","70","70","test","","","","6","",""
"null","311912","pSARL_v2","pSARL_v284s1q36k","5e3b8f110d41ad3a7bc35019","fixation","img/fixation.png","null","","test","","","","","",""
"301.7000000476837","312218","pSARL_v2","pSARL_v284s1q36k","5e3b8f110d41ad3a7bc35019","freq","img/green_2bandit_b2.png","70","70","test","1","115","115","6","",""
"null","312727","pSARL_v2","pSARL_v284s1q36k","5e3b8f110d41ad3a7bc35019","freq_resp","img/green_2bandit_b.png","70","70","test","","","","6","",""
"null","312889","pSARL_v2","pSARL_v284s1q36k","5e3b8f110d41ad3a7bc35019","fixation","img/fixation.png","null","","test","","","","","",""
"484.6999999284744","313378","pSARL_v2","pSARL_v284s1q36k","5e3b8f110d41ad3a7bc35019","infreq","img/orange_2bandit_b2.png","68","68","test","1","116","116","6","",""
"null","313702","pSARL_v2","pSARL_v284s1q36k","5e3b8f110d41ad3a7bc35019","infreq_resp","img/orange_2bandit_b.png","68","68","test","","","","6","",""
"null","313864","pSARL_v2","pSARL_v284s1q36k","5e3b8f110d41ad3a7bc35019","fixation","img/fixation.png","null","","test","","","","","",""
"501.60000002384186","314370","pSARL_v2","pSARL_v284s1q36k","5e3b8f110d41ad3a7bc35019","freq","img/green_2bandit_b2.png","70","70","test","1","117","117","6","",""
"null","314681","pSARL_v2","pSARL_v284s1q36k","5e3b8f110d41ad3a7bc35019","freq_resp","img/green_2bandit_b.png","70","70","test","","","","6","",""
"null","314839","pSARL_v2","pSARL_v284s1q36k","5e3b8f110d41ad3a7bc35019","fixation","img/fixation.png","null","","test","","","","","",""
"461.60000002384186","315306","pSARL_v2","pSARL_v284s1q36k","5e3b8f110d41ad3a7bc35019","infreq","img/orange_2bandit_b2.png","68","68","test","1","118","118","6","",""
"null","315653","pSARL_v2","pSARL_v284s1q36k","5e3b8f110d41ad3a7bc35019","infreq_resp","img/orange_2bandit_b.png","68","68","test","","","","6","",""
"null","315811","pSARL_v2","pSARL_v284s1q36k","5e3b8f110d41ad3a7bc35019","fixation","img/fixation.png","null","","test","","","","","",""
"411.7999999523163","316226","pSARL_v2","pSARL_v284s1q36k","5e3b8f110d41ad3a7bc35019","freq","img/green_2bandit_b2.png","70","70","test","1","119","119","6","",""
"null","316627","pSARL_v2","pSARL_v284s1q36k","5e3b8f110d41ad3a7bc35019","freq_resp","img/green_2bandit_b.png","70","70","test","","","","6","",""
"null","316785","pSARL_v2","pSARL_v284s1q36k","5e3b8f110d41ad3a7bc35019","fixation","img/fixation.png","null","","test","","","","","",""
"333","317122","pSARL_v2","pSARL_v284s1q36k","5e3b8f110d41ad3a7bc35019","freq","img/green_2bandit_b2.png","70","70","test","1","120","120","6","",""
"null","317603","pSARL_v2","pSARL_v284s1q36k","5e3b8f110d41ad3a7bc35019","freq_resp","img/green_2bandit_b.png","70","70","test","","","","6","",""
"null","317760","pSARL_v2","pSARL_v284s1q36k","5e3b8f110d41ad3a7bc35019","fixation","img/fixation.png","null","","test","","","","","",""
"342.39999997615814","318106","pSARL_v2","pSARL_v284s1q36k","5e3b8f110d41ad3a7bc35019","freq","img/green_2bandit_b2.png","70","70","test","1","121","121","6","",""
"null","318578","pSARL_v2","pSARL_v284s1q36k","5e3b8f110d41ad3a7bc35019","freq_resp","img/green_2bandit_b.png","70","70","test","","","","6","",""
"null","318735","pSARL_v2","pSARL_v284s1q36k","5e3b8f110d41ad3a7bc35019","fixation","img/fixation.png","null","","test","","","","","",""
"350.7999999523163","319090","pSARL_v2","pSARL_v284s1q36k","5e3b8f110d41ad3a7bc35019","freq","img/green_2bandit_b2.png","70","70","test","1","122","122","6","",""
"null","319544","pSARL_v2","pSARL_v284s1q36k","5e3b8f110d41ad3a7bc35019","freq_resp","img/green_2bandit_b.png","70","70","test","","","","6","",""
"null","319708","pSARL_v2","pSARL_v284s1q36k","5e3b8f110d41ad3a7bc35019","fixation","img/fixation.png","null","","test","","","","","",""
"410.5","320122","pSARL_v2","pSARL_v284s1q36k","5e3b8f110d41ad3a7bc35019","freq","img/green_2bandit_b2.png","70","70","test","1","123","123","6","",""
"null","320523","pSARL_v2","pSARL_v284s1q36k","5e3b8f110d41ad3a7bc35019","freq_resp","img/green_2bandit_b.png","70","70","test","","","","6","",""
"null","320683","pSARL_v2","pSARL_v284s1q36k","5e3b8f110d41ad3a7bc35019","fixation","img/fixation.png","null","","test","","","","","",""
"394.89999997615814","321082","pSARL_v2","pSARL_v284s1q36k","5e3b8f110d41ad3a7bc35019","freq","img/green_2bandit_b2.png","70","70","test","1","124","124","6","",""
"null","321496","pSARL_v2","pSARL_v284s1q36k","5e3b8f110d41ad3a7bc35019","freq_resp","img/green_2bandit_b.png","70","70","test","","","","6","",""
"null","321657","pSARL_v2","pSARL_v284s1q36k","5e3b8f110d41ad3a7bc35019","fixation","img/fixation.png","null","","test","","","","","",""
"356.7000000476837","322018","pSARL_v2","pSARL_v284s1q36k","5e3b8f110d41ad3a7bc35019","freq","img/green_2bandit_b2.png","70","70","test","1","125","125","6","",""
"null","322474","pSARL_v2","pSARL_v284s1q36k","5e3b8f110d41ad3a7bc35019","freq_resp","img/green_2bandit_b.png","70","70","test","","","","6","",""
"null","322636","pSARL_v2","pSARL_v284s1q36k","5e3b8f110d41ad3a7bc35019","fixation","img/fixation.png","null","","test","","","","","",""
"330.2999999523163","322971","pSARL_v2","pSARL_v284s1q36k","5e3b8f110d41ad3a7bc35019","freq","img/green_2bandit_b2.png","70","70","test","1","126","126","6","",""
"null","323448","pSARL_v2","pSARL_v284s1q36k","5e3b8f110d41ad3a7bc35019","freq_resp","img/green_2bandit_b.png","70","70","test","","","","6","",""
"null","323611","pSARL_v2","pSARL_v284s1q36k","5e3b8f110d41ad3a7bc35019","fixation","img/fixation.png","null","","test","","","","","",""
"372","323986","pSARL_v2","pSARL_v284s1q36k","5e3b8f110d41ad3a7bc35019","freq","img/green_2bandit_b2.png","70","70","test","1","127","127","6","",""
"null","324428","pSARL_v2","pSARL_v284s1q36k","5e3b8f110d41ad3a7bc35019","freq_resp","img/green_2bandit_b.png","70","70","test","","","","6","",""
"null","324588","pSARL_v2","pSARL_v284s1q36k","5e3b8f110d41ad3a7bc35019","fixation","img/fixation.png","null","","test","","","","","",""
"338","324930","pSARL_v2","pSARL_v284s1q36k","5e3b8f110d41ad3a7bc35019","freq","img/green_2bandit_b2.png","70","70","test","1","128","128","6","",""
"null","325399","pSARL_v2","pSARL_v284s1q36k","5e3b8f110d41ad3a7bc35019","freq_resp","img/green_2bandit_b.png","70","70","test","","","","6","",""
"null","325562","pSARL_v2","pSARL_v284s1q36k","5e3b8f110d41ad3a7bc35019","fixation","img/fixation.png","null","","test","","","","","",""
"412.7000000476837","325979","pSARL_v2","pSARL_v284s1q36k","5e3b8f110d41ad3a7bc35019","freq","img/green_2bandit_b2.png","70","70","test","1","129","129","6","",""
"null","326378","pSARL_v2","pSARL_v284s1q36k","5e3b8f110d41ad3a7bc35019","freq_resp","img/green_2bandit_b.png","70","70","test","","","","6","",""
"null","326538","pSARL_v2","pSARL_v284s1q36k","5e3b8f110d41ad3a7bc35019","fixation","img/fixation.png","null","","test","","","","","",""
"13919.399999976158","340462","pSARL_v2","pSARL_v284s1q36k","5e3b8f110d41ad3a7bc35019","reward","img/slot.png","74","","test","","","","","",""
"null","341230","pSARL_v2","pSARL_v284s1q36k","5e3b8f110d41ad3a7bc35019","points","<div class=""verylowPoints""> -7 </div>","null","na","test","","","","6","-7","5"
"395","341629","pSARL_v2","pSARL_v284s1q36k","5e3b8f110d41ad3a7bc35019","freq","img/green_2bandit_b2.png","70","70","test","1","130","130","7","",""
"null","342041","pSARL_v2","pSARL_v284s1q36k","5e3b8f110d41ad3a7bc35019","freq_resp","img/green_2bandit_b.png","70","70","test","","","","7","",""
"null","342200","pSARL_v2","pSARL_v284s1q36k","5e3b8f110d41ad3a7bc35019","fixation","img/fixation.png","null","","test","","","","","",""
"408.3000000715256","342612","pSARL_v2","pSARL_v284s1q36k","5e3b8f110d41ad3a7bc35019","freq","img/green_2bandit_b2.png","70","70","test","1","131","131","7","",""
"null","343018","pSARL_v2","pSARL_v284s1q36k","5e3b8f110d41ad3a7bc35019","freq_resp","img/green_2bandit_b.png","70","70","test","","","","7","",""
"null","343180","pSARL_v2","pSARL_v284s1q36k","5e3b8f110d41ad3a7bc35019","fixation","img/fixation.png","null","","test","","","","","",""
"372.5","343556","pSARL_v2","pSARL_v284s1q36k","5e3b8f110d41ad3a7bc35019","freq","img/green_2bandit_b2.png","70","70","test","1","132","132","7","",""
"null","343995","pSARL_v2","pSARL_v284s1q36k","5e3b8f110d41ad3a7bc35019","freq_resp","img/green_2bandit_b.png","70","70","test","","","","7","",""
"null","344157","pSARL_v2","pSARL_v284s1q36k","5e3b8f110d41ad3a7bc35019","fixation","img/fixation.png","null","","test","","","","","",""
"330.60000002384186","344492","pSARL_v2","pSARL_v284s1q36k","5e3b8f110d41ad3a7bc35019","freq","img/green_2bandit_b2.png","70","70","test","1","133","133","7","",""
"null","344968","pSARL_v2","pSARL_v284s1q36k","5e3b8f110d41ad3a7bc35019","freq_resp","img/green_2bandit_b.png","70","70","test","","","","7","",""
"null","345131","pSARL_v2","pSARL_v284s1q36k","5e3b8f110d41ad3a7bc35019","fixation","img/fixation.png","null","","test","","","","","",""
"364.89999997615814","345500","pSARL_v2","pSARL_v284s1q36k","5e3b8f110d41ad3a7bc35019","freq","img/green_2bandit_b2.png","70","70","test","1","134","134","7","",""
"null","345944","pSARL_v2","pSARL_v284s1q36k","5e3b8f110d41ad3a7bc35019","freq_resp","img/green_2bandit_b.png","70","70","test","","","","7","",""
"null","346110","pSARL_v2","pSARL_v284s1q36k","5e3b8f110d41ad3a7bc35019","fixation","img/fixation.png","null","","test","","","","","",""
"346.60000002384186","346460","pSARL_v2","pSARL_v284s1q36k","5e3b8f110d41ad3a7bc35019","freq","img/green_2bandit_b2.png","70","70","test","1","135","135","7","",""
"null","346923","pSARL_v2","pSARL_v284s1q36k","5e3b8f110d41ad3a7bc35019","freq_resp","img/green_2bandit_b.png","70","70","test","","","","7","",""
"null","347082","pSARL_v2","pSARL_v284s1q36k","5e3b8f110d41ad3a7bc35019","fixation","img/fixation.png","null","","test","","","","","",""
"375.1999999284744","347461","pSARL_v2","pSARL_v284s1q36k","5e3b8f110d41ad3a7bc35019","freq","img/green_2bandit_b2.png","70","70","test","1","136","136","7","",""
"null","347901","pSARL_v2","pSARL_v284s1q36k","5e3b8f110d41ad3a7bc35019","freq_resp","img/green_2bandit_b.png","70","70","test","","","","7","",""
"null","348069","pSARL_v2","pSARL_v284s1q36k","5e3b8f110d41ad3a7bc35019","fixation","img/fixation.png","null","","test","","","","","",""
"339.2999999523163","348412","pSARL_v2","pSARL_v284s1q36k","5e3b8f110d41ad3a7bc35019","freq","img/green_2bandit_b2.png","70","70","test","1","137","137","7","",""
"null","348883","pSARL_v2","pSARL_v284s1q36k","5e3b8f110d41ad3a7bc35019","freq_resp","img/green_2bandit_b.png","70","70","test","","","","7","",""
"null","349045","pSARL_v2","pSARL_v284s1q36k","5e3b8f110d41ad3a7bc35019","fixation","img/fixation.png","null","","test","","","","","",""
"524.2000000476837","349573","pSARL_v2","pSARL_v284s1q36k","5e3b8f110d41ad3a7bc35019","infreq","img/orange_2bandit_b2.png","68","68","test","1","138","138","7","",""
"null","349858","pSARL_v2","pSARL_v284s1q36k","5e3b8f110d41ad3a7bc35019","infreq_resp","img/orange_2bandit_b.png","68","68","test","","","","7","",""
"null","350019","pSARL_v2","pSARL_v284s1q36k","5e3b8f110d41ad3a7bc35019","fixation","img/fixation.png","null","","test","","","","","",""
"485.5","350509","pSARL_v2","pSARL_v284s1q36k","5e3b8f110d41ad3a7bc35019","freq","img/green_2bandit_b2.png","70","70","test","1","139","139","7","",""
"null","350838","pSARL_v2","pSARL_v284s1q36k","5e3b8f110d41ad3a7bc35019","freq_resp","img/green_2bandit_b.png","70","70","test","","","","7","",""
"null","351000","pSARL_v2","pSARL_v284s1q36k","5e3b8f110d41ad3a7bc35019","fixation","img/fixation.png","null","","test","","","","","",""
"424","351428","pSARL_v2","pSARL_v284s1q36k","5e3b8f110d41ad3a7bc35019","freq","img/green_2bandit_b2.png","70","70","test","1","140","140","7","",""
"null","351817","pSARL_v2","pSARL_v284s1q36k","5e3b8f110d41ad3a7bc35019","freq_resp","img/green_2bandit_b.png","70","70","test","","","","7","",""
"null","351976","pSARL_v2","pSARL_v284s1q36k","5e3b8f110d41ad3a7bc35019","fixation","img/fixation.png","null","","test","","","","","",""
"464.89999997615814","352444","pSARL_v2","pSARL_v284s1q36k","5e3b8f110d41ad3a7bc35019","freq","img/green_2bandit_b2.png","70","70","test","1","141","141","7","",""
"null","352794","pSARL_v2","pSARL_v284s1q36k","5e3b8f110d41ad3a7bc35019","freq_resp","img/green_2bandit_b.png","70","70","test","","","","7","",""
"null","352957","pSARL_v2","pSARL_v284s1q36k","5e3b8f110d41ad3a7bc35019","fixation","img/fixation.png","null","","test","","","","","",""
"396.60000002384186","353357","pSARL_v2","pSARL_v284s1q36k","5e3b8f110d41ad3a7bc35019","freq","img/green_2bandit_b2.png","70","70","test","1","142","142","7","",""
"null","353769","pSARL_v2","pSARL_v284s1q36k","5e3b8f110d41ad3a7bc35019","freq_resp","img/green_2bandit_b.png","70","70","test","","","","7","",""
"null","353929","pSARL_v2","pSARL_v284s1q36k","5e3b8f110d41ad3a7bc35019","fixation","img/fixation.png","null","","test","","","","","",""
"512","354446","pSARL_v2","pSARL_v284s1q36k","5e3b8f110d41ad3a7bc35019","freq","img/green_2bandit_b2.png","70","70","test","1","143","143","7","",""
"null","354739","pSARL_v2","pSARL_v284s1q36k","5e3b8f110d41ad3a7bc35019","freq_resp","img/green_2bandit_b.png","70","70","test","","","","7","",""
"null","354900","pSARL_v2","pSARL_v284s1q36k","5e3b8f110d41ad3a7bc35019","fixation","img/fixation.png","null","","test","","","","","",""
"428.5","355333","pSARL_v2","pSARL_v284s1q36k","5e3b8f110d41ad3a7bc35019","freq","img/green_2bandit_b2.png","70","70","test","1","144","144","7","",""
"null","355715","pSARL_v2","pSARL_v284s1q36k","5e3b8f110d41ad3a7bc35019","freq_resp","img/green_2bandit_b.png","70","70","test","","","","7","",""
"null","355875","pSARL_v2","pSARL_v284s1q36k","5e3b8f110d41ad3a7bc35019","fixation","img/fixation.png","null","","test","","","","","",""
"366.8000000715256","356245","pSARL_v2","pSARL_v284s1q36k","5e3b8f110d41ad3a7bc35019","freq","img/green_2bandit_b2.png","70","70","test","1","145","145","7","",""
"null","356691","pSARL_v2","pSARL_v284s1q36k","5e3b8f110d41ad3a7bc35019","freq_resp","img/green_2bandit_b.png","70","70","test","","","","7","",""
"null","356853","pSARL_v2","pSARL_v284s1q36k","5e3b8f110d41ad3a7bc35019","fixation","img/fixation.png","null","","test","","","","","",""
"403.5","357261","pSARL_v2","pSARL_v284s1q36k","5e3b8f110d41ad3a7bc35019","freq","img/green_2bandit_b2.png","70","70","test","1","146","146","7","",""
"null","357665","pSARL_v2","pSARL_v284s1q36k","5e3b8f110d41ad3a7bc35019","freq_resp","img/green_2bandit_b.png","70","70","test","","","","7","",""
"null","357827","pSARL_v2","pSARL_v284s1q36k","5e3b8f110d41ad3a7bc35019","fixation","img/fixation.png","null","","test","","","","","",""
"389.5","358221","pSARL_v2","pSARL_v284s1q36k","5e3b8f110d41ad3a7bc35019","freq","img/green_2bandit_b2.png","70","70","test","1","147","147","7","",""
"null","358640","pSARL_v2","pSARL_v284s1q36k","5e3b8f110d41ad3a7bc35019","freq_resp","img/green_2bandit_b.png","70","70","test","","","","7","",""
"null","358804","pSARL_v2","pSARL_v284s1q36k","5e3b8f110d41ad3a7bc35019","fixation","img/fixation.png","null","","test","","","","","",""
"405.1999999284744","359213","pSARL_v2","pSARL_v284s1q36k","5e3b8f110d41ad3a7bc35019","freq","img/green_2bandit_b2.png","70","70","test","1","148","148","7","",""
"null","359620","pSARL_v2","pSARL_v284s1q36k","5e3b8f110d41ad3a7bc35019","freq_resp","img/green_2bandit_b.png","70","70","test","","","","7","",""
"null","359779","pSARL_v2","pSARL_v284s1q36k","5e3b8f110d41ad3a7bc35019","fixation","img/fixation.png","null","","test","","","","","",""
"373.8000000715256","360157","pSARL_v2","pSARL_v284s1q36k","5e3b8f110d41ad3a7bc35019","freq","img/green_2bandit_b2.png","70","70","test","1","149","149","7","",""
"null","360595","pSARL_v2","pSARL_v284s1q36k","5e3b8f110d41ad3a7bc35019","freq_resp","img/green_2bandit_b.png","70","70","test","","","","7","",""
"null","360752","pSARL_v2","pSARL_v284s1q36k","5e3b8f110d41ad3a7bc35019","fixation","img/fixation.png","null","","test","","","","","",""
"417","361173","pSARL_v2","pSARL_v284s1q36k","5e3b8f110d41ad3a7bc35019","freq","img/green_2bandit_b2.png","70","70","test","1","150","150","7","",""
"null","361571","pSARL_v2","pSARL_v284s1q36k","5e3b8f110d41ad3a7bc35019","freq_resp","img/green_2bandit_b.png","70","70","test","","","","7","",""
"null","361728","pSARL_v2","pSARL_v284s1q36k","5e3b8f110d41ad3a7bc35019","fixation","img/fixation.png","null","","test","","","","","",""
"392.5","362125","pSARL_v2","pSARL_v284s1q36k","5e3b8f110d41ad3a7bc35019","freq","img/green_2bandit_b2.png","70","70","test","1","151","151","7","",""
"null","362539","pSARL_v2","pSARL_v284s1q36k","5e3b8f110d41ad3a7bc35019","freq_resp","img/green_2bandit_b.png","70","70","test","","","","7","",""
"null","362700","pSARL_v2","pSARL_v284s1q36k","5e3b8f110d41ad3a7bc35019","fixation","img/fixation.png","null","","test","","","","","",""
"516.8999999761581","363221","pSARL_v2","pSARL_v284s1q36k","5e3b8f110d41ad3a7bc35019","infreq","img/orange_2bandit_b2.png","68","68","test","1","152","152","7","",""
"null","363513","pSARL_v2","pSARL_v284s1q36k","5e3b8f110d41ad3a7bc35019","infreq_resp","img/orange_2bandit_b.png","68","68","test","","","","7","",""
"null","363674","pSARL_v2","pSARL_v284s1q36k","5e3b8f110d41ad3a7bc35019","fixation","img/fixation.png","null","","test","","","","","",""
"375.1999999284744","364053","pSARL_v2","pSARL_v284s1q36k","5e3b8f110d41ad3a7bc35019","freq","img/green_2bandit_b2.png","70","70","test","1","153","153","7","",""
"null","364492","pSARL_v2","pSARL_v284s1q36k","5e3b8f110d41ad3a7bc35019","freq_resp","img/green_2bandit_b.png","70","70","test","","","","7","",""
"null","364648","pSARL_v2","pSARL_v284s1q36k","5e3b8f110d41ad3a7bc35019","fixation","img/fixation.png","null","","test","","","","","",""
"393.2999999523163","365045","pSARL_v2","pSARL_v284s1q36k","5e3b8f110d41ad3a7bc35019","freq","img/green_2bandit_b2.png","70","70","test","1","154","154","7","",""
"null","365461","pSARL_v2","pSARL_v284s1q36k","5e3b8f110d41ad3a7bc35019","freq_resp","img/green_2bandit_b.png","70","70","test","","","","7","",""
"null","365627","pSARL_v2","pSARL_v284s1q36k","5e3b8f110d41ad3a7bc35019","fixation","img/fixation.png","null","","test","","","","","",""
"388.7999999523163","366020","pSARL_v2","pSARL_v284s1q36k","5e3b8f110d41ad3a7bc35019","freq","img/green_2bandit_b2.png","70","70","test","1","155","155","7","",""
"null","366443","pSARL_v2","pSARL_v284s1q36k","5e3b8f110d41ad3a7bc35019","freq_resp","img/green_2bandit_b.png","70","70","test","","","","7","",""
"null","366604","pSARL_v2","pSARL_v284s1q36k","5e3b8f110d41ad3a7bc35019","fixation","img/fixation.png","null","","test","","","","","",""
"16503.399999976158","383112","pSARL_v2","pSARL_v284s1q36k","5e3b8f110d41ad3a7bc35019","reward","img/slot.png","74","","test","","","","","",""
"null","383869","pSARL_v2","pSARL_v284s1q36k","5e3b8f110d41ad3a7bc35019","points","<div class=""verylowPoints""> -6 </div>","null","na","test","","","","7","-6","6"
"565.7999999523163","384439","pSARL_v2","pSARL_v284s1q36k","5e3b8f110d41ad3a7bc35019","freq","img/green_2bandit_b2.png","70","70","test","1","156","156","8","",""
"null","384682","pSARL_v2","pSARL_v284s1q36k","5e3b8f110d41ad3a7bc35019","freq_resp","img/green_2bandit_b.png","70","70","test","","","","8","",""
"null","384845","pSARL_v2","pSARL_v284s1q36k","5e3b8f110d41ad3a7bc35019","fixation","img/fixation.png","null","","test","","","","","",""
"453.7000000476837","385303","pSARL_v2","pSARL_v284s1q36k","5e3b8f110d41ad3a7bc35019","freq","img/green_2bandit_b2.png","70","70","test","1","157","157","8","",""
"null","385657","pSARL_v2","pSARL_v284s1q36k","5e3b8f110d41ad3a7bc35019","freq_resp","img/green_2bandit_b.png","70","70","test","","","","8","",""
"null","385815","pSARL_v2","pSARL_v284s1q36k","5e3b8f110d41ad3a7bc35019","fixation","img/fixation.png","null","","test","","","","","",""
"388.2000000476837","386207","pSARL_v2","pSARL_v284s1q36k","5e3b8f110d41ad3a7bc35019","freq","img/green_2bandit_b2.png","70","70","test","1","158","158","8","",""
"null","386626","pSARL_v2","pSARL_v284s1q36k","5e3b8f110d41ad3a7bc35019","freq_resp","img/green_2bandit_b.png","70","70","test","","","","8","",""
"null","386789","pSARL_v2","pSARL_v284s1q36k","5e3b8f110d41ad3a7bc35019","fixation","img/fixation.png","null","","test","","","","","",""
"341.10000002384186","387136","pSARL_v2","pSARL_v284s1q36k","5e3b8f110d41ad3a7bc35019","freq","img/green_2bandit_b2.png","70","70","test","1","159","159","8","",""
"null","387603","pSARL_v2","pSARL_v284s1q36k","5e3b8f110d41ad3a7bc35019","freq_resp","img/green_2bandit_b.png","70","70","test","","","","8","",""
"null","387763","pSARL_v2","pSARL_v284s1q36k","5e3b8f110d41ad3a7bc35019","fixation","img/fixation.png","null","","test","","","","","",""
"351.59999990463257","388119","pSARL_v2","pSARL_v284s1q36k","5e3b8f110d41ad3a7bc35019","freq","img/green_2bandit_b2.png","70","70","test","1","160","160","8","",""
"null","388581","pSARL_v2","pSARL_v284s1q36k","5e3b8f110d41ad3a7bc35019","freq_resp","img/green_2bandit_b.png","70","70","test","","","","8","",""
"null","388741","pSARL_v2","pSARL_v284s1q36k","5e3b8f110d41ad3a7bc35019","fixation","img/fixation.png","null","","test","","","","","",""
"341.40000009536743","389086","pSARL_v2","pSARL_v284s1q36k","5e3b8f110d41ad3a7bc35019","freq","img/green_2bandit_b2.png","70","70","test","1","161","161","8","",""
"null","389553","pSARL_v2","pSARL_v284s1q36k","5e3b8f110d41ad3a7bc35019","freq_resp","img/green_2bandit_b.png","70","70","test","","","","8","",""
"null","389718","pSARL_v2","pSARL_v284s1q36k","5e3b8f110d41ad3a7bc35019","fixation","img/fixation.png","null","","test","","","","","",""
"365.40000009536743","390087","pSARL_v2","pSARL_v284s1q36k","5e3b8f110d41ad3a7bc35019","freq","img/green_2bandit_b2.png","70","70","test","1","162","162","8","",""
"null","390533","pSARL_v2","pSARL_v284s1q36k","5e3b8f110d41ad3a7bc35019","freq_resp","img/green_2bandit_b.png","70","70","test","","","","8","",""
"null","390694","pSARL_v2","pSARL_v284s1q36k","5e3b8f110d41ad3a7bc35019","fixation","img/fixation.png","null","","test","","","","","",""
"476.7999999523163","391175","pSARL_v2","pSARL_v284s1q36k","5e3b8f110d41ad3a7bc35019","freq","img/green_2bandit_b2.png","70","70","test","1","163","163","8","",""
"null","391509","pSARL_v2","pSARL_v284s1q36k","5e3b8f110d41ad3a7bc35019","freq_resp","img/green_2bandit_b.png","70","70","test","","","","8","",""
"null","391667","pSARL_v2","pSARL_v284s1q36k","5e3b8f110d41ad3a7bc35019","fixation","img/fixation.png","null","","test","","","","","",""
"367.8000000715256","392038","pSARL_v2","pSARL_v284s1q36k","5e3b8f110d41ad3a7bc35019","freq","img/green_2bandit_b2.png","70","70","test","1","164","164","8","",""
"null","392483","pSARL_v2","pSARL_v284s1q36k","5e3b8f110d41ad3a7bc35019","freq_resp","img/green_2bandit_b.png","70","70","test","","","","8","",""
"null","392644","pSARL_v2","pSARL_v284s1q36k","5e3b8f110d41ad3a7bc35019","fixation","img/fixation.png","null","","test","","","","","",""
"303.60000002384186","392952","pSARL_v2","pSARL_v284s1q36k","5e3b8f110d41ad3a7bc35019","infreq","img/orange_2bandit_b2.png","70","68","test","0","165","165","8","",""
"null","393459","pSARL_v2","pSARL_v284s1q36k","5e3b8f110d41ad3a7bc35019","infreq_resp","img/orange_2bandit_b.png","70","68","test","","","","8","",""
"null","393620","pSARL_v2","pSARL_v284s1q36k","5e3b8f110d41ad3a7bc35019","fixation","img/fixation.png","null","","test","","","","","",""
"462.89999997615814","394087","pSARL_v2","pSARL_v284s1q36k","5e3b8f110d41ad3a7bc35019","freq","img/green_2bandit_b2.png","70","70","test","1","166","166","8","",""
"null","394436","pSARL_v2","pSARL_v284s1q36k","5e3b8f110d41ad3a7bc35019","freq_resp","img/green_2bandit_b.png","70","70","test","","","","8","",""
"null","394597","pSARL_v2","pSARL_v284s1q36k","5e3b8f110d41ad3a7bc35019","fixation","img/fixation.png","null","","test","","","","","",""
"454.10000002384186","395055","pSARL_v2","pSARL_v284s1q36k","5e3b8f110d41ad3a7bc35019","infreq","img/orange_2bandit_b2.png","68","68","test","1","167","167","8","",""
"null","395409","pSARL_v2","pSARL_v284s1q36k","5e3b8f110d41ad3a7bc35019","infreq_resp","img/orange_2bandit_b.png","68","68","test","","","","8","",""
"null","395573","pSARL_v2","pSARL_v284s1q36k","5e3b8f110d41ad3a7bc35019","fixation","img/fixation.png","null","","test","","","","","",""
"477.2000000476837","396054","pSARL_v2","pSARL_v284s1q36k","5e3b8f110d41ad3a7bc35019","freq","img/green_2bandit_b2.png","70","70","test","1","168","168","8","",""
"null","396385","pSARL_v2","pSARL_v284s1q36k","5e3b8f110d41ad3a7bc35019","freq_resp","img/green_2bandit_b.png","70","70","test","","","","8","",""
"null","396546","pSARL_v2","pSARL_v284s1q36k","5e3b8f110d41ad3a7bc35019","fixation","img/fixation.png","null","","test","","","","","",""
"384.5","396936","pSARL_v2","pSARL_v284s1q36k","5e3b8f110d41ad3a7bc35019","freq","img/green_2bandit_b2.png","70","70","test","1","169","169","8","",""
"null","397366","pSARL_v2","pSARL_v284s1q36k","5e3b8f110d41ad3a7bc35019","freq_resp","img/green_2bandit_b.png","70","70","test","","","","8","",""
"null","397522","pSARL_v2","pSARL_v284s1q36k","5e3b8f110d41ad3a7bc35019","fixation","img/fixation.png","null","","test","","","","","",""
"353.39999997615814","397880","pSARL_v2","pSARL_v284s1q36k","5e3b8f110d41ad3a7bc35019","freq","img/green_2bandit_b2.png","70","70","test","1","170","170","8","",""
"null","398341","pSARL_v2","pSARL_v284s1q36k","5e3b8f110d41ad3a7bc35019","freq_resp","img/green_2bandit_b.png","70","70","test","","","","8","",""
"null","398502","pSARL_v2","pSARL_v284s1q36k","5e3b8f110d41ad3a7bc35019","fixation","img/fixation.png","null","","test","","","","","",""
"333.2999999523163","398839","pSARL_v2","pSARL_v284s1q36k","5e3b8f110d41ad3a7bc35019","freq","img/green_2bandit_b2.png","70","70","test","1","171","171","8","",""
"null","399315","pSARL_v2","pSARL_v284s1q36k","5e3b8f110d41ad3a7bc35019","freq_resp","img/green_2bandit_b.png","70","70","test","","","","8","",""
"null","399475","pSARL_v2","pSARL_v284s1q36k","5e3b8f110d41ad3a7bc35019","fixation","img/fixation.png","null","","test","","","","","",""
"384.60000002384186","399864","pSARL_v2","pSARL_v284s1q36k","5e3b8f110d41ad3a7bc35019","freq","img/green_2bandit_b2.png","70","70","test","1","172","172","8","",""
"null","400293","pSARL_v2","pSARL_v284s1q36k","5e3b8f110d41ad3a7bc35019","freq_resp","img/green_2bandit_b.png","70","70","test","","","","8","",""
"null","400450","pSARL_v2","pSARL_v284s1q36k","5e3b8f110d41ad3a7bc35019","fixation","img/fixation.png","null","","test","","","","","",""
"408.89999997615814","400863","pSARL_v2","pSARL_v284s1q36k","5e3b8f110d41ad3a7bc35019","freq","img/green_2bandit_b2.png","70","70","test","1","173","173","8","",""
"null","401262","pSARL_v2","pSARL_v284s1q36k","5e3b8f110d41ad3a7bc35019","freq_resp","img/green_2bandit_b.png","70","70","test","","","","8","",""
"null","401418","pSARL_v2","pSARL_v284s1q36k","5e3b8f110d41ad3a7bc35019","fixation","img/fixation.png","null","","test","","","","","",""
"393.3000000715256","401816","pSARL_v2","pSARL_v284s1q36k","5e3b8f110d41ad3a7bc35019","freq","img/green_2bandit_b2.png","70","70","test","1","174","174","8","",""
"null","402230","pSARL_v2","pSARL_v284s1q36k","5e3b8f110d41ad3a7bc35019","freq_resp","img/green_2bandit_b.png","70","70","test","","","","8","",""
"null","402388","pSARL_v2","pSARL_v284s1q36k","5e3b8f110d41ad3a7bc35019","fixation","img/fixation.png","null","","test","","","","","",""
"367.5","402759","pSARL_v2","pSARL_v284s1q36k","5e3b8f110d41ad3a7bc35019","freq","img/green_2bandit_b2.png","70","70","test","1","175","175","8","",""
"null","403206","pSARL_v2","pSARL_v284s1q36k","5e3b8f110d41ad3a7bc35019","freq_resp","img/green_2bandit_b.png","70","70","test","","","","8","",""
"null","403363","pSARL_v2","pSARL_v284s1q36k","5e3b8f110d41ad3a7bc35019","fixation","img/fixation.png","null","","test","","","","","",""
"6807.899999976158","410175","pSARL_v2","pSARL_v284s1q36k","5e3b8f110d41ad3a7bc35019","reward","img/slot.png","74","","test","","","","","",""
"null","410939","pSARL_v2","pSARL_v284s1q36k","5e3b8f110d41ad3a7bc35019","points","<div class=""verylowPoints""> -4 </div>","null","na","test","","","","8","-4","7"
"479.60000002384186","411422","pSARL_v2","pSARL_v284s1q36k","5e3b8f110d41ad3a7bc35019","freq","img/green_2bandit_b2.png","70","70","test","1","176","176","9","",""
"null","411757","pSARL_v2","pSARL_v284s1q36k","5e3b8f110d41ad3a7bc35019","freq_resp","img/green_2bandit_b.png","70","70","test","","","","9","",""
"null","411914","pSARL_v2","pSARL_v284s1q36k","5e3b8f110d41ad3a7bc35019","fixation","img/fixation.png","null","","test","","","","","",""
"408.1999999284744","412326","pSARL_v2","pSARL_v284s1q36k","5e3b8f110d41ad3a7bc35019","freq","img/green_2bandit_b2.png","70","70","test","1","177","177","9","",""
"null","412732","pSARL_v2","pSARL_v284s1q36k","5e3b8f110d41ad3a7bc35019","freq_resp","img/green_2bandit_b.png","70","70","test","","","","9","",""
"null","412891","pSARL_v2","pSARL_v284s1q36k","5e3b8f110d41ad3a7bc35019","fixation","img/fixation.png","null","","test","","","","","",""
"376.10000002384186","413271","pSARL_v2","pSARL_v284s1q36k","5e3b8f110d41ad3a7bc35019","freq","img/green_2bandit_b2.png","70","70","test","1","178","178","9","",""
"null","413709","pSARL_v2","pSARL_v284s1q36k","5e3b8f110d41ad3a7bc35019","freq_resp","img/green_2bandit_b.png","70","70","test","","","","9","",""
"null","413870","pSARL_v2","pSARL_v284s1q36k","5e3b8f110d41ad3a7bc35019","fixation","img/fixation.png","null","","test","","","","","",""
"460.09999990463257","414334","pSARL_v2","pSARL_v284s1q36k","5e3b8f110d41ad3a7bc35019","infreq","img/orange_2bandit_b2.png","68","68","test","1","179","179","9","",""
"null","414683","pSARL_v2","pSARL_v284s1q36k","5e3b8f110d41ad3a7bc35019","infreq_resp","img/orange_2bandit_b.png","68","68","test","","","","9","",""
"null","414841","pSARL_v2","pSARL_v284s1q36k","5e3b8f110d41ad3a7bc35019","fixation","img/fixation.png","null","","test","","","","","",""
"409.1999999284744","415255","pSARL_v2","pSARL_v284s1q36k","5e3b8f110d41ad3a7bc35019","freq","img/green_2bandit_b2.png","70","70","test","1","180","180","9","",""
"null","415656","pSARL_v2","pSARL_v284s1q36k","5e3b8f110d41ad3a7bc35019","freq_resp","img/green_2bandit_b.png","70","70","test","","","","9","",""
"null","415821","pSARL_v2","pSARL_v284s1q36k","5e3b8f110d41ad3a7bc35019","fixation","img/fixation.png","null","","test","","","","","",""
"430","416255","pSARL_v2","pSARL_v284s1q36k","5e3b8f110d41ad3a7bc35019","freq","img/green_2bandit_b2.png","70","70","test","1","181","181","9","",""
"null","416639","pSARL_v2","pSARL_v284s1q36k","5e3b8f110d41ad3a7bc35019","freq_resp","img/green_2bandit_b.png","70","70","test","","","","9","",""
"null","416805","pSARL_v2","pSARL_v284s1q36k","5e3b8f110d41ad3a7bc35019","fixation","img/fixation.png","null","","test","","","","","",""
"381.60000002384186","417190","pSARL_v2","pSARL_v284s1q36k","5e3b8f110d41ad3a7bc35019","freq","img/green_2bandit_b2.png","70","70","test","1","182","182","9","",""
"null","417621","pSARL_v2","pSARL_v284s1q36k","5e3b8f110d41ad3a7bc35019","freq_resp","img/green_2bandit_b.png","70","70","test","","","","9","",""
"null","417778","pSARL_v2","pSARL_v284s1q36k","5e3b8f110d41ad3a7bc35019","fixation","img/fixation.png","null","","test","","","","","",""
"416.6999999284744","418199","pSARL_v2","pSARL_v284s1q36k","5e3b8f110d41ad3a7bc35019","freq","img/green_2bandit_b2.png","70","70","test","1","183","183","9","",""
"null","418596","pSARL_v2","pSARL_v284s1q36k","5e3b8f110d41ad3a7bc35019","freq_resp","img/green_2bandit_b.png","70","70","test","","","","9","",""
"null","418757","pSARL_v2","pSARL_v284s1q36k","5e3b8f110d41ad3a7bc35019","fixation","img/fixation.png","null","","test","","","","","",""
"389.6999999284744","419150","pSARL_v2","pSARL_v284s1q36k","5e3b8f110d41ad3a7bc35019","freq","img/green_2bandit_b2.png","70","70","test","1","184","184","9","",""
"null","419572","pSARL_v2","pSARL_v284s1q36k","5e3b8f110d41ad3a7bc35019","freq_resp","img/green_2bandit_b.png","70","70","test","","","","9","",""
"null","419733","pSARL_v2","pSARL_v284s1q36k","5e3b8f110d41ad3a7bc35019","fixation","img/fixation.png","null","","test","","","","","",""
"366","420103","pSARL_v2","pSARL_v284s1q36k","5e3b8f110d41ad3a7bc35019","freq","img/green_2bandit_b2.png","70","70","test","1","185","185","9","",""
"null","420551","pSARL_v2","pSARL_v284s1q36k","5e3b8f110d41ad3a7bc35019","freq_resp","img/green_2bandit_b.png","70","70","test","","","","9","",""
"null","420715","pSARL_v2","pSARL_v284s1q36k","5e3b8f110d41ad3a7bc35019","fixation","img/fixation.png","null","","test","","","","","",""
"367.7999999523163","421086","pSARL_v2","pSARL_v284s1q36k","5e3b8f110d41ad3a7bc35019","freq","img/green_2bandit_b2.png","70","70","test","1","186","186","9","",""
"null","421533","pSARL_v2","pSARL_v284s1q36k","5e3b8f110d41ad3a7bc35019","freq_resp","img/green_2bandit_b.png","70","70","test","","","","9","",""
"null","421693","pSARL_v2","pSARL_v284s1q36k","5e3b8f110d41ad3a7bc35019","fixation","img/fixation.png","null","","test","","","","","",""
"341.60000002384186","422038","pSARL_v2","pSARL_v284s1q36k","5e3b8f110d41ad3a7bc35019","freq","img/green_2bandit_b2.png","70","70","test","1","187","187","9","",""
"null","422508","pSARL_v2","pSARL_v284s1q36k","5e3b8f110d41ad3a7bc35019","freq_resp","img/green_2bandit_b.png","70","70","test","","","","9","",""
"null","422672","pSARL_v2","pSARL_v284s1q36k","5e3b8f110d41ad3a7bc35019","fixation","img/fixation.png","null","","test","","","","","",""
"330.7999999523163","423007","pSARL_v2","pSARL_v284s1q36k","5e3b8f110d41ad3a7bc35019","freq","img/green_2bandit_b2.png","70","70","test","1","188","188","9","",""
"null","423483","pSARL_v2","pSARL_v284s1q36k","5e3b8f110d41ad3a7bc35019","freq_resp","img/green_2bandit_b.png","70","70","test","","","","9","",""
"null","423644","pSARL_v2","pSARL_v284s1q36k","5e3b8f110d41ad3a7bc35019","fixation","img/fixation.png","null","","test","","","","","",""
"334.60000002384186","423982","pSARL_v2","pSARL_v284s1q36k","5e3b8f110d41ad3a7bc35019","freq","img/green_2bandit_b2.png","70","70","test","1","189","189","9","",""
"null","424459","pSARL_v2","pSARL_v284s1q36k","5e3b8f110d41ad3a7bc35019","freq_resp","img/green_2bandit_b.png","70","70","test","","","","9","",""
"null","424621","pSARL_v2","pSARL_v284s1q36k","5e3b8f110d41ad3a7bc35019","fixation","img/fixation.png","null","","test","","","","","",""
"534.1000000238419","425159","pSARL_v2","pSARL_v284s1q36k","5e3b8f110d41ad3a7bc35019","infreq","img/orange_2bandit_b2.png","68","68","test","1","190","190","9","",""
"null","425434","pSARL_v2","pSARL_v284s1q36k","5e3b8f110d41ad3a7bc35019","infreq_resp","img/orange_2bandit_b.png","68","68","test","","","","9","",""
"null","425598","pSARL_v2","pSARL_v284s1q36k","5e3b8f110d41ad3a7bc35019","fixation","img/fixation.png","null","","test","","","","","",""
"413","426014","pSARL_v2","pSARL_v284s1q36k","5e3b8f110d41ad3a7bc35019","freq","img/green_2bandit_b2.png","70","70","test","1","191","191","9","",""
"null","426417","pSARL_v2","pSARL_v284s1q36k","5e3b8f110d41ad3a7bc35019","freq_resp","img/green_2bandit_b.png","70","70","test","","","","9","",""
"null","426581","pSARL_v2","pSARL_v284s1q36k","5e3b8f110d41ad3a7bc35019","fixation","img/fixation.png","null","","test","","","","","",""
"366.10000002384186","426951","pSARL_v2","pSARL_v284s1q36k","5e3b8f110d41ad3a7bc35019","freq","img/green_2bandit_b2.png","70","70","test","1","192","192","9","",""
"null","427396","pSARL_v2","pSARL_v284s1q36k","5e3b8f110d41ad3a7bc35019","freq_resp","img/green_2bandit_b.png","70","70","test","","","","9","",""
"null","427559","pSARL_v2","pSARL_v284s1q36k","5e3b8f110d41ad3a7bc35019","fixation","img/fixation.png","null","","test","","","","","",""
"515.7999999523163","428079","pSARL_v2","pSARL_v284s1q36k","5e3b8f110d41ad3a7bc35019","infreq","img/orange_2bandit_b2.png","68","68","test","1","193","193","9","",""
"null","428372","pSARL_v2","pSARL_v284s1q36k","5e3b8f110d41ad3a7bc35019","infreq_resp","img/orange_2bandit_b.png","68","68","test","","","","9","",""
"null","428534","pSARL_v2","pSARL_v284s1q36k","5e3b8f110d41ad3a7bc35019","fixation","img/fixation.png","null","","test","","","","","",""
"388.59999990463257","428927","pSARL_v2","pSARL_v284s1q36k","5e3b8f110d41ad3a7bc35019","freq","img/green_2bandit_b2.png","70","70","test","1","194","194","9","",""
"null","429349","pSARL_v2","pSARL_v284s1q36k","5e3b8f110d41ad3a7bc35019","freq_resp","img/green_2bandit_b.png","70","70","test","","","","9","",""
"null","429511","pSARL_v2","pSARL_v284s1q36k","5e3b8f110d41ad3a7bc35019","fixation","img/fixation.png","null","","test","","","","","",""
"348.39999997615814","429863","pSARL_v2","pSARL_v284s1q36k","5e3b8f110d41ad3a7bc35019","freq","img/green_2bandit_b2.png","70","70","test","1","195","195","9","",""
"null","430329","pSARL_v2","pSARL_v284s1q36k","5e3b8f110d41ad3a7bc35019","freq_resp","img/green_2bandit_b.png","70","70","test","","","","9","",""
"null","430490","pSARL_v2","pSARL_v284s1q36k","5e3b8f110d41ad3a7bc35019","fixation","img/fixation.png","null","","test","","","","","",""
"296","430790","pSARL_v2","pSARL_v284s1q36k","5e3b8f110d41ad3a7bc35019","freq","img/green_2bandit_b2.png","70","70","test","1","196","196","9","",""
"null","431303","pSARL_v2","pSARL_v284s1q36k","5e3b8f110d41ad3a7bc35019","freq_resp","img/green_2bandit_b.png","70","70","test","","","","9","",""
"null","431471","pSARL_v2","pSARL_v284s1q36k","5e3b8f110d41ad3a7bc35019","fixation","img/fixation.png","null","","test","","","","","",""
"316.39999997615814","431792","pSARL_v2","pSARL_v284s1q36k","5e3b8f110d41ad3a7bc35019","freq","img/green_2bandit_b2.png","70","70","test","1","197","197","9","",""
"null","432286","pSARL_v2","pSARL_v284s1q36k","5e3b8f110d41ad3a7bc35019","freq_resp","img/green_2bandit_b.png","70","70","test","","","","9","",""
"null","432447","pSARL_v2","pSARL_v284s1q36k","5e3b8f110d41ad3a7bc35019","fixation","img/fixation.png","null","","test","","","","","",""
"42389.60000002384","474842","pSARL_v2","pSARL_v284s1q36k","5e3b8f110d41ad3a7bc35019","reward","img/slot.png","74","","test","","","","","",""
"null","475609","pSARL_v2","pSARL_v284s1q36k","5e3b8f110d41ad3a7bc35019","points","<div class=""verylowPoints""> -3 </div>","null","na","test","","","","9","-3","8"
"394.6999999284744","476008","pSARL_v2","pSARL_v284s1q36k","5e3b8f110d41ad3a7bc35019","freq","img/green_2bandit_b2.png","70","70","test","1","198","198","10","",""
"null","476421","pSARL_v2","pSARL_v284s1q36k","5e3b8f110d41ad3a7bc35019","freq_resp","img/green_2bandit_b.png","70","70","test","","","","10","",""
"null","476583","pSARL_v2","pSARL_v284s1q36k","5e3b8f110d41ad3a7bc35019","fixation","img/fixation.png","null","","test","","","","","",""
"317.7999999523163","476904","pSARL_v2","pSARL_v284s1q36k","5e3b8f110d41ad3a7bc35019","freq","img/green_2bandit_b2.png","70","70","test","1","199","199","10","",""
"null","477398","pSARL_v2","pSARL_v284s1q36k","5e3b8f110d41ad3a7bc35019","freq_resp","img/green_2bandit_b.png","70","70","test","","","","10","",""
"null","477559","pSARL_v2","pSARL_v284s1q36k","5e3b8f110d41ad3a7bc35019","fixation","img/fixation.png","null","","test","","","","","",""
"333.6999999284744","477897","pSARL_v2","pSARL_v284s1q36k","5e3b8f110d41ad3a7bc35019","freq","img/green_2bandit_b2.png","70","70","test","1","200","200","10","",""
"null","478373","pSARL_v2","pSARL_v284s1q36k","5e3b8f110d41ad3a7bc35019","freq_resp","img/green_2bandit_b.png","70","70","test","","","","10","",""
"null","478537","pSARL_v2","pSARL_v284s1q36k","5e3b8f110d41ad3a7bc35019","fixation","img/fixation.png","null","","test","","","","","",""
"339","478880","pSARL_v2","pSARL_v284s1q36k","5e3b8f110d41ad3a7bc35019","freq","img/green_2bandit_b2.png","70","70","test","1","201","201","10","",""
"null","479350","pSARL_v2","pSARL_v284s1q36k","5e3b8f110d41ad3a7bc35019","freq_resp","img/green_2bandit_b.png","70","70","test","","","","10","",""
"null","479511","pSARL_v2","pSARL_v284s1q36k","5e3b8f110d41ad3a7bc35019","fixation","img/fixation.png","null","","test","","","","","",""
"318.39999997615814","479833","pSARL_v2","pSARL_v284s1q36k","5e3b8f110d41ad3a7bc35019","freq","img/green_2bandit_b2.png","70","70","test","1","202","202","10","",""
"null","480327","pSARL_v2","pSARL_v284s1q36k","5e3b8f110d41ad3a7bc35019","freq_resp","img/green_2bandit_b.png","70","70","test","","","","10","",""
"null","480485","pSARL_v2","pSARL_v284s1q36k","5e3b8f110d41ad3a7bc35019","fixation","img/fixation.png","null","","test","","","","","",""
"327.6999999284744","480816","pSARL_v2","pSARL_v284s1q36k","5e3b8f110d41ad3a7bc35019","freq","img/green_2bandit_b2.png","70","70","test","1","203","203","10","",""
"null","481303","pSARL_v2","pSARL_v284s1q36k","5e3b8f110d41ad3a7bc35019","freq_resp","img/green_2bandit_b.png","70","70","test","","","","10","",""
"null","481460","pSARL_v2","pSARL_v284s1q36k","5e3b8f110d41ad3a7bc35019","fixation","img/fixation.png","null","","test","","","","","",""
"256.8000000715256","481721","pSARL_v2","pSARL_v284s1q36k","5e3b8f110d41ad3a7bc35019","freq","img/green_2bandit_b2.png","70","70","test","1","204","204","10","",""
"null","482277","pSARL_v2","pSARL_v284s1q36k","5e3b8f110d41ad3a7bc35019","freq_resp","img/green_2bandit_b.png","70","70","test","","","","10","",""
"null","482433","pSARL_v2","pSARL_v284s1q36k","5e3b8f110d41ad3a7bc35019","fixation","img/fixation.png","null","","test","","","","","",""
"372.5","482810","pSARL_v2","pSARL_v284s1q36k","5e3b8f110d41ad3a7bc35019","freq","img/green_2bandit_b2.png","70","70","test","1","205","205","10","",""
"null","483247","pSARL_v2","pSARL_v284s1q36k","5e3b8f110d41ad3a7bc35019","freq_resp","img/green_2bandit_b.png","70","70","test","","","","10","",""
"null","483409","pSARL_v2","pSARL_v284s1q36k","5e3b8f110d41ad3a7bc35019","fixation","img/fixation.png","null","","test","","","","","",""
"331.60000002384186","483744","pSARL_v2","pSARL_v284s1q36k","5e3b8f110d41ad3a7bc35019","freq","img/green_2bandit_b2.png","70","70","test","1","206","206","10","",""
