"rt","time_elapsed","expId","subject","prolificID","trialType","stimulus","key_press","corrresp","phase","corr","trialNum","attentionRunNum","blockNum","points","rlNum"
"8766.300000190735","8783","pSARL_v2","pSARL_v24dqmxt3y","60933bb6e47eb28c880b93d9","","","","","","","","","","",""
"","12420","pSARL_v2","pSARL_v24dqmxt3y","60933bb6e47eb28c880b93d9","fullscreen","","","","","","","","","",""
"84082.59999990463","96516","pSARL_v2","pSARL_v24dqmxt3y","60933bb6e47eb28c880b93d9","","","","","","","","","","",""
"null","97341","pSARL_v2","pSARL_v24dqmxt3y","60933bb6e47eb28c880b93d9","freqPrac","img/orange_2bandit_b2.png","null","70","prac","0","","","","",""
"null","98362","pSARL_v2","pSARL_v24dqmxt3y","60933bb6e47eb28c880b93d9","feedback","img/tooSlow.png","null","na","prac","","","","","",""
"null","98537","pSARL_v2","pSARL_v24dqmxt3y","60933bb6e47eb28c880b93d9","fixation","img/fixation.png","null","","prac","","","","","",""
"null","99350","pSARL_v2","pSARL_v24dqmxt3y","60933bb6e47eb28c880b93d9","infreqPrac","img/green_2bandit_b2.png","null","68","prac","0","","","","",""
"null","100365","pSARL_v2","pSARL_v24dqmxt3y","60933bb6e47eb28c880b93d9","feedback","img/tooSlow.png","null","na","prac","","","","","",""
"null","100540","pSARL_v2","pSARL_v24dqmxt3y","60933bb6e47eb28c880b93d9","fixation","img/fixation.png","null","","prac","","","","","",""
"null","101358","pSARL_v2","pSARL_v24dqmxt3y","60933bb6e47eb28c880b93d9","freqPrac","img/orange_2bandit_b2.png","null","70","prac","0","","","","",""
"null","102370","pSARL_v2","pSARL_v24dqmxt3y","60933bb6e47eb28c880b93d9","feedback","img/tooSlow.png","null","na","prac","","","","","",""
"null","102536","pSARL_v2","pSARL_v24dqmxt3y","60933bb6e47eb28c880b93d9","fixation","img/fixation.png","null","","prac","","","","","",""
"null","103357","pSARL_v2","pSARL_v24dqmxt3y","60933bb6e47eb28c880b93d9","infreqPrac","img/green_2bandit_b2.png","null","68","prac","0","","","","",""
"null","104370","pSARL_v2","pSARL_v24dqmxt3y","60933bb6e47eb28c880b93d9","feedback","img/tooSlow.png","null","na","prac","","","","","",""
"null","104534","pSARL_v2","pSARL_v24dqmxt3y","60933bb6e47eb28c880b93d9","fixation","img/fixation.png","null","","prac","","","","","",""
"null","105350","pSARL_v2","pSARL_v24dqmxt3y","60933bb6e47eb28c880b93d9","infreqPrac","img/green_2bandit_b2.png","null","68","prac","0","","","","",""
"null","106369","pSARL_v2","pSARL_v24dqmxt3y","60933bb6e47eb28c880b93d9","feedback","img/tooSlow.png","null","na","prac","","","","","",""
"null","106534","pSARL_v2","pSARL_v24dqmxt3y","60933bb6e47eb28c880b93d9","fixation","img/fixation.png","null","","prac","","","","","",""
"null","107359","pSARL_v2","pSARL_v24dqmxt3y","60933bb6e47eb28c880b93d9","infreqPrac","img/green_2bandit_b2.png","null","68","prac","0","","","","",""
"null","108376","pSARL_v2","pSARL_v24dqmxt3y","60933bb6e47eb28c880b93d9","feedback","img/tooSlow.png","null","na","prac","","","","","",""
"null","108550","pSARL_v2","pSARL_v24dqmxt3y","60933bb6e47eb28c880b93d9","fixation","img/fixation.png","null","","prac","","","","","",""
"680.5999999046326","109237","pSARL_v2","pSARL_v24dqmxt3y","60933bb6e47eb28c880b93d9","freqPrac","img/orange_2bandit_b2.png","68","70","prac","0","","","","",""
"680.5999999046326","109375","pSARL_v2","pSARL_v24dqmxt3y","60933bb6e47eb28c880b93d9","freqPrac_resp","img/orange_2bandit_b.png","68","70","prac","","","","","",""
"null","110399","pSARL_v2","pSARL_v24dqmxt3y","60933bb6e47eb28c880b93d9","feedback","img/wrongKey.png","null","na","prac","","","","","",""
"null","110567","pSARL_v2","pSARL_v24dqmxt3y","60933bb6e47eb28c880b93d9","fixation","img/fixation.png","null","","prac","","","","","",""
"null","111391","pSARL_v2","pSARL_v24dqmxt3y","60933bb6e47eb28c880b93d9","infreqPrac","img/green_2bandit_b2.png","null","68","prac","0","","","","",""
"null","112413","pSARL_v2","pSARL_v24dqmxt3y","60933bb6e47eb28c880b93d9","feedback","img/tooSlow.png","null","na","prac","","","","","",""
"null","112586","pSARL_v2","pSARL_v24dqmxt3y","60933bb6e47eb28c880b93d9","fixation","img/fixation.png","null","","prac","","","","","",""
"null","113404","pSARL_v2","pSARL_v24dqmxt3y","60933bb6e47eb28c880b93d9","freqPrac","img/orange_2bandit_b2.png","null","70","prac","0","","","","",""
"null","114424","pSARL_v2","pSARL_v24dqmxt3y","60933bb6e47eb28c880b93d9","feedback","img/tooSlow.png","null","na","prac","","","","","",""
"null","114588","pSARL_v2","pSARL_v24dqmxt3y","60933bb6e47eb28c880b93d9","fixation","img/fixation.png","null","","prac","","","","","",""
"null","115415","pSARL_v2","pSARL_v24dqmxt3y","60933bb6e47eb28c880b93d9","freqPrac","img/orange_2bandit_b2.png","null","70","prac","0","","","","",""
"null","116429","pSARL_v2","pSARL_v24dqmxt3y","60933bb6e47eb28c880b93d9","feedback","img/tooSlow.png","null","na","prac","","","","","",""
"null","116600","pSARL_v2","pSARL_v24dqmxt3y","60933bb6e47eb28c880b93d9","fixation","img/fixation.png","null","","prac","","","","","",""
"9851.800000190735","126458","pSARL_v2","pSARL_v24dqmxt3y","60933bb6e47eb28c880b93d9","","","","","prac","","","","","",""
"59139.799999952316","185603","pSARL_v2","pSARL_v24dqmxt3y","60933bb6e47eb28c880b93d9","rewardPractice","img/slot.png","74","","prac","","","","","",""
"null","186374","pSARL_v2","pSARL_v24dqmxt3y","60933bb6e47eb28c880b93d9","feedback","<div class=""veryhighPoints""> +15 </div>","null","na","prac","","","","","",""
"null","186552","pSARL_v2","pSARL_v24dqmxt3y","60933bb6e47eb28c880b93d9","fixation","img/fixation.png","null","","prac","","","","","",""
"19695.799999952316","206254","pSARL_v2","pSARL_v24dqmxt3y","60933bb6e47eb28c880b93d9","","","","","prac","","","","","",""
"null","207079","pSARL_v2","pSARL_v24dqmxt3y","60933bb6e47eb28c880b93d9","freq","img/orange_2bandit_b2.png","null","70","test","0","1","1","1","",""
"null","207247","pSARL_v2","pSARL_v24dqmxt3y","60933bb6e47eb28c880b93d9","fixation","img/fixation.png","null","","test","","","","","",""
"null","208069","pSARL_v2","pSARL_v24dqmxt3y","60933bb6e47eb28c880b93d9","freq","img/orange_2bandit_b2.png","null","70","test","0","2","2","1","",""
"null","208228","pSARL_v2","pSARL_v24dqmxt3y","60933bb6e47eb28c880b93d9","fixation","img/fixation.png","null","","test","","","","","",""
"null","209057","pSARL_v2","pSARL_v24dqmxt3y","60933bb6e47eb28c880b93d9","freq","img/orange_2bandit_b2.png","null","70","test","0","3","3","1","",""
"null","209228","pSARL_v2","pSARL_v24dqmxt3y","60933bb6e47eb28c880b93d9","fixation","img/fixation.png","null","","test","","","","","",""
"null","210051","pSARL_v2","pSARL_v24dqmxt3y","60933bb6e47eb28c880b93d9","freq","img/orange_2bandit_b2.png","null","70","test","0","4","4","1","",""
"null","210222","pSARL_v2","pSARL_v24dqmxt3y","60933bb6e47eb28c880b93d9","fixation","img/fixation.png","null","","test","","","","","",""
"684.1999998092651","210913","pSARL_v2","pSARL_v24dqmxt3y","60933bb6e47eb28c880b93d9","freq","img/orange_2bandit_b2.png","70","70","test","1","5","5","1","",""
"null","211038","pSARL_v2","pSARL_v24dqmxt3y","60933bb6e47eb28c880b93d9","freq_resp","img/orange_2bandit_b.png","70","70","test","","","","1","",""
"null","211215","pSARL_v2","pSARL_v24dqmxt3y","60933bb6e47eb28c880b93d9","fixation","img/fixation.png","null","","test","","","","","",""
"511.5","211734","pSARL_v2","pSARL_v24dqmxt3y","60933bb6e47eb28c880b93d9","freq","img/orange_2bandit_b2.png","70","70","test","1","6","6","1","",""
"null","212043","pSARL_v2","pSARL_v24dqmxt3y","60933bb6e47eb28c880b93d9","freq_resp","img/orange_2bandit_b.png","70","70","test","","","","1","",""
"null","212212","pSARL_v2","pSARL_v24dqmxt3y","60933bb6e47eb28c880b93d9","fixation","img/fixation.png","null","","test","","","","","",""
"595.1999998092651","212816","pSARL_v2","pSARL_v24dqmxt3y","60933bb6e47eb28c880b93d9","freq","img/orange_2bandit_b2.png","70","70","test","1","7","7","1","",""
"null","213039","pSARL_v2","pSARL_v24dqmxt3y","60933bb6e47eb28c880b93d9","freq_resp","img/orange_2bandit_b.png","70","70","test","","","","1","",""
"null","213212","pSARL_v2","pSARL_v24dqmxt3y","60933bb6e47eb28c880b93d9","fixation","img/fixation.png","null","","test","","","","","",""
"null","214032","pSARL_v2","pSARL_v24dqmxt3y","60933bb6e47eb28c880b93d9","infreq","img/green_2bandit_b2.png","null","68","test","0","8","8","1","",""
"null","214206","pSARL_v2","pSARL_v24dqmxt3y","60933bb6e47eb28c880b93d9","fixation","img/fixation.png","null","","test","","","","","",""
"null","215022","pSARL_v2","pSARL_v24dqmxt3y","60933bb6e47eb28c880b93d9","freq","img/orange_2bandit_b2.png","null","70","test","0","9","9","1","",""
"null","215181","pSARL_v2","pSARL_v24dqmxt3y","60933bb6e47eb28c880b93d9","fixation","img/fixation.png","null","","test","","","","","",""
"null","216000","pSARL_v2","pSARL_v24dqmxt3y","60933bb6e47eb28c880b93d9","freq","img/orange_2bandit_b2.png","null","70","test","0","10","10","1","",""
"null","216167","pSARL_v2","pSARL_v24dqmxt3y","60933bb6e47eb28c880b93d9","fixation","img/fixation.png","null","","test","","","","","",""
"659.0999999046326","216833","pSARL_v2","pSARL_v24dqmxt3y","60933bb6e47eb28c880b93d9","freq","img/orange_2bandit_b2.png","70","70","test","1","11","11","1","",""
"null","216992","pSARL_v2","pSARL_v24dqmxt3y","60933bb6e47eb28c880b93d9","freq_resp","img/orange_2bandit_b.png","70","70","test","","","","1","",""
"null","217155","pSARL_v2","pSARL_v24dqmxt3y","60933bb6e47eb28c880b93d9","fixation","img/fixation.png","null","","test","","","","","",""
"490.90000009536743","217652","pSARL_v2","pSARL_v24dqmxt3y","60933bb6e47eb28c880b93d9","freq","img/orange_2bandit_b2.png","68","70","test","0","12","12","1","",""
"null","217968","pSARL_v2","pSARL_v24dqmxt3y","60933bb6e47eb28c880b93d9","freq_resp","img/orange_2bandit_b.png","68","70","test","","","","1","",""
"null","218132","pSARL_v2","pSARL_v24dqmxt3y","60933bb6e47eb28c880b93d9","fixation","img/fixation.png","null","","test","","","","","",""
"334.39999985694885","218473","pSARL_v2","pSARL_v24dqmxt3y","60933bb6e47eb28c880b93d9","freq","img/orange_2bandit_b2.png","70","70","test","1","13","13","1","",""
"null","218950","pSARL_v2","pSARL_v24dqmxt3y","60933bb6e47eb28c880b93d9","freq_resp","img/orange_2bandit_b.png","70","70","test","","","","1","",""
"null","219127","pSARL_v2","pSARL_v24dqmxt3y","60933bb6e47eb28c880b93d9","fixation","img/fixation.png","null","","test","","","","","",""
"49.90000009536743","219182","pSARL_v2","pSARL_v24dqmxt3y","60933bb6e47eb28c880b93d9","freq","img/orange_2bandit_b2.png","70","70","test","1","14","14","1","",""
"null","219944","pSARL_v2","pSARL_v24dqmxt3y","60933bb6e47eb28c880b93d9","freq_resp","img/orange_2bandit_b.png","70","70","test","","","","1","",""
"null","220119","pSARL_v2","pSARL_v24dqmxt3y","60933bb6e47eb28c880b93d9","fixation","img/fixation.png","null","","test","","","","","",""
"112.40000009536743","220238","pSARL_v2","pSARL_v24dqmxt3y","60933bb6e47eb28c880b93d9","freq","img/orange_2bandit_b2.png","70","70","test","1","15","15","1","",""
"null","220946","pSARL_v2","pSARL_v24dqmxt3y","60933bb6e47eb28c880b93d9","freq_resp","img/orange_2bandit_b.png","70","70","test","","","","1","",""
"null","221112","pSARL_v2","pSARL_v24dqmxt3y","60933bb6e47eb28c880b93d9","fixation","img/fixation.png","null","","test","","","","","",""
"94.60000014305115","221213","pSARL_v2","pSARL_v24dqmxt3y","60933bb6e47eb28c880b93d9","freq","img/orange_2bandit_b2.png","70","70","test","1","16","16","1","",""
"null","221935","pSARL_v2","pSARL_v24dqmxt3y","60933bb6e47eb28c880b93d9","freq_resp","img/orange_2bandit_b.png","70","70","test","","","","1","",""
"null","222094","pSARL_v2","pSARL_v24dqmxt3y","60933bb6e47eb28c880b93d9","fixation","img/fixation.png","null","","test","","","","","",""
"191.40000009536743","222293","pSARL_v2","pSARL_v24dqmxt3y","60933bb6e47eb28c880b93d9","freq","img/orange_2bandit_b2.png","70","70","test","1","17","17","1","",""
"null","222910","pSARL_v2","pSARL_v24dqmxt3y","60933bb6e47eb28c880b93d9","freq_resp","img/orange_2bandit_b.png","70","70","test","","","","1","",""
"null","223084","pSARL_v2","pSARL_v24dqmxt3y","60933bb6e47eb28c880b93d9","fixation","img/fixation.png","null","","test","","","","","",""
"121.5","223213","pSARL_v2","pSARL_v24dqmxt3y","60933bb6e47eb28c880b93d9","freq","img/orange_2bandit_b2.png","70","70","test","1","18","18","1","",""
"null","223909","pSARL_v2","pSARL_v24dqmxt3y","60933bb6e47eb28c880b93d9","freq_resp","img/orange_2bandit_b.png","70","70","test","","","","1","",""
"null","224080","pSARL_v2","pSARL_v24dqmxt3y","60933bb6e47eb28c880b93d9","fixation","img/fixation.png","null","","test","","","","","",""
"36.299999952316284","224122","pSARL_v2","pSARL_v24dqmxt3y","60933bb6e47eb28c880b93d9","freq","img/orange_2bandit_b2.png","70","70","test","1","19","19","1","",""
"null","224899","pSARL_v2","pSARL_v24dqmxt3y","60933bb6e47eb28c880b93d9","freq_resp","img/orange_2bandit_b.png","70","70","test","","","","1","",""
"null","225059","pSARL_v2","pSARL_v24dqmxt3y","60933bb6e47eb28c880b93d9","fixation","img/fixation.png","null","","test","","","","","",""
"26","225091","pSARL_v2","pSARL_v24dqmxt3y","60933bb6e47eb28c880b93d9","infreq","img/green_2bandit_b2.png","70","68","test","0","20","20","1","",""
"null","225875","pSARL_v2","pSARL_v24dqmxt3y","60933bb6e47eb28c880b93d9","infreq_resp","img/green_2bandit_b.png","70","68","test","","","","1","",""
"null","226049","pSARL_v2","pSARL_v24dqmxt3y","60933bb6e47eb28c880b93d9","fixation","img/fixation.png","null","","test","","","","","",""
"86.59999990463257","226142","pSARL_v2","pSARL_v24dqmxt3y","60933bb6e47eb28c880b93d9","freq","img/orange_2bandit_b2.png","68","70","test","0","21","21","1","",""
"null","226870","pSARL_v2","pSARL_v24dqmxt3y","60933bb6e47eb28c880b93d9","freq_resp","img/orange_2bandit_b.png","68","70","test","","","","1","",""
"null","227043","pSARL_v2","pSARL_v24dqmxt3y","60933bb6e47eb28c880b93d9","fixation","img/fixation.png","null","","test","","","","","",""
"1843","228893","pSARL_v2","pSARL_v24dqmxt3y","60933bb6e47eb28c880b93d9","reward","img/slot.png","74","","test","","","","","",""
"null","229659","pSARL_v2","pSARL_v24dqmxt3y","60933bb6e47eb28c880b93d9","points","<div class=""verylowPoints""> -6 </div>","null","na","test","","","","1","-6","0"
"null","230472","pSARL_v2","pSARL_v24dqmxt3y","60933bb6e47eb28c880b93d9","freq","img/orange_2bandit_b2.png","null","70","test","0","22","22","2","",""
"null","230640","pSARL_v2","pSARL_v24dqmxt3y","60933bb6e47eb28c880b93d9","fixation","img/fixation.png","null","","test","","","","","",""
"286.2999999523163","230934","pSARL_v2","pSARL_v24dqmxt3y","60933bb6e47eb28c880b93d9","freq","img/orange_2bandit_b2.png","70","70","test","1","23","23","2","",""
"null","231467","pSARL_v2","pSARL_v24dqmxt3y","60933bb6e47eb28c880b93d9","freq_resp","img/orange_2bandit_b.png","70","70","test","","","","2","",""
"null","231637","pSARL_v2","pSARL_v24dqmxt3y","60933bb6e47eb28c880b93d9","fixation","img/fixation.png","null","","test","","","","","",""
"168.30000019073486","231813","pSARL_v2","pSARL_v24dqmxt3y","60933bb6e47eb28c880b93d9","infreq","img/green_2bandit_b2.png","70","68","test","0","24","24","2","",""
"null","232453","pSARL_v2","pSARL_v24dqmxt3y","60933bb6e47eb28c880b93d9","infreq_resp","img/green_2bandit_b.png","70","68","test","","","","2","",""
"null","232619","pSARL_v2","pSARL_v24dqmxt3y","60933bb6e47eb28c880b93d9","fixation","img/fixation.png","null","","test","","","","","",""
"475.90000009536743","233102","pSARL_v2","pSARL_v24dqmxt3y","60933bb6e47eb28c880b93d9","freq","img/orange_2bandit_b2.png","70","70","test","1","25","25","2","",""
"null","233438","pSARL_v2","pSARL_v24dqmxt3y","60933bb6e47eb28c880b93d9","freq_resp","img/orange_2bandit_b.png","70","70","test","","","","2","",""
"null","233607","pSARL_v2","pSARL_v24dqmxt3y","60933bb6e47eb28c880b93d9","fixation","img/fixation.png","null","","test","","","","","",""
"77.60000014305115","233690","pSARL_v2","pSARL_v24dqmxt3y","60933bb6e47eb28c880b93d9","infreq","img/green_2bandit_b2.png","70","68","test","0","26","26","2","",""
"null","234424","pSARL_v2","pSARL_v24dqmxt3y","60933bb6e47eb28c880b93d9","infreq_resp","img/green_2bandit_b.png","70","68","test","","","","2","",""
"null","234590","pSARL_v2","pSARL_v24dqmxt3y","60933bb6e47eb28c880b93d9","fixation","img/fixation.png","null","","test","","","","","",""
"425.5","235023","pSARL_v2","pSARL_v24dqmxt3y","60933bb6e47eb28c880b93d9","freq","img/orange_2bandit_b2.png","70","70","test","1","27","27","2","",""
"null","235411","pSARL_v2","pSARL_v24dqmxt3y","60933bb6e47eb28c880b93d9","freq_resp","img/orange_2bandit_b.png","70","70","test","","","","2","",""
"null","235586","pSARL_v2","pSARL_v24dqmxt3y","60933bb6e47eb28c880b93d9","fixation","img/fixation.png","null","","test","","","","","",""
"359.2999999523163","235952","pSARL_v2","pSARL_v24dqmxt3y","60933bb6e47eb28c880b93d9","freq","img/orange_2bandit_b2.png","70","70","test","1","28","28","2","",""
"null","236407","pSARL_v2","pSARL_v24dqmxt3y","60933bb6e47eb28c880b93d9","freq_resp","img/orange_2bandit_b.png","70","70","test","","","","2","",""
"null","236579","pSARL_v2","pSARL_v24dqmxt3y","60933bb6e47eb28c880b93d9","fixation","img/fixation.png","null","","test","","","","","",""
"646.0999999046326","237230","pSARL_v2","pSARL_v24dqmxt3y","60933bb6e47eb28c880b93d9","freq","img/orange_2bandit_b2.png","70","70","test","1","29","29","2","",""
"null","237398","pSARL_v2","pSARL_v24dqmxt3y","60933bb6e47eb28c880b93d9","freq_resp","img/orange_2bandit_b.png","70","70","test","","","","2","",""
"null","237565","pSARL_v2","pSARL_v24dqmxt3y","60933bb6e47eb28c880b93d9","fixation","img/fixation.png","null","","test","","","","","",""
"694.7000000476837","238267","pSARL_v2","pSARL_v24dqmxt3y","60933bb6e47eb28c880b93d9","freq","img/orange_2bandit_b2.png","70","70","test","1","30","30","2","",""
"null","238387","pSARL_v2","pSARL_v24dqmxt3y","60933bb6e47eb28c880b93d9","freq_resp","img/orange_2bandit_b.png","70","70","test","","","","2","",""
"null","238547","pSARL_v2","pSARL_v24dqmxt3y","60933bb6e47eb28c880b93d9","fixation","img/fixation.png","null","","test","","","","","",""
"627.5999999046326","239182","pSARL_v2","pSARL_v24dqmxt3y","60933bb6e47eb28c880b93d9","freq","img/orange_2bandit_b2.png","70","70","test","1","31","31","2","",""
"null","239363","pSARL_v2","pSARL_v24dqmxt3y","60933bb6e47eb28c880b93d9","freq_resp","img/orange_2bandit_b.png","70","70","test","","","","2","",""
"null","239530","pSARL_v2","pSARL_v24dqmxt3y","60933bb6e47eb28c880b93d9","fixation","img/fixation.png","null","","test","","","","","",""
"455.2000000476837","239993","pSARL_v2","pSARL_v24dqmxt3y","60933bb6e47eb28c880b93d9","freq","img/orange_2bandit_b2.png","70","70","test","1","32","32","2","",""
"null","240344","pSARL_v2","pSARL_v24dqmxt3y","60933bb6e47eb28c880b93d9","freq_resp","img/orange_2bandit_b.png","70","70","test","","","","2","",""
"null","240515","pSARL_v2","pSARL_v24dqmxt3y","60933bb6e47eb28c880b93d9","fixation","img/fixation.png","null","","test","","","","","",""
"239.89999985694885","240762","pSARL_v2","pSARL_v24dqmxt3y","60933bb6e47eb28c880b93d9","freq","img/orange_2bandit_b2.png","70","70","test","1","33","33","2","",""
"null","241341","pSARL_v2","pSARL_v24dqmxt3y","60933bb6e47eb28c880b93d9","freq_resp","img/orange_2bandit_b.png","70","70","test","","","","2","",""
"null","241511","pSARL_v2","pSARL_v24dqmxt3y","60933bb6e47eb28c880b93d9","fixation","img/fixation.png","null","","test","","","","","",""
"154.5","241674","pSARL_v2","pSARL_v24dqmxt3y","60933bb6e47eb28c880b93d9","freq","img/orange_2bandit_b2.png","70","70","test","1","34","34","2","",""
"null","242339","pSARL_v2","pSARL_v24dqmxt3y","60933bb6e47eb28c880b93d9","freq_resp","img/orange_2bandit_b.png","70","70","test","","","","2","",""
"null","242502","pSARL_v2","pSARL_v24dqmxt3y","60933bb6e47eb28c880b93d9","fixation","img/fixation.png","null","","test","","","","","",""
"102.89999985694885","242612","pSARL_v2","pSARL_v24dqmxt3y","60933bb6e47eb28c880b93d9","freq","img/orange_2bandit_b2.png","70","70","test","1","35","35","2","",""
"null","243331","pSARL_v2","pSARL_v24dqmxt3y","60933bb6e47eb28c880b93d9","freq_resp","img/orange_2bandit_b.png","70","70","test","","","","2","",""
"null","243497","pSARL_v2","pSARL_v24dqmxt3y","60933bb6e47eb28c880b93d9","fixation","img/fixation.png","null","","test","","","","","",""
"627.3999998569489","244131","pSARL_v2","pSARL_v24dqmxt3y","60933bb6e47eb28c880b93d9","freq","img/orange_2bandit_b2.png","70","70","test","1","36","36","2","",""
"null","244323","pSARL_v2","pSARL_v24dqmxt3y","60933bb6e47eb28c880b93d9","freq_resp","img/orange_2bandit_b.png","70","70","test","","","","2","",""
"null","244491","pSARL_v2","pSARL_v24dqmxt3y","60933bb6e47eb28c880b93d9","fixation","img/fixation.png","null","","test","","","","","",""
"725.7000000476837","245223","pSARL_v2","pSARL_v24dqmxt3y","60933bb6e47eb28c880b93d9","freq","img/orange_2bandit_b2.png","70","70","test","1","37","37","2","",""
"null","245320","pSARL_v2","pSARL_v24dqmxt3y","60933bb6e47eb28c880b93d9","freq_resp","img/orange_2bandit_b.png","70","70","test","","","","2","",""
"null","245497","pSARL_v2","pSARL_v24dqmxt3y","60933bb6e47eb28c880b93d9","fixation","img/fixation.png","null","","test","","","","","",""
"667","246171","pSARL_v2","pSARL_v24dqmxt3y","60933bb6e47eb28c880b93d9","freq","img/orange_2bandit_b2.png","70","70","test","1","38","38","2","",""
"null","246314","pSARL_v2","pSARL_v24dqmxt3y","60933bb6e47eb28c880b93d9","freq_resp","img/orange_2bandit_b.png","70","70","test","","","","2","",""
"null","246478","pSARL_v2","pSARL_v24dqmxt3y","60933bb6e47eb28c880b93d9","fixation","img/fixation.png","null","","test","","","","","",""
"374.7000000476837","246859","pSARL_v2","pSARL_v24dqmxt3y","60933bb6e47eb28c880b93d9","freq","img/orange_2bandit_b2.png","70","70","test","1","39","39","2","",""
"null","247302","pSARL_v2","pSARL_v24dqmxt3y","60933bb6e47eb28c880b93d9","freq_resp","img/orange_2bandit_b.png","70","70","test","","","","2","",""
"null","247480","pSARL_v2","pSARL_v24dqmxt3y","60933bb6e47eb28c880b93d9","fixation","img/fixation.png","null","","test","","","","","",""
"44.60000014305115","247530","pSARL_v2","pSARL_v24dqmxt3y","60933bb6e47eb28c880b93d9","freq","img/orange_2bandit_b2.png","70","70","test","1","40","40","2","",""
"null","248295","pSARL_v2","pSARL_v24dqmxt3y","60933bb6e47eb28c880b93d9","freq_resp","img/orange_2bandit_b.png","70","70","test","","","","2","",""
"null","248458","pSARL_v2","pSARL_v24dqmxt3y","60933bb6e47eb28c880b93d9","fixation","img/fixation.png","null","","test","","","","","",""
"2096.399999856949","250561","pSARL_v2","pSARL_v24dqmxt3y","60933bb6e47eb28c880b93d9","reward","img/slot.png","74","","test","","","","","",""
"null","251336","pSARL_v2","pSARL_v24dqmxt3y","60933bb6e47eb28c880b93d9","points","<div class=""verylowPoints""> -11 </div>","null","na","test","","","","2","-11","1"
"null","252161","pSARL_v2","pSARL_v24dqmxt3y","60933bb6e47eb28c880b93d9","freq","img/orange_2bandit_b2.png","null","70","test","0","41","41","3","",""
"null","252337","pSARL_v2","pSARL_v24dqmxt3y","60933bb6e47eb28c880b93d9","fixation","img/fixation.png","null","","test","","","","","",""
"null","253152","pSARL_v2","pSARL_v24dqmxt3y","60933bb6e47eb28c880b93d9","freq","img/orange_2bandit_b2.png","null","70","test","0","42","42","3","",""
"null","253321","pSARL_v2","pSARL_v24dqmxt3y","60933bb6e47eb28c880b93d9","fixation","img/fixation.png","null","","test","","","","","",""
"null","254131","pSARL_v2","pSARL_v24dqmxt3y","60933bb6e47eb28c880b93d9","freq","img/orange_2bandit_b2.png","null","70","test","0","43","43","3","",""
"null","254299","pSARL_v2","pSARL_v24dqmxt3y","60933bb6e47eb28c880b93d9","fixation","img/fixation.png","null","","test","","","","","",""
"55.90000009536743","254362","pSARL_v2","pSARL_v24dqmxt3y","60933bb6e47eb28c880b93d9","freq","img/orange_2bandit_b2.png","70","70","test","1","44","44","3","",""
"null","255125","pSARL_v2","pSARL_v24dqmxt3y","60933bb6e47eb28c880b93d9","freq_resp","img/orange_2bandit_b.png","70","70","test","","","","3","",""
"null","255284","pSARL_v2","pSARL_v24dqmxt3y","60933bb6e47eb28c880b93d9","fixation","img/fixation.png","null","","test","","","","","",""
"170.79999995231628","255461","pSARL_v2","pSARL_v24dqmxt3y","60933bb6e47eb28c880b93d9","freq","img/orange_2bandit_b2.png","70","70","test","1","45","45","3","",""
"null","256112","pSARL_v2","pSARL_v24dqmxt3y","60933bb6e47eb28c880b93d9","freq_resp","img/orange_2bandit_b.png","70","70","test","","","","3","",""
"null","256278","pSARL_v2","pSARL_v24dqmxt3y","60933bb6e47eb28c880b93d9","fixation","img/fixation.png","null","","test","","","","","",""
"197.5","256482","pSARL_v2","pSARL_v24dqmxt3y","60933bb6e47eb28c880b93d9","freq","img/orange_2bandit_b2.png","70","70","test","1","46","46","3","",""
"null","257096","pSARL_v2","pSARL_v24dqmxt3y","60933bb6e47eb28c880b93d9","freq_resp","img/orange_2bandit_b.png","70","70","test","","","","3","",""
"null","257263","pSARL_v2","pSARL_v24dqmxt3y","60933bb6e47eb28c880b93d9","fixation","img/fixation.png","null","","test","","","","","",""
"112.20000004768372","257383","pSARL_v2","pSARL_v24dqmxt3y","60933bb6e47eb28c880b93d9","freq","img/orange_2bandit_b2.png","70","70","test","1","47","47","3","",""
"null","258081","pSARL_v2","pSARL_v24dqmxt3y","60933bb6e47eb28c880b93d9","freq_resp","img/orange_2bandit_b.png","70","70","test","","","","3","",""
"null","258243","pSARL_v2","pSARL_v24dqmxt3y","60933bb6e47eb28c880b93d9","fixation","img/fixation.png","null","","test","","","","","",""
"171.89999985694885","258422","pSARL_v2","pSARL_v24dqmxt3y","60933bb6e47eb28c880b93d9","freq","img/orange_2bandit_b2.png","70","70","test","1","48","48","3","",""
"null","259063","pSARL_v2","pSARL_v24dqmxt3y","60933bb6e47eb28c880b93d9","freq_resp","img/orange_2bandit_b.png","70","70","test","","","","3","",""
"null","259240","pSARL_v2","pSARL_v24dqmxt3y","60933bb6e47eb28c880b93d9","fixation","img/fixation.png","null","","test","","","","","",""
"273.90000009536743","259521","pSARL_v2","pSARL_v24dqmxt3y","60933bb6e47eb28c880b93d9","freq","img/orange_2bandit_b2.png","70","70","test","1","49","49","3","",""
"null","260058","pSARL_v2","pSARL_v24dqmxt3y","60933bb6e47eb28c880b93d9","freq_resp","img/orange_2bandit_b.png","70","70","test","","","","3","",""
"null","260221","pSARL_v2","pSARL_v24dqmxt3y","60933bb6e47eb28c880b93d9","fixation","img/fixation.png","null","","test","","","","","",""
"193.39999985694885","260421","pSARL_v2","pSARL_v24dqmxt3y","60933bb6e47eb28c880b93d9","freq","img/orange_2bandit_b2.png","70","70","test","1","50","50","3","",""
"null","261050","pSARL_v2","pSARL_v24dqmxt3y","60933bb6e47eb28c880b93d9","freq_resp","img/orange_2bandit_b.png","70","70","test","","","","3","",""
"null","261215","pSARL_v2","pSARL_v24dqmxt3y","60933bb6e47eb28c880b93d9","fixation","img/fixation.png","null","","test","","","","","",""
"189.09999990463257","261410","pSARL_v2","pSARL_v24dqmxt3y","60933bb6e47eb28c880b93d9","freq","img/orange_2bandit_b2.png","70","70","test","1","51","51","3","",""
"null","262042","pSARL_v2","pSARL_v24dqmxt3y","60933bb6e47eb28c880b93d9","freq_resp","img/orange_2bandit_b.png","70","70","test","","","","3","",""
"null","262206","pSARL_v2","pSARL_v24dqmxt3y","60933bb6e47eb28c880b93d9","fixation","img/fixation.png","null","","test","","","","","",""
"357.40000009536743","262572","pSARL_v2","pSARL_v24dqmxt3y","60933bb6e47eb28c880b93d9","freq","img/orange_2bandit_b2.png","70","70","test","1","52","52","3","",""
"null","263036","pSARL_v2","pSARL_v24dqmxt3y","60933bb6e47eb28c880b93d9","freq_resp","img/orange_2bandit_b.png","70","70","test","","","","3","",""
"null","263203","pSARL_v2","pSARL_v24dqmxt3y","60933bb6e47eb28c880b93d9","fixation","img/fixation.png","null","","test","","","","","",""
"130.29999995231628","263339","pSARL_v2","pSARL_v24dqmxt3y","60933bb6e47eb28c880b93d9","freq","img/orange_2bandit_b2.png","70","70","test","1","53","53","3","",""
"null","264017","pSARL_v2","pSARL_v24dqmxt3y","60933bb6e47eb28c880b93d9","freq_resp","img/orange_2bandit_b.png","70","70","test","","","","3","",""
"null","264182","pSARL_v2","pSARL_v24dqmxt3y","60933bb6e47eb28c880b93d9","fixation","img/fixation.png","null","","test","","","","","",""
"62.799999952316284","264253","pSARL_v2","pSARL_v24dqmxt3y","60933bb6e47eb28c880b93d9","freq","img/orange_2bandit_b2.png","70","70","test","1","54","54","3","",""
"null","264997","pSARL_v2","pSARL_v24dqmxt3y","60933bb6e47eb28c880b93d9","freq_resp","img/orange_2bandit_b.png","70","70","test","","","","3","",""
"null","265162","pSARL_v2","pSARL_v24dqmxt3y","60933bb6e47eb28c880b93d9","fixation","img/fixation.png","null","","test","","","","","",""
"242.29999995231628","265413","pSARL_v2","pSARL_v24dqmxt3y","60933bb6e47eb28c880b93d9","freq","img/orange_2bandit_b2.png","70","70","test","1","55","55","3","",""
"null","265981","pSARL_v2","pSARL_v24dqmxt3y","60933bb6e47eb28c880b93d9","freq_resp","img/orange_2bandit_b.png","70","70","test","","","","3","",""
"null","266151","pSARL_v2","pSARL_v24dqmxt3y","60933bb6e47eb28c880b93d9","fixation","img/fixation.png","null","","test","","","","","",""
"193.09999990463257","266349","pSARL_v2","pSARL_v24dqmxt3y","60933bb6e47eb28c880b93d9","infreq","img/green_2bandit_b2.png","70","68","test","0","56","56","3","",""
"null","266966","pSARL_v2","pSARL_v24dqmxt3y","60933bb6e47eb28c880b93d9","infreq_resp","img/green_2bandit_b.png","70","68","test","","","","3","",""
"null","267136","pSARL_v2","pSARL_v24dqmxt3y","60933bb6e47eb28c880b93d9","fixation","img/fixation.png","null","","test","","","","","",""
"158","267301","pSARL_v2","pSARL_v24dqmxt3y","60933bb6e47eb28c880b93d9","freq","img/orange_2bandit_b2.png","68","70","test","0","57","57","3","",""
"null","267958","pSARL_v2","pSARL_v24dqmxt3y","60933bb6e47eb28c880b93d9","freq_resp","img/orange_2bandit_b.png","68","70","test","","","","3","",""
"null","268126","pSARL_v2","pSARL_v24dqmxt3y","60933bb6e47eb28c880b93d9","fixation","img/fixation.png","null","","test","","","","","",""
"275.59999990463257","268411","pSARL_v2","pSARL_v24dqmxt3y","60933bb6e47eb28c880b93d9","freq","img/orange_2bandit_b2.png","70","70","test","1","58","58","3","",""
"null","268956","pSARL_v2","pSARL_v24dqmxt3y","60933bb6e47eb28c880b93d9","freq_resp","img/orange_2bandit_b.png","70","70","test","","","","3","",""
"null","269128","pSARL_v2","pSARL_v24dqmxt3y","60933bb6e47eb28c880b93d9","fixation","img/fixation.png","null","","test","","","","","",""
"65.39999985694885","269199","pSARL_v2","pSARL_v24dqmxt3y","60933bb6e47eb28c880b93d9","freq","img/orange_2bandit_b2.png","70","70","test","1","59","59","3","",""
"null","269950","pSARL_v2","pSARL_v24dqmxt3y","60933bb6e47eb28c880b93d9","freq_resp","img/orange_2bandit_b.png","70","70","test","","","","3","",""
"null","270116","pSARL_v2","pSARL_v24dqmxt3y","60933bb6e47eb28c880b93d9","fixation","img/fixation.png","null","","test","","","","","",""
"37.40000009536743","270163","pSARL_v2","pSARL_v24dqmxt3y","60933bb6e47eb28c880b93d9","infreq","img/green_2bandit_b2.png","70","68","test","0","60","60","3","",""
"null","270938","pSARL_v2","pSARL_v24dqmxt3y","60933bb6e47eb28c880b93d9","infreq_resp","img/green_2bandit_b.png","70","68","test","","","","3","",""
"null","271098","pSARL_v2","pSARL_v24dqmxt3y","60933bb6e47eb28c880b93d9","fixation","img/fixation.png","null","","test","","","","","",""
"155.90000009536743","271260","pSARL_v2","pSARL_v24dqmxt3y","60933bb6e47eb28c880b93d9","freq","img/orange_2bandit_b2.png","70","70","test","1","61","61","3","",""
"null","271911","pSARL_v2","pSARL_v24dqmxt3y","60933bb6e47eb28c880b93d9","freq_resp","img/orange_2bandit_b.png","70","70","test","","","","3","",""
"null","272076","pSARL_v2","pSARL_v24dqmxt3y","60933bb6e47eb28c880b93d9","fixation","img/fixation.png","null","","test","","","","","",""
"0.2999999523162842","272082","pSARL_v2","pSARL_v24dqmxt3y","60933bb6e47eb28c880b93d9","freq","img/orange_2bandit_b2.png","70","70","test","1","62","62","3","",""
"null","272897","pSARL_v2","pSARL_v24dqmxt3y","60933bb6e47eb28c880b93d9","freq_resp","img/orange_2bandit_b.png","70","70","test","","","","3","",""
"null","273065","pSARL_v2","pSARL_v24dqmxt3y","60933bb6e47eb28c880b93d9","fixation","img/fixation.png","null","","test","","","","","",""
"1858.7000000476837","274931","pSARL_v2","pSARL_v24dqmxt3y","60933bb6e47eb28c880b93d9","reward","img/slot.png","74","","test","","","","","",""
"null","275704","pSARL_v2","pSARL_v24dqmxt3y","60933bb6e47eb28c880b93d9","points","<div class=""verylowPoints""> -7 </div>","null","na","test","","","","3","-7","2"
"null","276531","pSARL_v2","pSARL_v24dqmxt3y","60933bb6e47eb28c880b93d9","freq","img/orange_2bandit_b2.png","null","70","test","0","63","63","4","",""
"null","276704","pSARL_v2","pSARL_v24dqmxt3y","60933bb6e47eb28c880b93d9","fixation","img/fixation.png","null","","test","","","","","",""
"540","277251","pSARL_v2","pSARL_v24dqmxt3y","60933bb6e47eb28c880b93d9","infreq","img/green_2bandit_b2.png","70","68","test","0","64","64","4","",""
"null","277527","pSARL_v2","pSARL_v24dqmxt3y","60933bb6e47eb28c880b93d9","infreq_resp","img/green_2bandit_b.png","70","68","test","","","","4","",""
"null","277693","pSARL_v2","pSARL_v24dqmxt3y","60933bb6e47eb28c880b93d9","fixation","img/fixation.png","null","","test","","","","","",""
"401.69999980926514","278101","pSARL_v2","pSARL_v24dqmxt3y","60933bb6e47eb28c880b93d9","freq","img/orange_2bandit_b2.png","70","70","test","1","65","65","4","",""
"null","278513","pSARL_v2","pSARL_v24dqmxt3y","60933bb6e47eb28c880b93d9","freq_resp","img/orange_2bandit_b.png","70","70","test","","","","4","",""
"null","278673","pSARL_v2","pSARL_v24dqmxt3y","60933bb6e47eb28c880b93d9","fixation","img/fixation.png","null","","test","","","","","",""
"50.299999952316284","278736","pSARL_v2","pSARL_v24dqmxt3y","60933bb6e47eb28c880b93d9","freq","img/orange_2bandit_b2.png","70","70","test","1","66","66","4","",""
"null","279500","pSARL_v2","pSARL_v24dqmxt3y","60933bb6e47eb28c880b93d9","freq_resp","img/orange_2bandit_b.png","70","70","test","","","","4","",""
"null","279660","pSARL_v2","pSARL_v24dqmxt3y","60933bb6e47eb28c880b93d9","fixation","img/fixation.png","null","","test","","","","","",""
"62.799999952316284","279729","pSARL_v2","pSARL_v24dqmxt3y","60933bb6e47eb28c880b93d9","freq","img/orange_2bandit_b2.png","70","70","test","1","67","67","4","",""
"null","280484","pSARL_v2","pSARL_v24dqmxt3y","60933bb6e47eb28c880b93d9","freq_resp","img/orange_2bandit_b.png","70","70","test","","","","4","",""
"null","280642","pSARL_v2","pSARL_v24dqmxt3y","60933bb6e47eb28c880b93d9","fixation","img/fixation.png","null","","test","","","","","",""
"112","280761","pSARL_v2","pSARL_v24dqmxt3y","60933bb6e47eb28c880b93d9","infreq","img/green_2bandit_b2.png","70","68","test","0","68","68","4","",""
"null","281461","pSARL_v2","pSARL_v24dqmxt3y","60933bb6e47eb28c880b93d9","infreq_resp","img/green_2bandit_b.png","70","68","test","","","","4","",""
"null","281634","pSARL_v2","pSARL_v24dqmxt3y","60933bb6e47eb28c880b93d9","fixation","img/fixation.png","null","","test","","","","","",""
"278.5","281920","pSARL_v2","pSARL_v24dqmxt3y","60933bb6e47eb28c880b93d9","freq","img/orange_2bandit_b2.png","68","70","test","0","69","69","4","",""
"null","282454","pSARL_v2","pSARL_v24dqmxt3y","60933bb6e47eb28c880b93d9","freq_resp","img/orange_2bandit_b.png","68","70","test","","","","4","",""
"null","282619","pSARL_v2","pSARL_v24dqmxt3y","60933bb6e47eb28c880b93d9","fixation","img/fixation.png","null","","test","","","","","",""
"33.700000047683716","282658","pSARL_v2","pSARL_v24dqmxt3y","60933bb6e47eb28c880b93d9","freq","img/orange_2bandit_b2.png","70","70","test","1","70","70","4","",""
"null","283431","pSARL_v2","pSARL_v24dqmxt3y","60933bb6e47eb28c880b93d9","freq_resp","img/orange_2bandit_b.png","70","70","test","","","","4","",""
"null","283598","pSARL_v2","pSARL_v24dqmxt3y","60933bb6e47eb28c880b93d9","fixation","img/fixation.png","null","","test","","","","","",""
"15.299999952316284","283618","pSARL_v2","pSARL_v24dqmxt3y","60933bb6e47eb28c880b93d9","freq","img/orange_2bandit_b2.png","70","70","test","1","71","71","4","",""
"null","284408","pSARL_v2","pSARL_v24dqmxt3y","60933bb6e47eb28c880b93d9","freq_resp","img/orange_2bandit_b.png","70","70","test","","","","4","",""
"null","284575","pSARL_v2","pSARL_v24dqmxt3y","60933bb6e47eb28c880b93d9","fixation","img/fixation.png","null","","test","","","","","",""
"138.79999995231628","284722","pSARL_v2","pSARL_v24dqmxt3y","60933bb6e47eb28c880b93d9","freq","img/orange_2bandit_b2.png","70","70","test","1","72","72","4","",""
"null","285397","pSARL_v2","pSARL_v24dqmxt3y","60933bb6e47eb28c880b93d9","freq_resp","img/orange_2bandit_b.png","70","70","test","","","","4","",""
"null","285570","pSARL_v2","pSARL_v24dqmxt3y","60933bb6e47eb28c880b93d9","fixation","img/fixation.png","null","","test","","","","","",""
"723","286299","pSARL_v2","pSARL_v24dqmxt3y","60933bb6e47eb28c880b93d9","freq","img/orange_2bandit_b2.png","70","70","test","1","73","73","4","",""
"null","286395","pSARL_v2","pSARL_v24dqmxt3y","60933bb6e47eb28c880b93d9","freq_resp","img/orange_2bandit_b.png","70","70","test","","","","4","",""
"null","286559","pSARL_v2","pSARL_v24dqmxt3y","60933bb6e47eb28c880b93d9","fixation","img/fixation.png","null","","test","","","","","",""
"412.90000009536743","286976","pSARL_v2","pSARL_v24dqmxt3y","60933bb6e47eb28c880b93d9","freq","img/orange_2bandit_b2.png","70","70","test","1","74","74","4","",""
"null","287385","pSARL_v2","pSARL_v24dqmxt3y","60933bb6e47eb28c880b93d9","freq_resp","img/orange_2bandit_b.png","70","70","test","","","","4","",""
"null","287555","pSARL_v2","pSARL_v24dqmxt3y","60933bb6e47eb28c880b93d9","fixation","img/fixation.png","null","","test","","","","","",""
"396.59999990463257","287959","pSARL_v2","pSARL_v24dqmxt3y","60933bb6e47eb28c880b93d9","freq","img/orange_2bandit_b2.png","70","70","test","1","75","75","4","",""
"null","288383","pSARL_v2","pSARL_v24dqmxt3y","60933bb6e47eb28c880b93d9","freq_resp","img/orange_2bandit_b.png","70","70","test","","","","4","",""
"null","288556","pSARL_v2","pSARL_v24dqmxt3y","60933bb6e47eb28c880b93d9","fixation","img/fixation.png","null","","test","","","","","",""
"595.0999999046326","289156","pSARL_v2","pSARL_v24dqmxt3y","60933bb6e47eb28c880b93d9","freq","img/orange_2bandit_b2.png","70","70","test","1","76","76","4","",""
"null","289373","pSARL_v2","pSARL_v24dqmxt3y","60933bb6e47eb28c880b93d9","freq_resp","img/orange_2bandit_b.png","70","70","test","","","","4","",""
"null","289549","pSARL_v2","pSARL_v24dqmxt3y","60933bb6e47eb28c880b93d9","fixation","img/fixation.png","null","","test","","","","","",""
"682.3000001907349","290237","pSARL_v2","pSARL_v24dqmxt3y","60933bb6e47eb28c880b93d9","freq","img/orange_2bandit_b2.png","70","70","test","1","77","77","4","",""
"null","290363","pSARL_v2","pSARL_v24dqmxt3y","60933bb6e47eb28c880b93d9","freq_resp","img/orange_2bandit_b.png","70","70","test","","","","4","",""
"null","290535","pSARL_v2","pSARL_v24dqmxt3y","60933bb6e47eb28c880b93d9","fixation","img/fixation.png","null","","test","","","","","",""
"null","291359","pSARL_v2","pSARL_v24dqmxt3y","60933bb6e47eb28c880b93d9","freq","img/orange_2bandit_b2.png","null","70","test","0","78","78","4","",""
"null","291533","pSARL_v2","pSARL_v24dqmxt3y","60933bb6e47eb28c880b93d9","fixation","img/fixation.png","null","","test","","","","","",""
"458","291996","pSARL_v2","pSARL_v24dqmxt3y","60933bb6e47eb28c880b93d9","freq","img/orange_2bandit_b2.png","70","70","test","1","79","79","4","",""
"null","292350","pSARL_v2","pSARL_v24dqmxt3y","60933bb6e47eb28c880b93d9","freq_resp","img/orange_2bandit_b.png","70","70","test","","","","4","",""
"null","292520","pSARL_v2","pSARL_v24dqmxt3y","60933bb6e47eb28c880b93d9","fixation","img/fixation.png","null","","test","","","","","",""
"691.7000000476837","293220","pSARL_v2","pSARL_v24dqmxt3y","60933bb6e47eb28c880b93d9","freq","img/orange_2bandit_b2.png","70","70","test","1","80","80","4","",""
"null","293348","pSARL_v2","pSARL_v24dqmxt3y","60933bb6e47eb28c880b93d9","freq_resp","img/orange_2bandit_b.png","70","70","test","","","","4","",""
"null","293516","pSARL_v2","pSARL_v24dqmxt3y","60933bb6e47eb28c880b93d9","fixation","img/fixation.png","null","","test","","","","","",""
"775.7000000476837","294299","pSARL_v2","pSARL_v24dqmxt3y","60933bb6e47eb28c880b93d9","freq","img/orange_2bandit_b2.png","70","70","test","1","81","81","4","",""
"null","294336","pSARL_v2","pSARL_v24dqmxt3y","60933bb6e47eb28c880b93d9","freq_resp","img/orange_2bandit_b.png","70","70","test","","","","4","",""
"null","294511","pSARL_v2","pSARL_v24dqmxt3y","60933bb6e47eb28c880b93d9","fixation","img/fixation.png","null","","test","","","","","",""
"719.7999999523163","295237","pSARL_v2","pSARL_v24dqmxt3y","60933bb6e47eb28c880b93d9","freq","img/orange_2bandit_b2.png","70","70","test","1","82","82","4","",""
"null","295336","pSARL_v2","pSARL_v24dqmxt3y","60933bb6e47eb28c880b93d9","freq_resp","img/orange_2bandit_b.png","70","70","test","","","","4","",""
"null","295498","pSARL_v2","pSARL_v24dqmxt3y","60933bb6e47eb28c880b93d9","fixation","img/fixation.png","null","","test","","","","","",""
"533.1000001430511","296037","pSARL_v2","pSARL_v24dqmxt3y","60933bb6e47eb28c880b93d9","freq","img/orange_2bandit_b2.png","70","70","test","1","83","83","4","",""
"null","296314","pSARL_v2","pSARL_v24dqmxt3y","60933bb6e47eb28c880b93d9","freq_resp","img/orange_2bandit_b.png","70","70","test","","","","4","",""
"null","296490","pSARL_v2","pSARL_v24dqmxt3y","60933bb6e47eb28c880b93d9","fixation","img/fixation.png","null","","test","","","","","",""
"1731","298229","pSARL_v2","pSARL_v24dqmxt3y","60933bb6e47eb28c880b93d9","reward","img/slot.png","74","","test","","","","","",""
"null","298999","pSARL_v2","pSARL_v24dqmxt3y","60933bb6e47eb28c880b93d9","points","<div class=""verylowPoints""> -3 </div>","null","na","test","","","","4","-3","3"
"732.0999999046326","299735","pSARL_v2","pSARL_v24dqmxt3y","60933bb6e47eb28c880b93d9","freq","img/orange_2bandit_b2.png","70","70","test","1","84","84","5","",""
"null","299811","pSARL_v2","pSARL_v24dqmxt3y","60933bb6e47eb28c880b93d9","freq_resp","img/orange_2bandit_b.png","70","70","test","","","","5","",""
"null","299994","pSARL_v2","pSARL_v24dqmxt3y","60933bb6e47eb28c880b93d9","fixation","img/fixation.png","null","","test","","","","","",""
"1","300003","pSARL_v2","pSARL_v24dqmxt3y","60933bb6e47eb28c880b93d9","freq","img/orange_2bandit_b2.png","70","70","test","1","85","85","5","",""
"null","300811","pSARL_v2","pSARL_v24dqmxt3y","60933bb6e47eb28c880b93d9","freq_resp","img/orange_2bandit_b.png","70","70","test","","","","5","",""
"null","300983","pSARL_v2","pSARL_v24dqmxt3y","60933bb6e47eb28c880b93d9","fixation","img/fixation.png","null","","test","","","","","",""
"108.5","301099","pSARL_v2","pSARL_v24dqmxt3y","60933bb6e47eb28c880b93d9","freq","img/orange_2bandit_b2.png","70","70","test","1","86","86","5","",""
"null","301809","pSARL_v2","pSARL_v24dqmxt3y","60933bb6e47eb28c880b93d9","freq_resp","img/orange_2bandit_b.png","70","70","test","","","","5","",""
"null","301970","pSARL_v2","pSARL_v24dqmxt3y","60933bb6e47eb28c880b93d9","fixation","img/fixation.png","null","","test","","","","","",""
"251.20000004768372","302227","pSARL_v2","pSARL_v24dqmxt3y","60933bb6e47eb28c880b93d9","freq","img/orange_2bandit_b2.png","70","70","test","1","87","87","5","",""
"null","302791","pSARL_v2","pSARL_v24dqmxt3y","60933bb6e47eb28c880b93d9","freq_resp","img/orange_2bandit_b.png","70","70","test","","","","5","",""
"null","302947","pSARL_v2","pSARL_v24dqmxt3y","60933bb6e47eb28c880b93d9","fixation","img/fixation.png","null","","test","","","","","",""
"14.900000095367432","302967","pSARL_v2","pSARL_v24dqmxt3y","60933bb6e47eb28c880b93d9","freq","img/orange_2bandit_b2.png","70","70","test","1","88","88","5","",""
"null","303763","pSARL_v2","pSARL_v24dqmxt3y","60933bb6e47eb28c880b93d9","freq_resp","img/orange_2bandit_b.png","70","70","test","","","","5","",""
"null","303928","pSARL_v2","pSARL_v24dqmxt3y","60933bb6e47eb28c880b93d9","fixation","img/fixation.png","null","","test","","","","","",""
"52.19999980926514","303986","pSARL_v2","pSARL_v24dqmxt3y","60933bb6e47eb28c880b93d9","freq","img/orange_2bandit_b2.png","70","70","test","1","89","89","5","",""
"null","304749","pSARL_v2","pSARL_v24dqmxt3y","60933bb6e47eb28c880b93d9","freq_resp","img/orange_2bandit_b.png","70","70","test","","","","5","",""
"null","304915","pSARL_v2","pSARL_v24dqmxt3y","60933bb6e47eb28c880b93d9","fixation","img/fixation.png","null","","test","","","","","",""
"115.79999995231628","305036","pSARL_v2","pSARL_v24dqmxt3y","60933bb6e47eb28c880b93d9","freq","img/orange_2bandit_b2.png","70","70","test","1","90","90","5","",""
"null","305732","pSARL_v2","pSARL_v24dqmxt3y","60933bb6e47eb28c880b93d9","freq_resp","img/orange_2bandit_b.png","70","70","test","","","","5","",""
"null","305892","pSARL_v2","pSARL_v24dqmxt3y","60933bb6e47eb28c880b93d9","fixation","img/fixation.png","null","","test","","","","","",""
"68.5","305966","pSARL_v2","pSARL_v24dqmxt3y","60933bb6e47eb28c880b93d9","freq","img/orange_2bandit_b2.png","70","70","test","1","91","91","5","",""
"null","306715","pSARL_v2","pSARL_v24dqmxt3y","60933bb6e47eb28c880b93d9","freq_resp","img/orange_2bandit_b.png","70","70","test","","","","5","",""
"null","306885","pSARL_v2","pSARL_v24dqmxt3y","60933bb6e47eb28c880b93d9","fixation","img/fixation.png","null","","test","","","","","",""
"426.2999999523163","307320","pSARL_v2","pSARL_v24dqmxt3y","60933bb6e47eb28c880b93d9","freq","img/orange_2bandit_b2.png","70","70","test","1","92","92","5","",""
"null","307707","pSARL_v2","pSARL_v24dqmxt3y","60933bb6e47eb28c880b93d9","freq_resp","img/orange_2bandit_b.png","70","70","test","","","","5","",""
"null","307877","pSARL_v2","pSARL_v24dqmxt3y","60933bb6e47eb28c880b93d9","fixation","img/fixation.png","null","","test","","","","","",""
"483.7999999523163","308368","pSARL_v2","pSARL_v24dqmxt3y","60933bb6e47eb28c880b93d9","freq","img/orange_2bandit_b2.png","70","70","test","1","93","93","5","",""
"null","308709","pSARL_v2","pSARL_v24dqmxt3y","60933bb6e47eb28c880b93d9","freq_resp","img/orange_2bandit_b.png","70","70","test","","","","5","",""
"null","308885","pSARL_v2","pSARL_v24dqmxt3y","60933bb6e47eb28c880b93d9","fixation","img/fixation.png","null","","test","","","","","",""
"207.20000004768372","309100","pSARL_v2","pSARL_v24dqmxt3y","60933bb6e47eb28c880b93d9","freq","img/orange_2bandit_b2.png","70","70","test","1","94","94","5","",""
"null","309711","pSARL_v2","pSARL_v24dqmxt3y","60933bb6e47eb28c880b93d9","freq_resp","img/orange_2bandit_b.png","70","70","test","","","","5","",""
"null","309884","pSARL_v2","pSARL_v24dqmxt3y","60933bb6e47eb28c880b93d9","fixation","img/fixation.png","null","","test","","","","","",""
"null","310707","pSARL_v2","pSARL_v24dqmxt3y","60933bb6e47eb28c880b93d9","freq","img/orange_2bandit_b2.png","null","70","test","0","95","95","5","",""
"null","310877","pSARL_v2","pSARL_v24dqmxt3y","60933bb6e47eb28c880b93d9","fixation","img/fixation.png","null","","test","","","","","",""
"743.7000000476837","311628","pSARL_v2","pSARL_v24dqmxt3y","60933bb6e47eb28c880b93d9","freq","img/orange_2bandit_b2.png","70","70","test","1","96","96","5","",""
"null","311707","pSARL_v2","pSARL_v24dqmxt3y","60933bb6e47eb28c880b93d9","freq_resp","img/orange_2bandit_b.png","70","70","test","","","","5","",""
"null","311866","pSARL_v2","pSARL_v24dqmxt3y","60933bb6e47eb28c880b93d9","fixation","img/fixation.png","null","","test","","","","","",""
"null","312684","pSARL_v2","pSARL_v24dqmxt3y","60933bb6e47eb28c880b93d9","freq","img/orange_2bandit_b2.png","null","70","test","0","97","97","5","",""
"null","312845","pSARL_v2","pSARL_v24dqmxt3y","60933bb6e47eb28c880b93d9","fixation","img/fixation.png","null","","test","","","","","",""
"276.5","313128","pSARL_v2","pSARL_v24dqmxt3y","60933bb6e47eb28c880b93d9","freq","img/orange_2bandit_b2.png","70","70","test","1","98","98","5","",""
"null","313657","pSARL_v2","pSARL_v24dqmxt3y","60933bb6e47eb28c880b93d9","freq_resp","img/orange_2bandit_b.png","70","70","test","","","","5","",""
"null","313827","pSARL_v2","pSARL_v24dqmxt3y","60933bb6e47eb28c880b93d9","fixation","img/fixation.png","null","","test","","","","","",""
"null","314650","pSARL_v2","pSARL_v24dqmxt3y","60933bb6e47eb28c880b93d9","freq","img/orange_2bandit_b2.png","null","70","test","0","99","99","5","",""
"null","314819","pSARL_v2","pSARL_v24dqmxt3y","60933bb6e47eb28c880b93d9","fixation","img/fixation.png","null","","test","","","","","",""
"329.40000009536743","315155","pSARL_v2","pSARL_v24dqmxt3y","60933bb6e47eb28c880b93d9","infreq","img/green_2bandit_b2.png","70","68","test","0","100","100","5","",""
"null","315641","pSARL_v2","pSARL_v24dqmxt3y","60933bb6e47eb28c880b93d9","infreq_resp","img/green_2bandit_b.png","70","68","test","","","","5","",""
"null","315814","pSARL_v2","pSARL_v24dqmxt3y","60933bb6e47eb28c880b93d9","fixation","img/fixation.png","null","","test","","","","","",""
"575.8000001907349","316396","pSARL_v2","pSARL_v24dqmxt3y","60933bb6e47eb28c880b93d9","infreq","img/green_2bandit_b2.png","68","68","test","1","101","101","5","",""
"null","316637","pSARL_v2","pSARL_v24dqmxt3y","60933bb6e47eb28c880b93d9","infreq_resp","img/green_2bandit_b.png","68","68","test","","","","5","",""
"null","316807","pSARL_v2","pSARL_v24dqmxt3y","60933bb6e47eb28c880b93d9","fixation","img/fixation.png","null","","test","","","","","",""
"null","317625","pSARL_v2","pSARL_v24dqmxt3y","60933bb6e47eb28c880b93d9","freq","img/orange_2bandit_b2.png","null","70","test","0","102","102","5","",""
"null","317792","pSARL_v2","pSARL_v24dqmxt3y","60933bb6e47eb28c880b93d9","fixation","img/fixation.png","null","","test","","","","","",""
"358","318157","pSARL_v2","pSARL_v24dqmxt3y","60933bb6e47eb28c880b93d9","infreq","img/green_2bandit_b2.png","70","68","test","0","103","103","5","",""
"null","318616","pSARL_v2","pSARL_v24dqmxt3y","60933bb6e47eb28c880b93d9","infreq_resp","img/green_2bandit_b.png","70","68","test","","","","5","",""
"null","318779","pSARL_v2","pSARL_v24dqmxt3y","60933bb6e47eb28c880b93d9","fixation","img/fixation.png","null","","test","","","","","",""
"779.2000000476837","319565","pSARL_v2","pSARL_v24dqmxt3y","60933bb6e47eb28c880b93d9","freq","img/orange_2bandit_b2.png","70","70","test","1","104","104","5","",""
"null","319592","pSARL_v2","pSARL_v24dqmxt3y","60933bb6e47eb28c880b93d9","freq_resp","img/orange_2bandit_b.png","70","70","test","","","","5","",""
"null","319756","pSARL_v2","pSARL_v24dqmxt3y","60933bb6e47eb28c880b93d9","fixation","img/fixation.png","null","","test","","","","","",""
"314.39999985694885","320078","pSARL_v2","pSARL_v24dqmxt3y","60933bb6e47eb28c880b93d9","freq","img/orange_2bandit_b2.png","70","70","test","1","105","105","5","",""
"null","320579","pSARL_v2","pSARL_v24dqmxt3y","60933bb6e47eb28c880b93d9","freq_resp","img/orange_2bandit_b.png","70","70","test","","","","5","",""
"null","320738","pSARL_v2","pSARL_v24dqmxt3y","60933bb6e47eb28c880b93d9","fixation","img/fixation.png","null","","test","","","","","",""
"332.7000000476837","321079","pSARL_v2","pSARL_v24dqmxt3y","60933bb6e47eb28c880b93d9","freq","img/orange_2bandit_b2.png","70","70","test","1","106","106","5","",""
"null","321565","pSARL_v2","pSARL_v24dqmxt3y","60933bb6e47eb28c880b93d9","freq_resp","img/orange_2bandit_b.png","70","70","test","","","","5","",""
"null","321730","pSARL_v2","pSARL_v24dqmxt3y","60933bb6e47eb28c880b93d9","fixation","img/fixation.png","null","","test","","","","","",""
"1631.2999999523163","323370","pSARL_v2","pSARL_v24dqmxt3y","60933bb6e47eb28c880b93d9","reward","img/slot.png","74","","test","","","","","",""
"null","324140","pSARL_v2","pSARL_v24dqmxt3y","60933bb6e47eb28c880b93d9","points","<div class=""veryhighPoints""> +1 </div>","null","na","test","","","","5","1","4"
"null","324966","pSARL_v2","pSARL_v24dqmxt3y","60933bb6e47eb28c880b93d9","freq","img/orange_2bandit_b2.png","null","70","test","0","107","107","6","",""
"null","325138","pSARL_v2","pSARL_v24dqmxt3y","60933bb6e47eb28c880b93d9","fixation","img/fixation.png","null","","test","","","","","",""
"702.3999998569489","325848","pSARL_v2","pSARL_v24dqmxt3y","60933bb6e47eb28c880b93d9","freq","img/orange_2bandit_b2.png","70","70","test","1","108","108","6","",""
"null","325959","pSARL_v2","pSARL_v24dqmxt3y","60933bb6e47eb28c880b93d9","freq_resp","img/orange_2bandit_b.png","70","70","test","","","","6","",""
"null","326126","pSARL_v2","pSARL_v24dqmxt3y","60933bb6e47eb28c880b93d9","fixation","img/fixation.png","null","","test","","","","","",""
"65.40000009536743","326196","pSARL_v2","pSARL_v24dqmxt3y","60933bb6e47eb28c880b93d9","freq","img/orange_2bandit_b2.png","70","70","test","1","109","109","6","",""
"null","326946","pSARL_v2","pSARL_v24dqmxt3y","60933bb6e47eb28c880b93d9","freq_resp","img/orange_2bandit_b.png","70","70","test","","","","6","",""
"null","327108","pSARL_v2","pSARL_v24dqmxt3y","60933bb6e47eb28c880b93d9","fixation","img/fixation.png","null","","test","","","","","",""
"32.30000019073486","327145","pSARL_v2","pSARL_v24dqmxt3y","60933bb6e47eb28c880b93d9","freq","img/orange_2bandit_b2.png","70","70","test","1","110","110","6","",""
"null","327924","pSARL_v2","pSARL_v24dqmxt3y","60933bb6e47eb28c880b93d9","freq_resp","img/orange_2bandit_b.png","70","70","test","","","","6","",""
"null","328094","pSARL_v2","pSARL_v24dqmxt3y","60933bb6e47eb28c880b93d9","fixation","img/fixation.png","null","","test","","","","","",""
"6.300000190734863","328107","pSARL_v2","pSARL_v24dqmxt3y","60933bb6e47eb28c880b93d9","freq","img/orange_2bandit_b2.png","70","70","test","1","111","111","6","",""
"null","328910","pSARL_v2","pSARL_v24dqmxt3y","60933bb6e47eb28c880b93d9","freq_resp","img/orange_2bandit_b.png","70","70","test","","","","6","",""
"null","329075","pSARL_v2","pSARL_v24dqmxt3y","60933bb6e47eb28c880b93d9","fixation","img/fixation.png","null","","test","","","","","",""
"745.2000000476837","329826","pSARL_v2","pSARL_v24dqmxt3y","60933bb6e47eb28c880b93d9","freq","img/orange_2bandit_b2.png","70","70","test","1","112","112","6","",""
"null","329889","pSARL_v2","pSARL_v24dqmxt3y","60933bb6e47eb28c880b93d9","freq_resp","img/orange_2bandit_b.png","70","70","test","","","","6","",""
"null","330063","pSARL_v2","pSARL_v24dqmxt3y","60933bb6e47eb28c880b93d9","fixation","img/fixation.png","null","","test","","","","","",""
"289.19999980926514","330363","pSARL_v2","pSARL_v24dqmxt3y","60933bb6e47eb28c880b93d9","freq","img/orange_2bandit_b2.png","70","70","test","1","113","113","6","",""
"null","330887","pSARL_v2","pSARL_v24dqmxt3y","60933bb6e47eb28c880b93d9","freq_resp","img/orange_2bandit_b.png","70","70","test","","","","6","",""
"null","331064","pSARL_v2","pSARL_v24dqmxt3y","60933bb6e47eb28c880b93d9","fixation","img/fixation.png","null","","test","","","","","",""
"285.7999999523163","331358","pSARL_v2","pSARL_v24dqmxt3y","60933bb6e47eb28c880b93d9","freq","img/orange_2bandit_b2.png","70","70","test","1","114","114","6","",""
"null","331894","pSARL_v2","pSARL_v24dqmxt3y","60933bb6e47eb28c880b93d9","freq_resp","img/orange_2bandit_b.png","70","70","test","","","","6","",""
"null","332062","pSARL_v2","pSARL_v24dqmxt3y","60933bb6e47eb28c880b93d9","fixation","img/fixation.png","null","","test","","","","","",""
"188.60000014305115","332256","pSARL_v2","pSARL_v24dqmxt3y","60933bb6e47eb28c880b93d9","freq","img/orange_2bandit_b2.png","70","70","test","1","115","115","6","",""
"null","332883","pSARL_v2","pSARL_v24dqmxt3y","60933bb6e47eb28c880b93d9","freq_resp","img/orange_2bandit_b.png","70","70","test","","","","6","",""
"null","333053","pSARL_v2","pSARL_v24dqmxt3y","60933bb6e47eb28c880b93d9","fixation","img/fixation.png","null","","test","","","","","",""
"0.10000014305114746","333057","pSARL_v2","pSARL_v24dqmxt3y","60933bb6e47eb28c880b93d9","infreq","img/green_2bandit_b2.png","70","68","test","0","116","116","6","",""
"null","333866","pSARL_v2","pSARL_v24dqmxt3y","60933bb6e47eb28c880b93d9","infreq_resp","img/green_2bandit_b.png","70","68","test","","","","6","",""
"null","334025","pSARL_v2","pSARL_v24dqmxt3y","60933bb6e47eb28c880b93d9","fixation","img/fixation.png","null","","test","","","","","",""
"727.7999999523163","334768","pSARL_v2","pSARL_v24dqmxt3y","60933bb6e47eb28c880b93d9","freq","img/orange_2bandit_b2.png","70","70","test","1","117","117","6","",""
"null","334858","pSARL_v2","pSARL_v24dqmxt3y","60933bb6e47eb28c880b93d9","freq_resp","img/orange_2bandit_b.png","70","70","test","","","","6","",""
"null","335025","pSARL_v2","pSARL_v24dqmxt3y","60933bb6e47eb28c880b93d9","fixation","img/fixation.png","null","","test","","","","","",""
"74","335104","pSARL_v2","pSARL_v24dqmxt3y","60933bb6e47eb28c880b93d9","infreq","img/green_2bandit_b2.png","70","68","test","0","118","118","6","",""
"null","335846","pSARL_v2","pSARL_v24dqmxt3y","60933bb6e47eb28c880b93d9","infreq_resp","img/green_2bandit_b.png","70","68","test","","","","6","",""
"null","336008","pSARL_v2","pSARL_v24dqmxt3y","60933bb6e47eb28c880b93d9","fixation","img/fixation.png","null","","test","","","","","",""
"212.5","336225","pSARL_v2","pSARL_v24dqmxt3y","60933bb6e47eb28c880b93d9","freq","img/orange_2bandit_b2.png","70","70","test","1","119","119","6","",""
"null","336824","pSARL_v2","pSARL_v24dqmxt3y","60933bb6e47eb28c880b93d9","freq_resp","img/orange_2bandit_b.png","70","70","test","","","","6","",""
"null","336994","pSARL_v2","pSARL_v24dqmxt3y","60933bb6e47eb28c880b93d9","fixation","img/fixation.png","null","","test","","","","","",""
"125.90000009536743","337126","pSARL_v2","pSARL_v24dqmxt3y","60933bb6e47eb28c880b93d9","freq","img/orange_2bandit_b2.png","70","70","test","1","120","120","6","",""
"null","337818","pSARL_v2","pSARL_v24dqmxt3y","60933bb6e47eb28c880b93d9","freq_resp","img/orange_2bandit_b.png","70","70","test","","","","6","",""
"null","337988","pSARL_v2","pSARL_v24dqmxt3y","60933bb6e47eb28c880b93d9","fixation","img/fixation.png","null","","test","","","","","",""
"11.200000047683716","338011","pSARL_v2","pSARL_v24dqmxt3y","60933bb6e47eb28c880b93d9","freq","img/orange_2bandit_b2.png","70","70","test","1","121","121","6","",""
"null","338809","pSARL_v2","pSARL_v24dqmxt3y","60933bb6e47eb28c880b93d9","freq_resp","img/orange_2bandit_b.png","70","70","test","","","","6","",""
"null","338977","pSARL_v2","pSARL_v24dqmxt3y","60933bb6e47eb28c880b93d9","fixation","img/fixation.png","null","","test","","","","","",""
"192.09999990463257","339175","pSARL_v2","pSARL_v24dqmxt3y","60933bb6e47eb28c880b93d9","freq","img/orange_2bandit_b2.png","70","70","test","1","122","122","6","",""
"null","339794","pSARL_v2","pSARL_v24dqmxt3y","60933bb6e47eb28c880b93d9","freq_resp","img/orange_2bandit_b.png","70","70","test","","","","6","",""
"null","339961","pSARL_v2","pSARL_v24dqmxt3y","60933bb6e47eb28c880b93d9","fixation","img/fixation.png","null","","test","","","","","",""
"598.7999999523163","340567","pSARL_v2","pSARL_v24dqmxt3y","60933bb6e47eb28c880b93d9","freq","img/orange_2bandit_b2.png","70","70","test","1","123","123","6","",""
"null","340790","pSARL_v2","pSARL_v24dqmxt3y","60933bb6e47eb28c880b93d9","freq_resp","img/orange_2bandit_b.png","70","70","test","","","","6","",""
"null","340961","pSARL_v2","pSARL_v24dqmxt3y","60933bb6e47eb28c880b93d9","fixation","img/fixation.png","null","","test","","","","","",""
"429.19999980926514","341397","pSARL_v2","pSARL_v24dqmxt3y","60933bb6e47eb28c880b93d9","freq","img/orange_2bandit_b2.png","70","70","test","1","124","124","6","",""
"null","341777","pSARL_v2","pSARL_v24dqmxt3y","60933bb6e47eb28c880b93d9","freq_resp","img/orange_2bandit_b.png","70","70","test","","","","6","",""
"null","341950","pSARL_v2","pSARL_v24dqmxt3y","60933bb6e47eb28c880b93d9","fixation","img/fixation.png","null","","test","","","","","",""
"279.5","342236","pSARL_v2","pSARL_v24dqmxt3y","60933bb6e47eb28c880b93d9","freq","img/orange_2bandit_b2.png","70","70","test","1","125","125","6","",""
"null","342775","pSARL_v2","pSARL_v24dqmxt3y","60933bb6e47eb28c880b93d9","freq_resp","img/orange_2bandit_b.png","70","70","test","","","","6","",""
"null","342943","pSARL_v2","pSARL_v24dqmxt3y","60933bb6e47eb28c880b93d9","fixation","img/fixation.png","null","","test","","","","","",""
"161.80000019073486","343110","pSARL_v2","pSARL_v24dqmxt3y","60933bb6e47eb28c880b93d9","freq","img/orange_2bandit_b2.png","70","70","test","1","126","126","6","",""
"null","343759","pSARL_v2","pSARL_v24dqmxt3y","60933bb6e47eb28c880b93d9","freq_resp","img/orange_2bandit_b.png","70","70","test","","","","6","",""
"null","343934","pSARL_v2","pSARL_v24dqmxt3y","60933bb6e47eb28c880b93d9","fixation","img/fixation.png","null","","test","","","","","",""
"65.90000009536743","344007","pSARL_v2","pSARL_v24dqmxt3y","60933bb6e47eb28c880b93d9","freq","img/orange_2bandit_b2.png","70","70","test","1","127","127","6","",""
"null","344755","pSARL_v2","pSARL_v24dqmxt3y","60933bb6e47eb28c880b93d9","freq_resp","img/orange_2bandit_b.png","70","70","test","","","","6","",""
"null","344923","pSARL_v2","pSARL_v24dqmxt3y","60933bb6e47eb28c880b93d9","fixation","img/fixation.png","null","","test","","","","","",""
"16.399999856948853","344944","pSARL_v2","pSARL_v24dqmxt3y","60933bb6e47eb28c880b93d9","freq","img/orange_2bandit_b2.png","70","70","test","1","128","128","6","",""
"null","345749","pSARL_v2","pSARL_v24dqmxt3y","60933bb6e47eb28c880b93d9","freq_resp","img/orange_2bandit_b.png","70","70","test","","","","6","",""
"null","345917","pSARL_v2","pSARL_v24dqmxt3y","60933bb6e47eb28c880b93d9","fixation","img/fixation.png","null","","test","","","","","",""
"772.5","346697","pSARL_v2","pSARL_v24dqmxt3y","60933bb6e47eb28c880b93d9","freq","img/orange_2bandit_b2.png","70","70","test","1","129","129","6","",""
"null","346731","pSARL_v2","pSARL_v24dqmxt3y","60933bb6e47eb28c880b93d9","freq_resp","img/orange_2bandit_b.png","70","70","test","","","","6","",""
"null","346891","pSARL_v2","pSARL_v24dqmxt3y","60933bb6e47eb28c880b93d9","fixation","img/fixation.png","null","","test","","","","","",""
"2180.5","349078","pSARL_v2","pSARL_v24dqmxt3y","60933bb6e47eb28c880b93d9","reward","img/slot.png","74","","test","","","","","",""
"null","349849","pSARL_v2","pSARL_v24dqmxt3y","60933bb6e47eb28c880b93d9","points","<div class=""verylowPoints""> -7 </div>","null","na","test","","","","6","-7","5"
"null","350671","pSARL_v2","pSARL_v24dqmxt3y","60933bb6e47eb28c880b93d9","freq","img/orange_2bandit_b2.png","null","70","test","0","130","130","7","",""
"null","350845","pSARL_v2","pSARL_v24dqmxt3y","60933bb6e47eb28c880b93d9","fixation","img/fixation.png","null","","test","","","","","",""
"57.09999990463257","350909","pSARL_v2","pSARL_v24dqmxt3y","60933bb6e47eb28c880b93d9","freq","img/orange_2bandit_b2.png","70","70","test","1","131","131","7","",""
"null","351658","pSARL_v2","pSARL_v24dqmxt3y","60933bb6e47eb28c880b93d9","freq_resp","img/orange_2bandit_b.png","70","70","test","","","","7","",""
"null","351829","pSARL_v2","pSARL_v24dqmxt3y","60933bb6e47eb28c880b93d9","fixation","img/fixation.png","null","","test","","","","","",""
"22.09999990463257","351856","pSARL_v2","pSARL_v24dqmxt3y","60933bb6e47eb28c880b93d9","freq","img/orange_2bandit_b2.png","70","70","test","1","132","132","7","",""
"null","352644","pSARL_v2","pSARL_v24dqmxt3y","60933bb6e47eb28c880b93d9","freq_resp","img/orange_2bandit_b.png","70","70","test","","","","7","",""
"null","352809","pSARL_v2","pSARL_v24dqmxt3y","60933bb6e47eb28c880b93d9","fixation","img/fixation.png","null","","test","","","","","",""
"35.799999952316284","352856","pSARL_v2","pSARL_v24dqmxt3y","60933bb6e47eb28c880b93d9","freq","img/orange_2bandit_b2.png","70","70","test","1","133","133","7","",""
"null","353639","pSARL_v2","pSARL_v24dqmxt3y","60933bb6e47eb28c880b93d9","freq_resp","img/orange_2bandit_b.png","70","70","test","","","","7","",""
"null","353815","pSARL_v2","pSARL_v24dqmxt3y","60933bb6e47eb28c880b93d9","fixation","img/fixation.png","null","","test","","","","","",""
"176.39999985694885","353996","pSARL_v2","pSARL_v24dqmxt3y","60933bb6e47eb28c880b93d9","freq","img/orange_2bandit_b2.png","70","70","test","1","134","134","7","",""
"null","354640","pSARL_v2","pSARL_v24dqmxt3y","60933bb6e47eb28c880b93d9","freq_resp","img/orange_2bandit_b.png","70","70","test","","","","7","",""
"null","354804","pSARL_v2","pSARL_v24dqmxt3y","60933bb6e47eb28c880b93d9","fixation","img/fixation.png","null","","test","","","","","",""
"128.10000014305115","354938","pSARL_v2","pSARL_v24dqmxt3y","60933bb6e47eb28c880b93d9","freq","img/orange_2bandit_b2.png","70","70","test","1","135","135","7","",""
"null","355620","pSARL_v2","pSARL_v24dqmxt3y","60933bb6e47eb28c880b93d9","freq_resp","img/orange_2bandit_b.png","70","70","test","","","","7","",""
"null","355784","pSARL_v2","pSARL_v24dqmxt3y","60933bb6e47eb28c880b93d9","fixation","img/fixation.png","null","","test","","","","","",""
"188.29999995231628","355979","pSARL_v2","pSARL_v24dqmxt3y","60933bb6e47eb28c880b93d9","freq","img/orange_2bandit_b2.png","70","70","test","1","136","136","7","",""
"null","356611","pSARL_v2","pSARL_v24dqmxt3y","60933bb6e47eb28c880b93d9","freq_resp","img/orange_2bandit_b.png","70","70","test","","","","7","",""
"null","356780","pSARL_v2","pSARL_v24dqmxt3y","60933bb6e47eb28c880b93d9","fixation","img/fixation.png","null","","test","","","","","",""
"112.79999995231628","356899","pSARL_v2","pSARL_v24dqmxt3y","60933bb6e47eb28c880b93d9","freq","img/orange_2bandit_b2.png","70","70","test","1","137","137","7","",""
"null","357597","pSARL_v2","pSARL_v24dqmxt3y","60933bb6e47eb28c880b93d9","freq_resp","img/orange_2bandit_b.png","70","70","test","","","","7","",""
"null","357763","pSARL_v2","pSARL_v24dqmxt3y","60933bb6e47eb28c880b93d9","fixation","img/fixation.png","null","","test","","","","","",""
"17.5","357785","pSARL_v2","pSARL_v24dqmxt3y","60933bb6e47eb28c880b93d9","infreq","img/green_2bandit_b2.png","70","68","test","0","138","138","7","",""
"null","358588","pSARL_v2","pSARL_v24dqmxt3y","60933bb6e47eb28c880b93d9","infreq_resp","img/green_2bandit_b.png","70","68","test","","","","7","",""
"null","358751","pSARL_v2","pSARL_v24dqmxt3y","60933bb6e47eb28c880b93d9","fixation","img/fixation.png","null","","test","","","","","",""
"249.40000009536743","359007","pSARL_v2","pSARL_v24dqmxt3y","60933bb6e47eb28c880b93d9","freq","img/orange_2bandit_b2.png","68","70","test","0","139","139","7","",""
"null","359568","pSARL_v2","pSARL_v24dqmxt3y","60933bb6e47eb28c880b93d9","freq_resp","img/orange_2bandit_b.png","68","70","test","","","","7","",""
"null","359746","pSARL_v2","pSARL_v24dqmxt3y","60933bb6e47eb28c880b93d9","fixation","img/fixation.png","null","","test","","","","","",""
"85.5","359837","pSARL_v2","pSARL_v24dqmxt3y","60933bb6e47eb28c880b93d9","freq","img/orange_2bandit_b2.png","70","70","test","1","140","140","7","",""
"null","360568","pSARL_v2","pSARL_v24dqmxt3y","60933bb6e47eb28c880b93d9","freq_resp","img/orange_2bandit_b.png","70","70","test","","","","7","",""
"null","360736","pSARL_v2","pSARL_v24dqmxt3y","60933bb6e47eb28c880b93d9","fixation","img/fixation.png","null","","test","","","","","",""
"55.30000019073486","360796","pSARL_v2","pSARL_v24dqmxt3y","60933bb6e47eb28c880b93d9","freq","img/orange_2bandit_b2.png","70","70","test","1","141","141","7","",""
"null","361549","pSARL_v2","pSARL_v24dqmxt3y","60933bb6e47eb28c880b93d9","freq_resp","img/orange_2bandit_b.png","70","70","test","","","","7","",""
"null","361707","pSARL_v2","pSARL_v24dqmxt3y","60933bb6e47eb28c880b93d9","fixation","img/fixation.png","null","","test","","","","","",""
"223.60000014305115","361938","pSARL_v2","pSARL_v24dqmxt3y","60933bb6e47eb28c880b93d9","freq","img/orange_2bandit_b2.png","70","70","test","1","142","142","7","",""
"null","362533","pSARL_v2","pSARL_v24dqmxt3y","60933bb6e47eb28c880b93d9","freq_resp","img/orange_2bandit_b.png","70","70","test","","","","7","",""
"null","362704","pSARL_v2","pSARL_v24dqmxt3y","60933bb6e47eb28c880b93d9","fixation","img/fixation.png","null","","test","","","","","",""
"357.89999985694885","363068","pSARL_v2","pSARL_v24dqmxt3y","60933bb6e47eb28c880b93d9","freq","img/orange_2bandit_b2.png","70","70","test","1","143","143","7","",""
"null","363519","pSARL_v2","pSARL_v24dqmxt3y","60933bb6e47eb28c880b93d9","freq_resp","img/orange_2bandit_b.png","70","70","test","","","","7","",""
"null","363691","pSARL_v2","pSARL_v24dqmxt3y","60933bb6e47eb28c880b93d9","fixation","img/fixation.png","null","","test","","","","","",""
"84.20000004768372","363780","pSARL_v2","pSARL_v24dqmxt3y","60933bb6e47eb28c880b93d9","freq","img/orange_2bandit_b2.png","70","70","test","1","144","144","7","",""
"null","364507","pSARL_v2","pSARL_v24dqmxt3y","60933bb6e47eb28c880b93d9","freq_resp","img/orange_2bandit_b.png","70","70","test","","","","7","",""
"null","364669","pSARL_v2","pSARL_v24dqmxt3y","60933bb6e47eb28c880b93d9","fixation","img/fixation.png","null","","test","","","","","",""
"92.79999995231628","364766","pSARL_v2","pSARL_v24dqmxt3y","60933bb6e47eb28c880b93d9","freq","img/orange_2bandit_b2.png","70","70","test","1","145","145","7","",""
"null","365491","pSARL_v2","pSARL_v24dqmxt3y","60933bb6e47eb28c880b93d9","freq_resp","img/orange_2bandit_b.png","70","70","test","","","","7","",""
"null","365662","pSARL_v2","pSARL_v24dqmxt3y","60933bb6e47eb28c880b93d9","fixation","img/fixation.png","null","","test","","","","","",""
"49.700000047683716","365718","pSARL_v2","pSARL_v24dqmxt3y","60933bb6e47eb28c880b93d9","freq","img/orange_2bandit_b2.png","70","70","test","1","146","146","7","",""
"null","366490","pSARL_v2","pSARL_v24dqmxt3y","60933bb6e47eb28c880b93d9","freq_resp","img/orange_2bandit_b.png","70","70","test","","","","7","",""
"null","366648","pSARL_v2","pSARL_v24dqmxt3y","60933bb6e47eb28c880b93d9","fixation","img/fixation.png","null","","test","","","","","",""
"191","366843","pSARL_v2","pSARL_v24dqmxt3y","60933bb6e47eb28c880b93d9","freq","img/orange_2bandit_b2.png","70","70","test","1","147","147","7","",""
"null","367466","pSARL_v2","pSARL_v24dqmxt3y","60933bb6e47eb28c880b93d9","freq_resp","img/orange_2bandit_b.png","70","70","test","","","","7","",""
"null","367641","pSARL_v2","pSARL_v24dqmxt3y","60933bb6e47eb28c880b93d9","fixation","img/fixation.png","null","","test","","","","","",""
"9.299999952316284","367655","pSARL_v2","pSARL_v24dqmxt3y","60933bb6e47eb28c880b93d9","freq","img/orange_2bandit_b2.png","70","70","test","1","148","148","7","",""
"null","368455","pSARL_v2","pSARL_v24dqmxt3y","60933bb6e47eb28c880b93d9","freq_resp","img/orange_2bandit_b.png","70","70","test","","","","7","",""
"null","368615","pSARL_v2","pSARL_v24dqmxt3y","60933bb6e47eb28c880b93d9","fixation","img/fixation.png","null","","test","","","","","",""
"0.20000004768371582","368621","pSARL_v2","pSARL_v24dqmxt3y","60933bb6e47eb28c880b93d9","freq","img/orange_2bandit_b2.png","70","70","test","1","149","149","7","",""
"null","369443","pSARL_v2","pSARL_v24dqmxt3y","60933bb6e47eb28c880b93d9","freq_resp","img/orange_2bandit_b.png","70","70","test","","","","7","",""
"null","369605","pSARL_v2","pSARL_v24dqmxt3y","60933bb6e47eb28c880b93d9","fixation","img/fixation.png","null","","test","","","","","",""
"315.89999985694885","369926","pSARL_v2","pSARL_v24dqmxt3y","60933bb6e47eb28c880b93d9","freq","img/orange_2bandit_b2.png","70","70","test","1","150","150","7","",""
"null","370421","pSARL_v2","pSARL_v24dqmxt3y","60933bb6e47eb28c880b93d9","freq_resp","img/orange_2bandit_b.png","70","70","test","","","","7","",""
"null","370578","pSARL_v2","pSARL_v24dqmxt3y","60933bb6e47eb28c880b93d9","fixation","img/fixation.png","null","","test","","","","","",""
"542.2999999523163","371128","pSARL_v2","pSARL_v24dqmxt3y","60933bb6e47eb28c880b93d9","freq","img/orange_2bandit_b2.png","70","70","test","1","151","151","7","",""
"null","371408","pSARL_v2","pSARL_v24dqmxt3y","60933bb6e47eb28c880b93d9","freq_resp","img/orange_2bandit_b.png","70","70","test","","","","7","",""
"null","371568","pSARL_v2","pSARL_v24dqmxt3y","60933bb6e47eb28c880b93d9","fixation","img/fixation.png","null","","test","","","","","",""
"232.20000004768372","371808","pSARL_v2","pSARL_v24dqmxt3y","60933bb6e47eb28c880b93d9","infreq","img/green_2bandit_b2.png","70","68","test","0","152","152","7","",""
"null","372392","pSARL_v2","pSARL_v24dqmxt3y","60933bb6e47eb28c880b93d9","infreq_resp","img/green_2bandit_b.png","70","68","test","","","","7","",""
"null","372565","pSARL_v2","pSARL_v24dqmxt3y","60933bb6e47eb28c880b93d9","fixation","img/fixation.png","null","","test","","","","","",""
"33.30000019073486","372604","pSARL_v2","pSARL_v24dqmxt3y","60933bb6e47eb28c880b93d9","freq","img/orange_2bandit_b2.png","68","70","test","0","153","153","7","",""
"null","373381","pSARL_v2","pSARL_v24dqmxt3y","60933bb6e47eb28c880b93d9","freq_resp","img/orange_2bandit_b.png","68","70","test","","","","7","",""
"null","373541","pSARL_v2","pSARL_v24dqmxt3y","60933bb6e47eb28c880b93d9","fixation","img/fixation.png","null","","test","","","","","",""
"189.90000009536743","373737","pSARL_v2","pSARL_v24dqmxt3y","60933bb6e47eb28c880b93d9","freq","img/orange_2bandit_b2.png","70","70","test","1","154","154","7","",""
"null","374360","pSARL_v2","pSARL_v24dqmxt3y","60933bb6e47eb28c880b93d9","freq_resp","img/orange_2bandit_b.png","70","70","test","","","","7","",""
"null","374535","pSARL_v2","pSARL_v24dqmxt3y","60933bb6e47eb28c880b93d9","fixation","img/fixation.png","null","","test","","","","","",""
"166","374708","pSARL_v2","pSARL_v24dqmxt3y","60933bb6e47eb28c880b93d9","freq","img/orange_2bandit_b2.png","70","70","test","1","155","155","7","",""
"null","375354","pSARL_v2","pSARL_v24dqmxt3y","60933bb6e47eb28c880b93d9","freq_resp","img/orange_2bandit_b.png","70","70","test","","","","7","",""
"null","375520","pSARL_v2","pSARL_v24dqmxt3y","60933bb6e47eb28c880b93d9","fixation","img/fixation.png","null","","test","","","","","",""
"2150.9000000953674","377678","pSARL_v2","pSARL_v24dqmxt3y","60933bb6e47eb28c880b93d9","reward","img/slot.png","74","","test","","","","","",""
"null","378434","pSARL_v2","pSARL_v24dqmxt3y","60933bb6e47eb28c880b93d9","points","<div class=""verylowPoints""> -6 </div>","null","na","test","","","","7","-6","6"
"null","379257","pSARL_v2","pSARL_v24dqmxt3y","60933bb6e47eb28c880b93d9","freq","img/orange_2bandit_b2.png","null","70","test","0","156","156","8","",""
"null","379420","pSARL_v2","pSARL_v24dqmxt3y","60933bb6e47eb28c880b93d9","fixation","img/fixation.png","null","","test","","","","","",""
"141","379570","pSARL_v2","pSARL_v24dqmxt3y","60933bb6e47eb28c880b93d9","freq","img/orange_2bandit_b2.png","70","70","test","1","157","157","8","",""
"null","380251","pSARL_v2","pSARL_v24dqmxt3y","60933bb6e47eb28c880b93d9","freq_resp","img/orange_2bandit_b.png","70","70","test","","","","8","",""
"null","380426","pSARL_v2","pSARL_v24dqmxt3y","60933bb6e47eb28c880b93d9","fixation","img/fixation.png","null","","test","","","","","",""
"504","380937","pSARL_v2","pSARL_v24dqmxt3y","60933bb6e47eb28c880b93d9","freq","img/orange_2bandit_b2.png","70","70","test","1","158","158","8","",""
"null","381244","pSARL_v2","pSARL_v24dqmxt3y","60933bb6e47eb28c880b93d9","freq_resp","img/orange_2bandit_b.png","70","70","test","","","","8","",""
"null","381403","pSARL_v2","pSARL_v24dqmxt3y","60933bb6e47eb28c880b93d9","fixation","img/fixation.png","null","","test","","","","","",""
"27.40000009536743","381437","pSARL_v2","pSARL_v24dqmxt3y","60933bb6e47eb28c880b93d9","freq","img/orange_2bandit_b2.png","70","70","test","1","159","159","8","",""
"null","382217","pSARL_v2","pSARL_v24dqmxt3y","60933bb6e47eb28c880b93d9","freq_resp","img/orange_2bandit_b.png","70","70","test","","","","8","",""
"null","382391","pSARL_v2","pSARL_v24dqmxt3y","60933bb6e47eb28c880b93d9","fixation","img/fixation.png","null","","test","","","","","",""
"69.29999995231628","382467","pSARL_v2","pSARL_v24dqmxt3y","60933bb6e47eb28c880b93d9","freq","img/orange_2bandit_b2.png","70","70","test","1","160","160","8","",""
"null","383211","pSARL_v2","pSARL_v24dqmxt3y","60933bb6e47eb28c880b93d9","freq_resp","img/orange_2bandit_b.png","70","70","test","","","","8","",""
"null","383381","pSARL_v2","pSARL_v24dqmxt3y","60933bb6e47eb28c880b93d9","fixation","img/fixation.png","null","","test","","","","","",""
"169.29999995231628","383557","pSARL_v2","pSARL_v24dqmxt3y","60933bb6e47eb28c880b93d9","freq","img/orange_2bandit_b2.png","70","70","test","1","161","161","8","",""
"null","384200","pSARL_v2","pSARL_v24dqmxt3y","60933bb6e47eb28c880b93d9","freq_resp","img/orange_2bandit_b.png","70","70","test","","","","8","",""
"null","384362","pSARL_v2","pSARL_v24dqmxt3y","60933bb6e47eb28c880b93d9","fixation","img/fixation.png","null","","test","","","","","",""
"38.5","384405","pSARL_v2","pSARL_v24dqmxt3y","60933bb6e47eb28c880b93d9","freq","img/orange_2bandit_b2.png","70","70","test","1","162","162","8","",""
"null","385174","pSARL_v2","pSARL_v24dqmxt3y","60933bb6e47eb28c880b93d9","freq_resp","img/orange_2bandit_b.png","70","70","test","","","","8","",""
"null","385346","pSARL_v2","pSARL_v24dqmxt3y","60933bb6e47eb28c880b93d9","fixation","img/fixation.png","null","","test","","","","","",""
"133.80000019073486","385487","pSARL_v2","pSARL_v24dqmxt3y","60933bb6e47eb28c880b93d9","freq","img/orange_2bandit_b2.png","70","70","test","1","163","163","8","",""
"null","386166","pSARL_v2","pSARL_v24dqmxt3y","60933bb6e47eb28c880b93d9","freq_resp","img/orange_2bandit_b.png","70","70","test","","","","8","",""
"null","386326","pSARL_v2","pSARL_v24dqmxt3y","60933bb6e47eb28c880b93d9","fixation","img/fixation.png","null","","test","","","","","",""
"null","387143","pSARL_v2","pSARL_v24dqmxt3y","60933bb6e47eb28c880b93d9","freq","img/orange_2bandit_b2.png","null","70","test","0","164","164","8","",""
"null","387314","pSARL_v2","pSARL_v24dqmxt3y","60933bb6e47eb28c880b93d9","fixation","img/fixation.png","null","","test","","","","","",""
"196","387517","pSARL_v2","pSARL_v24dqmxt3y","60933bb6e47eb28c880b93d9","infreq","img/green_2bandit_b2.png","70","68","test","0","165","165","8","",""
"null","388140","pSARL_v2","pSARL_v24dqmxt3y","60933bb6e47eb28c880b93d9","infreq_resp","img/green_2bandit_b.png","70","68","test","","","","8","",""
"null","388309","pSARL_v2","pSARL_v24dqmxt3y","60933bb6e47eb28c880b93d9","fixation","img/fixation.png","null","","test","","","","","",""
"601.2999999523163","388917","pSARL_v2","pSARL_v24dqmxt3y","60933bb6e47eb28c880b93d9","freq","img/orange_2bandit_b2.png","68","70","test","0","166","166","8","",""
"null","389132","pSARL_v2","pSARL_v24dqmxt3y","60933bb6e47eb28c880b93d9","freq_resp","img/orange_2bandit_b.png","68","70","test","","","","8","",""
"null","389303","pSARL_v2","pSARL_v24dqmxt3y","60933bb6e47eb28c880b93d9","fixation","img/fixation.png","null","","test","","","","","",""
"336.7000000476837","389647","pSARL_v2","pSARL_v24dqmxt3y","60933bb6e47eb28c880b93d9","infreq","img/green_2bandit_b2.png","68","68","test","1","167","167","8","",""
"null","390117","pSARL_v2","pSARL_v24dqmxt3y","60933bb6e47eb28c880b93d9","infreq_resp","img/green_2bandit_b.png","68","68","test","","","","8","",""
"null","390286","pSARL_v2","pSARL_v24dqmxt3y","60933bb6e47eb28c880b93d9","fixation","img/fixation.png","null","","test","","","","","",""
"233.69999980926514","390527","pSARL_v2","pSARL_v24dqmxt3y","60933bb6e47eb28c880b93d9","freq","img/orange_2bandit_b2.png","70","70","test","1","168","168","8","",""
"null","391102","pSARL_v2","pSARL_v24dqmxt3y","60933bb6e47eb28c880b93d9","freq_resp","img/orange_2bandit_b.png","70","70","test","","","","8","",""
"null","391265","pSARL_v2","pSARL_v24dqmxt3y","60933bb6e47eb28c880b93d9","fixation","img/fixation.png","null","","test","","","","","",""
"345.7000000476837","391617","pSARL_v2","pSARL_v24dqmxt3y","60933bb6e47eb28c880b93d9","freq","img/orange_2bandit_b2.png","70","70","test","1","169","169","8","",""
"null","392088","pSARL_v2","pSARL_v24dqmxt3y","60933bb6e47eb28c880b93d9","freq_resp","img/orange_2bandit_b.png","70","70","test","","","","8","",""
"null","392256","pSARL_v2","pSARL_v24dqmxt3y","60933bb6e47eb28c880b93d9","fixation","img/fixation.png","null","","test","","","","","",""
"434.09999990463257","392697","pSARL_v2","pSARL_v24dqmxt3y","60933bb6e47eb28c880b93d9","freq","img/orange_2bandit_b2.png","70","70","test","1","170","170","8","",""
"null","393082","pSARL_v2","pSARL_v24dqmxt3y","60933bb6e47eb28c880b93d9","freq_resp","img/orange_2bandit_b.png","70","70","test","","","","8","",""
"null","393252","pSARL_v2","pSARL_v24dqmxt3y","60933bb6e47eb28c880b93d9","fixation","img/fixation.png","null","","test","","","","","",""
"439","393697","pSARL_v2","pSARL_v24dqmxt3y","60933bb6e47eb28c880b93d9","freq","img/orange_2bandit_b2.png","70","70","test","1","171","171","8","",""
"null","394071","pSARL_v2","pSARL_v24dqmxt3y","60933bb6e47eb28c880b93d9","freq_resp","img/orange_2bandit_b.png","70","70","test","","","","8","",""
"null","394235","pSARL_v2","pSARL_v24dqmxt3y","60933bb6e47eb28c880b93d9","fixation","img/fixation.png","null","","test","","","","","",""
"234","394474","pSARL_v2","pSARL_v24dqmxt3y","60933bb6e47eb28c880b93d9","freq","img/orange_2bandit_b2.png","70","70","test","1","172","172","8","",""
"null","395055","pSARL_v2","pSARL_v24dqmxt3y","60933bb6e47eb28c880b93d9","freq_resp","img/orange_2bandit_b.png","70","70","test","","","","8","",""
"null","395229","pSARL_v2","pSARL_v24dqmxt3y","60933bb6e47eb28c880b93d9","fixation","img/fixation.png","null","","test","","","","","",""
"101.09999990463257","395337","pSARL_v2","pSARL_v24dqmxt3y","60933bb6e47eb28c880b93d9","freq","img/orange_2bandit_b2.png","70","70","test","1","173","173","8","",""
"null","396051","pSARL_v2","pSARL_v24dqmxt3y","60933bb6e47eb28c880b93d9","freq_resp","img/orange_2bandit_b.png","70","70","test","","","","8","",""
"null","396216","pSARL_v2","pSARL_v24dqmxt3y","60933bb6e47eb28c880b93d9","fixation","img/fixation.png","null","","test","","","","","",""
"301.30000019073486","396526","pSARL_v2","pSARL_v24dqmxt3y","60933bb6e47eb28c880b93d9","freq","img/orange_2bandit_b2.png","70","70","test","1","174","174","8","",""
"null","397041","pSARL_v2","pSARL_v24dqmxt3y","60933bb6e47eb28c880b93d9","freq_resp","img/orange_2bandit_b.png","70","70","test","","","","8","",""
"null","397215","pSARL_v2","pSARL_v24dqmxt3y","60933bb6e47eb28c880b93d9","fixation","img/fixation.png","null","","test","","","","","",""
"524.5","397747","pSARL_v2","pSARL_v24dqmxt3y","60933bb6e47eb28c880b93d9","freq","img/orange_2bandit_b2.png","70","70","test","1","175","175","8","",""
"null","398046","pSARL_v2","pSARL_v24dqmxt3y","60933bb6e47eb28c880b93d9","freq_resp","img/orange_2bandit_b.png","70","70","test","","","","8","",""
"null","398224","pSARL_v2","pSARL_v24dqmxt3y","60933bb6e47eb28c880b93d9","fixation","img/fixation.png","null","","test","","","","","",""
"2066.2999999523163","400297","pSARL_v2","pSARL_v24dqmxt3y","60933bb6e47eb28c880b93d9","reward","img/slot.png","74","","test","","","","","",""
"null","401071","pSARL_v2","pSARL_v24dqmxt3y","60933bb6e47eb28c880b93d9","points","<div class=""verylowPoints""> -4 </div>","null","na","test","","","","8","-4","7"
"null","401895","pSARL_v2","pSARL_v24dqmxt3y","60933bb6e47eb28c880b93d9","freq","img/orange_2bandit_b2.png","null","70","test","0","176","176","9","",""
"null","402065","pSARL_v2","pSARL_v24dqmxt3y","60933bb6e47eb28c880b93d9","fixation","img/fixation.png","null","","test","","","","","",""
"232.29999995231628","402305","pSARL_v2","pSARL_v24dqmxt3y","60933bb6e47eb28c880b93d9","freq","img/orange_2bandit_b2.png","70","70","test","1","177","177","9","",""
"null","402883","pSARL_v2","pSARL_v24dqmxt3y","60933bb6e47eb28c880b93d9","freq_resp","img/orange_2bandit_b.png","70","70","test","","","","9","",""
"null","403042","pSARL_v2","pSARL_v24dqmxt3y","60933bb6e47eb28c880b93d9","fixation","img/fixation.png","null","","test","","","","","",""
"252","403301","pSARL_v2","pSARL_v24dqmxt3y","60933bb6e47eb28c880b93d9","freq","img/orange_2bandit_b2.png","70","70","test","1","178","178","9","",""
"null","403861","pSARL_v2","pSARL_v24dqmxt3y","60933bb6e47eb28c880b93d9","freq_resp","img/orange_2bandit_b.png","70","70","test","","","","9","",""
"null","404030","pSARL_v2","pSARL_v24dqmxt3y","60933bb6e47eb28c880b93d9","fixation","img/fixation.png","null","","test","","","","","",""
"209.70000004768372","404246","pSARL_v2","pSARL_v24dqmxt3y","60933bb6e47eb28c880b93d9","infreq","img/green_2bandit_b2.png","70","68","test","0","179","179","9","",""
"null","404845","pSARL_v2","pSARL_v24dqmxt3y","60933bb6e47eb28c880b93d9","infreq_resp","img/green_2bandit_b.png","70","68","test","","","","9","",""
"null","405005","pSARL_v2","pSARL_v24dqmxt3y","60933bb6e47eb28c880b93d9","fixation","img/fixation.png","null","","test","","","","","",""
"444.10000014305115","405456","pSARL_v2","pSARL_v24dqmxt3y","60933bb6e47eb28c880b93d9","freq","img/orange_2bandit_b2.png","68","70","test","0","180","180","9","",""
"null","405821","pSARL_v2","pSARL_v24dqmxt3y","60933bb6e47eb28c880b93d9","freq_resp","img/orange_2bandit_b.png","68","70","test","","","","9","",""
"null","405981","pSARL_v2","pSARL_v24dqmxt3y","60933bb6e47eb28c880b93d9","fixation","img/fixation.png","null","","test","","","","","",""
"426.40000009536743","406414","pSARL_v2","pSARL_v24dqmxt3y","60933bb6e47eb28c880b93d9","freq","img/orange_2bandit_b2.png","70","70","test","1","181","181","9","",""
"null","406801","pSARL_v2","pSARL_v24dqmxt3y","60933bb6e47eb28c880b93d9","freq_resp","img/orange_2bandit_b.png","70","70","test","","","","9","",""
"null","406975","pSARL_v2","pSARL_v24dqmxt3y","60933bb6e47eb28c880b93d9","fixation","img/fixation.png","null","","test","","","","","",""
"64","407047","pSARL_v2","pSARL_v24dqmxt3y","60933bb6e47eb28c880b93d9","freq","img/orange_2bandit_b2.png","70","70","test","1","182","182","9","",""
"null","407795","pSARL_v2","pSARL_v24dqmxt3y","60933bb6e47eb28c880b93d9","freq_resp","img/orange_2bandit_b.png","70","70","test","","","","9","",""
"null","407956","pSARL_v2","pSARL_v24dqmxt3y","60933bb6e47eb28c880b93d9","fixation","img/fixation.png","null","","test","","","","","",""
"322.39999985694885","408286","pSARL_v2","pSARL_v24dqmxt3y","60933bb6e47eb28c880b93d9","freq","img/orange_2bandit_b2.png","70","70","test","1","183","183","9","",""
"null","408772","pSARL_v2","pSARL_v24dqmxt3y","60933bb6e47eb28c880b93d9","freq_resp","img/orange_2bandit_b.png","70","70","test","","","","9","",""
"null","408931","pSARL_v2","pSARL_v24dqmxt3y","60933bb6e47eb28c880b93d9","fixation","img/fixation.png","null","","test","","","","","",""
"298.2000000476837","409236","pSARL_v2","pSARL_v24dqmxt3y","60933bb6e47eb28c880b93d9","freq","img/orange_2bandit_b2.png","70","70","test","1","184","184","9","",""
"null","409750","pSARL_v2","pSARL_v24dqmxt3y","60933bb6e47eb28c880b93d9","freq_resp","img/orange_2bandit_b.png","70","70","test","","","","9","",""
"null","409923","pSARL_v2","pSARL_v24dqmxt3y","60933bb6e47eb28c880b93d9","fixation","img/fixation.png","null","","test","","","","","",""
"163.89999985694885","410095","pSARL_v2","pSARL_v24dqmxt3y","60933bb6e47eb28c880b93d9","freq","img/orange_2bandit_b2.png","70","70","test","1","185","185","9","",""
"null","410749","pSARL_v2","pSARL_v24dqmxt3y","60933bb6e47eb28c880b93d9","freq_resp","img/orange_2bandit_b.png","70","70","test","","","","9","",""
"null","410916","pSARL_v2","pSARL_v24dqmxt3y","60933bb6e47eb28c880b93d9","fixation","img/fixation.png","null","","test","","","","","",""
"472.5","411396","pSARL_v2","pSARL_v24dqmxt3y","60933bb6e47eb28c880b93d9","freq","img/orange_2bandit_b2.png","70","70","test","1","186","186","9","",""
"null","411733","pSARL_v2","pSARL_v24dqmxt3y","60933bb6e47eb28c880b93d9","freq_resp","img/orange_2bandit_b.png","70","70","test","","","","9","",""
"null","411890","pSARL_v2","pSARL_v24dqmxt3y","60933bb6e47eb28c880b93d9","fixation","img/fixation.png","null","","test","","","","","",""
"378.2000000476837","412274","pSARL_v2","pSARL_v24dqmxt3y","60933bb6e47eb28c880b93d9","freq","img/orange_2bandit_b2.png","70","70","test","1","187","187","9","",""
"null","412708","pSARL_v2","pSARL_v24dqmxt3y","60933bb6e47eb28c880b93d9","freq_resp","img/orange_2bandit_b.png","70","70","test","","","","9","",""
"null","412867","pSARL_v2","pSARL_v24dqmxt3y","60933bb6e47eb28c880b93d9","fixation","img/fixation.png","null","","test","","","","","",""
"232.59999990463257","413105","pSARL_v2","pSARL_v24dqmxt3y","60933bb6e47eb28c880b93d9","freq","img/orange_2bandit_b2.png","70","70","test","1","188","188","9","",""
"null","413683","pSARL_v2","pSARL_v24dqmxt3y","60933bb6e47eb28c880b93d9","freq_resp","img/orange_2bandit_b.png","70","70","test","","","","9","",""
"null","413858","pSARL_v2","pSARL_v24dqmxt3y","60933bb6e47eb28c880b93d9","fixation","img/fixation.png","null","","test","","","","","",""
"9.799999952316284","413874","pSARL_v2","pSARL_v24dqmxt3y","60933bb6e47eb28c880b93d9","freq","img/orange_2bandit_b2.png","70","70","test","1","189","189","9","",""
"null","414676","pSARL_v2","pSARL_v24dqmxt3y","60933bb6e47eb28c880b93d9","freq_resp","img/orange_2bandit_b.png","70","70","test","","","","9","",""
"null","414837","pSARL_v2","pSARL_v24dqmxt3y","60933bb6e47eb28c880b93d9","fixation","img/fixation.png","null","","test","","","","","",""
"321.2999999523163","415166","pSARL_v2","pSARL_v24dqmxt3y","60933bb6e47eb28c880b93d9","infreq","img/green_2bandit_b2.png","70","68","test","0","190","190","9","",""
"null","415653","pSARL_v2","pSARL_v24dqmxt3y","60933bb6e47eb28c880b93d9","infreq_resp","img/green_2bandit_b.png","70","68","test","","","","9","",""
"null","415812","pSARL_v2","pSARL_v24dqmxt3y","60933bb6e47eb28c880b93d9","fixation","img/fixation.png","null","","test","","","","","",""
"436.7000000476837","416258","pSARL_v2","pSARL_v24dqmxt3y","60933bb6e47eb28c880b93d9","freq","img/orange_2bandit_b2.png","68","70","test","0","191","191","9","",""
"null","416633","pSARL_v2","pSARL_v24dqmxt3y","60933bb6e47eb28c880b93d9","freq_resp","img/orange_2bandit_b.png","68","70","test","","","","9","",""
"null","416793","pSARL_v2","pSARL_v24dqmxt3y","60933bb6e47eb28c880b93d9","fixation","img/fixation.png","null","","test","","","","","",""
"293.60000014305115","417093","pSARL_v2","pSARL_v24dqmxt3y","60933bb6e47eb28c880b93d9","freq","img/orange_2bandit_b2.png","70","70","test","1","192","192","9","",""
"null","417616","pSARL_v2","pSARL_v24dqmxt3y","60933bb6e47eb28c880b93d9","freq_resp","img/orange_2bandit_b.png","70","70","test","","","","9","",""
"null","417780","pSARL_v2","pSARL_v24dqmxt3y","60933bb6e47eb28c880b93d9","fixation","img/fixation.png","null","","test","","","","","",""
"119","417906","pSARL_v2","pSARL_v24dqmxt3y","60933bb6e47eb28c880b93d9","infreq","img/green_2bandit_b2.png","70","68","test","0","193","193","9","",""
"null","418613","pSARL_v2","pSARL_v24dqmxt3y","60933bb6e47eb28c880b93d9","infreq_resp","img/green_2bandit_b.png","70","68","test","","","","9","",""
"null","418780","pSARL_v2","pSARL_v24dqmxt3y","60933bb6e47eb28c880b93d9","fixation","img/fixation.png","null","","test","","","","","",""
"507.59999990463257","419295","pSARL_v2","pSARL_v24dqmxt3y","60933bb6e47eb28c880b93d9","freq","img/orange_2bandit_b2.png","68","70","test","0","194","194","9","",""
"null","419596","pSARL_v2","pSARL_v24dqmxt3y","60933bb6e47eb28c880b93d9","freq_resp","img/orange_2bandit_b.png","68","70","test","","","","9","",""
"null","419763","pSARL_v2","pSARL_v24dqmxt3y","60933bb6e47eb28c880b93d9","fixation","img/fixation.png","null","","test","","","","","",""
"195.70000004768372","419966","pSARL_v2","pSARL_v24dqmxt3y","60933bb6e47eb28c880b93d9","freq","img/orange_2bandit_b2.png","70","70","test","1","195","195","9","",""
"null","420578","pSARL_v2","pSARL_v24dqmxt3y","60933bb6e47eb28c880b93d9","freq_resp","img/orange_2bandit_b.png","70","70","test","","","","9","",""
"null","420742","pSARL_v2","pSARL_v24dqmxt3y","60933bb6e47eb28c880b93d9","fixation","img/fixation.png","null","","test","","","","","",""
"86.40000009536743","420834","pSARL_v2","pSARL_v24dqmxt3y","60933bb6e47eb28c880b93d9","freq","img/orange_2bandit_b2.png","70","70","test","1","196","196","9","",""
"null","421560","pSARL_v2","pSARL_v24dqmxt3y","60933bb6e47eb28c880b93d9","freq_resp","img/orange_2bandit_b.png","70","70","test","","","","9","",""
"null","421725","pSARL_v2","pSARL_v24dqmxt3y","60933bb6e47eb28c880b93d9","fixation","img/fixation.png","null","","test","","","","","",""
"423.30000019073486","422157","pSARL_v2","pSARL_v24dqmxt3y","60933bb6e47eb28c880b93d9","freq","img/orange_2bandit_b2.png","70","70","test","1","197","197","9","",""
"null","422552","pSARL_v2","pSARL_v24dqmxt3y","60933bb6e47eb28c880b93d9","freq_resp","img/orange_2bandit_b.png","70","70","test","","","","9","",""
"null","422718","pSARL_v2","pSARL_v24dqmxt3y","60933bb6e47eb28c880b93d9","fixation","img/fixation.png","null","","test","","","","","",""
"1860.2000000476837","424587","pSARL_v2","pSARL_v24dqmxt3y","60933bb6e47eb28c880b93d9","reward","img/slot.png","74","","test","","","","","",""
"null","425361","pSARL_v2","pSARL_v24dqmxt3y","60933bb6e47eb28c880b93d9","points","<div class=""verylowPoints""> -3 </div>","null","na","test","","","","9","-3","8"
"null","426179","pSARL_v2","pSARL_v24dqmxt3y","60933bb6e47eb28c880b93d9","freq","img/orange_2bandit_b2.png","null","70","test","0","198","198","10","",""
"null","426348","pSARL_v2","pSARL_v24dqmxt3y","60933bb6e47eb28c880b93d9","fixation","img/fixation.png","null","","test","","","","","",""
"159.90000009536743","426516","pSARL_v2","pSARL_v24dqmxt3y","60933bb6e47eb28c880b93d9","freq","img/orange_2bandit_b2.png","70","70","test","1","199","199","10","",""
"null","427163","pSARL_v2","pSARL_v24dqmxt3y","60933bb6e47eb28c880b93d9","freq_resp","img/orange_2bandit_b.png","70","70","test","","","","10","",""
"null","427326","pSARL_v2","pSARL_v24dqmxt3y","60933bb6e47eb28c880b93d9","fixation","img/fixation.png","null","","test","","","","","",""
"41.799999952316284","427375","pSARL_v2","pSARL_v24dqmxt3y","60933bb6e47eb28c880b93d9","freq","img/orange_2bandit_b2.png","70","70","test","1","200","200","10","",""
"null","428156","pSARL_v2","pSARL_v24dqmxt3y","60933bb6e47eb28c880b93d9","freq_resp","img/orange_2bandit_b.png","70","70","test","","","","10","",""
"null","428328","pSARL_v2","pSARL_v24dqmxt3y","60933bb6e47eb28c880b93d9","fixation","img/fixation.png","null","","test","","","","","",""
"169.59999990463257","428503","pSARL_v2","pSARL_v24dqmxt3y","60933bb6e47eb28c880b93d9","freq","img/orange_2bandit_b2.png","70","70","test","1","201","201","10","",""
"null","429146","pSARL_v2","pSARL_v24dqmxt3y","60933bb6e47eb28c880b93d9","freq_resp","img/orange_2bandit_b.png","70","70","test","","","","10","",""
"null","429304","pSARL_v2","pSARL_v24dqmxt3y","60933bb6e47eb28c880b93d9","fixation","img/fixation.png","null","","test","","","","","",""
"144.70000004768372","429456","pSARL_v2","pSARL_v24dqmxt3y","60933bb6e47eb28c880b93d9","freq","img/orange_2bandit_b2.png","70","70","test","1","202","202","10","",""
"null","430120","pSARL_v2","pSARL_v24dqmxt3y","60933bb6e47eb28c880b93d9","freq_resp","img/orange_2bandit_b.png","70","70","test","","","","10","",""
"null","430288","pSARL_v2","pSARL_v24dqmxt3y","60933bb6e47eb28c880b93d9","fixation","img/fixation.png","null","","test","","","","","",""
"496.7000000476837","430792","pSARL_v2","pSARL_v24dqmxt3y","60933bb6e47eb28c880b93d9","freq","img/orange_2bandit_b2.png","70","70","test","1","203","203","10","",""
"null","431106","pSARL_v2","pSARL_v24dqmxt3y","60933bb6e47eb28c880b93d9","freq_resp","img/orange_2bandit_b.png","70","70","test","","","","10","",""
"null","431280","pSARL_v2","pSARL_v24dqmxt3y","60933bb6e47eb28c880b93d9","fixation","img/fixation.png","null","","test","","","","","",""
"427.7000000476837","431714","pSARL_v2","pSARL_v24dqmxt3y","60933bb6e47eb28c880b93d9","freq","img/orange_2bandit_b2.png","70","70","test","1","204","204","10","",""
"null","432111","pSARL_v2","pSARL_v24dqmxt3y","60933bb6e47eb28c880b93d9","freq_resp","img/orange_2bandit_b.png","70","70","test","","","","10","",""
"null","432276","pSARL_v2","pSARL_v24dqmxt3y","60933bb6e47eb28c880b93d9","fixation","img/fixation.png","null","","test","","","","","",""
"392.60000014305115","432675","pSARL_v2","pSARL_v24dqmxt3y","60933bb6e47eb28c880b93d9","freq","img/orange_2bandit_b2.png","70","70","test","1","205","205","10","",""
"null","433100","pSARL_v2","pSARL_v24dqmxt3y","60933bb6e47eb28c880b93d9","freq_resp","img/orange_2bandit_b.png","70","70","test","","","","10","",""
"null","433271","pSARL_v2","pSARL_v24dqmxt3y","60933bb6e47eb28c880b93d9","fixation","img/fixation.png","null","","test","","","","","",""
"null","434093","pSARL_v2","pSARL_v24dqmxt3y","60933bb6e47eb28c880b93d9","freq","img/orange_2bandit_b2.png","null","70","test","0","206","206","10","",""
"null","434258","pSARL_v2","pSARL_v24dqmxt3y","60933bb6e47eb28c880b93d9","fixation","img/fixation.png","null","","test","","","","","",""
"650","434915","pSARL_v2","pSARL_v24dqmxt3y","60933bb6e47eb28c880b93d9","infreq","img/green_2bandit_b2.png","70","68","test","0","207","207","10","",""
"null","435074","pSARL_v2","pSARL_v24dqmxt3y","60933bb6e47eb28c880b93d9","infreq_resp","img/green_2bandit_b.png","70","68","test","","","","10","",""
"null","435249","pSARL_v2","pSARL_v24dqmxt3y","60933bb6e47eb28c880b93d9","fixation","img/fixation.png","null","","test","","","","","",""
"198.59999990463257","435453","pSARL_v2","pSARL_v24dqmxt3y","60933bb6e47eb28c880b93d9","freq","img/orange_2bandit_b2.png","68","70","test","0","208","208","10","",""
"null","436062","pSARL_v2","pSARL_v24dqmxt3y","60933bb6e47eb28c880b93d9","freq_resp","img/orange_2bandit_b.png","68","70","test","","","","10","",""
"null","436223","pSARL_v2","pSARL_v24dqmxt3y","60933bb6e47eb28c880b93d9","fixation","img/fixation.png","null","","test","","","","","",""
"35.10000014305115","436268","pSARL_v2","pSARL_v24dqmxt3y","60933bb6e47eb28c880b93d9","freq","img/orange_2bandit_b2.png","70","70","test","1","209","209","10","",""
"null","437040","pSARL_v2","pSARL_v24dqmxt3y","60933bb6e47eb28c880b93d9","freq_resp","img/orange_2bandit_b.png","70","70","test","","","","10","",""
"null","437213","pSARL_v2","pSARL_v24dqmxt3y","60933bb6e47eb28c880b93d9","fixation","img/fixation.png","null","","test","","","","","",""
"344.5","437563","pSARL_v2","pSARL_v24dqmxt3y","60933bb6e47eb28c880b93d9","freq","img/orange_2bandit_b2.png","70","70","test","1","210","210","10","",""
"null","438041","pSARL_v2","pSARL_v24dqmxt3y","60933bb6e47eb28c880b93d9","freq_resp","img/orange_2bandit_b.png","70","70","test","","","","10","",""
"null","438212","pSARL_v2","pSARL_v24dqmxt3y","60933bb6e47eb28c880b93d9","fixation","img/fixation.png","null","","test","","","","","",""
"96.19999980926514","438315","pSARL_v2","pSARL_v24dqmxt3y","60933bb6e47eb28c880b93d9","infreq","img/green_2bandit_b2.png","70","68","test","0","211","211","10","",""
"null","439026","pSARL_v2","pSARL_v24dqmxt3y","60933bb6e47eb28c880b93d9","infreq_resp","img/green_2bandit_b.png","70","68","test","","","","10","",""
"null","439193","pSARL_v2","pSARL_v24dqmxt3y","60933bb6e47eb28c880b93d9","fixation","img/fixation.png","null","","test","","","","","",""
"54.60000014305115","439252","pSARL_v2","pSARL_v24dqmxt3y","60933bb6e47eb28c880b93d9","freq","img/orange_2bandit_b2.png","68","70","test","0","212","212","10","",""
"null","440003","pSARL_v2","pSARL_v24dqmxt3y","60933bb6e47eb28c880b93d9","freq_resp","img/orange_2bandit_b.png","68","70","test","","","","10","",""
"null","440163","pSARL_v2","pSARL_v24dqmxt3y","60933bb6e47eb28c880b93d9","fixation","img/fixation.png","null","","test","","","","","",""
"56.5","440226","pSARL_v2","pSARL_v24dqmxt3y","60933bb6e47eb28c880b93d9","freq","img/orange_2bandit_b2.png","70","70","test","1","213","213","10","",""
"null","440983","pSARL_v2","pSARL_v24dqmxt3y","60933bb6e47eb28c880b93d9","freq_resp","img/orange_2bandit_b.png","70","70","test","","","","10","",""
"null","441153","pSARL_v2","pSARL_v24dqmxt3y","60933bb6e47eb28c880b93d9","fixation","img/fixation.png","null","","test","","","","","",""
