"rt","time_elapsed","expId","subject","prolificID","trialType","stimulus","key_press","corrresp","phase","corr","trialNum","attentionRunNum","blockNum","points","rlNum"
"17542.5","17549","pSARL_v2","pSARL_v2845lb4wj","64275e53f51a5ed4f6b7d019","","","","","","","","","","",""
"","20400","pSARL_v2","pSARL_v2845lb4wj","64275e53f51a5ed4f6b7d019","fullscreen","","","","","","","","","",""
"101645.79999995232","122050","pSARL_v2","pSARL_v2845lb4wj","64275e53f51a5ed4f6b7d019","","","","","","","","","","",""
"null","122873","pSARL_v2","pSARL_v2845lb4wj","64275e53f51a5ed4f6b7d019","freqPrac","img/orange_2bandit_a2.png","null","70","prac","0","","","","",""
"null","123883","pSARL_v2","pSARL_v2845lb4wj","64275e53f51a5ed4f6b7d019","feedback","img/tooSlow.png","null","na","prac","","","","","",""
"null","124041","pSARL_v2","pSARL_v2845lb4wj","64275e53f51a5ed4f6b7d019","fixation","img/fixation.png","null","","prac","","","","","",""
"516","124561","pSARL_v2","pSARL_v2845lb4wj","64275e53f51a5ed4f6b7d019","infreqPrac","img/green_2bandit_a2.png","68","68","prac","1","","","","",""
"516","124854","pSARL_v2","pSARL_v2845lb4wj","64275e53f51a5ed4f6b7d019","infreqPrac_resp","img/green_2bandit_a.png","68","68","prac","","","","","",""
"null","125012","pSARL_v2","pSARL_v2845lb4wj","64275e53f51a5ed4f6b7d019","fixation","img/fixation.png","null","","prac","","","","","",""
"577.5","125594","pSARL_v2","pSARL_v2845lb4wj","64275e53f51a5ed4f6b7d019","freqPrac","img/orange_2bandit_a2.png","70","70","prac","1","","","","",""
"577.5","125825","pSARL_v2","pSARL_v2845lb4wj","64275e53f51a5ed4f6b7d019","freqPrac_resp","img/orange_2bandit_a.png","70","70","prac","","","","","",""
"null","125982","pSARL_v2","pSARL_v2845lb4wj","64275e53f51a5ed4f6b7d019","fixation","img/fixation.png","null","","prac","","","","","",""
"614.1000000238419","126601","pSARL_v2","pSARL_v2845lb4wj","64275e53f51a5ed4f6b7d019","infreqPrac","img/green_2bandit_a2.png","68","68","prac","1","","","","",""
"614.1000000238419","126796","pSARL_v2","pSARL_v2845lb4wj","64275e53f51a5ed4f6b7d019","infreqPrac_resp","img/green_2bandit_a.png","68","68","prac","","","","","",""
"null","126966","pSARL_v2","pSARL_v2845lb4wj","64275e53f51a5ed4f6b7d019","fixation","img/fixation.png","null","","prac","","","","","",""
"423.1999999284744","127394","pSARL_v2","pSARL_v2845lb4wj","64275e53f51a5ed4f6b7d019","infreqPrac","img/green_2bandit_a2.png","68","68","prac","1","","","","",""
"423.1999999284744","127784","pSARL_v2","pSARL_v2845lb4wj","64275e53f51a5ed4f6b7d019","infreqPrac_resp","img/green_2bandit_a.png","68","68","prac","","","","","",""
"null","127943","pSARL_v2","pSARL_v2845lb4wj","64275e53f51a5ed4f6b7d019","fixation","img/fixation.png","null","","prac","","","","","",""
"414.5","128363","pSARL_v2","pSARL_v2845lb4wj","64275e53f51a5ed4f6b7d019","infreqPrac","img/green_2bandit_a2.png","68","68","prac","1","","","","",""
"414.5","128757","pSARL_v2","pSARL_v2845lb4wj","64275e53f51a5ed4f6b7d019","infreqPrac_resp","img/green_2bandit_a.png","68","68","prac","","","","","",""
"null","128926","pSARL_v2","pSARL_v2845lb4wj","64275e53f51a5ed4f6b7d019","fixation","img/fixation.png","null","","prac","","","","","",""
"391.7000000476837","129322","pSARL_v2","pSARL_v2845lb4wj","64275e53f51a5ed4f6b7d019","freqPrac","img/orange_2bandit_a2.png","70","70","prac","1","","","","",""
"391.7000000476837","129738","pSARL_v2","pSARL_v2845lb4wj","64275e53f51a5ed4f6b7d019","freqPrac_resp","img/orange_2bandit_a.png","70","70","prac","","","","","",""
"null","129897","pSARL_v2","pSARL_v2845lb4wj","64275e53f51a5ed4f6b7d019","fixation","img/fixation.png","null","","prac","","","","","",""
"419.89999997615814","130322","pSARL_v2","pSARL_v2845lb4wj","64275e53f51a5ed4f6b7d019","infreqPrac","img/green_2bandit_a2.png","68","68","prac","1","","","","",""
"419.89999997615814","130721","pSARL_v2","pSARL_v2845lb4wj","64275e53f51a5ed4f6b7d019","infreqPrac_resp","img/green_2bandit_a.png","68","68","prac","","","","","",""
"null","130880","pSARL_v2","pSARL_v2845lb4wj","64275e53f51a5ed4f6b7d019","fixation","img/fixation.png","null","","prac","","","","","",""
"397.5","131283","pSARL_v2","pSARL_v2845lb4wj","64275e53f51a5ed4f6b7d019","freqPrac","img/orange_2bandit_a2.png","70","70","prac","1","","","","",""
"397.5","131691","pSARL_v2","pSARL_v2845lb4wj","64275e53f51a5ed4f6b7d019","freqPrac_resp","img/orange_2bandit_a.png","70","70","prac","","","","","",""
"null","131847","pSARL_v2","pSARL_v2845lb4wj","64275e53f51a5ed4f6b7d019","fixation","img/fixation.png","null","","prac","","","","","",""
"430.8000000715256","132282","pSARL_v2","pSARL_v2845lb4wj","64275e53f51a5ed4f6b7d019","freqPrac","img/orange_2bandit_a2.png","70","70","prac","1","","","","",""
"430.8000000715256","132662","pSARL_v2","pSARL_v2845lb4wj","64275e53f51a5ed4f6b7d019","freqPrac_resp","img/orange_2bandit_a.png","70","70","prac","","","","","",""
"null","132819","pSARL_v2","pSARL_v2845lb4wj","64275e53f51a5ed4f6b7d019","fixation","img/fixation.png","null","","prac","","","","","",""
"36505.799999952316","169331","pSARL_v2","pSARL_v2845lb4wj","64275e53f51a5ed4f6b7d019","","","","","prac","","","","","",""
"578.2999999523163","169914","pSARL_v2","pSARL_v2845lb4wj","64275e53f51a5ed4f6b7d019","rewardPractice","img/slot.png","74","","prac","","","","","",""
"null","170676","pSARL_v2","pSARL_v2845lb4wj","64275e53f51a5ed4f6b7d019","feedback","<div class=""veryhighPoints""> +15 </div>","null","na","prac","","","","","",""
"null","170832","pSARL_v2","pSARL_v2845lb4wj","64275e53f51a5ed4f6b7d019","fixation","img/fixation.png","null","","prac","","","","","",""
"16413.799999952316","187251","pSARL_v2","pSARL_v2845lb4wj","64275e53f51a5ed4f6b7d019","","","","","prac","","","","","",""
"466","187722","pSARL_v2","pSARL_v2845lb4wj","64275e53f51a5ed4f6b7d019","freq","img/orange_2bandit_a2.png","68","70","test","0","1","1","1","",""
"null","188069","pSARL_v2","pSARL_v2845lb4wj","64275e53f51a5ed4f6b7d019","freq_resp","img/orange_2bandit_a.png","68","70","test","","","","1","",""
"null","188226","pSARL_v2","pSARL_v2845lb4wj","64275e53f51a5ed4f6b7d019","fixation","img/fixation.png","null","","test","","","","","",""
"467.2000000476837","188698","pSARL_v2","pSARL_v2845lb4wj","64275e53f51a5ed4f6b7d019","freq","img/orange_2bandit_a2.png","70","70","test","1","2","2","1","",""
"null","189049","pSARL_v2","pSARL_v2845lb4wj","64275e53f51a5ed4f6b7d019","freq_resp","img/orange_2bandit_a.png","70","70","test","","","","1","",""
"null","189206","pSARL_v2","pSARL_v2845lb4wj","64275e53f51a5ed4f6b7d019","fixation","img/fixation.png","null","","test","","","","","",""
"374.5","189586","pSARL_v2","pSARL_v2845lb4wj","64275e53f51a5ed4f6b7d019","freq","img/orange_2bandit_a2.png","70","70","test","1","3","3","1","",""
"null","190017","pSARL_v2","pSARL_v2845lb4wj","64275e53f51a5ed4f6b7d019","freq_resp","img/orange_2bandit_a.png","70","70","test","","","","1","",""
"null","190174","pSARL_v2","pSARL_v2845lb4wj","64275e53f51a5ed4f6b7d019","fixation","img/fixation.png","null","","test","","","","","",""
"374.5","190552","pSARL_v2","pSARL_v2845lb4wj","64275e53f51a5ed4f6b7d019","freq","img/orange_2bandit_a2.png","70","70","test","1","4","4","1","",""
"null","190991","pSARL_v2","pSARL_v2845lb4wj","64275e53f51a5ed4f6b7d019","freq_resp","img/orange_2bandit_a.png","70","70","test","","","","1","",""
"null","191161","pSARL_v2","pSARL_v2845lb4wj","64275e53f51a5ed4f6b7d019","fixation","img/fixation.png","null","","test","","","","","",""
"370.60000002384186","191536","pSARL_v2","pSARL_v2845lb4wj","64275e53f51a5ed4f6b7d019","freq","img/orange_2bandit_a2.png","70","70","test","1","5","5","1","",""
"null","191975","pSARL_v2","pSARL_v2845lb4wj","64275e53f51a5ed4f6b7d019","freq_resp","img/orange_2bandit_a.png","70","70","test","","","","1","",""
"null","192132","pSARL_v2","pSARL_v2845lb4wj","64275e53f51a5ed4f6b7d019","fixation","img/fixation.png","null","","test","","","","","",""
"361.39999997615814","192498","pSARL_v2","pSARL_v2845lb4wj","64275e53f51a5ed4f6b7d019","freq","img/orange_2bandit_a2.png","70","70","test","1","6","6","1","",""
"null","192943","pSARL_v2","pSARL_v2845lb4wj","64275e53f51a5ed4f6b7d019","freq_resp","img/orange_2bandit_a.png","70","70","test","","","","1","",""
"null","193114","pSARL_v2","pSARL_v2845lb4wj","64275e53f51a5ed4f6b7d019","fixation","img/fixation.png","null","","test","","","","","",""
"369.6999999284744","193487","pSARL_v2","pSARL_v2845lb4wj","64275e53f51a5ed4f6b7d019","freq","img/orange_2bandit_a2.png","70","70","test","1","7","7","1","",""
"null","193926","pSARL_v2","pSARL_v2845lb4wj","64275e53f51a5ed4f6b7d019","freq_resp","img/orange_2bandit_a.png","70","70","test","","","","1","",""
"null","194082","pSARL_v2","pSARL_v2845lb4wj","64275e53f51a5ed4f6b7d019","fixation","img/fixation.png","null","","test","","","","","",""
"376.7999999523163","194464","pSARL_v2","pSARL_v2845lb4wj","64275e53f51a5ed4f6b7d019","freq","img/orange_2bandit_a2.png","70","70","test","1","8","8","1","",""
"null","194896","pSARL_v2","pSARL_v2845lb4wj","64275e53f51a5ed4f6b7d019","freq_resp","img/orange_2bandit_a.png","70","70","test","","","","1","",""
"null","195051","pSARL_v2","pSARL_v2845lb4wj","64275e53f51a5ed4f6b7d019","fixation","img/fixation.png","null","","test","","","","","",""
"401.2000000476837","195458","pSARL_v2","pSARL_v2845lb4wj","64275e53f51a5ed4f6b7d019","infreq","img/green_2bandit_a2.png","68","68","test","1","9","9","1","",""
"null","195862","pSARL_v2","pSARL_v2845lb4wj","64275e53f51a5ed4f6b7d019","infreq_resp","img/green_2bandit_a.png","68","68","test","","","","1","",""
"null","196018","pSARL_v2","pSARL_v2845lb4wj","64275e53f51a5ed4f6b7d019","fixation","img/fixation.png","null","","test","","","","","",""
"418.59999990463257","196442","pSARL_v2","pSARL_v2845lb4wj","64275e53f51a5ed4f6b7d019","freq","img/orange_2bandit_a2.png","70","70","test","1","10","10","1","",""
"null","196834","pSARL_v2","pSARL_v2845lb4wj","64275e53f51a5ed4f6b7d019","freq_resp","img/orange_2bandit_a.png","70","70","test","","","","1","",""
"null","196990","pSARL_v2","pSARL_v2845lb4wj","64275e53f51a5ed4f6b7d019","fixation","img/fixation.png","null","","test","","","","","",""
"453.2999999523163","197447","pSARL_v2","pSARL_v2845lb4wj","64275e53f51a5ed4f6b7d019","freq","img/orange_2bandit_a2.png","70","70","test","1","11","11","1","",""
"null","197800","pSARL_v2","pSARL_v2845lb4wj","64275e53f51a5ed4f6b7d019","freq_resp","img/orange_2bandit_a.png","70","70","test","","","","1","",""
"null","197957","pSARL_v2","pSARL_v2845lb4wj","64275e53f51a5ed4f6b7d019","fixation","img/fixation.png","null","","test","","","","","",""
"406","198367","pSARL_v2","pSARL_v2845lb4wj","64275e53f51a5ed4f6b7d019","freq","img/orange_2bandit_a2.png","70","70","test","1","12","12","1","",""
"null","198770","pSARL_v2","pSARL_v2845lb4wj","64275e53f51a5ed4f6b7d019","freq_resp","img/orange_2bandit_a.png","70","70","test","","","","1","",""
"null","198928","pSARL_v2","pSARL_v2845lb4wj","64275e53f51a5ed4f6b7d019","fixation","img/fixation.png","null","","test","","","","","",""
"341.1999999284744","199274","pSARL_v2","pSARL_v2845lb4wj","64275e53f51a5ed4f6b7d019","freq","img/orange_2bandit_a2.png","70","70","test","1","13","13","1","",""
"null","199739","pSARL_v2","pSARL_v2845lb4wj","64275e53f51a5ed4f6b7d019","freq_resp","img/orange_2bandit_a.png","70","70","test","","","","1","",""
"null","199909","pSARL_v2","pSARL_v2845lb4wj","64275e53f51a5ed4f6b7d019","fixation","img/fixation.png","null","","test","","","","","",""
"367.89999997615814","200282","pSARL_v2","pSARL_v2845lb4wj","64275e53f51a5ed4f6b7d019","freq","img/orange_2bandit_a2.png","70","70","test","1","14","14","1","",""
"null","200734","pSARL_v2","pSARL_v2845lb4wj","64275e53f51a5ed4f6b7d019","freq_resp","img/orange_2bandit_a.png","70","70","test","","","","1","",""
"null","200892","pSARL_v2","pSARL_v2845lb4wj","64275e53f51a5ed4f6b7d019","fixation","img/fixation.png","null","","test","","","","","",""
"337.10000002384186","201234","pSARL_v2","pSARL_v2845lb4wj","64275e53f51a5ed4f6b7d019","freq","img/orange_2bandit_a2.png","70","70","test","1","15","15","1","",""
"null","201706","pSARL_v2","pSARL_v2845lb4wj","64275e53f51a5ed4f6b7d019","freq_resp","img/orange_2bandit_a.png","70","70","test","","","","1","",""
"null","201876","pSARL_v2","pSARL_v2845lb4wj","64275e53f51a5ed4f6b7d019","fixation","img/fixation.png","null","","test","","","","","",""
"312.7999999523163","202193","pSARL_v2","pSARL_v2845lb4wj","64275e53f51a5ed4f6b7d019","freq","img/orange_2bandit_a2.png","70","70","test","1","16","16","1","",""
"null","202686","pSARL_v2","pSARL_v2845lb4wj","64275e53f51a5ed4f6b7d019","freq_resp","img/orange_2bandit_a.png","70","70","test","","","","1","",""
"null","202842","pSARL_v2","pSARL_v2845lb4wj","64275e53f51a5ed4f6b7d019","fixation","img/fixation.png","null","","test","","","","","",""
"410.39999997615814","203258","pSARL_v2","pSARL_v2845lb4wj","64275e53f51a5ed4f6b7d019","infreq","img/green_2bandit_a2.png","68","68","test","1","17","17","1","",""
"null","203655","pSARL_v2","pSARL_v2845lb4wj","64275e53f51a5ed4f6b7d019","infreq_resp","img/green_2bandit_a.png","68","68","test","","","","1","",""
"null","203811","pSARL_v2","pSARL_v2845lb4wj","64275e53f51a5ed4f6b7d019","fixation","img/fixation.png","null","","test","","","","","",""
"369.7999999523163","204186","pSARL_v2","pSARL_v2845lb4wj","64275e53f51a5ed4f6b7d019","freq","img/orange_2bandit_a2.png","70","70","test","1","18","18","1","",""
"null","204624","pSARL_v2","pSARL_v2845lb4wj","64275e53f51a5ed4f6b7d019","freq_resp","img/orange_2bandit_a.png","70","70","test","","","","1","",""
"null","204794","pSARL_v2","pSARL_v2845lb4wj","64275e53f51a5ed4f6b7d019","fixation","img/fixation.png","null","","test","","","","","",""
"330.39999997615814","205130","pSARL_v2","pSARL_v2845lb4wj","64275e53f51a5ed4f6b7d019","freq","img/orange_2bandit_a2.png","70","70","test","1","19","19","1","",""
"null","205611","pSARL_v2","pSARL_v2845lb4wj","64275e53f51a5ed4f6b7d019","freq_resp","img/orange_2bandit_a.png","70","70","test","","","","1","",""
"null","205766","pSARL_v2","pSARL_v2845lb4wj","64275e53f51a5ed4f6b7d019","fixation","img/fixation.png","null","","test","","","","","",""
"462.89999997615814","206235","pSARL_v2","pSARL_v2845lb4wj","64275e53f51a5ed4f6b7d019","reward","img/slot.png","74","","test","","","","","",""
"null","206999","pSARL_v2","pSARL_v2845lb4wj","64275e53f51a5ed4f6b7d019","points","<div class=""verylowPoints""> -6 </div>","null","na","test","","","","1","-6","0"
"798.1999999284744","207802","pSARL_v2","pSARL_v2845lb4wj","64275e53f51a5ed4f6b7d019","freq","img/orange_2bandit_a2.png","70","70","test","1","20","20","2","",""
"null","207810","pSARL_v2","pSARL_v2845lb4wj","64275e53f51a5ed4f6b7d019","freq_resp","img/orange_2bandit_a.png","70","70","test","","","","2","",""
"null","207965","pSARL_v2","pSARL_v2845lb4wj","64275e53f51a5ed4f6b7d019","fixation","img/fixation.png","null","","test","","","","","",""
"400.09999990463257","208370","pSARL_v2","pSARL_v2845lb4wj","64275e53f51a5ed4f6b7d019","freq","img/orange_2bandit_a2.png","70","70","test","1","21","21","2","",""
"null","208778","pSARL_v2","pSARL_v2845lb4wj","64275e53f51a5ed4f6b7d019","freq_resp","img/orange_2bandit_a.png","70","70","test","","","","2","",""
"null","208935","pSARL_v2","pSARL_v2845lb4wj","64275e53f51a5ed4f6b7d019","fixation","img/fixation.png","null","","test","","","","","",""
"373.10000002384186","209314","pSARL_v2","pSARL_v2845lb4wj","64275e53f51a5ed4f6b7d019","freq","img/orange_2bandit_a2.png","70","70","test","1","22","22","2","",""
"null","209760","pSARL_v2","pSARL_v2845lb4wj","64275e53f51a5ed4f6b7d019","freq_resp","img/orange_2bandit_a.png","70","70","test","","","","2","",""
"null","209916","pSARL_v2","pSARL_v2845lb4wj","64275e53f51a5ed4f6b7d019","fixation","img/fixation.png","null","","test","","","","","",""
"353.2000000476837","210274","pSARL_v2","pSARL_v2845lb4wj","64275e53f51a5ed4f6b7d019","freq","img/orange_2bandit_a2.png","70","70","test","1","23","23","2","",""
"null","210725","pSARL_v2","pSARL_v2845lb4wj","64275e53f51a5ed4f6b7d019","freq_resp","img/orange_2bandit_a.png","70","70","test","","","","2","",""
"null","210896","pSARL_v2","pSARL_v2845lb4wj","64275e53f51a5ed4f6b7d019","fixation","img/fixation.png","null","","test","","","","","",""
"380.7000000476837","211282","pSARL_v2","pSARL_v2845lb4wj","64275e53f51a5ed4f6b7d019","freq","img/orange_2bandit_a2.png","70","70","test","1","24","24","2","",""
"null","211707","pSARL_v2","pSARL_v2845lb4wj","64275e53f51a5ed4f6b7d019","freq_resp","img/orange_2bandit_a.png","70","70","test","","","","2","",""
"null","211877","pSARL_v2","pSARL_v2845lb4wj","64275e53f51a5ed4f6b7d019","fixation","img/fixation.png","null","","test","","","","","",""
"455.6999999284744","212338","pSARL_v2","pSARL_v2845lb4wj","64275e53f51a5ed4f6b7d019","infreq","img/green_2bandit_a2.png","68","68","test","1","25","25","2","",""
"null","212691","pSARL_v2","pSARL_v2845lb4wj","64275e53f51a5ed4f6b7d019","infreq_resp","img/green_2bandit_a.png","68","68","test","","","","2","",""
"null","212849","pSARL_v2","pSARL_v2845lb4wj","64275e53f51a5ed4f6b7d019","fixation","img/fixation.png","null","","test","","","","","",""
"595.3000000715256","213450","pSARL_v2","pSARL_v2845lb4wj","64275e53f51a5ed4f6b7d019","freq","img/orange_2bandit_a2.png","70","70","test","1","26","26","2","",""
"null","213661","pSARL_v2","pSARL_v2845lb4wj","64275e53f51a5ed4f6b7d019","freq_resp","img/orange_2bandit_a.png","70","70","test","","","","2","",""
"null","213817","pSARL_v2","pSARL_v2845lb4wj","64275e53f51a5ed4f6b7d019","fixation","img/fixation.png","null","","test","","","","","",""
"395.7000000476837","214218","pSARL_v2","pSARL_v2845lb4wj","64275e53f51a5ed4f6b7d019","freq","img/orange_2bandit_a2.png","70","70","test","1","27","27","2","",""
"null","214630","pSARL_v2","pSARL_v2845lb4wj","64275e53f51a5ed4f6b7d019","freq_resp","img/orange_2bandit_a.png","70","70","test","","","","2","",""
"null","214801","pSARL_v2","pSARL_v2845lb4wj","64275e53f51a5ed4f6b7d019","fixation","img/fixation.png","null","","test","","","","","",""
"331.7000000476837","215137","pSARL_v2","pSARL_v2845lb4wj","64275e53f51a5ed4f6b7d019","freq","img/orange_2bandit_a2.png","70","70","test","1","28","28","2","",""
"null","215626","pSARL_v2","pSARL_v2845lb4wj","64275e53f51a5ed4f6b7d019","freq_resp","img/orange_2bandit_a.png","70","70","test","","","","2","",""
"null","215783","pSARL_v2","pSARL_v2845lb4wj","64275e53f51a5ed4f6b7d019","fixation","img/fixation.png","null","","test","","","","","",""
"389.5","216177","pSARL_v2","pSARL_v2845lb4wj","64275e53f51a5ed4f6b7d019","freq","img/orange_2bandit_a2.png","70","70","test","1","29","29","2","",""
"null","216600","pSARL_v2","pSARL_v2845lb4wj","64275e53f51a5ed4f6b7d019","freq_resp","img/orange_2bandit_a.png","70","70","test","","","","2","",""
"null","216770","pSARL_v2","pSARL_v2845lb4wj","64275e53f51a5ed4f6b7d019","fixation","img/fixation.png","null","","test","","","","","",""
"387.10000002384186","217162","pSARL_v2","pSARL_v2845lb4wj","64275e53f51a5ed4f6b7d019","freq","img/orange_2bandit_a2.png","70","70","test","1","30","30","2","",""
"null","217585","pSARL_v2","pSARL_v2845lb4wj","64275e53f51a5ed4f6b7d019","freq_resp","img/orange_2bandit_a.png","70","70","test","","","","2","",""
"null","217742","pSARL_v2","pSARL_v2845lb4wj","64275e53f51a5ed4f6b7d019","fixation","img/fixation.png","null","","test","","","","","",""
"374.6999999284744","218122","pSARL_v2","pSARL_v2845lb4wj","64275e53f51a5ed4f6b7d019","freq","img/orange_2bandit_a2.png","70","70","test","1","31","31","2","",""
"null","218552","pSARL_v2","pSARL_v2845lb4wj","64275e53f51a5ed4f6b7d019","freq_resp","img/orange_2bandit_a.png","70","70","test","","","","2","",""
"null","218707","pSARL_v2","pSARL_v2845lb4wj","64275e53f51a5ed4f6b7d019","fixation","img/fixation.png","null","","test","","","","","",""
"345.2999999523163","219057","pSARL_v2","pSARL_v2845lb4wj","64275e53f51a5ed4f6b7d019","freq","img/orange_2bandit_a2.png","70","70","test","1","32","32","2","",""
"null","219522","pSARL_v2","pSARL_v2845lb4wj","64275e53f51a5ed4f6b7d019","freq_resp","img/orange_2bandit_a.png","70","70","test","","","","2","",""
"null","219678","pSARL_v2","pSARL_v2845lb4wj","64275e53f51a5ed4f6b7d019","fixation","img/fixation.png","null","","test","","","","","",""
"310","219993","pSARL_v2","pSARL_v2845lb4wj","64275e53f51a5ed4f6b7d019","freq","img/orange_2bandit_a2.png","70","70","test","1","33","33","2","",""
"null","220488","pSARL_v2","pSARL_v2845lb4wj","64275e53f51a5ed4f6b7d019","freq_resp","img/orange_2bandit_a.png","70","70","test","","","","2","",""
"null","220644","pSARL_v2","pSARL_v2845lb4wj","64275e53f51a5ed4f6b7d019","fixation","img/fixation.png","null","","test","","","","","",""
"320.5","220970","pSARL_v2","pSARL_v2845lb4wj","64275e53f51a5ed4f6b7d019","freq","img/orange_2bandit_a2.png","70","70","test","1","34","34","2","",""
"null","221455","pSARL_v2","pSARL_v2845lb4wj","64275e53f51a5ed4f6b7d019","freq_resp","img/orange_2bandit_a.png","70","70","test","","","","2","",""
"null","221611","pSARL_v2","pSARL_v2845lb4wj","64275e53f51a5ed4f6b7d019","fixation","img/fixation.png","null","","test","","","","","",""
"369.2999999523163","221985","pSARL_v2","pSARL_v2845lb4wj","64275e53f51a5ed4f6b7d019","freq","img/orange_2bandit_a2.png","70","70","test","1","35","35","2","",""
"null","222422","pSARL_v2","pSARL_v2845lb4wj","64275e53f51a5ed4f6b7d019","freq_resp","img/orange_2bandit_a.png","70","70","test","","","","2","",""
"null","222579","pSARL_v2","pSARL_v2845lb4wj","64275e53f51a5ed4f6b7d019","fixation","img/fixation.png","null","","test","","","","","",""
"369.39999997615814","222953","pSARL_v2","pSARL_v2845lb4wj","64275e53f51a5ed4f6b7d019","freq","img/orange_2bandit_a2.png","70","70","test","1","36","36","2","",""
"null","223391","pSARL_v2","pSARL_v2845lb4wj","64275e53f51a5ed4f6b7d019","freq_resp","img/orange_2bandit_a.png","70","70","test","","","","2","",""
"null","223547","pSARL_v2","pSARL_v2845lb4wj","64275e53f51a5ed4f6b7d019","fixation","img/fixation.png","null","","test","","","","","",""
"321.3000000715256","223873","pSARL_v2","pSARL_v2845lb4wj","64275e53f51a5ed4f6b7d019","freq","img/orange_2bandit_a2.png","70","70","test","1","37","37","2","",""
"null","224363","pSARL_v2","pSARL_v2845lb4wj","64275e53f51a5ed4f6b7d019","freq_resp","img/orange_2bandit_a.png","70","70","test","","","","2","",""
"null","224520","pSARL_v2","pSARL_v2845lb4wj","64275e53f51a5ed4f6b7d019","fixation","img/fixation.png","null","","test","","","","","",""
"444.10000002384186","224969","pSARL_v2","pSARL_v2845lb4wj","64275e53f51a5ed4f6b7d019","infreq","img/green_2bandit_a2.png","68","68","test","1","38","38","2","",""
"null","225332","pSARL_v2","pSARL_v2845lb4wj","64275e53f51a5ed4f6b7d019","infreq_resp","img/green_2bandit_a.png","68","68","test","","","","2","",""
"null","225489","pSARL_v2","pSARL_v2845lb4wj","64275e53f51a5ed4f6b7d019","fixation","img/fixation.png","null","","test","","","","","",""
"395.3000000715256","225889","pSARL_v2","pSARL_v2845lb4wj","64275e53f51a5ed4f6b7d019","freq","img/orange_2bandit_a2.png","70","70","test","1","39","39","2","",""
"null","226315","pSARL_v2","pSARL_v2845lb4wj","64275e53f51a5ed4f6b7d019","freq_resp","img/orange_2bandit_a.png","70","70","test","","","","2","",""
"null","226472","pSARL_v2","pSARL_v2845lb4wj","64275e53f51a5ed4f6b7d019","fixation","img/fixation.png","null","","test","","","","","",""
"292.3000000715256","226769","pSARL_v2","pSARL_v2845lb4wj","64275e53f51a5ed4f6b7d019","freq","img/orange_2bandit_a2.png","70","70","test","1","40","40","2","",""
"null","227282","pSARL_v2","pSARL_v2845lb4wj","64275e53f51a5ed4f6b7d019","freq_resp","img/orange_2bandit_a.png","70","70","test","","","","2","",""
"null","227437","pSARL_v2","pSARL_v2845lb4wj","64275e53f51a5ed4f6b7d019","fixation","img/fixation.png","null","","test","","","","","",""
"423","227865","pSARL_v2","pSARL_v2845lb4wj","64275e53f51a5ed4f6b7d019","reward","img/slot.png","74","","test","","","","","",""
"null","228621","pSARL_v2","pSARL_v2845lb4wj","64275e53f51a5ed4f6b7d019","points","<div class=""verylowPoints""> -11 </div>","null","na","test","","","","2","-11","1"
"463.7999999523163","229089","pSARL_v2","pSARL_v2845lb4wj","64275e53f51a5ed4f6b7d019","freq","img/orange_2bandit_a2.png","70","70","test","1","41","41","3","",""
"null","229435","pSARL_v2","pSARL_v2845lb4wj","64275e53f51a5ed4f6b7d019","freq_resp","img/orange_2bandit_a.png","70","70","test","","","","3","",""
"null","229590","pSARL_v2","pSARL_v2845lb4wj","64275e53f51a5ed4f6b7d019","fixation","img/fixation.png","null","","test","","","","","",""
"398.2000000476837","229993","pSARL_v2","pSARL_v2845lb4wj","64275e53f51a5ed4f6b7d019","freq","img/orange_2bandit_a2.png","70","70","test","1","42","42","3","",""
"null","230415","pSARL_v2","pSARL_v2845lb4wj","64275e53f51a5ed4f6b7d019","freq_resp","img/orange_2bandit_a.png","70","70","test","","","","3","",""
"null","230571","pSARL_v2","pSARL_v2845lb4wj","64275e53f51a5ed4f6b7d019","fixation","img/fixation.png","null","","test","","","","","",""
"265.5","230841","pSARL_v2","pSARL_v2845lb4wj","64275e53f51a5ed4f6b7d019","freq","img/orange_2bandit_a2.png","70","70","test","1","43","43","3","",""
"null","231382","pSARL_v2","pSARL_v2845lb4wj","64275e53f51a5ed4f6b7d019","freq_resp","img/orange_2bandit_a.png","70","70","test","","","","3","",""
"null","231539","pSARL_v2","pSARL_v2845lb4wj","64275e53f51a5ed4f6b7d019","fixation","img/fixation.png","null","","test","","","","","",""
"281.60000002384186","231825","pSARL_v2","pSARL_v2845lb4wj","64275e53f51a5ed4f6b7d019","freq","img/orange_2bandit_a2.png","70","70","test","1","44","44","3","",""
"null","232349","pSARL_v2","pSARL_v2845lb4wj","64275e53f51a5ed4f6b7d019","freq_resp","img/orange_2bandit_a.png","70","70","test","","","","3","",""
"null","232519","pSARL_v2","pSARL_v2845lb4wj","64275e53f51a5ed4f6b7d019","fixation","img/fixation.png","null","","test","","","","","",""
"301.8000000715256","232826","pSARL_v2","pSARL_v2845lb4wj","64275e53f51a5ed4f6b7d019","infreq","img/green_2bandit_a2.png","70","68","test","0","45","45","3","",""
"null","233333","pSARL_v2","pSARL_v2845lb4wj","64275e53f51a5ed4f6b7d019","infreq_resp","img/green_2bandit_a.png","70","68","test","","","","3","",""
"null","233489","pSARL_v2","pSARL_v2845lb4wj","64275e53f51a5ed4f6b7d019","fixation","img/fixation.png","null","","test","","","","","",""
"339.1999999284744","233833","pSARL_v2","pSARL_v2845lb4wj","64275e53f51a5ed4f6b7d019","freq","img/orange_2bandit_a2.png","70","70","test","1","46","46","3","",""
"null","234300","pSARL_v2","pSARL_v2845lb4wj","64275e53f51a5ed4f6b7d019","freq_resp","img/orange_2bandit_a.png","70","70","test","","","","3","",""
"null","234457","pSARL_v2","pSARL_v2845lb4wj","64275e53f51a5ed4f6b7d019","fixation","img/fixation.png","null","","test","","","","","",""
"378.7000000476837","234841","pSARL_v2","pSARL_v2845lb4wj","64275e53f51a5ed4f6b7d019","freq","img/orange_2bandit_a2.png","70","70","test","1","47","47","3","",""
"null","235270","pSARL_v2","pSARL_v2845lb4wj","64275e53f51a5ed4f6b7d019","freq_resp","img/orange_2bandit_a.png","70","70","test","","","","3","",""
"null","235426","pSARL_v2","pSARL_v2845lb4wj","64275e53f51a5ed4f6b7d019","fixation","img/fixation.png","null","","test","","","","","",""
"298.89999997615814","235730","pSARL_v2","pSARL_v2845lb4wj","64275e53f51a5ed4f6b7d019","freq","img/orange_2bandit_a2.png","70","70","test","1","48","48","3","",""
"null","236236","pSARL_v2","pSARL_v2845lb4wj","64275e53f51a5ed4f6b7d019","freq_resp","img/orange_2bandit_a.png","70","70","test","","","","3","",""
"null","236392","pSARL_v2","pSARL_v2845lb4wj","64275e53f51a5ed4f6b7d019","fixation","img/fixation.png","null","","test","","","","","",""
"331.7000000476837","236729","pSARL_v2","pSARL_v2845lb4wj","64275e53f51a5ed4f6b7d019","freq","img/orange_2bandit_a2.png","70","70","test","1","49","49","3","",""
"null","237207","pSARL_v2","pSARL_v2845lb4wj","64275e53f51a5ed4f6b7d019","freq_resp","img/orange_2bandit_a.png","70","70","test","","","","3","",""
"null","237365","pSARL_v2","pSARL_v2845lb4wj","64275e53f51a5ed4f6b7d019","fixation","img/fixation.png","null","","test","","","","","",""
"366.7999999523163","237737","pSARL_v2","pSARL_v2845lb4wj","64275e53f51a5ed4f6b7d019","infreq","img/green_2bandit_a2.png","68","68","test","1","50","50","3","",""
"null","238176","pSARL_v2","pSARL_v2845lb4wj","64275e53f51a5ed4f6b7d019","infreq_resp","img/green_2bandit_a.png","68","68","test","","","","3","",""
"null","238332","pSARL_v2","pSARL_v2845lb4wj","64275e53f51a5ed4f6b7d019","fixation","img/fixation.png","null","","test","","","","","",""
"384.2999999523163","238721","pSARL_v2","pSARL_v2845lb4wj","64275e53f51a5ed4f6b7d019","freq","img/orange_2bandit_a2.png","70","70","test","1","51","51","3","",""
"null","239154","pSARL_v2","pSARL_v2845lb4wj","64275e53f51a5ed4f6b7d019","freq_resp","img/orange_2bandit_a.png","70","70","test","","","","3","",""
"null","239324","pSARL_v2","pSARL_v2845lb4wj","64275e53f51a5ed4f6b7d019","fixation","img/fixation.png","null","","test","","","","","",""
"496","239825","pSARL_v2","pSARL_v2845lb4wj","64275e53f51a5ed4f6b7d019","freq","img/orange_2bandit_a2.png","70","70","test","1","52","52","3","",""
"null","240137","pSARL_v2","pSARL_v2845lb4wj","64275e53f51a5ed4f6b7d019","freq_resp","img/orange_2bandit_a.png","70","70","test","","","","3","",""
"null","240293","pSARL_v2","pSARL_v2845lb4wj","64275e53f51a5ed4f6b7d019","fixation","img/fixation.png","null","","test","","","","","",""
"375.60000002384186","240673","pSARL_v2","pSARL_v2845lb4wj","64275e53f51a5ed4f6b7d019","freq","img/orange_2bandit_a2.png","70","70","test","1","53","53","3","",""
"null","241103","pSARL_v2","pSARL_v2845lb4wj","64275e53f51a5ed4f6b7d019","freq_resp","img/orange_2bandit_a.png","70","70","test","","","","3","",""
"null","241260","pSARL_v2","pSARL_v2845lb4wj","64275e53f51a5ed4f6b7d019","fixation","img/fixation.png","null","","test","","","","","",""
"376.60000002384186","241641","pSARL_v2","pSARL_v2845lb4wj","64275e53f51a5ed4f6b7d019","freq","img/orange_2bandit_a2.png","70","70","test","1","54","54","3","",""
"null","242072","pSARL_v2","pSARL_v2845lb4wj","64275e53f51a5ed4f6b7d019","freq_resp","img/orange_2bandit_a.png","70","70","test","","","","3","",""
"null","242228","pSARL_v2","pSARL_v2845lb4wj","64275e53f51a5ed4f6b7d019","fixation","img/fixation.png","null","","test","","","","","",""
"344.2999999523163","242577","pSARL_v2","pSARL_v2845lb4wj","64275e53f51a5ed4f6b7d019","freq","img/orange_2bandit_a2.png","70","70","test","1","55","55","3","",""
"null","243039","pSARL_v2","pSARL_v2845lb4wj","64275e53f51a5ed4f6b7d019","freq_resp","img/orange_2bandit_a.png","70","70","test","","","","3","",""
"null","243195","pSARL_v2","pSARL_v2845lb4wj","64275e53f51a5ed4f6b7d019","fixation","img/fixation.png","null","","test","","","","","",""
"336.60000002384186","243537","pSARL_v2","pSARL_v2845lb4wj","64275e53f51a5ed4f6b7d019","freq","img/orange_2bandit_a2.png","70","70","test","1","56","56","3","",""
"null","244020","pSARL_v2","pSARL_v2845lb4wj","64275e53f51a5ed4f6b7d019","freq_resp","img/orange_2bandit_a.png","70","70","test","","","","3","",""
"null","244178","pSARL_v2","pSARL_v2845lb4wj","64275e53f51a5ed4f6b7d019","fixation","img/fixation.png","null","","test","","","","","",""
"314.60000002384186","244497","pSARL_v2","pSARL_v2845lb4wj","64275e53f51a5ed4f6b7d019","freq","img/orange_2bandit_a2.png","70","70","test","1","57","57","3","",""
"null","244988","pSARL_v2","pSARL_v2845lb4wj","64275e53f51a5ed4f6b7d019","freq_resp","img/orange_2bandit_a.png","70","70","test","","","","3","",""
"null","245146","pSARL_v2","pSARL_v2845lb4wj","64275e53f51a5ed4f6b7d019","fixation","img/fixation.png","null","","test","","","","","",""
"314.6999999284744","245466","pSARL_v2","pSARL_v2845lb4wj","64275e53f51a5ed4f6b7d019","infreq","img/green_2bandit_a2.png","70","68","test","0","58","58","3","",""
"null","245971","pSARL_v2","pSARL_v2845lb4wj","64275e53f51a5ed4f6b7d019","infreq_resp","img/green_2bandit_a.png","70","68","test","","","","3","",""
"null","246127","pSARL_v2","pSARL_v2845lb4wj","64275e53f51a5ed4f6b7d019","fixation","img/fixation.png","null","","test","","","","","",""
"324.6999999284744","246457","pSARL_v2","pSARL_v2845lb4wj","64275e53f51a5ed4f6b7d019","freq","img/orange_2bandit_a2.png","70","70","test","1","59","59","3","",""
"null","246942","pSARL_v2","pSARL_v2845lb4wj","64275e53f51a5ed4f6b7d019","freq_resp","img/orange_2bandit_a.png","70","70","test","","","","3","",""
"null","247099","pSARL_v2","pSARL_v2845lb4wj","64275e53f51a5ed4f6b7d019","fixation","img/fixation.png","null","","test","","","","","",""
"296.7999999523163","247401","pSARL_v2","pSARL_v2845lb4wj","64275e53f51a5ed4f6b7d019","freq","img/orange_2bandit_a2.png","70","70","test","1","60","60","3","",""
"null","247922","pSARL_v2","pSARL_v2845lb4wj","64275e53f51a5ed4f6b7d019","freq_resp","img/orange_2bandit_a.png","70","70","test","","","","3","",""
"null","248078","pSARL_v2","pSARL_v2845lb4wj","64275e53f51a5ed4f6b7d019","fixation","img/fixation.png","null","","test","","","","","",""
"293.60000002384186","248377","pSARL_v2","pSARL_v2845lb4wj","64275e53f51a5ed4f6b7d019","freq","img/orange_2bandit_a2.png","70","70","test","1","61","61","3","",""
"null","248903","pSARL_v2","pSARL_v2845lb4wj","64275e53f51a5ed4f6b7d019","freq_resp","img/orange_2bandit_a.png","70","70","test","","","","3","",""
"null","249074","pSARL_v2","pSARL_v2845lb4wj","64275e53f51a5ed4f6b7d019","fixation","img/fixation.png","null","","test","","","","","",""
"329.89999997615814","249409","pSARL_v2","pSARL_v2845lb4wj","64275e53f51a5ed4f6b7d019","freq","img/orange_2bandit_a2.png","70","70","test","1","62","62","3","",""
"null","249885","pSARL_v2","pSARL_v2845lb4wj","64275e53f51a5ed4f6b7d019","freq_resp","img/orange_2bandit_a.png","70","70","test","","","","3","",""
"null","250042","pSARL_v2","pSARL_v2845lb4wj","64275e53f51a5ed4f6b7d019","fixation","img/fixation.png","null","","test","","","","","",""
"322.8000000715256","250369","pSARL_v2","pSARL_v2845lb4wj","64275e53f51a5ed4f6b7d019","freq","img/orange_2bandit_a2.png","70","70","test","1","63","63","3","",""
"null","250866","pSARL_v2","pSARL_v2845lb4wj","64275e53f51a5ed4f6b7d019","freq_resp","img/orange_2bandit_a.png","70","70","test","","","","3","",""
"null","251035","pSARL_v2","pSARL_v2845lb4wj","64275e53f51a5ed4f6b7d019","fixation","img/fixation.png","null","","test","","","","","",""
"272.6999999284744","251313","pSARL_v2","pSARL_v2845lb4wj","64275e53f51a5ed4f6b7d019","freq","img/orange_2bandit_a2.png","70","70","test","1","64","64","3","",""
"null","251848","pSARL_v2","pSARL_v2845lb4wj","64275e53f51a5ed4f6b7d019","freq_resp","img/orange_2bandit_a.png","70","70","test","","","","3","",""
"null","252005","pSARL_v2","pSARL_v2845lb4wj","64275e53f51a5ed4f6b7d019","fixation","img/fixation.png","null","","test","","","","","",""
"271.2999999523163","252281","pSARL_v2","pSARL_v2845lb4wj","64275e53f51a5ed4f6b7d019","freq","img/orange_2bandit_a2.png","70","70","test","1","65","65","3","",""
"null","252818","pSARL_v2","pSARL_v2845lb4wj","64275e53f51a5ed4f6b7d019","freq_resp","img/orange_2bandit_a.png","70","70","test","","","","3","",""
"null","252973","pSARL_v2","pSARL_v2845lb4wj","64275e53f51a5ed4f6b7d019","fixation","img/fixation.png","null","","test","","","","","",""
"294.60000002384186","253273","pSARL_v2","pSARL_v2845lb4wj","64275e53f51a5ed4f6b7d019","freq","img/orange_2bandit_a2.png","70","70","test","1","66","66","3","",""
"null","253783","pSARL_v2","pSARL_v2845lb4wj","64275e53f51a5ed4f6b7d019","freq_resp","img/orange_2bandit_a.png","70","70","test","","","","3","",""
"null","253940","pSARL_v2","pSARL_v2845lb4wj","64275e53f51a5ed4f6b7d019","fixation","img/fixation.png","null","","test","","","","","",""
"304","254249","pSARL_v2","pSARL_v2845lb4wj","64275e53f51a5ed4f6b7d019","reward","img/slot.png","74","","test","","","","","",""
"null","255018","pSARL_v2","pSARL_v2845lb4wj","64275e53f51a5ed4f6b7d019","points","<div class=""verylowPoints""> -7 </div>","null","na","test","","","","3","-7","2"
"466.1999999284744","255489","pSARL_v2","pSARL_v2845lb4wj","64275e53f51a5ed4f6b7d019","freq","img/orange_2bandit_a2.png","70","70","test","1","67","67","4","",""
"null","255830","pSARL_v2","pSARL_v2845lb4wj","64275e53f51a5ed4f6b7d019","freq_resp","img/orange_2bandit_a.png","70","70","test","","","","4","",""
"null","255987","pSARL_v2","pSARL_v2845lb4wj","64275e53f51a5ed4f6b7d019","fixation","img/fixation.png","null","","test","","","","","",""
"280.6999999284744","256273","pSARL_v2","pSARL_v2845lb4wj","64275e53f51a5ed4f6b7d019","freq","img/orange_2bandit_a2.png","70","70","test","1","68","68","4","",""
"null","256811","pSARL_v2","pSARL_v2845lb4wj","64275e53f51a5ed4f6b7d019","freq_resp","img/orange_2bandit_a.png","70","70","test","","","","4","",""
"null","256966","pSARL_v2","pSARL_v2845lb4wj","64275e53f51a5ed4f6b7d019","fixation","img/fixation.png","null","","test","","","","","",""
"149.60000002384186","257121","pSARL_v2","pSARL_v2845lb4wj","64275e53f51a5ed4f6b7d019","freq","img/orange_2bandit_a2.png","70","70","test","1","69","69","4","",""
"null","257783","pSARL_v2","pSARL_v2845lb4wj","64275e53f51a5ed4f6b7d019","freq_resp","img/orange_2bandit_a.png","70","70","test","","","","4","",""
"null","257953","pSARL_v2","pSARL_v2845lb4wj","64275e53f51a5ed4f6b7d019","fixation","img/fixation.png","null","","test","","","","","",""
"258.39999997615814","258217","pSARL_v2","pSARL_v2845lb4wj","64275e53f51a5ed4f6b7d019","freq","img/orange_2bandit_a2.png","70","70","test","1","70","70","4","",""
"null","258779","pSARL_v2","pSARL_v2845lb4wj","64275e53f51a5ed4f6b7d019","freq_resp","img/orange_2bandit_a.png","70","70","test","","","","4","",""
"null","258937","pSARL_v2","pSARL_v2845lb4wj","64275e53f51a5ed4f6b7d019","fixation","img/fixation.png","null","","test","","","","","",""
"267.39999997615814","259209","pSARL_v2","pSARL_v2845lb4wj","64275e53f51a5ed4f6b7d019","freq","img/orange_2bandit_a2.png","70","70","test","1","71","71","4","",""
"null","259746","pSARL_v2","pSARL_v2845lb4wj","64275e53f51a5ed4f6b7d019","freq_resp","img/orange_2bandit_a.png","70","70","test","","","","4","",""
"null","259902","pSARL_v2","pSARL_v2845lb4wj","64275e53f51a5ed4f6b7d019","fixation","img/fixation.png","null","","test","","","","","",""
"238.10000002384186","260145","pSARL_v2","pSARL_v2845lb4wj","64275e53f51a5ed4f6b7d019","freq","img/orange_2bandit_a2.png","70","70","test","1","72","72","4","",""
"null","260716","pSARL_v2","pSARL_v2845lb4wj","64275e53f51a5ed4f6b7d019","freq_resp","img/orange_2bandit_a.png","70","70","test","","","","4","",""
"null","260873","pSARL_v2","pSARL_v2845lb4wj","64275e53f51a5ed4f6b7d019","fixation","img/fixation.png","null","","test","","","","","",""
"225.60000002384186","261104","pSARL_v2","pSARL_v2845lb4wj","64275e53f51a5ed4f6b7d019","freq","img/orange_2bandit_a2.png","70","70","test","1","73","73","4","",""
"null","261689","pSARL_v2","pSARL_v2845lb4wj","64275e53f51a5ed4f6b7d019","freq_resp","img/orange_2bandit_a.png","70","70","test","","","","4","",""
"null","261845","pSARL_v2","pSARL_v2845lb4wj","64275e53f51a5ed4f6b7d019","fixation","img/fixation.png","null","","test","","","","","",""
"397.3000000715256","262246","pSARL_v2","pSARL_v2845lb4wj","64275e53f51a5ed4f6b7d019","freq","img/orange_2bandit_a2.png","70","70","test","1","74","74","4","",""
"null","262661","pSARL_v2","pSARL_v2845lb4wj","64275e53f51a5ed4f6b7d019","freq_resp","img/orange_2bandit_a.png","70","70","test","","","","4","",""
"null","262817","pSARL_v2","pSARL_v2845lb4wj","64275e53f51a5ed4f6b7d019","fixation","img/fixation.png","null","","test","","","","","",""
"291.2999999523163","263113","pSARL_v2","pSARL_v2845lb4wj","64275e53f51a5ed4f6b7d019","freq","img/orange_2bandit_a2.png","70","70","test","1","75","75","4","",""
"null","263630","pSARL_v2","pSARL_v2845lb4wj","64275e53f51a5ed4f6b7d019","freq_resp","img/orange_2bandit_a.png","70","70","test","","","","4","",""
"null","263789","pSARL_v2","pSARL_v2845lb4wj","64275e53f51a5ed4f6b7d019","fixation","img/fixation.png","null","","test","","","","","",""
"247","264041","pSARL_v2","pSARL_v2845lb4wj","64275e53f51a5ed4f6b7d019","infreq","img/green_2bandit_a2.png","70","68","test","0","76","76","4","",""
"null","264600","pSARL_v2","pSARL_v2845lb4wj","64275e53f51a5ed4f6b7d019","infreq_resp","img/green_2bandit_a.png","70","68","test","","","","4","",""
"null","264757","pSARL_v2","pSARL_v2845lb4wj","64275e53f51a5ed4f6b7d019","fixation","img/fixation.png","null","","test","","","","","",""
"278.7999999523163","265041","pSARL_v2","pSARL_v2845lb4wj","64275e53f51a5ed4f6b7d019","freq","img/orange_2bandit_a2.png","70","70","test","1","77","77","4","",""
"null","265566","pSARL_v2","pSARL_v2845lb4wj","64275e53f51a5ed4f6b7d019","freq_resp","img/orange_2bandit_a.png","70","70","test","","","","4","",""
"null","265725","pSARL_v2","pSARL_v2845lb4wj","64275e53f51a5ed4f6b7d019","fixation","img/fixation.png","null","","test","","","","","",""
"279","266009","pSARL_v2","pSARL_v2845lb4wj","64275e53f51a5ed4f6b7d019","freq","img/orange_2bandit_a2.png","70","70","test","1","78","78","4","",""
"null","266548","pSARL_v2","pSARL_v2845lb4wj","64275e53f51a5ed4f6b7d019","freq_resp","img/orange_2bandit_a.png","70","70","test","","","","4","",""
"null","266705","pSARL_v2","pSARL_v2845lb4wj","64275e53f51a5ed4f6b7d019","fixation","img/fixation.png","null","","test","","","","","",""
"298.40000009536743","267009","pSARL_v2","pSARL_v2845lb4wj","64275e53f51a5ed4f6b7d019","freq","img/orange_2bandit_a2.png","70","70","test","1","79","79","4","",""
"null","267519","pSARL_v2","pSARL_v2845lb4wj","64275e53f51a5ed4f6b7d019","freq_resp","img/orange_2bandit_a.png","70","70","test","","","","4","",""
"null","267689","pSARL_v2","pSARL_v2845lb4wj","64275e53f51a5ed4f6b7d019","fixation","img/fixation.png","null","","test","","","","","",""
"330.7000000476837","268025","pSARL_v2","pSARL_v2845lb4wj","64275e53f51a5ed4f6b7d019","freq","img/orange_2bandit_a2.png","70","70","test","1","80","80","4","",""
"null","268500","pSARL_v2","pSARL_v2845lb4wj","64275e53f51a5ed4f6b7d019","freq_resp","img/orange_2bandit_a.png","70","70","test","","","","4","",""
"null","268657","pSARL_v2","pSARL_v2845lb4wj","64275e53f51a5ed4f6b7d019","fixation","img/fixation.png","null","","test","","","","","",""
"314.60000002384186","268975","pSARL_v2","pSARL_v2845lb4wj","64275e53f51a5ed4f6b7d019","freq","img/orange_2bandit_a2.png","70","70","test","1","81","81","4","",""
"null","269472","pSARL_v2","pSARL_v2845lb4wj","64275e53f51a5ed4f6b7d019","freq_resp","img/orange_2bandit_a.png","70","70","test","","","","4","",""
"null","269643","pSARL_v2","pSARL_v2845lb4wj","64275e53f51a5ed4f6b7d019","fixation","img/fixation.png","null","","test","","","","","",""
"384.89999997615814","270033","pSARL_v2","pSARL_v2845lb4wj","64275e53f51a5ed4f6b7d019","freq","img/orange_2bandit_a2.png","70","70","test","1","82","82","4","",""
"null","270454","pSARL_v2","pSARL_v2845lb4wj","64275e53f51a5ed4f6b7d019","freq_resp","img/orange_2bandit_a.png","70","70","test","","","","4","",""
"null","270611","pSARL_v2","pSARL_v2845lb4wj","64275e53f51a5ed4f6b7d019","fixation","img/fixation.png","null","","test","","","","","",""
"336.2999999523163","270952","pSARL_v2","pSARL_v2845lb4wj","64275e53f51a5ed4f6b7d019","freq","img/orange_2bandit_a2.png","70","70","test","1","83","83","4","",""
"null","271423","pSARL_v2","pSARL_v2845lb4wj","64275e53f51a5ed4f6b7d019","freq_resp","img/orange_2bandit_a.png","70","70","test","","","","4","",""
"null","271581","pSARL_v2","pSARL_v2845lb4wj","64275e53f51a5ed4f6b7d019","fixation","img/fixation.png","null","","test","","","","","",""
"326.89999997615814","271913","pSARL_v2","pSARL_v2845lb4wj","64275e53f51a5ed4f6b7d019","freq","img/orange_2bandit_a2.png","70","70","test","1","84","84","4","",""
"null","272394","pSARL_v2","pSARL_v2845lb4wj","64275e53f51a5ed4f6b7d019","freq_resp","img/orange_2bandit_a.png","70","70","test","","","","4","",""
"null","272548","pSARL_v2","pSARL_v2845lb4wj","64275e53f51a5ed4f6b7d019","fixation","img/fixation.png","null","","test","","","","","",""
"335.5","272889","pSARL_v2","pSARL_v2845lb4wj","64275e53f51a5ed4f6b7d019","freq","img/orange_2bandit_a2.png","70","70","test","1","85","85","4","",""
"null","273360","pSARL_v2","pSARL_v2845lb4wj","64275e53f51a5ed4f6b7d019","freq_resp","img/orange_2bandit_a.png","70","70","test","","","","4","",""
"null","273516","pSARL_v2","pSARL_v2845lb4wj","64275e53f51a5ed4f6b7d019","fixation","img/fixation.png","null","","test","","","","","",""
"311.40000009536743","273833","pSARL_v2","pSARL_v2845lb4wj","64275e53f51a5ed4f6b7d019","infreq","img/green_2bandit_a2.png","70","68","test","0","86","86","4","",""
"null","274328","pSARL_v2","pSARL_v2845lb4wj","64275e53f51a5ed4f6b7d019","infreq_resp","img/green_2bandit_a.png","70","68","test","","","","4","",""
"null","274484","pSARL_v2","pSARL_v2845lb4wj","64275e53f51a5ed4f6b7d019","fixation","img/fixation.png","null","","test","","","","","",""
"431.89999997615814","274921","pSARL_v2","pSARL_v2845lb4wj","64275e53f51a5ed4f6b7d019","freq","img/orange_2bandit_a2.png","70","70","test","1","87","87","4","",""
"null","275296","pSARL_v2","pSARL_v2845lb4wj","64275e53f51a5ed4f6b7d019","freq_resp","img/orange_2bandit_a.png","70","70","test","","","","4","",""
"null","275453","pSARL_v2","pSARL_v2845lb4wj","64275e53f51a5ed4f6b7d019","fixation","img/fixation.png","null","","test","","","","","",""
"319.09999990463257","275777","pSARL_v2","pSARL_v2845lb4wj","64275e53f51a5ed4f6b7d019","freq","img/orange_2bandit_a2.png","70","70","test","1","88","88","4","",""
"null","276268","pSARL_v2","pSARL_v2845lb4wj","64275e53f51a5ed4f6b7d019","freq_resp","img/orange_2bandit_a.png","70","70","test","","","","4","",""
"null","276438","pSARL_v2","pSARL_v2845lb4wj","64275e53f51a5ed4f6b7d019","fixation","img/fixation.png","null","","test","","","","","",""
"429.7999999523163","276873","pSARL_v2","pSARL_v2845lb4wj","64275e53f51a5ed4f6b7d019","reward","img/slot.png","74","","test","","","","","",""
"null","277640","pSARL_v2","pSARL_v2845lb4wj","64275e53f51a5ed4f6b7d019","points","<div class=""verylowPoints""> -3 </div>","null","na","test","","","","4","-3","3"
"411.7000000476837","278057","pSARL_v2","pSARL_v2845lb4wj","64275e53f51a5ed4f6b7d019","freq","img/orange_2bandit_a2.png","70","70","test","1","89","89","5","",""
"null","278453","pSARL_v2","pSARL_v2845lb4wj","64275e53f51a5ed4f6b7d019","freq_resp","img/orange_2bandit_a.png","70","70","test","","","","5","",""
"null","278623","pSARL_v2","pSARL_v2845lb4wj","64275e53f51a5ed4f6b7d019","fixation","img/fixation.png","null","","test","","","","","",""
"317","278945","pSARL_v2","pSARL_v2845lb4wj","64275e53f51a5ed4f6b7d019","freq","img/orange_2bandit_a2.png","70","70","test","1","90","90","5","",""
"null","279449","pSARL_v2","pSARL_v2845lb4wj","64275e53f51a5ed4f6b7d019","freq_resp","img/orange_2bandit_a.png","70","70","test","","","","5","",""
"null","279606","pSARL_v2","pSARL_v2845lb4wj","64275e53f51a5ed4f6b7d019","fixation","img/fixation.png","null","","test","","","","","",""
"277.59999990463257","279889","pSARL_v2","pSARL_v2845lb4wj","64275e53f51a5ed4f6b7d019","freq","img/orange_2bandit_a2.png","70","70","test","1","91","91","5","",""
"null","280417","pSARL_v2","pSARL_v2845lb4wj","64275e53f51a5ed4f6b7d019","freq_resp","img/orange_2bandit_a.png","70","70","test","","","","5","",""
"null","280587","pSARL_v2","pSARL_v2845lb4wj","64275e53f51a5ed4f6b7d019","fixation","img/fixation.png","null","","test","","","","","",""
"256.2999999523163","280849","pSARL_v2","pSARL_v2845lb4wj","64275e53f51a5ed4f6b7d019","freq","img/orange_2bandit_a2.png","70","70","test","1","92","92","5","",""
"null","281400","pSARL_v2","pSARL_v2845lb4wj","64275e53f51a5ed4f6b7d019","freq_resp","img/orange_2bandit_a.png","70","70","test","","","","5","",""
"null","281557","pSARL_v2","pSARL_v2845lb4wj","64275e53f51a5ed4f6b7d019","fixation","img/fixation.png","null","","test","","","","","",""
"286.5","281849","pSARL_v2","pSARL_v2845lb4wj","64275e53f51a5ed4f6b7d019","freq","img/orange_2bandit_a2.png","70","70","test","1","93","93","5","",""
"null","282372","pSARL_v2","pSARL_v2845lb4wj","64275e53f51a5ed4f6b7d019","freq_resp","img/orange_2bandit_a.png","70","70","test","","","","5","",""
"null","282528","pSARL_v2","pSARL_v2845lb4wj","64275e53f51a5ed4f6b7d019","fixation","img/fixation.png","null","","test","","","","","",""
"332","282865","pSARL_v2","pSARL_v2845lb4wj","64275e53f51a5ed4f6b7d019","freq","img/orange_2bandit_a2.png","70","70","test","1","94","94","5","",""
"null","283347","pSARL_v2","pSARL_v2845lb4wj","64275e53f51a5ed4f6b7d019","freq_resp","img/orange_2bandit_a.png","70","70","test","","","","5","",""
"null","283504","pSARL_v2","pSARL_v2845lb4wj","64275e53f51a5ed4f6b7d019","fixation","img/fixation.png","null","","test","","","","","",""
"307.10000002384186","283817","pSARL_v2","pSARL_v2845lb4wj","64275e53f51a5ed4f6b7d019","freq","img/orange_2bandit_a2.png","70","70","test","1","95","95","5","",""
"null","284327","pSARL_v2","pSARL_v2845lb4wj","64275e53f51a5ed4f6b7d019","freq_resp","img/orange_2bandit_a.png","70","70","test","","","","5","",""
"null","284484","pSARL_v2","pSARL_v2845lb4wj","64275e53f51a5ed4f6b7d019","fixation","img/fixation.png","null","","test","","","","","",""
"271.90000009536743","284761","pSARL_v2","pSARL_v2845lb4wj","64275e53f51a5ed4f6b7d019","freq","img/orange_2bandit_a2.png","70","70","test","1","96","96","5","",""
"null","285300","pSARL_v2","pSARL_v2845lb4wj","64275e53f51a5ed4f6b7d019","freq_resp","img/orange_2bandit_a.png","70","70","test","","","","5","",""
"null","285457","pSARL_v2","pSARL_v2845lb4wj","64275e53f51a5ed4f6b7d019","fixation","img/fixation.png","null","","test","","","","","",""
"306.10000002384186","285769","pSARL_v2","pSARL_v2845lb4wj","64275e53f51a5ed4f6b7d019","freq","img/orange_2bandit_a2.png","70","70","test","1","97","97","5","",""
"null","286268","pSARL_v2","pSARL_v2845lb4wj","64275e53f51a5ed4f6b7d019","freq_resp","img/orange_2bandit_a.png","70","70","test","","","","5","",""
"null","286424","pSARL_v2","pSARL_v2845lb4wj","64275e53f51a5ed4f6b7d019","fixation","img/fixation.png","null","","test","","","","","",""
"315.89999997615814","286744","pSARL_v2","pSARL_v2845lb4wj","64275e53f51a5ed4f6b7d019","freq","img/orange_2bandit_a2.png","70","70","test","1","98","98","5","",""
"null","287234","pSARL_v2","pSARL_v2845lb4wj","64275e53f51a5ed4f6b7d019","freq_resp","img/orange_2bandit_a.png","70","70","test","","","","5","",""
"null","287403","pSARL_v2","pSARL_v2845lb4wj","64275e53f51a5ed4f6b7d019","fixation","img/fixation.png","null","","test","","","","","",""
"160.19999992847443","287569","pSARL_v2","pSARL_v2845lb4wj","64275e53f51a5ed4f6b7d019","freq","img/orange_2bandit_a2.png","70","70","test","1","99","99","5","",""
"null","288215","pSARL_v2","pSARL_v2845lb4wj","64275e53f51a5ed4f6b7d019","freq_resp","img/orange_2bandit_a.png","70","70","test","","","","5","",""
"null","288371","pSARL_v2","pSARL_v2845lb4wj","64275e53f51a5ed4f6b7d019","fixation","img/fixation.png","null","","test","","","","","",""
"328.3000000715256","288704","pSARL_v2","pSARL_v2845lb4wj","64275e53f51a5ed4f6b7d019","freq","img/orange_2bandit_a2.png","70","70","test","1","100","100","5","",""
"null","289195","pSARL_v2","pSARL_v2845lb4wj","64275e53f51a5ed4f6b7d019","freq_resp","img/orange_2bandit_a.png","70","70","test","","","","5","",""
"null","289351","pSARL_v2","pSARL_v2845lb4wj","64275e53f51a5ed4f6b7d019","fixation","img/fixation.png","null","","test","","","","","",""
"268.2000000476837","289624","pSARL_v2","pSARL_v2845lb4wj","64275e53f51a5ed4f6b7d019","freq","img/orange_2bandit_a2.png","70","70","test","1","101","101","5","",""
"null","290163","pSARL_v2","pSARL_v2845lb4wj","64275e53f51a5ed4f6b7d019","freq_resp","img/orange_2bandit_a.png","70","70","test","","","","5","",""
"null","290334","pSARL_v2","pSARL_v2845lb4wj","64275e53f51a5ed4f6b7d019","fixation","img/fixation.png","null","","test","","","","","",""
"269.7000000476837","290609","pSARL_v2","pSARL_v2845lb4wj","64275e53f51a5ed4f6b7d019","freq","img/orange_2bandit_a2.png","70","70","test","1","102","102","5","",""
"null","291145","pSARL_v2","pSARL_v2845lb4wj","64275e53f51a5ed4f6b7d019","freq_resp","img/orange_2bandit_a.png","70","70","test","","","","5","",""
"null","291316","pSARL_v2","pSARL_v2845lb4wj","64275e53f51a5ed4f6b7d019","fixation","img/fixation.png","null","","test","","","","","",""
"319.8000000715256","291641","pSARL_v2","pSARL_v2845lb4wj","64275e53f51a5ed4f6b7d019","freq","img/orange_2bandit_a2.png","70","70","test","1","103","103","5","",""
"null","292127","pSARL_v2","pSARL_v2845lb4wj","64275e53f51a5ed4f6b7d019","freq_resp","img/orange_2bandit_a.png","70","70","test","","","","5","",""
"null","292296","pSARL_v2","pSARL_v2845lb4wj","64275e53f51a5ed4f6b7d019","fixation","img/fixation.png","null","","test","","","","","",""
"435.39999997615814","292736","pSARL_v2","pSARL_v2845lb4wj","64275e53f51a5ed4f6b7d019","infreq","img/green_2bandit_a2.png","68","68","test","1","104","104","5","",""
"null","293112","pSARL_v2","pSARL_v2845lb4wj","64275e53f51a5ed4f6b7d019","infreq_resp","img/green_2bandit_a.png","68","68","test","","","","5","",""
"null","293283","pSARL_v2","pSARL_v2845lb4wj","64275e53f51a5ed4f6b7d019","fixation","img/fixation.png","null","","test","","","","","",""
"488.89999997615814","293777","pSARL_v2","pSARL_v2845lb4wj","64275e53f51a5ed4f6b7d019","infreq","img/green_2bandit_a2.png","68","68","test","1","105","105","5","",""
"null","294100","pSARL_v2","pSARL_v2845lb4wj","64275e53f51a5ed4f6b7d019","infreq_resp","img/green_2bandit_a.png","68","68","test","","","","5","",""
"null","294256","pSARL_v2","pSARL_v2845lb4wj","64275e53f51a5ed4f6b7d019","fixation","img/fixation.png","null","","test","","","","","",""
"411.2000000476837","294672","pSARL_v2","pSARL_v2845lb4wj","64275e53f51a5ed4f6b7d019","freq","img/orange_2bandit_a2.png","70","70","test","1","106","106","5","",""
"null","295067","pSARL_v2","pSARL_v2845lb4wj","64275e53f51a5ed4f6b7d019","freq_resp","img/orange_2bandit_a.png","70","70","test","","","","5","",""
"null","295224","pSARL_v2","pSARL_v2845lb4wj","64275e53f51a5ed4f6b7d019","fixation","img/fixation.png","null","","test","","","","","",""
"259.7000000476837","295489","pSARL_v2","pSARL_v2845lb4wj","64275e53f51a5ed4f6b7d019","freq","img/orange_2bandit_a2.png","70","70","test","1","107","107","5","",""
"null","296050","pSARL_v2","pSARL_v2845lb4wj","64275e53f51a5ed4f6b7d019","freq_resp","img/orange_2bandit_a.png","70","70","test","","","","5","",""
"null","296219","pSARL_v2","pSARL_v2845lb4wj","64275e53f51a5ed4f6b7d019","fixation","img/fixation.png","null","","test","","","","","",""
"288.59999990463257","296513","pSARL_v2","pSARL_v2845lb4wj","64275e53f51a5ed4f6b7d019","reward","img/slot.png","74","","test","","","","","",""
"null","297283","pSARL_v2","pSARL_v2845lb4wj","64275e53f51a5ed4f6b7d019","points","<div class=""veryhighPoints""> +1 </div>","null","na","test","","","","5","1","4"
"560.5","297849","pSARL_v2","pSARL_v2845lb4wj","64275e53f51a5ed4f6b7d019","freq","img/orange_2bandit_a2.png","70","70","test","1","108","108","6","",""
"null","298105","pSARL_v2","pSARL_v2845lb4wj","64275e53f51a5ed4f6b7d019","freq_resp","img/orange_2bandit_a.png","70","70","test","","","","6","",""
"null","298262","pSARL_v2","pSARL_v2845lb4wj","64275e53f51a5ed4f6b7d019","fixation","img/fixation.png","null","","test","","","","","",""
"284.6999999284744","298552","pSARL_v2","pSARL_v2845lb4wj","64275e53f51a5ed4f6b7d019","infreq","img/green_2bandit_a2.png","70","68","test","0","109","109","6","",""
"null","299088","pSARL_v2","pSARL_v2845lb4wj","64275e53f51a5ed4f6b7d019","infreq_resp","img/green_2bandit_a.png","70","68","test","","","","6","",""
"null","299247","pSARL_v2","pSARL_v2845lb4wj","64275e53f51a5ed4f6b7d019","fixation","img/fixation.png","null","","test","","","","","",""
"420.6999999284744","299672","pSARL_v2","pSARL_v2845lb4wj","64275e53f51a5ed4f6b7d019","freq","img/orange_2bandit_a2.png","70","70","test","1","110","110","6","",""
"null","300068","pSARL_v2","pSARL_v2845lb4wj","64275e53f51a5ed4f6b7d019","freq_resp","img/orange_2bandit_a.png","70","70","test","","","","6","",""
"null","300224","pSARL_v2","pSARL_v2845lb4wj","64275e53f51a5ed4f6b7d019","fixation","img/fixation.png","null","","test","","","","","",""
"299.3000000715256","300528","pSARL_v2","pSARL_v2845lb4wj","64275e53f51a5ed4f6b7d019","freq","img/orange_2bandit_a2.png","70","70","test","1","111","111","6","",""
"null","301048","pSARL_v2","pSARL_v2845lb4wj","64275e53f51a5ed4f6b7d019","freq_resp","img/orange_2bandit_a.png","70","70","test","","","","6","",""
"null","301204","pSARL_v2","pSARL_v2845lb4wj","64275e53f51a5ed4f6b7d019","fixation","img/fixation.png","null","","test","","","","","",""
"302.89999997615814","301513","pSARL_v2","pSARL_v2845lb4wj","64275e53f51a5ed4f6b7d019","freq","img/orange_2bandit_a2.png","70","70","test","1","112","112","6","",""
"null","302020","pSARL_v2","pSARL_v2845lb4wj","64275e53f51a5ed4f6b7d019","freq_resp","img/orange_2bandit_a.png","70","70","test","","","","6","",""
"null","302179","pSARL_v2","pSARL_v2845lb4wj","64275e53f51a5ed4f6b7d019","fixation","img/fixation.png","null","","test","","","","","",""
"288.8000000715256","302473","pSARL_v2","pSARL_v2845lb4wj","64275e53f51a5ed4f6b7d019","freq","img/orange_2bandit_a2.png","70","70","test","1","113","113","6","",""
"null","302991","pSARL_v2","pSARL_v2845lb4wj","64275e53f51a5ed4f6b7d019","freq_resp","img/orange_2bandit_a.png","70","70","test","","","","6","",""
"null","303149","pSARL_v2","pSARL_v2845lb4wj","64275e53f51a5ed4f6b7d019","fixation","img/fixation.png","null","","test","","","","","",""
"294.60000002384186","303449","pSARL_v2","pSARL_v2845lb4wj","64275e53f51a5ed4f6b7d019","freq","img/orange_2bandit_a2.png","70","70","test","1","114","114","6","",""
"null","303961","pSARL_v2","pSARL_v2845lb4wj","64275e53f51a5ed4f6b7d019","freq_resp","img/orange_2bandit_a.png","70","70","test","","","","6","",""
"null","304117","pSARL_v2","pSARL_v2845lb4wj","64275e53f51a5ed4f6b7d019","fixation","img/fixation.png","null","","test","","","","","",""
"302.5","304425","pSARL_v2","pSARL_v2845lb4wj","64275e53f51a5ed4f6b7d019","freq","img/orange_2bandit_a2.png","70","70","test","1","115","115","6","",""
"null","304936","pSARL_v2","pSARL_v2845lb4wj","64275e53f51a5ed4f6b7d019","freq_resp","img/orange_2bandit_a.png","70","70","test","","","","6","",""
"null","305093","pSARL_v2","pSARL_v2845lb4wj","64275e53f51a5ed4f6b7d019","fixation","img/fixation.png","null","","test","","","","","",""
"294.5","305393","pSARL_v2","pSARL_v2845lb4wj","64275e53f51a5ed4f6b7d019","freq","img/orange_2bandit_a2.png","70","70","test","1","116","116","6","",""
"null","305904","pSARL_v2","pSARL_v2845lb4wj","64275e53f51a5ed4f6b7d019","freq_resp","img/orange_2bandit_a.png","70","70","test","","","","6","",""
"null","306074","pSARL_v2","pSARL_v2845lb4wj","64275e53f51a5ed4f6b7d019","fixation","img/fixation.png","null","","test","","","","","",""
"273.1999999284744","306352","pSARL_v2","pSARL_v2845lb4wj","64275e53f51a5ed4f6b7d019","freq","img/orange_2bandit_a2.png","70","70","test","1","117","117","6","",""
"null","306898","pSARL_v2","pSARL_v2845lb4wj","64275e53f51a5ed4f6b7d019","freq_resp","img/orange_2bandit_a.png","70","70","test","","","","6","",""
"null","307054","pSARL_v2","pSARL_v2845lb4wj","64275e53f51a5ed4f6b7d019","fixation","img/fixation.png","null","","test","","","","","",""
"341","307400","pSARL_v2","pSARL_v2845lb4wj","64275e53f51a5ed4f6b7d019","freq","img/orange_2bandit_a2.png","70","70","test","1","118","118","6","",""
"null","307867","pSARL_v2","pSARL_v2845lb4wj","64275e53f51a5ed4f6b7d019","freq_resp","img/orange_2bandit_a.png","70","70","test","","","","6","",""
"null","308025","pSARL_v2","pSARL_v2845lb4wj","64275e53f51a5ed4f6b7d019","fixation","img/fixation.png","null","","test","","","","","",""
"321.89999997615814","308352","pSARL_v2","pSARL_v2845lb4wj","64275e53f51a5ed4f6b7d019","freq","img/orange_2bandit_a2.png","70","70","test","1","119","119","6","",""
"null","308848","pSARL_v2","pSARL_v2845lb4wj","64275e53f51a5ed4f6b7d019","freq_resp","img/orange_2bandit_a.png","70","70","test","","","","6","",""
"null","309005","pSARL_v2","pSARL_v2845lb4wj","64275e53f51a5ed4f6b7d019","fixation","img/fixation.png","null","","test","","","","","",""
"390.2000000476837","309400","pSARL_v2","pSARL_v2845lb4wj","64275e53f51a5ed4f6b7d019","freq","img/orange_2bandit_a2.png","70","70","test","1","120","120","6","",""
"null","309817","pSARL_v2","pSARL_v2845lb4wj","64275e53f51a5ed4f6b7d019","freq_resp","img/orange_2bandit_a.png","70","70","test","","","","6","",""
"null","309973","pSARL_v2","pSARL_v2845lb4wj","64275e53f51a5ed4f6b7d019","fixation","img/fixation.png","null","","test","","","","","",""
"238.19999992847443","310216","pSARL_v2","pSARL_v2845lb4wj","64275e53f51a5ed4f6b7d019","infreq","img/green_2bandit_a2.png","70","68","test","0","121","121","6","",""
"null","310786","pSARL_v2","pSARL_v2845lb4wj","64275e53f51a5ed4f6b7d019","infreq_resp","img/green_2bandit_a.png","70","68","test","","","","6","",""
"null","310954","pSARL_v2","pSARL_v2845lb4wj","64275e53f51a5ed4f6b7d019","fixation","img/fixation.png","null","","test","","","","","",""
"376.40000009536743","311336","pSARL_v2","pSARL_v2845lb4wj","64275e53f51a5ed4f6b7d019","infreq","img/green_2bandit_a2.png","68","68","test","1","122","122","6","",""
"null","311766","pSARL_v2","pSARL_v2845lb4wj","64275e53f51a5ed4f6b7d019","infreq_resp","img/green_2bandit_a.png","68","68","test","","","","6","",""
"null","311937","pSARL_v2","pSARL_v2845lb4wj","64275e53f51a5ed4f6b7d019","fixation","img/fixation.png","null","","test","","","","","",""
"346.39999997615814","312288","pSARL_v2","pSARL_v2845lb4wj","64275e53f51a5ed4f6b7d019","freq","img/orange_2bandit_a2.png","70","70","test","1","123","123","6","",""
"null","312754","pSARL_v2","pSARL_v2845lb4wj","64275e53f51a5ed4f6b7d019","freq_resp","img/orange_2bandit_a.png","70","70","test","","","","6","",""
"null","312911","pSARL_v2","pSARL_v2845lb4wj","64275e53f51a5ed4f6b7d019","fixation","img/fixation.png","null","","test","","","","","",""
"252.59999990463257","313168","pSARL_v2","pSARL_v2845lb4wj","64275e53f51a5ed4f6b7d019","freq","img/orange_2bandit_a2.png","70","70","test","1","124","124","6","",""
"null","313722","pSARL_v2","pSARL_v2845lb4wj","64275e53f51a5ed4f6b7d019","freq_resp","img/orange_2bandit_a.png","70","70","test","","","","6","",""
"null","313879","pSARL_v2","pSARL_v2845lb4wj","64275e53f51a5ed4f6b7d019","fixation","img/fixation.png","null","","test","","","","","",""
"147.19999992847443","314032","pSARL_v2","pSARL_v2845lb4wj","64275e53f51a5ed4f6b7d019","freq","img/orange_2bandit_a2.png","70","70","test","1","125","125","6","",""
"null","314691","pSARL_v2","pSARL_v2845lb4wj","64275e53f51a5ed4f6b7d019","freq_resp","img/orange_2bandit_a.png","70","70","test","","","","6","",""
"null","314848","pSARL_v2","pSARL_v2845lb4wj","64275e53f51a5ed4f6b7d019","fixation","img/fixation.png","null","","test","","","","","",""
"331.6999999284744","315185","pSARL_v2","pSARL_v2845lb4wj","64275e53f51a5ed4f6b7d019","freq","img/orange_2bandit_a2.png","70","70","test","1","126","126","6","",""
"null","315660","pSARL_v2","pSARL_v2845lb4wj","64275e53f51a5ed4f6b7d019","freq_resp","img/orange_2bandit_a.png","70","70","test","","","","6","",""
"null","315817","pSARL_v2","pSARL_v2845lb4wj","64275e53f51a5ed4f6b7d019","fixation","img/fixation.png","null","","test","","","","","",""
"298.39999997615814","316120","pSARL_v2","pSARL_v2845lb4wj","64275e53f51a5ed4f6b7d019","freq","img/orange_2bandit_a2.png","70","70","test","1","127","127","6","",""
"null","316640","pSARL_v2","pSARL_v2845lb4wj","64275e53f51a5ed4f6b7d019","freq_resp","img/orange_2bandit_a.png","70","70","test","","","","6","",""
"null","316798","pSARL_v2","pSARL_v2845lb4wj","64275e53f51a5ed4f6b7d019","fixation","img/fixation.png","null","","test","","","","","",""
"445.09999990463257","317248","pSARL_v2","pSARL_v2845lb4wj","64275e53f51a5ed4f6b7d019","reward","img/slot.png","74","","test","","","","","",""
"null","318005","pSARL_v2","pSARL_v2845lb4wj","64275e53f51a5ed4f6b7d019","points","<div class=""verylowPoints""> -7 </div>","null","na","test","","","","6","-7","5"
"414.10000002384186","318424","pSARL_v2","pSARL_v2845lb4wj","64275e53f51a5ed4f6b7d019","freq","img/orange_2bandit_a2.png","70","70","test","1","128","128","7","",""
"null","318815","pSARL_v2","pSARL_v2845lb4wj","64275e53f51a5ed4f6b7d019","freq_resp","img/orange_2bandit_a.png","70","70","test","","","","7","",""
"null","318985","pSARL_v2","pSARL_v2845lb4wj","64275e53f51a5ed4f6b7d019","fixation","img/fixation.png","null","","test","","","","","",""
"273.6999999284744","319265","pSARL_v2","pSARL_v2845lb4wj","64275e53f51a5ed4f6b7d019","freq","img/orange_2bandit_a2.png","70","70","test","1","129","129","7","",""
"null","319811","pSARL_v2","pSARL_v2845lb4wj","64275e53f51a5ed4f6b7d019","freq_resp","img/orange_2bandit_a.png","70","70","test","","","","7","",""
"null","319969","pSARL_v2","pSARL_v2845lb4wj","64275e53f51a5ed4f6b7d019","fixation","img/fixation.png","null","","test","","","","","",""
"282.7999999523163","320257","pSARL_v2","pSARL_v2845lb4wj","64275e53f51a5ed4f6b7d019","freq","img/orange_2bandit_a2.png","70","70","test","1","130","130","7","",""
"null","320779","pSARL_v2","pSARL_v2845lb4wj","64275e53f51a5ed4f6b7d019","freq_resp","img/orange_2bandit_a.png","70","70","test","","","","7","",""
"null","320936","pSARL_v2","pSARL_v2845lb4wj","64275e53f51a5ed4f6b7d019","fixation","img/fixation.png","null","","test","","","","","",""
"259.5","321201","pSARL_v2","pSARL_v2845lb4wj","64275e53f51a5ed4f6b7d019","freq","img/orange_2bandit_a2.png","70","70","test","1","131","131","7","",""
"null","321747","pSARL_v2","pSARL_v2845lb4wj","64275e53f51a5ed4f6b7d019","freq_resp","img/orange_2bandit_a.png","70","70","test","","","","7","",""
"null","321905","pSARL_v2","pSARL_v2845lb4wj","64275e53f51a5ed4f6b7d019","fixation","img/fixation.png","null","","test","","","","","",""
"241.79999995231628","322153","pSARL_v2","pSARL_v2845lb4wj","64275e53f51a5ed4f6b7d019","infreq","img/green_2bandit_a2.png","70","68","test","0","132","132","7","",""
"null","322723","pSARL_v2","pSARL_v2845lb4wj","64275e53f51a5ed4f6b7d019","infreq_resp","img/green_2bandit_a.png","70","68","test","","","","7","",""
"null","322881","pSARL_v2","pSARL_v2845lb4wj","64275e53f51a5ed4f6b7d019","fixation","img/fixation.png","null","","test","","","","","",""
"393.90000009536743","323280","pSARL_v2","pSARL_v2845lb4wj","64275e53f51a5ed4f6b7d019","freq","img/orange_2bandit_a2.png","70","70","test","1","133","133","7","",""
"null","323692","pSARL_v2","pSARL_v2845lb4wj","64275e53f51a5ed4f6b7d019","freq_resp","img/orange_2bandit_a.png","70","70","test","","","","7","",""
"null","323850","pSARL_v2","pSARL_v2845lb4wj","64275e53f51a5ed4f6b7d019","fixation","img/fixation.png","null","","test","","","","","",""
"289.09999990463257","324144","pSARL_v2","pSARL_v2845lb4wj","64275e53f51a5ed4f6b7d019","freq","img/orange_2bandit_a2.png","70","70","test","1","134","134","7","",""
"null","324664","pSARL_v2","pSARL_v2845lb4wj","64275e53f51a5ed4f6b7d019","freq_resp","img/orange_2bandit_a.png","70","70","test","","","","7","",""
"null","324832","pSARL_v2","pSARL_v2845lb4wj","64275e53f51a5ed4f6b7d019","fixation","img/fixation.png","null","","test","","","","","",""
"275.39999997615814","325112","pSARL_v2","pSARL_v2845lb4wj","64275e53f51a5ed4f6b7d019","freq","img/orange_2bandit_a2.png","70","70","test","1","135","135","7","",""
"null","325643","pSARL_v2","pSARL_v2845lb4wj","64275e53f51a5ed4f6b7d019","freq_resp","img/orange_2bandit_a.png","70","70","test","","","","7","",""
"null","325800","pSARL_v2","pSARL_v2845lb4wj","64275e53f51a5ed4f6b7d019","fixation","img/fixation.png","null","","test","","","","","",""
"425.2000000476837","326229","pSARL_v2","pSARL_v2845lb4wj","64275e53f51a5ed4f6b7d019","infreq","img/green_2bandit_a2.png","68","68","test","1","136","136","7","",""
"null","326614","pSARL_v2","pSARL_v2845lb4wj","64275e53f51a5ed4f6b7d019","infreq_resp","img/green_2bandit_a.png","68","68","test","","","","7","",""
"null","326769","pSARL_v2","pSARL_v2845lb4wj","64275e53f51a5ed4f6b7d019","fixation","img/fixation.png","null","","test","","","","","",""
"296.10000002384186","327070","pSARL_v2","pSARL_v2845lb4wj","64275e53f51a5ed4f6b7d019","freq","img/orange_2bandit_a2.png","70","70","test","1","137","137","7","",""
"null","327584","pSARL_v2","pSARL_v2845lb4wj","64275e53f51a5ed4f6b7d019","freq_resp","img/orange_2bandit_a.png","70","70","test","","","","7","",""
"null","327753","pSARL_v2","pSARL_v2845lb4wj","64275e53f51a5ed4f6b7d019","fixation","img/fixation.png","null","","test","","","","","",""
"306.8000000715256","328064","pSARL_v2","pSARL_v2845lb4wj","64275e53f51a5ed4f6b7d019","freq","img/orange_2bandit_a2.png","70","70","test","1","138","138","7","",""
"null","328568","pSARL_v2","pSARL_v2845lb4wj","64275e53f51a5ed4f6b7d019","freq_resp","img/orange_2bandit_a.png","70","70","test","","","","7","",""
"null","328726","pSARL_v2","pSARL_v2845lb4wj","64275e53f51a5ed4f6b7d019","fixation","img/fixation.png","null","","test","","","","","",""
"301","329032","pSARL_v2","pSARL_v2845lb4wj","64275e53f51a5ed4f6b7d019","freq","img/orange_2bandit_a2.png","70","70","test","1","139","139","7","",""
"null","329545","pSARL_v2","pSARL_v2845lb4wj","64275e53f51a5ed4f6b7d019","freq_resp","img/orange_2bandit_a.png","70","70","test","","","","7","",""
"null","329704","pSARL_v2","pSARL_v2845lb4wj","64275e53f51a5ed4f6b7d019","fixation","img/fixation.png","null","","test","","","","","",""
"291.39999997615814","330000","pSARL_v2","pSARL_v2845lb4wj","64275e53f51a5ed4f6b7d019","freq","img/orange_2bandit_a2.png","70","70","test","1","140","140","7","",""
"null","330527","pSARL_v2","pSARL_v2845lb4wj","64275e53f51a5ed4f6b7d019","freq_resp","img/orange_2bandit_a.png","70","70","test","","","","7","",""
"null","330684","pSARL_v2","pSARL_v2845lb4wj","64275e53f51a5ed4f6b7d019","fixation","img/fixation.png","null","","test","","","","","",""
"295.1999999284744","330984","pSARL_v2","pSARL_v2845lb4wj","64275e53f51a5ed4f6b7d019","freq","img/orange_2bandit_a2.png","70","70","test","1","141","141","7","",""
"null","331498","pSARL_v2","pSARL_v2845lb4wj","64275e53f51a5ed4f6b7d019","freq_resp","img/orange_2bandit_a.png","70","70","test","","","","7","",""
"null","331654","pSARL_v2","pSARL_v2845lb4wj","64275e53f51a5ed4f6b7d019","fixation","img/fixation.png","null","","test","","","","","",""
"277.2999999523163","331936","pSARL_v2","pSARL_v2845lb4wj","64275e53f51a5ed4f6b7d019","freq","img/orange_2bandit_a2.png","70","70","test","1","142","142","7","",""
"null","332464","pSARL_v2","pSARL_v2845lb4wj","64275e53f51a5ed4f6b7d019","freq_resp","img/orange_2bandit_a.png","70","70","test","","","","7","",""
"null","332621","pSARL_v2","pSARL_v2845lb4wj","64275e53f51a5ed4f6b7d019","fixation","img/fixation.png","null","","test","","","","","",""
"365.39999997615814","332992","pSARL_v2","pSARL_v2845lb4wj","64275e53f51a5ed4f6b7d019","freq","img/orange_2bandit_a2.png","70","70","test","1","143","143","7","",""
"null","333432","pSARL_v2","pSARL_v2845lb4wj","64275e53f51a5ed4f6b7d019","freq_resp","img/orange_2bandit_a.png","70","70","test","","","","7","",""
"null","333589","pSARL_v2","pSARL_v2845lb4wj","64275e53f51a5ed4f6b7d019","fixation","img/fixation.png","null","","test","","","","","",""
"342.5","333936","pSARL_v2","pSARL_v2845lb4wj","64275e53f51a5ed4f6b7d019","freq","img/orange_2bandit_a2.png","70","70","test","1","144","144","7","",""
"null","334400","pSARL_v2","pSARL_v2845lb4wj","64275e53f51a5ed4f6b7d019","freq_resp","img/orange_2bandit_a.png","70","70","test","","","","7","",""
"null","334570","pSARL_v2","pSARL_v2845lb4wj","64275e53f51a5ed4f6b7d019","fixation","img/fixation.png","null","","test","","","","","",""
"313","334888","pSARL_v2","pSARL_v2845lb4wj","64275e53f51a5ed4f6b7d019","freq","img/orange_2bandit_a2.png","70","70","test","1","145","145","7","",""
"null","335381","pSARL_v2","pSARL_v2845lb4wj","64275e53f51a5ed4f6b7d019","freq_resp","img/orange_2bandit_a.png","70","70","test","","","","7","",""
"null","335536","pSARL_v2","pSARL_v2845lb4wj","64275e53f51a5ed4f6b7d019","fixation","img/fixation.png","null","","test","","","","","",""
"291","335832","pSARL_v2","pSARL_v2845lb4wj","64275e53f51a5ed4f6b7d019","freq","img/orange_2bandit_a2.png","70","70","test","1","146","146","7","",""
"null","336348","pSARL_v2","pSARL_v2845lb4wj","64275e53f51a5ed4f6b7d019","freq_resp","img/orange_2bandit_a.png","70","70","test","","","","7","",""
"null","336506","pSARL_v2","pSARL_v2845lb4wj","64275e53f51a5ed4f6b7d019","fixation","img/fixation.png","null","","test","","","","","",""
"273.39999997615814","336784","pSARL_v2","pSARL_v2845lb4wj","64275e53f51a5ed4f6b7d019","freq","img/orange_2bandit_a2.png","70","70","test","1","147","147","7","",""
"null","337319","pSARL_v2","pSARL_v2845lb4wj","64275e53f51a5ed4f6b7d019","freq_resp","img/orange_2bandit_a.png","70","70","test","","","","7","",""
"null","337489","pSARL_v2","pSARL_v2845lb4wj","64275e53f51a5ed4f6b7d019","fixation","img/fixation.png","null","","test","","","","","",""
"298","337792","pSARL_v2","pSARL_v2845lb4wj","64275e53f51a5ed4f6b7d019","freq","img/orange_2bandit_a2.png","70","70","test","1","148","148","7","",""
"null","338301","pSARL_v2","pSARL_v2845lb4wj","64275e53f51a5ed4f6b7d019","freq_resp","img/orange_2bandit_a.png","70","70","test","","","","7","",""
"null","338456","pSARL_v2","pSARL_v2845lb4wj","64275e53f51a5ed4f6b7d019","fixation","img/fixation.png","null","","test","","","","","",""
"274.5","338736","pSARL_v2","pSARL_v2845lb4wj","64275e53f51a5ed4f6b7d019","reward","img/slot.png","74","","test","","","","","",""
"null","339504","pSARL_v2","pSARL_v2845lb4wj","64275e53f51a5ed4f6b7d019","points","<div class=""verylowPoints""> -6 </div>","null","na","test","","","","7","-6","6"
"394.3000000715256","339904","pSARL_v2","pSARL_v2845lb4wj","64275e53f51a5ed4f6b7d019","freq","img/orange_2bandit_a2.png","70","70","test","1","149","149","8","",""
"null","340316","pSARL_v2","pSARL_v2845lb4wj","64275e53f51a5ed4f6b7d019","freq_resp","img/orange_2bandit_a.png","70","70","test","","","","8","",""
"null","340472","pSARL_v2","pSARL_v2845lb4wj","64275e53f51a5ed4f6b7d019","fixation","img/fixation.png","null","","test","","","","","",""
"162.29999995231628","340640","pSARL_v2","pSARL_v2845lb4wj","64275e53f51a5ed4f6b7d019","freq","img/orange_2bandit_a2.png","70","70","test","1","150","150","8","",""
"null","341285","pSARL_v2","pSARL_v2845lb4wj","64275e53f51a5ed4f6b7d019","freq_resp","img/orange_2bandit_a.png","70","70","test","","","","8","",""
"null","341441","pSARL_v2","pSARL_v2845lb4wj","64275e53f51a5ed4f6b7d019","fixation","img/fixation.png","null","","test","","","","","",""
"97.29999995231628","341542","pSARL_v2","pSARL_v2845lb4wj","64275e53f51a5ed4f6b7d019","freq","img/orange_2bandit_a2.png","70","70","test","1","151","151","8","",""
"null","342252","pSARL_v2","pSARL_v2845lb4wj","64275e53f51a5ed4f6b7d019","freq_resp","img/orange_2bandit_a.png","70","70","test","","","","8","",""
"null","342408","pSARL_v2","pSARL_v2845lb4wj","64275e53f51a5ed4f6b7d019","fixation","img/fixation.png","null","","test","","","","","",""
"154.5","342566","pSARL_v2","pSARL_v2845lb4wj","64275e53f51a5ed4f6b7d019","freq","img/orange_2bandit_a2.png","70","70","test","1","152","152","8","",""
"null","343219","pSARL_v2","pSARL_v2845lb4wj","64275e53f51a5ed4f6b7d019","freq_resp","img/orange_2bandit_a.png","70","70","test","","","","8","",""
"null","343376","pSARL_v2","pSARL_v2845lb4wj","64275e53f51a5ed4f6b7d019","fixation","img/fixation.png","null","","test","","","","","",""
"267.3000000715256","343648","pSARL_v2","pSARL_v2845lb4wj","64275e53f51a5ed4f6b7d019","freq","img/orange_2bandit_a2.png","70","70","test","1","153","153","8","",""
"null","344192","pSARL_v2","pSARL_v2845lb4wj","64275e53f51a5ed4f6b7d019","freq_resp","img/orange_2bandit_a.png","70","70","test","","","","8","",""
"null","344348","pSARL_v2","pSARL_v2845lb4wj","64275e53f51a5ed4f6b7d019","fixation","img/fixation.png","null","","test","","","","","",""
"278.60000002384186","344632","pSARL_v2","pSARL_v2845lb4wj","64275e53f51a5ed4f6b7d019","freq","img/orange_2bandit_a2.png","70","70","test","1","154","154","8","",""
"null","345160","pSARL_v2","pSARL_v2845lb4wj","64275e53f51a5ed4f6b7d019","freq_resp","img/orange_2bandit_a.png","70","70","test","","","","8","",""
"null","345317","pSARL_v2","pSARL_v2845lb4wj","64275e53f51a5ed4f6b7d019","fixation","img/fixation.png","null","","test","","","","","",""
"294.2000000476837","345617","pSARL_v2","pSARL_v2845lb4wj","64275e53f51a5ed4f6b7d019","freq","img/orange_2bandit_a2.png","70","70","test","1","155","155","8","",""
"null","346141","pSARL_v2","pSARL_v2845lb4wj","64275e53f51a5ed4f6b7d019","freq_resp","img/orange_2bandit_a.png","70","70","test","","","","8","",""
"null","346300","pSARL_v2","pSARL_v2845lb4wj","64275e53f51a5ed4f6b7d019","fixation","img/fixation.png","null","","test","","","","","",""
"254.80000007152557","346558","pSARL_v2","pSARL_v2845lb4wj","64275e53f51a5ed4f6b7d019","freq","img/orange_2bandit_a2.png","70","70","test","1","156","156","8","",""
"null","347109","pSARL_v2","pSARL_v2845lb4wj","64275e53f51a5ed4f6b7d019","freq_resp","img/orange_2bandit_a.png","70","70","test","","","","8","",""
"null","347265","pSARL_v2","pSARL_v2845lb4wj","64275e53f51a5ed4f6b7d019","fixation","img/fixation.png","null","","test","","","","","",""
"275","347545","pSARL_v2","pSARL_v2845lb4wj","64275e53f51a5ed4f6b7d019","freq","img/orange_2bandit_a2.png","70","70","test","1","157","157","8","",""
"null","348090","pSARL_v2","pSARL_v2845lb4wj","64275e53f51a5ed4f6b7d019","freq_resp","img/orange_2bandit_a.png","70","70","test","","","","8","",""
"null","348260","pSARL_v2","pSARL_v2845lb4wj","64275e53f51a5ed4f6b7d019","fixation","img/fixation.png","null","","test","","","","","",""
"286.8000000715256","348552","pSARL_v2","pSARL_v2845lb4wj","64275e53f51a5ed4f6b7d019","infreq","img/green_2bandit_a2.png","70","68","test","0","158","158","8","",""
"null","349078","pSARL_v2","pSARL_v2845lb4wj","64275e53f51a5ed4f6b7d019","infreq_resp","img/green_2bandit_a.png","70","68","test","","","","8","",""
"null","349236","pSARL_v2","pSARL_v2845lb4wj","64275e53f51a5ed4f6b7d019","fixation","img/fixation.png","null","","test","","","","","",""
"422.2000000476837","349664","pSARL_v2","pSARL_v2845lb4wj","64275e53f51a5ed4f6b7d019","freq","img/orange_2bandit_a2.png","70","70","test","1","159","159","8","",""
"null","350051","pSARL_v2","pSARL_v2845lb4wj","64275e53f51a5ed4f6b7d019","freq_resp","img/orange_2bandit_a.png","70","70","test","","","","8","",""
"null","350210","pSARL_v2","pSARL_v2845lb4wj","64275e53f51a5ed4f6b7d019","fixation","img/fixation.png","null","","test","","","","","",""
"281.2000000476837","350496","pSARL_v2","pSARL_v2845lb4wj","64275e53f51a5ed4f6b7d019","freq","img/orange_2bandit_a2.png","70","70","test","1","160","160","8","",""
"null","351022","pSARL_v2","pSARL_v2845lb4wj","64275e53f51a5ed4f6b7d019","freq_resp","img/orange_2bandit_a.png","70","70","test","","","","8","",""
"null","351178","pSARL_v2","pSARL_v2845lb4wj","64275e53f51a5ed4f6b7d019","fixation","img/fixation.png","null","","test","","","","","",""
"272.7999999523163","351456","pSARL_v2","pSARL_v2845lb4wj","64275e53f51a5ed4f6b7d019","freq","img/orange_2bandit_a2.png","70","70","test","1","161","161","8","",""
"null","351988","pSARL_v2","pSARL_v2845lb4wj","64275e53f51a5ed4f6b7d019","freq_resp","img/orange_2bandit_a.png","70","70","test","","","","8","",""
"null","352144","pSARL_v2","pSARL_v2845lb4wj","64275e53f51a5ed4f6b7d019","fixation","img/fixation.png","null","","test","","","","","",""
"131","352281","pSARL_v2","pSARL_v2845lb4wj","64275e53f51a5ed4f6b7d019","freq","img/orange_2bandit_a2.png","70","70","test","1","162","162","8","",""
"null","352957","pSARL_v2","pSARL_v2845lb4wj","64275e53f51a5ed4f6b7d019","freq_resp","img/orange_2bandit_a.png","70","70","test","","","","8","",""
"null","353126","pSARL_v2","pSARL_v2845lb4wj","64275e53f51a5ed4f6b7d019","fixation","img/fixation.png","null","","test","","","","","",""
"308.5","353440","pSARL_v2","pSARL_v2845lb4wj","64275e53f51a5ed4f6b7d019","freq","img/orange_2bandit_a2.png","70","70","test","1","163","163","8","",""
"null","353937","pSARL_v2","pSARL_v2845lb4wj","64275e53f51a5ed4f6b7d019","freq_resp","img/orange_2bandit_a.png","70","70","test","","","","8","",""
"null","354094","pSARL_v2","pSARL_v2845lb4wj","64275e53f51a5ed4f6b7d019","fixation","img/fixation.png","null","","test","","","","","",""
"196.89999997615814","354296","pSARL_v2","pSARL_v2845lb4wj","64275e53f51a5ed4f6b7d019","freq","img/orange_2bandit_a2.png","70","70","test","1","164","164","8","",""
"null","354910","pSARL_v2","pSARL_v2845lb4wj","64275e53f51a5ed4f6b7d019","freq_resp","img/orange_2bandit_a.png","70","70","test","","","","8","",""
"null","355067","pSARL_v2","pSARL_v2845lb4wj","64275e53f51a5ed4f6b7d019","fixation","img/fixation.png","null","","test","","","","","",""
"287.2000000476837","355358","pSARL_v2","pSARL_v2845lb4wj","64275e53f51a5ed4f6b7d019","freq","img/orange_2bandit_a2.png","70","70","test","1","165","165","8","",""
"null","355880","pSARL_v2","pSARL_v2845lb4wj","64275e53f51a5ed4f6b7d019","freq_resp","img/orange_2bandit_a.png","70","70","test","","","","8","",""
"null","356037","pSARL_v2","pSARL_v2845lb4wj","64275e53f51a5ed4f6b7d019","fixation","img/fixation.png","null","","test","","","","","",""
"238","356280","pSARL_v2","pSARL_v2845lb4wj","64275e53f51a5ed4f6b7d019","freq","img/orange_2bandit_a2.png","70","70","test","1","166","166","8","",""
"null","356850","pSARL_v2","pSARL_v2845lb4wj","64275e53f51a5ed4f6b7d019","freq_resp","img/orange_2bandit_a.png","70","70","test","","","","8","",""
"null","357006","pSARL_v2","pSARL_v2845lb4wj","64275e53f51a5ed4f6b7d019","fixation","img/fixation.png","null","","test","","","","","",""
"251.59999990463257","357263","pSARL_v2","pSARL_v2845lb4wj","64275e53f51a5ed4f6b7d019","freq","img/orange_2bandit_a2.png","70","70","test","1","167","167","8","",""
"null","357819","pSARL_v2","pSARL_v2845lb4wj","64275e53f51a5ed4f6b7d019","freq_resp","img/orange_2bandit_a.png","70","70","test","","","","8","",""
"null","357976","pSARL_v2","pSARL_v2845lb4wj","64275e53f51a5ed4f6b7d019","fixation","img/fixation.png","null","","test","","","","","",""
"171.39999997615814","358152","pSARL_v2","pSARL_v2845lb4wj","64275e53f51a5ed4f6b7d019","freq","img/orange_2bandit_a2.png","70","70","test","1","168","168","8","",""
"null","358799","pSARL_v2","pSARL_v2845lb4wj","64275e53f51a5ed4f6b7d019","freq_resp","img/orange_2bandit_a.png","70","70","test","","","","8","",""
"null","358956","pSARL_v2","pSARL_v2845lb4wj","64275e53f51a5ed4f6b7d019","fixation","img/fixation.png","null","","test","","","","","",""
"294.3000000715256","359256","pSARL_v2","pSARL_v2845lb4wj","64275e53f51a5ed4f6b7d019","freq","img/orange_2bandit_a2.png","70","70","test","1","169","169","8","",""
"null","359767","pSARL_v2","pSARL_v2845lb4wj","64275e53f51a5ed4f6b7d019","freq_resp","img/orange_2bandit_a.png","70","70","test","","","","8","",""
"null","359937","pSARL_v2","pSARL_v2845lb4wj","64275e53f51a5ed4f6b7d019","fixation","img/fixation.png","null","","test","","","","","",""
"561.1999999284744","360504","pSARL_v2","pSARL_v2845lb4wj","64275e53f51a5ed4f6b7d019","infreq","img/green_2bandit_a2.png","68","68","test","1","170","170","8","",""
"null","360761","pSARL_v2","pSARL_v2845lb4wj","64275e53f51a5ed4f6b7d019","infreq_resp","img/green_2bandit_a.png","68","68","test","","","","8","",""
"null","360919","pSARL_v2","pSARL_v2845lb4wj","64275e53f51a5ed4f6b7d019","fixation","img/fixation.png","null","","test","","","","","",""
"363.89999997615814","361288","pSARL_v2","pSARL_v2845lb4wj","64275e53f51a5ed4f6b7d019","freq","img/orange_2bandit_a2.png","70","70","test","1","171","171","8","",""
"null","361731","pSARL_v2","pSARL_v2845lb4wj","64275e53f51a5ed4f6b7d019","freq_resp","img/orange_2bandit_a.png","70","70","test","","","","8","",""
"null","361887","pSARL_v2","pSARL_v2845lb4wj","64275e53f51a5ed4f6b7d019","fixation","img/fixation.png","null","","test","","","","","",""
"315.39999997615814","362208","pSARL_v2","pSARL_v2845lb4wj","64275e53f51a5ed4f6b7d019","freq","img/orange_2bandit_a2.png","70","70","test","1","172","172","8","",""
"null","362704","pSARL_v2","pSARL_v2845lb4wj","64275e53f51a5ed4f6b7d019","freq_resp","img/orange_2bandit_a.png","70","70","test","","","","8","",""
"null","362860","pSARL_v2","pSARL_v2845lb4wj","64275e53f51a5ed4f6b7d019","fixation","img/fixation.png","null","","test","","","","","",""
"271.10000002384186","363136","pSARL_v2","pSARL_v2845lb4wj","64275e53f51a5ed4f6b7d019","freq","img/orange_2bandit_a2.png","70","70","test","1","173","173","8","",""
"null","363671","pSARL_v2","pSARL_v2845lb4wj","64275e53f51a5ed4f6b7d019","freq_resp","img/orange_2bandit_a.png","70","70","test","","","","8","",""
"null","363828","pSARL_v2","pSARL_v2845lb4wj","64275e53f51a5ed4f6b7d019","fixation","img/fixation.png","null","","test","","","","","",""
"366.90000009536743","364201","pSARL_v2","pSARL_v2845lb4wj","64275e53f51a5ed4f6b7d019","reward","img/slot.png","74","","test","","","","","",""
"null","364966","pSARL_v2","pSARL_v2845lb4wj","64275e53f51a5ed4f6b7d019","points","<div class=""verylowPoints""> -4 </div>","null","na","test","","","","8","-4","7"
"468.7999999523163","365440","pSARL_v2","pSARL_v2845lb4wj","64275e53f51a5ed4f6b7d019","freq","img/orange_2bandit_a2.png","70","70","test","1","174","174","9","",""
"null","365777","pSARL_v2","pSARL_v2845lb4wj","64275e53f51a5ed4f6b7d019","freq_resp","img/orange_2bandit_a.png","70","70","test","","","","9","",""
"null","365935","pSARL_v2","pSARL_v2845lb4wj","64275e53f51a5ed4f6b7d019","fixation","img/fixation.png","null","","test","","","","","",""
"252.20000004768372","366192","pSARL_v2","pSARL_v2845lb4wj","64275e53f51a5ed4f6b7d019","freq","img/orange_2bandit_a2.png","70","70","test","1","175","175","9","",""
"null","366745","pSARL_v2","pSARL_v2845lb4wj","64275e53f51a5ed4f6b7d019","freq_resp","img/orange_2bandit_a.png","70","70","test","","","","9","",""
"null","366903","pSARL_v2","pSARL_v2845lb4wj","64275e53f51a5ed4f6b7d019","fixation","img/fixation.png","null","","test","","","","","",""
"147.60000002384186","367056","pSARL_v2","pSARL_v2845lb4wj","64275e53f51a5ed4f6b7d019","infreq","img/green_2bandit_a2.png","70","68","test","0","176","176","9","",""
"null","367716","pSARL_v2","pSARL_v2845lb4wj","64275e53f51a5ed4f6b7d019","infreq_resp","img/green_2bandit_a.png","70","68","test","","","","9","",""
"null","367873","pSARL_v2","pSARL_v2845lb4wj","64275e53f51a5ed4f6b7d019","fixation","img/fixation.png","null","","test","","","","","",""
"298.2000000476837","368176","pSARL_v2","pSARL_v2845lb4wj","64275e53f51a5ed4f6b7d019","freq","img/orange_2bandit_a2.png","70","70","test","1","177","177","9","",""
"null","368692","pSARL_v2","pSARL_v2845lb4wj","64275e53f51a5ed4f6b7d019","freq_resp","img/orange_2bandit_a.png","70","70","test","","","","9","",""
"null","368848","pSARL_v2","pSARL_v2845lb4wj","64275e53f51a5ed4f6b7d019","fixation","img/fixation.png","null","","test","","","","","",""
"323","369176","pSARL_v2","pSARL_v2845lb4wj","64275e53f51a5ed4f6b7d019","freq","img/orange_2bandit_a2.png","70","70","test","1","178","178","9","",""
"null","369659","pSARL_v2","pSARL_v2845lb4wj","64275e53f51a5ed4f6b7d019","freq_resp","img/orange_2bandit_a.png","70","70","test","","","","9","",""
"null","369818","pSARL_v2","pSARL_v2845lb4wj","64275e53f51a5ed4f6b7d019","fixation","img/fixation.png","null","","test","","","","","",""
"313","370136","pSARL_v2","pSARL_v2845lb4wj","64275e53f51a5ed4f6b7d019","freq","img/orange_2bandit_a2.png","70","70","test","1","179","179","9","",""
"null","370630","pSARL_v2","pSARL_v2845lb4wj","64275e53f51a5ed4f6b7d019","freq_resp","img/orange_2bandit_a.png","70","70","test","","","","9","",""
"null","370788","pSARL_v2","pSARL_v2845lb4wj","64275e53f51a5ed4f6b7d019","fixation","img/fixation.png","null","","test","","","","","",""
"462.7999999523163","371256","pSARL_v2","pSARL_v2845lb4wj","64275e53f51a5ed4f6b7d019","infreq","img/green_2bandit_a2.png","68","68","test","1","180","180","9","",""
"null","371603","pSARL_v2","pSARL_v2845lb4wj","64275e53f51a5ed4f6b7d019","infreq_resp","img/green_2bandit_a.png","68","68","test","","","","9","",""
"null","371760","pSARL_v2","pSARL_v2845lb4wj","64275e53f51a5ed4f6b7d019","fixation","img/fixation.png","null","","test","","","","","",""
"338.3000000715256","372103","pSARL_v2","pSARL_v2845lb4wj","64275e53f51a5ed4f6b7d019","freq","img/orange_2bandit_a2.png","70","70","test","1","181","181","9","",""
"null","372572","pSARL_v2","pSARL_v2845lb4wj","64275e53f51a5ed4f6b7d019","freq_resp","img/orange_2bandit_a.png","70","70","test","","","","9","",""
"null","372729","pSARL_v2","pSARL_v2845lb4wj","64275e53f51a5ed4f6b7d019","fixation","img/fixation.png","null","","test","","","","","",""
"258","372992","pSARL_v2","pSARL_v2845lb4wj","64275e53f51a5ed4f6b7d019","freq","img/orange_2bandit_a2.png","70","70","test","1","182","182","9","",""
"null","373542","pSARL_v2","pSARL_v2845lb4wj","64275e53f51a5ed4f6b7d019","freq_resp","img/orange_2bandit_a.png","70","70","test","","","","9","",""
"null","373701","pSARL_v2","pSARL_v2845lb4wj","64275e53f51a5ed4f6b7d019","fixation","img/fixation.png","null","","test","","","","","",""
"276.90000009536743","373982","pSARL_v2","pSARL_v2845lb4wj","64275e53f51a5ed4f6b7d019","infreq","img/green_2bandit_a2.png","70","68","test","0","183","183","9","",""
"null","374523","pSARL_v2","pSARL_v2845lb4wj","64275e53f51a5ed4f6b7d019","infreq_resp","img/green_2bandit_a.png","70","68","test","","","","9","",""
"null","374694","pSARL_v2","pSARL_v2845lb4wj","64275e53f51a5ed4f6b7d019","fixation","img/fixation.png","null","","test","","","","","",""
"309","375008","pSARL_v2","pSARL_v2845lb4wj","64275e53f51a5ed4f6b7d019","freq","img/orange_2bandit_a2.png","70","70","test","1","184","184","9","",""
"null","375505","pSARL_v2","pSARL_v2845lb4wj","64275e53f51a5ed4f6b7d019","freq_resp","img/orange_2bandit_a.png","70","70","test","","","","9","",""
"null","375663","pSARL_v2","pSARL_v2845lb4wj","64275e53f51a5ed4f6b7d019","fixation","img/fixation.png","null","","test","","","","","",""
"387.2999999523163","376056","pSARL_v2","pSARL_v2845lb4wj","64275e53f51a5ed4f6b7d019","freq","img/orange_2bandit_a2.png","70","70","test","1","185","185","9","",""
"null","376488","pSARL_v2","pSARL_v2845lb4wj","64275e53f51a5ed4f6b7d019","freq_resp","img/orange_2bandit_a.png","70","70","test","","","","9","",""
"null","376657","pSARL_v2","pSARL_v2845lb4wj","64275e53f51a5ed4f6b7d019","fixation","img/fixation.png","null","","test","","","","","",""
"304.09999990463257","376966","pSARL_v2","pSARL_v2845lb4wj","64275e53f51a5ed4f6b7d019","freq","img/orange_2bandit_a2.png","70","70","test","1","186","186","9","",""
"null","377471","pSARL_v2","pSARL_v2845lb4wj","64275e53f51a5ed4f6b7d019","freq_resp","img/orange_2bandit_a.png","70","70","test","","","","9","",""
"null","377629","pSARL_v2","pSARL_v2845lb4wj","64275e53f51a5ed4f6b7d019","fixation","img/fixation.png","null","","test","","","","","",""
"300.89999997615814","377936","pSARL_v2","pSARL_v2845lb4wj","64275e53f51a5ed4f6b7d019","freq","img/orange_2bandit_a2.png","70","70","test","1","187","187","9","",""
"null","378442","pSARL_v2","pSARL_v2845lb4wj","64275e53f51a5ed4f6b7d019","freq_resp","img/orange_2bandit_a.png","70","70","test","","","","9","",""
"null","378599","pSARL_v2","pSARL_v2845lb4wj","64275e53f51a5ed4f6b7d019","fixation","img/fixation.png","null","","test","","","","","",""
"275.09999990463257","378878","pSARL_v2","pSARL_v2845lb4wj","64275e53f51a5ed4f6b7d019","freq","img/orange_2bandit_a2.png","70","70","test","1","188","188","9","",""
"null","379409","pSARL_v2","pSARL_v2845lb4wj","64275e53f51a5ed4f6b7d019","freq_resp","img/orange_2bandit_a.png","70","70","test","","","","9","",""
"null","379566","pSARL_v2","pSARL_v2845lb4wj","64275e53f51a5ed4f6b7d019","fixation","img/fixation.png","null","","test","","","","","",""
"293.3000000715256","379864","pSARL_v2","pSARL_v2845lb4wj","64275e53f51a5ed4f6b7d019","freq","img/orange_2bandit_a2.png","70","70","test","1","189","189","9","",""
"null","380378","pSARL_v2","pSARL_v2845lb4wj","64275e53f51a5ed4f6b7d019","freq_resp","img/orange_2bandit_a.png","70","70","test","","","","9","",""
"null","380532","pSARL_v2","pSARL_v2845lb4wj","64275e53f51a5ed4f6b7d019","fixation","img/fixation.png","null","","test","","","","","",""
"310.7000000476837","380848","pSARL_v2","pSARL_v2845lb4wj","64275e53f51a5ed4f6b7d019","freq","img/orange_2bandit_a2.png","70","70","test","1","190","190","9","",""
"null","381344","pSARL_v2","pSARL_v2845lb4wj","64275e53f51a5ed4f6b7d019","freq_resp","img/orange_2bandit_a.png","70","70","test","","","","9","",""
"null","381501","pSARL_v2","pSARL_v2845lb4wj","64275e53f51a5ed4f6b7d019","fixation","img/fixation.png","null","","test","","","","","",""
"358","381864","pSARL_v2","pSARL_v2845lb4wj","64275e53f51a5ed4f6b7d019","freq","img/orange_2bandit_a2.png","70","70","test","1","191","191","9","",""
"null","382315","pSARL_v2","pSARL_v2845lb4wj","64275e53f51a5ed4f6b7d019","freq_resp","img/orange_2bandit_a.png","70","70","test","","","","9","",""
"null","382472","pSARL_v2","pSARL_v2845lb4wj","64275e53f51a5ed4f6b7d019","fixation","img/fixation.png","null","","test","","","","","",""
"314","382792","pSARL_v2","pSARL_v2845lb4wj","64275e53f51a5ed4f6b7d019","freq","img/orange_2bandit_a2.png","70","70","test","1","192","192","9","",""
"null","383285","pSARL_v2","pSARL_v2845lb4wj","64275e53f51a5ed4f6b7d019","freq_resp","img/orange_2bandit_a.png","70","70","test","","","","9","",""
"null","383442","pSARL_v2","pSARL_v2845lb4wj","64275e53f51a5ed4f6b7d019","fixation","img/fixation.png","null","","test","","","","","",""
"288.59999990463257","383736","pSARL_v2","pSARL_v2845lb4wj","64275e53f51a5ed4f6b7d019","freq","img/orange_2bandit_a2.png","70","70","test","1","193","193","9","",""
"null","384252","pSARL_v2","pSARL_v2845lb4wj","64275e53f51a5ed4f6b7d019","freq_resp","img/orange_2bandit_a.png","70","70","test","","","","9","",""
"null","384410","pSARL_v2","pSARL_v2845lb4wj","64275e53f51a5ed4f6b7d019","fixation","img/fixation.png","null","","test","","","","","",""
"345.10000002384186","384760","pSARL_v2","pSARL_v2845lb4wj","64275e53f51a5ed4f6b7d019","freq","img/orange_2bandit_a2.png","70","70","test","1","194","194","9","",""
"null","385221","pSARL_v2","pSARL_v2845lb4wj","64275e53f51a5ed4f6b7d019","freq_resp","img/orange_2bandit_a.png","70","70","test","","","","9","",""
"null","385379","pSARL_v2","pSARL_v2845lb4wj","64275e53f51a5ed4f6b7d019","fixation","img/fixation.png","null","","test","","","","","",""
"271.60000002384186","385656","pSARL_v2","pSARL_v2845lb4wj","64275e53f51a5ed4f6b7d019","freq","img/orange_2bandit_a2.png","70","70","test","1","195","195","9","",""
"null","386189","pSARL_v2","pSARL_v2845lb4wj","64275e53f51a5ed4f6b7d019","freq_resp","img/orange_2bandit_a.png","70","70","test","","","","9","",""
"null","386345","pSARL_v2","pSARL_v2845lb4wj","64275e53f51a5ed4f6b7d019","fixation","img/fixation.png","null","","test","","","","","",""
"313.39999997615814","386663","pSARL_v2","pSARL_v2845lb4wj","64275e53f51a5ed4f6b7d019","freq","img/orange_2bandit_a2.png","70","70","test","1","196","196","9","",""
"null","387159","pSARL_v2","pSARL_v2845lb4wj","64275e53f51a5ed4f6b7d019","freq_resp","img/orange_2bandit_a.png","70","70","test","","","","9","",""
"null","387318","pSARL_v2","pSARL_v2845lb4wj","64275e53f51a5ed4f6b7d019","fixation","img/fixation.png","null","","test","","","","","",""
"349.2000000476837","387672","pSARL_v2","pSARL_v2845lb4wj","64275e53f51a5ed4f6b7d019","reward","img/slot.png","74","","test","","","","","",""
"null","388437","pSARL_v2","pSARL_v2845lb4wj","64275e53f51a5ed4f6b7d019","points","<div class=""verylowPoints""> -3 </div>","null","na","test","","","","9","-3","8"
"357.8000000715256","388800","pSARL_v2","pSARL_v2845lb4wj","64275e53f51a5ed4f6b7d019","freq","img/orange_2bandit_a2.png","70","70","test","1","197","197","10","",""
"null","389251","pSARL_v2","pSARL_v2845lb4wj","64275e53f51a5ed4f6b7d019","freq_resp","img/orange_2bandit_a.png","70","70","test","","","","10","",""
"null","389422","pSARL_v2","pSARL_v2845lb4wj","64275e53f51a5ed4f6b7d019","fixation","img/fixation.png","null","","test","","","","","",""
"293.7000000476837","389721","pSARL_v2","pSARL_v2845lb4wj","64275e53f51a5ed4f6b7d019","freq","img/orange_2bandit_a2.png","70","70","test","1","198","198","10","",""
"null","390247","pSARL_v2","pSARL_v2845lb4wj","64275e53f51a5ed4f6b7d019","freq_resp","img/orange_2bandit_a.png","70","70","test","","","","10","",""
"null","390407","pSARL_v2","pSARL_v2845lb4wj","64275e53f51a5ed4f6b7d019","fixation","img/fixation.png","null","","test","","","","","",""
"251.60000002384186","390664","pSARL_v2","pSARL_v2845lb4wj","64275e53f51a5ed4f6b7d019","freq","img/orange_2bandit_a2.png","70","70","test","1","199","199","10","",""
"null","391227","pSARL_v2","pSARL_v2845lb4wj","64275e53f51a5ed4f6b7d019","freq_resp","img/orange_2bandit_a.png","70","70","test","","","","10","",""
"null","391396","pSARL_v2","pSARL_v2845lb4wj","64275e53f51a5ed4f6b7d019","fixation","img/fixation.png","null","","test","","","","","",""
"111","391512","pSARL_v2","pSARL_v2845lb4wj","64275e53f51a5ed4f6b7d019","freq","img/orange_2bandit_a2.png","70","70","test","1","200","200","10","",""
"null","392208","pSARL_v2","pSARL_v2845lb4wj","64275e53f51a5ed4f6b7d019","freq_resp","img/orange_2bandit_a.png","70","70","test","","","","10","",""
"null","392364","pSARL_v2","pSARL_v2845lb4wj","64275e53f51a5ed4f6b7d019","fixation","img/fixation.png","null","","test","","","","","",""
"229.70000004768372","392598","pSARL_v2","pSARL_v2845lb4wj","64275e53f51a5ed4f6b7d019","freq","img/orange_2bandit_a2.png","70","70","test","1","201","201","10","",""
"null","393178","pSARL_v2","pSARL_v2845lb4wj","64275e53f51a5ed4f6b7d019","freq_resp","img/orange_2bandit_a.png","70","70","test","","","","10","",""
"null","393334","pSARL_v2","pSARL_v2845lb4wj","64275e53f51a5ed4f6b7d019","fixation","img/fixation.png","null","","test","","","","","",""
"267.89999997615814","393607","pSARL_v2","pSARL_v2845lb4wj","64275e53f51a5ed4f6b7d019","freq","img/orange_2bandit_a2.png","70","70","test","1","202","202","10","",""
"null","394145","pSARL_v2","pSARL_v2845lb4wj","64275e53f51a5ed4f6b7d019","freq_resp","img/orange_2bandit_a.png","70","70","test","","","","10","",""
"null","394302","pSARL_v2","pSARL_v2845lb4wj","64275e53f51a5ed4f6b7d019","fixation","img/fixation.png","null","","test","","","","","",""
"204.30000007152557","394512","pSARL_v2","pSARL_v2845lb4wj","64275e53f51a5ed4f6b7d019","freq","img/orange_2bandit_a2.png","70","70","test","1","203","203","10","",""
"null","395112","pSARL_v2","pSARL_v2845lb4wj","64275e53f51a5ed4f6b7d019","freq_resp","img/orange_2bandit_a.png","70","70","test","","","","10","",""
"null","395271","pSARL_v2","pSARL_v2845lb4wj","64275e53f51a5ed4f6b7d019","fixation","img/fixation.png","null","","test","","","","","",""
"315.8000000715256","395590","pSARL_v2","pSARL_v2845lb4wj","64275e53f51a5ed4f6b7d019","freq","img/orange_2bandit_a2.png","70","70","test","1","204","204","10","",""
"null","396082","pSARL_v2","pSARL_v2845lb4wj","64275e53f51a5ed4f6b7d019","freq_resp","img/orange_2bandit_a.png","70","70","test","","","","10","",""
"null","396239","pSARL_v2","pSARL_v2845lb4wj","64275e53f51a5ed4f6b7d019","fixation","img/fixation.png","null","","test","","","","","",""
"292.39999997615814","396536","pSARL_v2","pSARL_v2845lb4wj","64275e53f51a5ed4f6b7d019","freq","img/orange_2bandit_a2.png","70","70","test","1","205","205","10","",""
