"rt","time_elapsed","expId","subject","prolificID","trialType","stimulus","key_press","corrresp","phase","corr","trialNum","attentionRunNum","blockNum","points","rlNum"
"1324.8000000715256","1329","pSARL_v2","pSARL_v2jk9yzwbw","63e55908254a436361a6787b","","","","","","","","","","",""
"","3582","pSARL_v2","pSARL_v2jk9yzwbw","63e55908254a436361a6787b","fullscreen","","","","","","","","","",""
"82239.89999997616","85825","pSARL_v2","pSARL_v2jk9yzwbw","63e55908254a436361a6787b","","","","","","","","","","",""
"null","86638","pSARL_v2","pSARL_v2jk9yzwbw","63e55908254a436361a6787b","freqPrac","img/green_2bandit_b2.png","null","70","prac","0","","","","",""
"null","87645","pSARL_v2","pSARL_v2jk9yzwbw","63e55908254a436361a6787b","feedback","img/tooSlow.png","null","na","prac","","","","","",""
"null","87806","pSARL_v2","pSARL_v2jk9yzwbw","63e55908254a436361a6787b","fixation","img/fixation.png","null","","prac","","","","","",""
"null","88620","pSARL_v2","pSARL_v2jk9yzwbw","63e55908254a436361a6787b","infreqPrac","img/orange_2bandit_b2.png","null","68","prac","0","","","","",""
"null","89628","pSARL_v2","pSARL_v2jk9yzwbw","63e55908254a436361a6787b","feedback","img/tooSlow.png","null","na","prac","","","","","",""
"null","89787","pSARL_v2","pSARL_v2jk9yzwbw","63e55908254a436361a6787b","fixation","img/fixation.png","null","","prac","","","","","",""
"616.8999999761581","90407","pSARL_v2","pSARL_v2jk9yzwbw","63e55908254a436361a6787b","freqPrac","img/green_2bandit_b2.png","70","70","prac","1","","","","",""
"616.8999999761581","90600","pSARL_v2","pSARL_v2jk9yzwbw","63e55908254a436361a6787b","freqPrac_resp","img/green_2bandit_b.png","70","70","prac","","","","","",""
"null","90760","pSARL_v2","pSARL_v2jk9yzwbw","63e55908254a436361a6787b","fixation","img/fixation.png","null","","prac","","","","","",""
"null","91577","pSARL_v2","pSARL_v2jk9yzwbw","63e55908254a436361a6787b","infreqPrac","img/orange_2bandit_b2.png","null","68","prac","0","","","","",""
"null","92582","pSARL_v2","pSARL_v2jk9yzwbw","63e55908254a436361a6787b","feedback","img/tooSlow.png","null","na","prac","","","","","",""
"null","92741","pSARL_v2","pSARL_v2jk9yzwbw","63e55908254a436361a6787b","fixation","img/fixation.png","null","","prac","","","","","",""
"null","93558","pSARL_v2","pSARL_v2jk9yzwbw","63e55908254a436361a6787b","infreqPrac","img/orange_2bandit_b2.png","null","68","prac","0","","","","",""
"null","94563","pSARL_v2","pSARL_v2jk9yzwbw","63e55908254a436361a6787b","feedback","img/tooSlow.png","null","na","prac","","","","","",""
"null","94721","pSARL_v2","pSARL_v2jk9yzwbw","63e55908254a436361a6787b","fixation","img/fixation.png","null","","prac","","","","","",""
"null","95538","pSARL_v2","pSARL_v2jk9yzwbw","63e55908254a436361a6787b","infreqPrac","img/orange_2bandit_b2.png","null","68","prac","0","","","","",""
"null","96547","pSARL_v2","pSARL_v2jk9yzwbw","63e55908254a436361a6787b","feedback","img/tooSlow.png","null","na","prac","","","","","",""
"null","96704","pSARL_v2","pSARL_v2jk9yzwbw","63e55908254a436361a6787b","fixation","img/fixation.png","null","","prac","","","","","",""
"437.7999999523163","97145","pSARL_v2","pSARL_v2jk9yzwbw","63e55908254a436361a6787b","freqPrac","img/green_2bandit_b2.png","70","70","prac","1","","","","",""
"437.7999999523163","97518","pSARL_v2","pSARL_v2jk9yzwbw","63e55908254a436361a6787b","freqPrac_resp","img/green_2bandit_b.png","70","70","prac","","","","","",""
"null","97676","pSARL_v2","pSARL_v2jk9yzwbw","63e55908254a436361a6787b","fixation","img/fixation.png","null","","prac","","","","","",""
"408.5","98087","pSARL_v2","pSARL_v2jk9yzwbw","63e55908254a436361a6787b","infreqPrac","img/orange_2bandit_b2.png","68","68","prac","1","","","","",""
"408.5","98493","pSARL_v2","pSARL_v2jk9yzwbw","63e55908254a436361a6787b","infreqPrac_resp","img/orange_2bandit_b.png","68","68","prac","","","","","",""
"null","98653","pSARL_v2","pSARL_v2jk9yzwbw","63e55908254a436361a6787b","fixation","img/fixation.png","null","","prac","","","","","",""
"404.10000002384186","99059","pSARL_v2","pSARL_v2jk9yzwbw","63e55908254a436361a6787b","freqPrac","img/green_2bandit_b2.png","70","70","prac","1","","","","",""
"404.10000002384186","99470","pSARL_v2","pSARL_v2jk9yzwbw","63e55908254a436361a6787b","freqPrac_resp","img/green_2bandit_b.png","70","70","prac","","","","","",""
"null","99628","pSARL_v2","pSARL_v2jk9yzwbw","63e55908254a436361a6787b","fixation","img/fixation.png","null","","prac","","","","","",""
"353.2999999523163","99984","pSARL_v2","pSARL_v2jk9yzwbw","63e55908254a436361a6787b","freqPrac","img/green_2bandit_b2.png","70","70","prac","1","","","","",""
"353.2999999523163","100442","pSARL_v2","pSARL_v2jk9yzwbw","63e55908254a436361a6787b","freqPrac_resp","img/green_2bandit_b.png","70","70","prac","","","","","",""
"null","100603","pSARL_v2","pSARL_v2jk9yzwbw","63e55908254a436361a6787b","fixation","img/fixation.png","null","","prac","","","","","",""
"27589.5","128195","pSARL_v2","pSARL_v2jk9yzwbw","63e55908254a436361a6787b","","","","","prac","","","","","",""
"615","128812","pSARL_v2","pSARL_v2jk9yzwbw","63e55908254a436361a6787b","rewardPractice","img/slot.png","74","","prac","","","","","",""
"null","129573","pSARL_v2","pSARL_v2jk9yzwbw","63e55908254a436361a6787b","feedback","<div class=""veryhighPoints""> +15 </div>","null","na","prac","","","","","",""
"null","129733","pSARL_v2","pSARL_v2jk9yzwbw","63e55908254a436361a6787b","fixation","img/fixation.png","null","","prac","","","","","",""
"16207.100000023842","145942","pSARL_v2","pSARL_v2jk9yzwbw","63e55908254a436361a6787b","","","","","prac","","","","","",""
"null","146757","pSARL_v2","pSARL_v2jk9yzwbw","63e55908254a436361a6787b","freq","img/green_2bandit_b2.png","null","70","test","0","1","1","1","",""
"null","146917","pSARL_v2","pSARL_v2jk9yzwbw","63e55908254a436361a6787b","fixation","img/fixation.png","null","","test","","","","","",""
"623.6000000238419","147543","pSARL_v2","pSARL_v2jk9yzwbw","63e55908254a436361a6787b","freq","img/green_2bandit_b2.png","68","70","test","0","2","2","1","",""
"null","147730","pSARL_v2","pSARL_v2jk9yzwbw","63e55908254a436361a6787b","freq_resp","img/green_2bandit_b.png","68","70","test","","","","1","",""
"null","147889","pSARL_v2","pSARL_v2jk9yzwbw","63e55908254a436361a6787b","fixation","img/fixation.png","null","","test","","","","","",""
"394.10000002384186","148286","pSARL_v2","pSARL_v2jk9yzwbw","63e55908254a436361a6787b","freq","img/green_2bandit_b2.png","68","70","test","0","3","3","1","",""
"null","148705","pSARL_v2","pSARL_v2jk9yzwbw","63e55908254a436361a6787b","freq_resp","img/green_2bandit_b.png","68","70","test","","","","1","",""
"null","148865","pSARL_v2","pSARL_v2jk9yzwbw","63e55908254a436361a6787b","fixation","img/fixation.png","null","","test","","","","","",""
"712.8000000715256","149580","pSARL_v2","pSARL_v2jk9yzwbw","63e55908254a436361a6787b","freq","img/green_2bandit_b2.png","70","70","test","1","4","4","1","",""
"null","149676","pSARL_v2","pSARL_v2jk9yzwbw","63e55908254a436361a6787b","freq_resp","img/green_2bandit_b.png","70","70","test","","","","1","",""
"null","149836","pSARL_v2","pSARL_v2jk9yzwbw","63e55908254a436361a6787b","fixation","img/fixation.png","null","","test","","","","","",""
"651.6000000238419","150491","pSARL_v2","pSARL_v2jk9yzwbw","63e55908254a436361a6787b","freq","img/green_2bandit_b2.png","70","70","test","1","5","5","1","",""
"null","150653","pSARL_v2","pSARL_v2jk9yzwbw","63e55908254a436361a6787b","freq_resp","img/green_2bandit_b.png","70","70","test","","","","1","",""
"null","150812","pSARL_v2","pSARL_v2jk9yzwbw","63e55908254a436361a6787b","fixation","img/fixation.png","null","","test","","","","","",""
"null","151625","pSARL_v2","pSARL_v2jk9yzwbw","63e55908254a436361a6787b","infreq","img/orange_2bandit_b2.png","null","68","test","0","6","6","1","",""
"null","151784","pSARL_v2","pSARL_v2jk9yzwbw","63e55908254a436361a6787b","fixation","img/fixation.png","null","","test","","","","","",""
"null","152598","pSARL_v2","pSARL_v2jk9yzwbw","63e55908254a436361a6787b","infreq","img/orange_2bandit_b2.png","null","68","test","0","7","7","1","",""
"null","152756","pSARL_v2","pSARL_v2jk9yzwbw","63e55908254a436361a6787b","fixation","img/fixation.png","null","","test","","","","","",""
"578.2000000476837","153337","pSARL_v2","pSARL_v2jk9yzwbw","63e55908254a436361a6787b","freq","img/green_2bandit_b2.png","70","70","test","1","8","8","1","",""
"null","153574","pSARL_v2","pSARL_v2jk9yzwbw","63e55908254a436361a6787b","freq_resp","img/green_2bandit_b.png","70","70","test","","","","1","",""
"null","153733","pSARL_v2","pSARL_v2jk9yzwbw","63e55908254a436361a6787b","fixation","img/fixation.png","null","","test","","","","","",""
"367.3000000715256","154103","pSARL_v2","pSARL_v2jk9yzwbw","63e55908254a436361a6787b","freq","img/green_2bandit_b2.png","70","70","test","1","9","9","1","",""
"null","154547","pSARL_v2","pSARL_v2jk9yzwbw","63e55908254a436361a6787b","freq_resp","img/green_2bandit_b.png","70","70","test","","","","1","",""
"null","154706","pSARL_v2","pSARL_v2jk9yzwbw","63e55908254a436361a6787b","fixation","img/fixation.png","null","","test","","","","","",""
"280.2999999523163","154989","pSARL_v2","pSARL_v2jk9yzwbw","63e55908254a436361a6787b","freq","img/green_2bandit_b2.png","70","70","test","1","10","10","1","",""
"null","155522","pSARL_v2","pSARL_v2jk9yzwbw","63e55908254a436361a6787b","freq_resp","img/green_2bandit_b.png","70","70","test","","","","1","",""
"null","155681","pSARL_v2","pSARL_v2jk9yzwbw","63e55908254a436361a6787b","fixation","img/fixation.png","null","","test","","","","","",""
"260.39999997615814","155944","pSARL_v2","pSARL_v2jk9yzwbw","63e55908254a436361a6787b","freq","img/green_2bandit_b2.png","70","70","test","1","11","11","1","",""
"null","156498","pSARL_v2","pSARL_v2jk9yzwbw","63e55908254a436361a6787b","freq_resp","img/green_2bandit_b.png","70","70","test","","","","1","",""
"null","156657","pSARL_v2","pSARL_v2jk9yzwbw","63e55908254a436361a6787b","fixation","img/fixation.png","null","","test","","","","","",""
"270.5","156931","pSARL_v2","pSARL_v2jk9yzwbw","63e55908254a436361a6787b","freq","img/green_2bandit_b2.png","70","70","test","1","12","12","1","",""
"null","157471","pSARL_v2","pSARL_v2jk9yzwbw","63e55908254a436361a6787b","freq_resp","img/green_2bandit_b.png","70","70","test","","","","1","",""
"null","157631","pSARL_v2","pSARL_v2jk9yzwbw","63e55908254a436361a6787b","fixation","img/fixation.png","null","","test","","","","","",""
"251.39999997615814","157885","pSARL_v2","pSARL_v2jk9yzwbw","63e55908254a436361a6787b","freq","img/green_2bandit_b2.png","70","70","test","1","13","13","1","",""
"null","158446","pSARL_v2","pSARL_v2jk9yzwbw","63e55908254a436361a6787b","freq_resp","img/green_2bandit_b.png","70","70","test","","","","1","",""
"null","158606","pSARL_v2","pSARL_v2jk9yzwbw","63e55908254a436361a6787b","fixation","img/fixation.png","null","","test","","","","","",""
"233.89999997615814","158842","pSARL_v2","pSARL_v2jk9yzwbw","63e55908254a436361a6787b","freq","img/green_2bandit_b2.png","70","70","test","1","14","14","1","",""
"null","159421","pSARL_v2","pSARL_v2jk9yzwbw","63e55908254a436361a6787b","freq_resp","img/green_2bandit_b.png","70","70","test","","","","1","",""
"null","159581","pSARL_v2","pSARL_v2jk9yzwbw","63e55908254a436361a6787b","fixation","img/fixation.png","null","","test","","","","","",""
"209.89999997615814","159793","pSARL_v2","pSARL_v2jk9yzwbw","63e55908254a436361a6787b","freq","img/green_2bandit_b2.png","70","70","test","1","15","15","1","",""
"null","160394","pSARL_v2","pSARL_v2jk9yzwbw","63e55908254a436361a6787b","freq_resp","img/green_2bandit_b.png","70","70","test","","","","1","",""
"null","160554","pSARL_v2","pSARL_v2jk9yzwbw","63e55908254a436361a6787b","fixation","img/fixation.png","null","","test","","","","","",""
"208.79999995231628","160765","pSARL_v2","pSARL_v2jk9yzwbw","63e55908254a436361a6787b","freq","img/green_2bandit_b2.png","70","70","test","1","16","16","1","",""
"null","161371","pSARL_v2","pSARL_v2jk9yzwbw","63e55908254a436361a6787b","freq_resp","img/green_2bandit_b.png","70","70","test","","","","1","",""
"null","161530","pSARL_v2","pSARL_v2jk9yzwbw","63e55908254a436361a6787b","fixation","img/fixation.png","null","","test","","","","","",""
"159.60000002384186","161692","pSARL_v2","pSARL_v2jk9yzwbw","63e55908254a436361a6787b","freq","img/green_2bandit_b2.png","70","70","test","1","17","17","1","",""
"null","162344","pSARL_v2","pSARL_v2jk9yzwbw","63e55908254a436361a6787b","freq_resp","img/green_2bandit_b.png","70","70","test","","","","1","",""
"null","162504","pSARL_v2","pSARL_v2jk9yzwbw","63e55908254a436361a6787b","fixation","img/fixation.png","null","","test","","","","","",""
"102.70000004768372","162609","pSARL_v2","pSARL_v2jk9yzwbw","63e55908254a436361a6787b","freq","img/green_2bandit_b2.png","70","70","test","1","18","18","1","",""
"null","163320","pSARL_v2","pSARL_v2jk9yzwbw","63e55908254a436361a6787b","freq_resp","img/green_2bandit_b.png","70","70","test","","","","1","",""
"null","163480","pSARL_v2","pSARL_v2jk9yzwbw","63e55908254a436361a6787b","fixation","img/fixation.png","null","","test","","","","","",""
"81.89999997615814","163564","pSARL_v2","pSARL_v2jk9yzwbw","63e55908254a436361a6787b","freq","img/green_2bandit_b2.png","70","70","test","1","19","19","1","",""
"null","164293","pSARL_v2","pSARL_v2jk9yzwbw","63e55908254a436361a6787b","freq_resp","img/green_2bandit_b.png","70","70","test","","","","1","",""
"null","164454","pSARL_v2","pSARL_v2jk9yzwbw","63e55908254a436361a6787b","fixation","img/fixation.png","null","","test","","","","","",""
"102.70000004768372","164560","pSARL_v2","pSARL_v2jk9yzwbw","63e55908254a436361a6787b","freq","img/green_2bandit_b2.png","70","70","test","1","20","20","1","",""
"null","165270","pSARL_v2","pSARL_v2jk9yzwbw","63e55908254a436361a6787b","freq_resp","img/green_2bandit_b.png","70","70","test","","","","1","",""
"null","165430","pSARL_v2","pSARL_v2jk9yzwbw","63e55908254a436361a6787b","fixation","img/fixation.png","null","","test","","","","","",""
"106.19999992847443","165539","pSARL_v2","pSARL_v2jk9yzwbw","63e55908254a436361a6787b","freq","img/green_2bandit_b2.png","70","70","test","1","21","21","1","",""
"null","166245","pSARL_v2","pSARL_v2jk9yzwbw","63e55908254a436361a6787b","freq_resp","img/green_2bandit_b.png","70","70","test","","","","1","",""
"null","166405","pSARL_v2","pSARL_v2jk9yzwbw","63e55908254a436361a6787b","fixation","img/fixation.png","null","","test","","","","","",""
"450.39999997615814","166858","pSARL_v2","pSARL_v2jk9yzwbw","63e55908254a436361a6787b","reward","img/slot.png","74","","test","","","","","",""
"null","167618","pSARL_v2","pSARL_v2jk9yzwbw","63e55908254a436361a6787b","points","<div class=""verylowPoints""> -6 </div>","null","na","test","","","","1","-6","0"
"796.8000000715256","168418","pSARL_v2","pSARL_v2jk9yzwbw","63e55908254a436361a6787b","freq","img/green_2bandit_b2.png","70","70","test","1","22","22","2","",""
"null","168424","pSARL_v2","pSARL_v2jk9yzwbw","63e55908254a436361a6787b","freq_resp","img/green_2bandit_b.png","70","70","test","","","","2","",""
"null","168590","pSARL_v2","pSARL_v2jk9yzwbw","63e55908254a436361a6787b","fixation","img/fixation.png","null","","test","","","","","",""
"492.60000002384186","169085","pSARL_v2","pSARL_v2jk9yzwbw","63e55908254a436361a6787b","infreq","img/orange_2bandit_b2.png","68","68","test","1","23","23","2","",""
"null","169406","pSARL_v2","pSARL_v2jk9yzwbw","63e55908254a436361a6787b","infreq_resp","img/orange_2bandit_b.png","68","68","test","","","","2","",""
"null","169566","pSARL_v2","pSARL_v2jk9yzwbw","63e55908254a436361a6787b","fixation","img/fixation.png","null","","test","","","","","",""
"425.39999997615814","169994","pSARL_v2","pSARL_v2jk9yzwbw","63e55908254a436361a6787b","freq","img/green_2bandit_b2.png","70","70","test","1","24","24","2","",""
"null","170382","pSARL_v2","pSARL_v2jk9yzwbw","63e55908254a436361a6787b","freq_resp","img/green_2bandit_b.png","70","70","test","","","","2","",""
"null","170543","pSARL_v2","pSARL_v2jk9yzwbw","63e55908254a436361a6787b","fixation","img/fixation.png","null","","test","","","","","",""
"348.6999999284744","170894","pSARL_v2","pSARL_v2jk9yzwbw","63e55908254a436361a6787b","freq","img/green_2bandit_b2.png","70","70","test","1","25","25","2","",""
"null","171355","pSARL_v2","pSARL_v2jk9yzwbw","63e55908254a436361a6787b","freq_resp","img/green_2bandit_b.png","70","70","test","","","","2","",""
"null","171515","pSARL_v2","pSARL_v2jk9yzwbw","63e55908254a436361a6787b","fixation","img/fixation.png","null","","test","","","","","",""
"339.39999997615814","171857","pSARL_v2","pSARL_v2jk9yzwbw","63e55908254a436361a6787b","freq","img/green_2bandit_b2.png","70","70","test","1","26","26","2","",""
"null","172332","pSARL_v2","pSARL_v2jk9yzwbw","63e55908254a436361a6787b","freq_resp","img/green_2bandit_b.png","70","70","test","","","","2","",""
"null","172493","pSARL_v2","pSARL_v2jk9yzwbw","63e55908254a436361a6787b","fixation","img/fixation.png","null","","test","","","","","",""
"299.5","172795","pSARL_v2","pSARL_v2jk9yzwbw","63e55908254a436361a6787b","freq","img/green_2bandit_b2.png","70","70","test","1","27","27","2","",""
"null","173305","pSARL_v2","pSARL_v2jk9yzwbw","63e55908254a436361a6787b","freq_resp","img/green_2bandit_b.png","70","70","test","","","","2","",""
"null","173463","pSARL_v2","pSARL_v2jk9yzwbw","63e55908254a436361a6787b","fixation","img/fixation.png","null","","test","","","","","",""
"224.39999997615814","173690","pSARL_v2","pSARL_v2jk9yzwbw","63e55908254a436361a6787b","freq","img/green_2bandit_b2.png","70","70","test","1","28","28","2","",""
"null","174280","pSARL_v2","pSARL_v2jk9yzwbw","63e55908254a436361a6787b","freq_resp","img/green_2bandit_b.png","70","70","test","","","","2","",""
"null","174440","pSARL_v2","pSARL_v2jk9yzwbw","63e55908254a436361a6787b","fixation","img/fixation.png","null","","test","","","","","",""
"178.29999995231628","174621","pSARL_v2","pSARL_v2jk9yzwbw","63e55908254a436361a6787b","freq","img/green_2bandit_b2.png","70","70","test","1","29","29","2","",""
"null","175257","pSARL_v2","pSARL_v2jk9yzwbw","63e55908254a436361a6787b","freq_resp","img/green_2bandit_b.png","70","70","test","","","","2","",""
"null","175417","pSARL_v2","pSARL_v2jk9yzwbw","63e55908254a436361a6787b","fixation","img/fixation.png","null","","test","","","","","",""
"110.29999995231628","175530","pSARL_v2","pSARL_v2jk9yzwbw","63e55908254a436361a6787b","freq","img/green_2bandit_b2.png","70","70","test","1","30","30","2","",""
"null","176234","pSARL_v2","pSARL_v2jk9yzwbw","63e55908254a436361a6787b","freq_resp","img/green_2bandit_b.png","70","70","test","","","","2","",""
"null","176394","pSARL_v2","pSARL_v2jk9yzwbw","63e55908254a436361a6787b","fixation","img/fixation.png","null","","test","","","","","",""
"80.20000004768372","176479","pSARL_v2","pSARL_v2jk9yzwbw","63e55908254a436361a6787b","freq","img/green_2bandit_b2.png","70","70","test","1","31","31","2","",""
"null","177209","pSARL_v2","pSARL_v2jk9yzwbw","63e55908254a436361a6787b","freq_resp","img/green_2bandit_b.png","70","70","test","","","","2","",""
"null","177367","pSARL_v2","pSARL_v2jk9yzwbw","63e55908254a436361a6787b","fixation","img/fixation.png","null","","test","","","","","",""
"42.299999952316284","177411","pSARL_v2","pSARL_v2jk9yzwbw","63e55908254a436361a6787b","freq","img/green_2bandit_b2.png","70","70","test","1","32","32","2","",""
"null","178182","pSARL_v2","pSARL_v2jk9yzwbw","63e55908254a436361a6787b","freq_resp","img/green_2bandit_b.png","70","70","test","","","","2","",""
"null","178342","pSARL_v2","pSARL_v2jk9yzwbw","63e55908254a436361a6787b","fixation","img/fixation.png","null","","test","","","","","",""
"46.299999952316284","178391","pSARL_v2","pSARL_v2jk9yzwbw","63e55908254a436361a6787b","freq","img/green_2bandit_b2.png","70","70","test","1","33","33","2","",""
"null","179159","pSARL_v2","pSARL_v2jk9yzwbw","63e55908254a436361a6787b","freq_resp","img/green_2bandit_b.png","70","70","test","","","","2","",""
"null","179319","pSARL_v2","pSARL_v2jk9yzwbw","63e55908254a436361a6787b","fixation","img/fixation.png","null","","test","","","","","",""
"54.300000071525574","179375","pSARL_v2","pSARL_v2jk9yzwbw","63e55908254a436361a6787b","freq","img/green_2bandit_b2.png","70","70","test","1","34","34","2","",""
"null","180132","pSARL_v2","pSARL_v2jk9yzwbw","63e55908254a436361a6787b","freq_resp","img/green_2bandit_b.png","70","70","test","","","","2","",""
"null","180292","pSARL_v2","pSARL_v2jk9yzwbw","63e55908254a436361a6787b","fixation","img/fixation.png","null","","test","","","","","",""
"34.89999997615814","180329","pSARL_v2","pSARL_v2jk9yzwbw","63e55908254a436361a6787b","freq","img/green_2bandit_b2.png","70","70","test","1","35","35","2","",""
"null","181109","pSARL_v2","pSARL_v2jk9yzwbw","63e55908254a436361a6787b","freq_resp","img/green_2bandit_b.png","70","70","test","","","","2","",""
"null","181268","pSARL_v2","pSARL_v2jk9yzwbw","63e55908254a436361a6787b","fixation","img/fixation.png","null","","test","","","","","",""
"446.09999990463257","181717","pSARL_v2","pSARL_v2jk9yzwbw","63e55908254a436361a6787b","infreq","img/orange_2bandit_b2.png","68","68","test","1","36","36","2","",""
"null","182081","pSARL_v2","pSARL_v2jk9yzwbw","63e55908254a436361a6787b","infreq_resp","img/orange_2bandit_b.png","68","68","test","","","","2","",""
"null","182241","pSARL_v2","pSARL_v2jk9yzwbw","63e55908254a436361a6787b","fixation","img/fixation.png","null","","test","","","","","",""
"377.2999999523163","182621","pSARL_v2","pSARL_v2jk9yzwbw","63e55908254a436361a6787b","freq","img/green_2bandit_b2.png","70","70","test","1","37","37","2","",""
"null","183058","pSARL_v2","pSARL_v2jk9yzwbw","63e55908254a436361a6787b","freq_resp","img/green_2bandit_b.png","70","70","test","","","","2","",""
"null","183218","pSARL_v2","pSARL_v2jk9yzwbw","63e55908254a436361a6787b","fixation","img/fixation.png","null","","test","","","","","",""
"281.89999997615814","183502","pSARL_v2","pSARL_v2jk9yzwbw","63e55908254a436361a6787b","freq","img/green_2bandit_b2.png","70","70","test","1","38","38","2","",""
"null","184033","pSARL_v2","pSARL_v2jk9yzwbw","63e55908254a436361a6787b","freq_resp","img/green_2bandit_b.png","70","70","test","","","","2","",""
"null","184191","pSARL_v2","pSARL_v2jk9yzwbw","63e55908254a436361a6787b","fixation","img/fixation.png","null","","test","","","","","",""
"203.09999990463257","184397","pSARL_v2","pSARL_v2jk9yzwbw","63e55908254a436361a6787b","freq","img/green_2bandit_b2.png","70","70","test","1","39","39","2","",""
"null","185008","pSARL_v2","pSARL_v2jk9yzwbw","63e55908254a436361a6787b","freq_resp","img/green_2bandit_b.png","70","70","test","","","","2","",""
"null","185168","pSARL_v2","pSARL_v2jk9yzwbw","63e55908254a436361a6787b","fixation","img/fixation.png","null","","test","","","","","",""
"166.59999990463257","185337","pSARL_v2","pSARL_v2jk9yzwbw","63e55908254a436361a6787b","freq","img/green_2bandit_b2.png","70","70","test","1","40","40","2","",""
"null","185983","pSARL_v2","pSARL_v2jk9yzwbw","63e55908254a436361a6787b","freq_resp","img/green_2bandit_b.png","70","70","test","","","","2","",""
"null","186141","pSARL_v2","pSARL_v2jk9yzwbw","63e55908254a436361a6787b","fixation","img/fixation.png","null","","test","","","","","",""
"112.5","186255","pSARL_v2","pSARL_v2jk9yzwbw","63e55908254a436361a6787b","freq","img/green_2bandit_b2.png","70","70","test","1","41","41","2","",""
"null","186958","pSARL_v2","pSARL_v2jk9yzwbw","63e55908254a436361a6787b","freq_resp","img/green_2bandit_b.png","70","70","test","","","","2","",""
"null","187117","pSARL_v2","pSARL_v2jk9yzwbw","63e55908254a436361a6787b","fixation","img/fixation.png","null","","test","","","","","",""
"81.69999992847443","187202","pSARL_v2","pSARL_v2jk9yzwbw","63e55908254a436361a6787b","freq","img/green_2bandit_b2.png","70","70","test","1","42","42","2","",""
"null","187932","pSARL_v2","pSARL_v2jk9yzwbw","63e55908254a436361a6787b","freq_resp","img/green_2bandit_b.png","70","70","test","","","","2","",""
"null","188093","pSARL_v2","pSARL_v2jk9yzwbw","63e55908254a436361a6787b","fixation","img/fixation.png","null","","test","","","","","",""
"83.5","188179","pSARL_v2","pSARL_v2jk9yzwbw","63e55908254a436361a6787b","freq","img/green_2bandit_b2.png","70","70","test","1","43","43","2","",""
"null","188905","pSARL_v2","pSARL_v2jk9yzwbw","63e55908254a436361a6787b","freq_resp","img/green_2bandit_b.png","70","70","test","","","","2","",""
"null","189065","pSARL_v2","pSARL_v2jk9yzwbw","63e55908254a436361a6787b","fixation","img/fixation.png","null","","test","","","","","",""
"751.3999999761581","189819","pSARL_v2","pSARL_v2jk9yzwbw","63e55908254a436361a6787b","reward","img/slot.png","74","","test","","","","","",""
"null","190585","pSARL_v2","pSARL_v2jk9yzwbw","63e55908254a436361a6787b","points","<div class=""verylowPoints""> -11 </div>","null","na","test","","","","2","-11","1"
"null","191399","pSARL_v2","pSARL_v2jk9yzwbw","63e55908254a436361a6787b","freq","img/green_2bandit_b2.png","null","70","test","0","44","44","3","",""
"null","191560","pSARL_v2","pSARL_v2jk9yzwbw","63e55908254a436361a6787b","fixation","img/fixation.png","null","","test","","","","","",""
"358.39999997615814","191920","pSARL_v2","pSARL_v2jk9yzwbw","63e55908254a436361a6787b","freq","img/green_2bandit_b2.png","70","70","test","1","45","45","3","",""
"null","192376","pSARL_v2","pSARL_v2jk9yzwbw","63e55908254a436361a6787b","freq_resp","img/green_2bandit_b.png","70","70","test","","","","3","",""
"null","192536","pSARL_v2","pSARL_v2jk9yzwbw","63e55908254a436361a6787b","fixation","img/fixation.png","null","","test","","","","","",""
"263.60000002384186","192803","pSARL_v2","pSARL_v2jk9yzwbw","63e55908254a436361a6787b","freq","img/green_2bandit_b2.png","70","70","test","1","46","46","3","",""
"null","193349","pSARL_v2","pSARL_v2jk9yzwbw","63e55908254a436361a6787b","freq_resp","img/green_2bandit_b.png","70","70","test","","","","3","",""
"null","193509","pSARL_v2","pSARL_v2jk9yzwbw","63e55908254a436361a6787b","fixation","img/fixation.png","null","","test","","","","","",""
"170.79999995231628","193682","pSARL_v2","pSARL_v2jk9yzwbw","63e55908254a436361a6787b","freq","img/green_2bandit_b2.png","70","70","test","1","47","47","3","",""
"null","194324","pSARL_v2","pSARL_v2jk9yzwbw","63e55908254a436361a6787b","freq_resp","img/green_2bandit_b.png","70","70","test","","","","3","",""
"null","194485","pSARL_v2","pSARL_v2jk9yzwbw","63e55908254a436361a6787b","fixation","img/fixation.png","null","","test","","","","","",""
"111.5","194599","pSARL_v2","pSARL_v2jk9yzwbw","63e55908254a436361a6787b","freq","img/green_2bandit_b2.png","70","70","test","1","48","48","3","",""
"null","195301","pSARL_v2","pSARL_v2jk9yzwbw","63e55908254a436361a6787b","freq_resp","img/green_2bandit_b.png","70","70","test","","","","3","",""
"null","195461","pSARL_v2","pSARL_v2jk9yzwbw","63e55908254a436361a6787b","fixation","img/fixation.png","null","","test","","","","","",""
"56","195520","pSARL_v2","pSARL_v2jk9yzwbw","63e55908254a436361a6787b","freq","img/green_2bandit_b2.png","70","70","test","1","49","49","3","",""
"null","196278","pSARL_v2","pSARL_v2jk9yzwbw","63e55908254a436361a6787b","freq_resp","img/green_2bandit_b.png","70","70","test","","","","3","",""
"null","196438","pSARL_v2","pSARL_v2jk9yzwbw","63e55908254a436361a6787b","fixation","img/fixation.png","null","","test","","","","","",""
"26","196466","pSARL_v2","pSARL_v2jk9yzwbw","63e55908254a436361a6787b","freq","img/green_2bandit_b2.png","70","70","test","1","50","50","3","",""
"null","197249","pSARL_v2","pSARL_v2jk9yzwbw","63e55908254a436361a6787b","freq_resp","img/green_2bandit_b.png","70","70","test","","","","3","",""
"null","197407","pSARL_v2","pSARL_v2jk9yzwbw","63e55908254a436361a6787b","fixation","img/fixation.png","null","","test","","","","","",""
"68.29999995231628","197477","pSARL_v2","pSARL_v2jk9yzwbw","63e55908254a436361a6787b","freq","img/green_2bandit_b2.png","70","70","test","1","51","51","3","",""
"null","198224","pSARL_v2","pSARL_v2jk9yzwbw","63e55908254a436361a6787b","freq_resp","img/green_2bandit_b.png","70","70","test","","","","3","",""
"null","198384","pSARL_v2","pSARL_v2jk9yzwbw","63e55908254a436361a6787b","fixation","img/fixation.png","null","","test","","","","","",""
"71.30000007152557","198457","pSARL_v2","pSARL_v2jk9yzwbw","63e55908254a436361a6787b","freq","img/green_2bandit_b2.png","70","70","test","1","52","52","3","",""
"null","199201","pSARL_v2","pSARL_v2jk9yzwbw","63e55908254a436361a6787b","freq_resp","img/green_2bandit_b.png","70","70","test","","","","3","",""
"null","199361","pSARL_v2","pSARL_v2jk9yzwbw","63e55908254a436361a6787b","fixation","img/fixation.png","null","","test","","","","","",""
"87.20000004768372","199450","pSARL_v2","pSARL_v2jk9yzwbw","63e55908254a436361a6787b","freq","img/green_2bandit_b2.png","70","70","test","1","53","53","3","",""
"null","200178","pSARL_v2","pSARL_v2jk9yzwbw","63e55908254a436361a6787b","freq_resp","img/green_2bandit_b.png","70","70","test","","","","3","",""
"null","200338","pSARL_v2","pSARL_v2jk9yzwbw","63e55908254a436361a6787b","fixation","img/fixation.png","null","","test","","","","","",""
"111.89999997615814","200452","pSARL_v2","pSARL_v2jk9yzwbw","63e55908254a436361a6787b","freq","img/green_2bandit_b2.png","70","70","test","1","54","54","3","",""
"null","201151","pSARL_v2","pSARL_v2jk9yzwbw","63e55908254a436361a6787b","freq_resp","img/green_2bandit_b.png","70","70","test","","","","3","",""
"null","201310","pSARL_v2","pSARL_v2jk9yzwbw","63e55908254a436361a6787b","fixation","img/fixation.png","null","","test","","","","","",""
"89.69999992847443","201402","pSARL_v2","pSARL_v2jk9yzwbw","63e55908254a436361a6787b","freq","img/green_2bandit_b2.png","70","70","test","1","55","55","3","",""
"null","202125","pSARL_v2","pSARL_v2jk9yzwbw","63e55908254a436361a6787b","freq_resp","img/green_2bandit_b.png","70","70","test","","","","3","",""
"null","202285","pSARL_v2","pSARL_v2jk9yzwbw","63e55908254a436361a6787b","fixation","img/fixation.png","null","","test","","","","","",""
"144.80000007152557","202432","pSARL_v2","pSARL_v2jk9yzwbw","63e55908254a436361a6787b","freq","img/green_2bandit_b2.png","70","70","test","1","56","56","3","",""
"null","203102","pSARL_v2","pSARL_v2jk9yzwbw","63e55908254a436361a6787b","freq_resp","img/green_2bandit_b.png","70","70","test","","","","3","",""
"null","203262","pSARL_v2","pSARL_v2jk9yzwbw","63e55908254a436361a6787b","fixation","img/fixation.png","null","","test","","","","","",""
"104.70000004768372","203370","pSARL_v2","pSARL_v2jk9yzwbw","63e55908254a436361a6787b","freq","img/green_2bandit_b2.png","70","70","test","1","57","57","3","",""
"null","204077","pSARL_v2","pSARL_v2jk9yzwbw","63e55908254a436361a6787b","freq_resp","img/green_2bandit_b.png","70","70","test","","","","3","",""
"null","204237","pSARL_v2","pSARL_v2jk9yzwbw","63e55908254a436361a6787b","fixation","img/fixation.png","null","","test","","","","","",""
"80","204320","pSARL_v2","pSARL_v2jk9yzwbw","63e55908254a436361a6787b","infreq","img/orange_2bandit_b2.png","70","68","test","0","58","58","3","",""
"null","205052","pSARL_v2","pSARL_v2jk9yzwbw","63e55908254a436361a6787b","infreq_resp","img/orange_2bandit_b.png","70","68","test","","","","3","",""
"null","205212","pSARL_v2","pSARL_v2jk9yzwbw","63e55908254a436361a6787b","fixation","img/fixation.png","null","","test","","","","","",""
"418","205632","pSARL_v2","pSARL_v2jk9yzwbw","63e55908254a436361a6787b","freq","img/green_2bandit_b2.png","70","70","test","1","59","59","3","",""
"null","206029","pSARL_v2","pSARL_v2jk9yzwbw","63e55908254a436361a6787b","freq_resp","img/green_2bandit_b.png","70","70","test","","","","3","",""
"null","206189","pSARL_v2","pSARL_v2jk9yzwbw","63e55908254a436361a6787b","fixation","img/fixation.png","null","","test","","","","","",""
"318.7000000476837","206510","pSARL_v2","pSARL_v2jk9yzwbw","63e55908254a436361a6787b","freq","img/green_2bandit_b2.png","68","70","test","0","60","60","3","",""
"null","207006","pSARL_v2","pSARL_v2jk9yzwbw","63e55908254a436361a6787b","freq_resp","img/green_2bandit_b.png","68","70","test","","","","3","",""
"null","207166","pSARL_v2","pSARL_v2jk9yzwbw","63e55908254a436361a6787b","fixation","img/fixation.png","null","","test","","","","","",""
"354.39999997615814","207522","pSARL_v2","pSARL_v2jk9yzwbw","63e55908254a436361a6787b","freq","img/green_2bandit_b2.png","70","70","test","1","61","61","3","",""
"null","207976","pSARL_v2","pSARL_v2jk9yzwbw","63e55908254a436361a6787b","freq_resp","img/green_2bandit_b.png","70","70","test","","","","3","",""
"null","208136","pSARL_v2","pSARL_v2jk9yzwbw","63e55908254a436361a6787b","fixation","img/fixation.png","null","","test","","","","","",""
"93.5","208232","pSARL_v2","pSARL_v2jk9yzwbw","63e55908254a436361a6787b","freq","img/green_2bandit_b2.png","70","70","test","1","62","62","3","",""
"null","208953","pSARL_v2","pSARL_v2jk9yzwbw","63e55908254a436361a6787b","freq_resp","img/green_2bandit_b.png","70","70","test","","","","3","",""
"null","209114","pSARL_v2","pSARL_v2jk9yzwbw","63e55908254a436361a6787b","fixation","img/fixation.png","null","","test","","","","","",""
"17.40000009536743","209133","pSARL_v2","pSARL_v2jk9yzwbw","63e55908254a436361a6787b","freq","img/green_2bandit_b2.png","70","70","test","1","63","63","3","",""
"null","209927","pSARL_v2","pSARL_v2jk9yzwbw","63e55908254a436361a6787b","freq_resp","img/green_2bandit_b.png","70","70","test","","","","3","",""
"null","210087","pSARL_v2","pSARL_v2jk9yzwbw","63e55908254a436361a6787b","fixation","img/fixation.png","null","","test","","","","","",""
"210.10000002384186","210299","pSARL_v2","pSARL_v2jk9yzwbw","63e55908254a436361a6787b","freq","img/green_2bandit_b2.png","70","70","test","1","64","64","3","",""
"null","210901","pSARL_v2","pSARL_v2jk9yzwbw","63e55908254a436361a6787b","freq_resp","img/green_2bandit_b.png","70","70","test","","","","3","",""
"null","211060","pSARL_v2","pSARL_v2jk9yzwbw","63e55908254a436361a6787b","fixation","img/fixation.png","null","","test","","","","","",""
"35.299999952316284","211098","pSARL_v2","pSARL_v2jk9yzwbw","63e55908254a436361a6787b","infreq","img/orange_2bandit_b2.png","70","68","test","0","65","65","3","",""
"null","211877","pSARL_v2","pSARL_v2jk9yzwbw","63e55908254a436361a6787b","infreq_resp","img/orange_2bandit_b.png","70","68","test","","","","3","",""
"null","212035","pSARL_v2","pSARL_v2jk9yzwbw","63e55908254a436361a6787b","fixation","img/fixation.png","null","","test","","","","","",""
"347.5","212385","pSARL_v2","pSARL_v2jk9yzwbw","63e55908254a436361a6787b","freq","img/green_2bandit_b2.png","70","70","test","1","66","66","3","",""
"null","212851","pSARL_v2","pSARL_v2jk9yzwbw","63e55908254a436361a6787b","freq_resp","img/green_2bandit_b.png","70","70","test","","","","3","",""
"null","213010","pSARL_v2","pSARL_v2jk9yzwbw","63e55908254a436361a6787b","fixation","img/fixation.png","null","","test","","","","","",""
"500.10000002384186","213513","pSARL_v2","pSARL_v2jk9yzwbw","63e55908254a436361a6787b","reward","img/slot.png","74","","test","","","","","",""
"null","214273","pSARL_v2","pSARL_v2jk9yzwbw","63e55908254a436361a6787b","points","<div class=""verylowPoints""> -7 </div>","null","na","test","","","","3","-7","2"
"580.5","214856","pSARL_v2","pSARL_v2jk9yzwbw","63e55908254a436361a6787b","freq","img/green_2bandit_b2.png","70","70","test","1","67","67","4","",""
"null","215088","pSARL_v2","pSARL_v2jk9yzwbw","63e55908254a436361a6787b","freq_resp","img/green_2bandit_b.png","70","70","test","","","","4","",""
"null","215248","pSARL_v2","pSARL_v2jk9yzwbw","63e55908254a436361a6787b","fixation","img/fixation.png","null","","test","","","","","",""
"585.9000000953674","215836","pSARL_v2","pSARL_v2jk9yzwbw","63e55908254a436361a6787b","freq","img/green_2bandit_b2.png","70","70","test","1","68","68","4","",""
"null","216063","pSARL_v2","pSARL_v2jk9yzwbw","63e55908254a436361a6787b","freq_resp","img/green_2bandit_b.png","70","70","test","","","","4","",""
"null","216221","pSARL_v2","pSARL_v2jk9yzwbw","63e55908254a436361a6787b","fixation","img/fixation.png","null","","test","","","","","",""
"325","216548","pSARL_v2","pSARL_v2jk9yzwbw","63e55908254a436361a6787b","freq","img/green_2bandit_b2.png","70","70","test","1","69","69","4","",""
"null","217038","pSARL_v2","pSARL_v2jk9yzwbw","63e55908254a436361a6787b","freq_resp","img/green_2bandit_b.png","70","70","test","","","","4","",""
"null","217198","pSARL_v2","pSARL_v2jk9yzwbw","63e55908254a436361a6787b","fixation","img/fixation.png","null","","test","","","","","",""
"271.5","217472","pSARL_v2","pSARL_v2jk9yzwbw","63e55908254a436361a6787b","freq","img/green_2bandit_b2.png","70","70","test","1","70","70","4","",""
"null","218015","pSARL_v2","pSARL_v2jk9yzwbw","63e55908254a436361a6787b","freq_resp","img/green_2bandit_b.png","70","70","test","","","","4","",""
"null","218172","pSARL_v2","pSARL_v2jk9yzwbw","63e55908254a436361a6787b","fixation","img/fixation.png","null","","test","","","","","",""
"60.10000002384186","218234","pSARL_v2","pSARL_v2jk9yzwbw","63e55908254a436361a6787b","freq","img/green_2bandit_b2.png","70","70","test","1","71","71","4","",""
"null","218986","pSARL_v2","pSARL_v2jk9yzwbw","63e55908254a436361a6787b","freq_resp","img/green_2bandit_b.png","70","70","test","","","","4","",""
"null","219146","pSARL_v2","pSARL_v2jk9yzwbw","63e55908254a436361a6787b","fixation","img/fixation.png","null","","test","","","","","",""
"203.40000009536743","219352","pSARL_v2","pSARL_v2jk9yzwbw","63e55908254a436361a6787b","freq","img/green_2bandit_b2.png","70","70","test","1","72","72","4","",""
"null","219963","pSARL_v2","pSARL_v2jk9yzwbw","63e55908254a436361a6787b","freq_resp","img/green_2bandit_b.png","70","70","test","","","","4","",""
"null","220123","pSARL_v2","pSARL_v2jk9yzwbw","63e55908254a436361a6787b","fixation","img/fixation.png","null","","test","","","","","",""
"181","220306","pSARL_v2","pSARL_v2jk9yzwbw","63e55908254a436361a6787b","freq","img/green_2bandit_b2.png","70","70","test","1","73","73","4","",""
"null","220935","pSARL_v2","pSARL_v2jk9yzwbw","63e55908254a436361a6787b","freq_resp","img/green_2bandit_b.png","70","70","test","","","","4","",""
"null","221095","pSARL_v2","pSARL_v2jk9yzwbw","63e55908254a436361a6787b","fixation","img/fixation.png","null","","test","","","","","",""
"77.39999997615814","221175","pSARL_v2","pSARL_v2jk9yzwbw","63e55908254a436361a6787b","infreq","img/orange_2bandit_b2.png","70","68","test","0","74","74","4","",""
"null","221912","pSARL_v2","pSARL_v2jk9yzwbw","63e55908254a436361a6787b","infreq_resp","img/orange_2bandit_b.png","70","68","test","","","","4","",""
"null","222072","pSARL_v2","pSARL_v2jk9yzwbw","63e55908254a436361a6787b","fixation","img/fixation.png","null","","test","","","","","",""
"231.60000002384186","222306","pSARL_v2","pSARL_v2jk9yzwbw","63e55908254a436361a6787b","freq","img/green_2bandit_b2.png","70","70","test","1","75","75","4","",""
"null","222885","pSARL_v2","pSARL_v2jk9yzwbw","63e55908254a436361a6787b","freq_resp","img/green_2bandit_b.png","70","70","test","","","","4","",""
"null","223045","pSARL_v2","pSARL_v2jk9yzwbw","63e55908254a436361a6787b","fixation","img/fixation.png","null","","test","","","","","",""
"233.80000007152557","223281","pSARL_v2","pSARL_v2jk9yzwbw","63e55908254a436361a6787b","freq","img/green_2bandit_b2.png","70","70","test","1","76","76","4","",""
"null","223862","pSARL_v2","pSARL_v2jk9yzwbw","63e55908254a436361a6787b","freq_resp","img/green_2bandit_b.png","70","70","test","","","","4","",""
"null","224022","pSARL_v2","pSARL_v2jk9yzwbw","63e55908254a436361a6787b","fixation","img/fixation.png","null","","test","","","","","",""
"194","224218","pSARL_v2","pSARL_v2jk9yzwbw","63e55908254a436361a6787b","freq","img/green_2bandit_b2.png","70","70","test","1","77","77","4","",""
"null","224837","pSARL_v2","pSARL_v2jk9yzwbw","63e55908254a436361a6787b","freq_resp","img/green_2bandit_b.png","70","70","test","","","","4","",""
"null","224997","pSARL_v2","pSARL_v2jk9yzwbw","63e55908254a436361a6787b","fixation","img/fixation.png","null","","test","","","","","",""
"171.80000007152557","225171","pSARL_v2","pSARL_v2jk9yzwbw","63e55908254a436361a6787b","freq","img/green_2bandit_b2.png","70","70","test","1","78","78","4","",""
"null","225813","pSARL_v2","pSARL_v2jk9yzwbw","63e55908254a436361a6787b","freq_resp","img/green_2bandit_b.png","70","70","test","","","","4","",""
"null","225972","pSARL_v2","pSARL_v2jk9yzwbw","63e55908254a436361a6787b","fixation","img/fixation.png","null","","test","","","","","",""
"358.2000000476837","226333","pSARL_v2","pSARL_v2jk9yzwbw","63e55908254a436361a6787b","freq","img/green_2bandit_b2.png","70","70","test","1","79","79","4","",""
"null","226784","pSARL_v2","pSARL_v2jk9yzwbw","63e55908254a436361a6787b","freq_resp","img/green_2bandit_b.png","70","70","test","","","","4","",""
"null","226945","pSARL_v2","pSARL_v2jk9yzwbw","63e55908254a436361a6787b","fixation","img/fixation.png","null","","test","","","","","",""
"273.10000002384186","227220","pSARL_v2","pSARL_v2jk9yzwbw","63e55908254a436361a6787b","freq","img/green_2bandit_b2.png","70","70","test","1","80","80","4","",""
"null","227760","pSARL_v2","pSARL_v2jk9yzwbw","63e55908254a436361a6787b","freq_resp","img/green_2bandit_b.png","70","70","test","","","","4","",""
"null","227920","pSARL_v2","pSARL_v2jk9yzwbw","63e55908254a436361a6787b","fixation","img/fixation.png","null","","test","","","","","",""
"217.10000002384186","228139","pSARL_v2","pSARL_v2jk9yzwbw","63e55908254a436361a6787b","freq","img/green_2bandit_b2.png","70","70","test","1","81","81","4","",""
"null","228737","pSARL_v2","pSARL_v2jk9yzwbw","63e55908254a436361a6787b","freq_resp","img/green_2bandit_b.png","70","70","test","","","","4","",""
"null","228897","pSARL_v2","pSARL_v2jk9yzwbw","63e55908254a436361a6787b","fixation","img/fixation.png","null","","test","","","","","",""
"184.10000002384186","229083","pSARL_v2","pSARL_v2jk9yzwbw","63e55908254a436361a6787b","freq","img/green_2bandit_b2.png","70","70","test","1","82","82","4","",""
"null","229709","pSARL_v2","pSARL_v2jk9yzwbw","63e55908254a436361a6787b","freq_resp","img/green_2bandit_b.png","70","70","test","","","","4","",""
"null","229869","pSARL_v2","pSARL_v2jk9yzwbw","63e55908254a436361a6787b","fixation","img/fixation.png","null","","test","","","","","",""
"89.5","229961","pSARL_v2","pSARL_v2jk9yzwbw","63e55908254a436361a6787b","freq","img/green_2bandit_b2.png","70","70","test","1","83","83","4","",""
"null","230686","pSARL_v2","pSARL_v2jk9yzwbw","63e55908254a436361a6787b","freq_resp","img/green_2bandit_b.png","70","70","test","","","","4","",""
"null","230847","pSARL_v2","pSARL_v2jk9yzwbw","63e55908254a436361a6787b","fixation","img/fixation.png","null","","test","","","","","",""
"94.20000004768372","230943","pSARL_v2","pSARL_v2jk9yzwbw","63e55908254a436361a6787b","infreq","img/orange_2bandit_b2.png","70","68","test","0","84","84","4","",""
"null","231657","pSARL_v2","pSARL_v2jk9yzwbw","63e55908254a436361a6787b","infreq_resp","img/orange_2bandit_b.png","70","68","test","","","","4","",""
"null","231815","pSARL_v2","pSARL_v2jk9yzwbw","63e55908254a436361a6787b","fixation","img/fixation.png","null","","test","","","","","",""
"393.5","232211","pSARL_v2","pSARL_v2jk9yzwbw","63e55908254a436361a6787b","freq","img/green_2bandit_b2.png","70","70","test","1","85","85","4","",""
"null","232628","pSARL_v2","pSARL_v2jk9yzwbw","63e55908254a436361a6787b","freq_resp","img/green_2bandit_b.png","70","70","test","","","","4","",""
"null","232788","pSARL_v2","pSARL_v2jk9yzwbw","63e55908254a436361a6787b","fixation","img/fixation.png","null","","test","","","","","",""
"350.2000000476837","233140","pSARL_v2","pSARL_v2jk9yzwbw","63e55908254a436361a6787b","freq","img/green_2bandit_b2.png","70","70","test","1","86","86","4","",""
"null","233605","pSARL_v2","pSARL_v2jk9yzwbw","63e55908254a436361a6787b","freq_resp","img/green_2bandit_b.png","70","70","test","","","","4","",""
"null","233765","pSARL_v2","pSARL_v2jk9yzwbw","63e55908254a436361a6787b","fixation","img/fixation.png","null","","test","","","","","",""
"203.60000002384186","233971","pSARL_v2","pSARL_v2jk9yzwbw","63e55908254a436361a6787b","freq","img/green_2bandit_b2.png","70","70","test","1","87","87","4","",""
"null","234580","pSARL_v2","pSARL_v2jk9yzwbw","63e55908254a436361a6787b","freq_resp","img/green_2bandit_b.png","70","70","test","","","","4","",""
"null","234738","pSARL_v2","pSARL_v2jk9yzwbw","63e55908254a436361a6787b","fixation","img/fixation.png","null","","test","","","","","",""
"145.79999995231628","234887","pSARL_v2","pSARL_v2jk9yzwbw","63e55908254a436361a6787b","freq","img/green_2bandit_b2.png","70","70","test","1","88","88","4","",""
"null","235552","pSARL_v2","pSARL_v2jk9yzwbw","63e55908254a436361a6787b","freq_resp","img/green_2bandit_b.png","70","70","test","","","","4","",""
"null","235713","pSARL_v2","pSARL_v2jk9yzwbw","63e55908254a436361a6787b","fixation","img/fixation.png","null","","test","","","","","",""
"247.30000007152557","235962","pSARL_v2","pSARL_v2jk9yzwbw","63e55908254a436361a6787b","freq","img/green_2bandit_b2.png","70","70","test","1","89","89","4","",""
"null","236529","pSARL_v2","pSARL_v2jk9yzwbw","63e55908254a436361a6787b","freq_resp","img/green_2bandit_b.png","70","70","test","","","","4","",""
"null","236690","pSARL_v2","pSARL_v2jk9yzwbw","63e55908254a436361a6787b","fixation","img/fixation.png","null","","test","","","","","",""
"244.89999997615814","236937","pSARL_v2","pSARL_v2jk9yzwbw","63e55908254a436361a6787b","freq","img/green_2bandit_b2.png","70","70","test","1","90","90","4","",""
"null","237506","pSARL_v2","pSARL_v2jk9yzwbw","63e55908254a436361a6787b","freq_resp","img/green_2bandit_b.png","70","70","test","","","","4","",""
"null","237667","pSARL_v2","pSARL_v2jk9yzwbw","63e55908254a436361a6787b","fixation","img/fixation.png","null","","test","","","","","",""
"195","237864","pSARL_v2","pSARL_v2jk9yzwbw","63e55908254a436361a6787b","freq","img/green_2bandit_b2.png","70","70","test","1","91","91","4","",""
"null","238481","pSARL_v2","pSARL_v2jk9yzwbw","63e55908254a436361a6787b","freq_resp","img/green_2bandit_b.png","70","70","test","","","","4","",""
"null","238639","pSARL_v2","pSARL_v2jk9yzwbw","63e55908254a436361a6787b","fixation","img/fixation.png","null","","test","","","","","",""
"642.5","239284","pSARL_v2","pSARL_v2jk9yzwbw","63e55908254a436361a6787b","reward","img/slot.png","74","","test","","","","","",""
"null","240045","pSARL_v2","pSARL_v2jk9yzwbw","63e55908254a436361a6787b","points","<div class=""verylowPoints""> -3 </div>","null","na","test","","","","4","-3","3"
"724","240771","pSARL_v2","pSARL_v2jk9yzwbw","63e55908254a436361a6787b","freq","img/green_2bandit_b2.png","68","70","test","0","92","92","5","",""
"null","240854","pSARL_v2","pSARL_v2jk9yzwbw","63e55908254a436361a6787b","freq_resp","img/green_2bandit_b.png","68","70","test","","","","5","",""
"null","241021","pSARL_v2","pSARL_v2jk9yzwbw","63e55908254a436361a6787b","fixation","img/fixation.png","null","","test","","","","","",""
"62.299999952316284","241086","pSARL_v2","pSARL_v2jk9yzwbw","63e55908254a436361a6787b","freq","img/green_2bandit_b2.png","70","70","test","1","93","93","5","",""
"null","241836","pSARL_v2","pSARL_v2jk9yzwbw","63e55908254a436361a6787b","freq_resp","img/green_2bandit_b.png","70","70","test","","","","5","",""
"null","241994","pSARL_v2","pSARL_v2jk9yzwbw","63e55908254a436361a6787b","fixation","img/fixation.png","null","","test","","","","","",""
"228.10000002384186","242225","pSARL_v2","pSARL_v2jk9yzwbw","63e55908254a436361a6787b","freq","img/green_2bandit_b2.png","70","70","test","1","94","94","5","",""
"null","242809","pSARL_v2","pSARL_v2jk9yzwbw","63e55908254a436361a6787b","freq_resp","img/green_2bandit_b.png","70","70","test","","","","5","",""
"null","242969","pSARL_v2","pSARL_v2jk9yzwbw","63e55908254a436361a6787b","fixation","img/fixation.png","null","","test","","","","","",""
"176.60000002384186","243148","pSARL_v2","pSARL_v2jk9yzwbw","63e55908254a436361a6787b","infreq","img/orange_2bandit_b2.png","70","68","test","0","95","95","5","",""
"null","243782","pSARL_v2","pSARL_v2jk9yzwbw","63e55908254a436361a6787b","infreq_resp","img/orange_2bandit_b.png","70","68","test","","","","5","",""
"null","243942","pSARL_v2","pSARL_v2jk9yzwbw","63e55908254a436361a6787b","fixation","img/fixation.png","null","","test","","","","","",""
"246.29999995231628","244190","pSARL_v2","pSARL_v2jk9yzwbw","63e55908254a436361a6787b","freq","img/green_2bandit_b2.png","70","70","test","1","96","96","5","",""
"null","244757","pSARL_v2","pSARL_v2jk9yzwbw","63e55908254a436361a6787b","freq_resp","img/green_2bandit_b.png","70","70","test","","","","5","",""
"null","244917","pSARL_v2","pSARL_v2jk9yzwbw","63e55908254a436361a6787b","fixation","img/fixation.png","null","","test","","","","","",""
"318.7000000476837","245238","pSARL_v2","pSARL_v2jk9yzwbw","63e55908254a436361a6787b","infreq","img/orange_2bandit_b2.png","70","68","test","0","97","97","5","",""
"null","245734","pSARL_v2","pSARL_v2jk9yzwbw","63e55908254a436361a6787b","infreq_resp","img/orange_2bandit_b.png","70","68","test","","","","5","",""
"null","245893","pSARL_v2","pSARL_v2jk9yzwbw","63e55908254a436361a6787b","fixation","img/fixation.png","null","","test","","","","","",""
"485.2999999523163","246381","pSARL_v2","pSARL_v2jk9yzwbw","63e55908254a436361a6787b","freq","img/green_2bandit_b2.png","70","70","test","1","98","98","5","",""
"null","246709","pSARL_v2","pSARL_v2jk9yzwbw","63e55908254a436361a6787b","freq_resp","img/green_2bandit_b.png","70","70","test","","","","5","",""
"null","246869","pSARL_v2","pSARL_v2jk9yzwbw","63e55908254a436361a6787b","fixation","img/fixation.png","null","","test","","","","","",""
"407.39999997615814","247279","pSARL_v2","pSARL_v2jk9yzwbw","63e55908254a436361a6787b","freq","img/green_2bandit_b2.png","68","70","test","0","99","99","5","",""
"null","247684","pSARL_v2","pSARL_v2jk9yzwbw","63e55908254a436361a6787b","freq_resp","img/green_2bandit_b.png","68","70","test","","","","5","",""
"null","247844","pSARL_v2","pSARL_v2jk9yzwbw","63e55908254a436361a6787b","fixation","img/fixation.png","null","","test","","","","","",""
"330.7999999523163","248177","pSARL_v2","pSARL_v2jk9yzwbw","63e55908254a436361a6787b","freq","img/green_2bandit_b2.png","70","70","test","1","100","100","5","",""
"null","248658","pSARL_v2","pSARL_v2jk9yzwbw","63e55908254a436361a6787b","freq_resp","img/green_2bandit_b.png","70","70","test","","","","5","",""
"null","248818","pSARL_v2","pSARL_v2jk9yzwbw","63e55908254a436361a6787b","fixation","img/fixation.png","null","","test","","","","","",""
"321.10000002384186","249142","pSARL_v2","pSARL_v2jk9yzwbw","63e55908254a436361a6787b","freq","img/green_2bandit_b2.png","70","70","test","1","101","101","5","",""
"null","249633","pSARL_v2","pSARL_v2jk9yzwbw","63e55908254a436361a6787b","freq_resp","img/green_2bandit_b.png","70","70","test","","","","5","",""
"null","249793","pSARL_v2","pSARL_v2jk9yzwbw","63e55908254a436361a6787b","fixation","img/fixation.png","null","","test","","","","","",""
"239.39999997615814","250035","pSARL_v2","pSARL_v2jk9yzwbw","63e55908254a436361a6787b","freq","img/green_2bandit_b2.png","70","70","test","1","102","102","5","",""
"null","250608","pSARL_v2","pSARL_v2jk9yzwbw","63e55908254a436361a6787b","freq_resp","img/green_2bandit_b.png","70","70","test","","","","5","",""
"null","250768","pSARL_v2","pSARL_v2jk9yzwbw","63e55908254a436361a6787b","fixation","img/fixation.png","null","","test","","","","","",""
"129.39999997615814","250900","pSARL_v2","pSARL_v2jk9yzwbw","63e55908254a436361a6787b","freq","img/green_2bandit_b2.png","70","70","test","1","103","103","5","",""
"null","251581","pSARL_v2","pSARL_v2jk9yzwbw","63e55908254a436361a6787b","freq_resp","img/green_2bandit_b.png","70","70","test","","","","5","",""
"null","251741","pSARL_v2","pSARL_v2jk9yzwbw","63e55908254a436361a6787b","fixation","img/fixation.png","null","","test","","","","","",""
"129.70000004768372","251873","pSARL_v2","pSARL_v2jk9yzwbw","63e55908254a436361a6787b","freq","img/green_2bandit_b2.png","70","70","test","1","104","104","5","",""
"null","252558","pSARL_v2","pSARL_v2jk9yzwbw","63e55908254a436361a6787b","freq_resp","img/green_2bandit_b.png","70","70","test","","","","5","",""
"null","252718","pSARL_v2","pSARL_v2jk9yzwbw","63e55908254a436361a6787b","fixation","img/fixation.png","null","","test","","","","","",""
"119.10000002384186","252840","pSARL_v2","pSARL_v2jk9yzwbw","63e55908254a436361a6787b","freq","img/green_2bandit_b2.png","70","70","test","1","105","105","5","",""
"null","253533","pSARL_v2","pSARL_v2jk9yzwbw","63e55908254a436361a6787b","freq_resp","img/green_2bandit_b.png","70","70","test","","","","5","",""
"null","253693","pSARL_v2","pSARL_v2jk9yzwbw","63e55908254a436361a6787b","fixation","img/fixation.png","null","","test","","","","","",""
"122.5","253818","pSARL_v2","pSARL_v2jk9yzwbw","63e55908254a436361a6787b","freq","img/green_2bandit_b2.png","70","70","test","1","106","106","5","",""
"null","254508","pSARL_v2","pSARL_v2jk9yzwbw","63e55908254a436361a6787b","freq_resp","img/green_2bandit_b.png","70","70","test","","","","5","",""
"null","254668","pSARL_v2","pSARL_v2jk9yzwbw","63e55908254a436361a6787b","fixation","img/fixation.png","null","","test","","","","","",""
"78.19999992847443","254749","pSARL_v2","pSARL_v2jk9yzwbw","63e55908254a436361a6787b","freq","img/green_2bandit_b2.png","70","70","test","1","107","107","5","",""
"null","255483","pSARL_v2","pSARL_v2jk9yzwbw","63e55908254a436361a6787b","freq_resp","img/green_2bandit_b.png","70","70","test","","","","5","",""
"null","255640","pSARL_v2","pSARL_v2jk9yzwbw","63e55908254a436361a6787b","fixation","img/fixation.png","null","","test","","","","","",""
"122","255765","pSARL_v2","pSARL_v2jk9yzwbw","63e55908254a436361a6787b","freq","img/green_2bandit_b2.png","70","70","test","1","108","108","5","",""
"null","256458","pSARL_v2","pSARL_v2jk9yzwbw","63e55908254a436361a6787b","freq_resp","img/green_2bandit_b.png","70","70","test","","","","5","",""
"null","256617","pSARL_v2","pSARL_v2jk9yzwbw","63e55908254a436361a6787b","fixation","img/fixation.png","null","","test","","","","","",""
"106","256726","pSARL_v2","pSARL_v2jk9yzwbw","63e55908254a436361a6787b","freq","img/green_2bandit_b2.png","70","70","test","1","109","109","5","",""
"null","257434","pSARL_v2","pSARL_v2jk9yzwbw","63e55908254a436361a6787b","freq_resp","img/green_2bandit_b.png","70","70","test","","","","5","",""
"null","257595","pSARL_v2","pSARL_v2jk9yzwbw","63e55908254a436361a6787b","fixation","img/fixation.png","null","","test","","","","","",""
"87.69999992847443","257685","pSARL_v2","pSARL_v2jk9yzwbw","63e55908254a436361a6787b","freq","img/green_2bandit_b2.png","70","70","test","1","110","110","5","",""
"null","258407","pSARL_v2","pSARL_v2jk9yzwbw","63e55908254a436361a6787b","freq_resp","img/green_2bandit_b.png","70","70","test","","","","5","",""
"null","258568","pSARL_v2","pSARL_v2jk9yzwbw","63e55908254a436361a6787b","fixation","img/fixation.png","null","","test","","","","","",""
"0","258569","pSARL_v2","pSARL_v2jk9yzwbw","63e55908254a436361a6787b","freq","img/green_2bandit_b2.png","70","70","test","1","111","111","5","",""
"null","259384","pSARL_v2","pSARL_v2jk9yzwbw","63e55908254a436361a6787b","freq_resp","img/green_2bandit_b.png","70","70","test","","","","5","",""
"null","259544","pSARL_v2","pSARL_v2jk9yzwbw","63e55908254a436361a6787b","fixation","img/fixation.png","null","","test","","","","","",""
"647.0999999046326","260194","pSARL_v2","pSARL_v2jk9yzwbw","63e55908254a436361a6787b","infreq","img/orange_2bandit_b2.png","68","68","test","1","112","112","5","",""
"null","260361","pSARL_v2","pSARL_v2jk9yzwbw","63e55908254a436361a6787b","infreq_resp","img/orange_2bandit_b.png","68","68","test","","","","5","",""
"null","260521","pSARL_v2","pSARL_v2jk9yzwbw","63e55908254a436361a6787b","fixation","img/fixation.png","null","","test","","","","","",""
"406.1999999284744","260930","pSARL_v2","pSARL_v2jk9yzwbw","63e55908254a436361a6787b","freq","img/green_2bandit_b2.png","70","70","test","1","113","113","5","",""
"null","261334","pSARL_v2","pSARL_v2jk9yzwbw","63e55908254a436361a6787b","freq_resp","img/green_2bandit_b.png","70","70","test","","","","5","",""
"null","261494","pSARL_v2","pSARL_v2jk9yzwbw","63e55908254a436361a6787b","fixation","img/fixation.png","null","","test","","","","","",""
"280.5","261777","pSARL_v2","pSARL_v2jk9yzwbw","63e55908254a436361a6787b","freq","img/green_2bandit_b2.png","70","70","test","1","114","114","5","",""
"null","262307","pSARL_v2","pSARL_v2jk9yzwbw","63e55908254a436361a6787b","freq_resp","img/green_2bandit_b.png","70","70","test","","","","5","",""
"null","262467","pSARL_v2","pSARL_v2jk9yzwbw","63e55908254a436361a6787b","fixation","img/fixation.png","null","","test","","","","","",""
"434.2999999523163","262904","pSARL_v2","pSARL_v2jk9yzwbw","63e55908254a436361a6787b","reward","img/slot.png","74","","test","","","","","",""
"null","263666","pSARL_v2","pSARL_v2jk9yzwbw","63e55908254a436361a6787b","points","<div class=""veryhighPoints""> +1 </div>","null","na","test","","","","5","1","4"
"411.5","264080","pSARL_v2","pSARL_v2jk9yzwbw","63e55908254a436361a6787b","freq","img/green_2bandit_b2.png","70","70","test","1","115","115","6","",""
"null","264483","pSARL_v2","pSARL_v2jk9yzwbw","63e55908254a436361a6787b","freq_resp","img/green_2bandit_b.png","70","70","test","","","","6","",""
"null","264641","pSARL_v2","pSARL_v2jk9yzwbw","63e55908254a436361a6787b","fixation","img/fixation.png","null","","test","","","","","",""
"274.6999999284744","264918","pSARL_v2","pSARL_v2jk9yzwbw","63e55908254a436361a6787b","freq","img/green_2bandit_b2.png","70","70","test","1","116","116","6","",""
"null","265456","pSARL_v2","pSARL_v2jk9yzwbw","63e55908254a436361a6787b","freq_resp","img/green_2bandit_b.png","70","70","test","","","","6","",""
"null","265616","pSARL_v2","pSARL_v2jk9yzwbw","63e55908254a436361a6787b","fixation","img/fixation.png","null","","test","","","","","",""
"225.69999992847443","265844","pSARL_v2","pSARL_v2jk9yzwbw","63e55908254a436361a6787b","freq","img/green_2bandit_b2.png","70","70","test","1","117","117","6","",""
"null","266431","pSARL_v2","pSARL_v2jk9yzwbw","63e55908254a436361a6787b","freq_resp","img/green_2bandit_b.png","70","70","test","","","","6","",""
"null","266588","pSARL_v2","pSARL_v2jk9yzwbw","63e55908254a436361a6787b","fixation","img/fixation.png","null","","test","","","","","",""
"141","266732","pSARL_v2","pSARL_v2jk9yzwbw","63e55908254a436361a6787b","freq","img/green_2bandit_b2.png","70","70","test","1","118","118","6","",""
"null","267406","pSARL_v2","pSARL_v2jk9yzwbw","63e55908254a436361a6787b","freq_resp","img/green_2bandit_b.png","70","70","test","","","","6","",""
"null","267566","pSARL_v2","pSARL_v2jk9yzwbw","63e55908254a436361a6787b","fixation","img/fixation.png","null","","test","","","","","",""
"4.399999976158142","267572","pSARL_v2","pSARL_v2jk9yzwbw","63e55908254a436361a6787b","infreq","img/orange_2bandit_b2.png","70","68","test","0","119","119","6","",""
"null","268382","pSARL_v2","pSARL_v2jk9yzwbw","63e55908254a436361a6787b","infreq_resp","img/orange_2bandit_b.png","70","68","test","","","","6","",""
"null","268542","pSARL_v2","pSARL_v2jk9yzwbw","63e55908254a436361a6787b","fixation","img/fixation.png","null","","test","","","","","",""
"540","269085","pSARL_v2","pSARL_v2jk9yzwbw","63e55908254a436361a6787b","freq","img/green_2bandit_b2.png","70","70","test","1","120","120","6","",""
"null","269353","pSARL_v2","pSARL_v2jk9yzwbw","63e55908254a436361a6787b","freq_resp","img/green_2bandit_b.png","70","70","test","","","","6","",""
"null","269513","pSARL_v2","pSARL_v2jk9yzwbw","63e55908254a436361a6787b","fixation","img/fixation.png","null","","test","","","","","",""
"390.10000002384186","269906","pSARL_v2","pSARL_v2jk9yzwbw","63e55908254a436361a6787b","freq","img/green_2bandit_b2.png","70","70","test","1","121","121","6","",""
"null","270328","pSARL_v2","pSARL_v2jk9yzwbw","63e55908254a436361a6787b","freq_resp","img/green_2bandit_b.png","70","70","test","","","","6","",""
"null","270488","pSARL_v2","pSARL_v2jk9yzwbw","63e55908254a436361a6787b","fixation","img/fixation.png","null","","test","","","","","",""
"351.5","270842","pSARL_v2","pSARL_v2jk9yzwbw","63e55908254a436361a6787b","freq","img/green_2bandit_b2.png","70","70","test","1","122","122","6","",""
"null","271305","pSARL_v2","pSARL_v2jk9yzwbw","63e55908254a436361a6787b","freq_resp","img/green_2bandit_b.png","70","70","test","","","","6","",""
"null","271463","pSARL_v2","pSARL_v2jk9yzwbw","63e55908254a436361a6787b","fixation","img/fixation.png","null","","test","","","","","",""
"293.3000000715256","271759","pSARL_v2","pSARL_v2jk9yzwbw","63e55908254a436361a6787b","freq","img/green_2bandit_b2.png","70","70","test","1","123","123","6","",""
"null","272278","pSARL_v2","pSARL_v2jk9yzwbw","63e55908254a436361a6787b","freq_resp","img/green_2bandit_b.png","70","70","test","","","","6","",""
"null","272438","pSARL_v2","pSARL_v2jk9yzwbw","63e55908254a436361a6787b","fixation","img/fixation.png","null","","test","","","","","",""
"224.5","272665","pSARL_v2","pSARL_v2jk9yzwbw","63e55908254a436361a6787b","freq","img/green_2bandit_b2.png","70","70","test","1","124","124","6","",""
"null","273253","pSARL_v2","pSARL_v2jk9yzwbw","63e55908254a436361a6787b","freq_resp","img/green_2bandit_b.png","70","70","test","","","","6","",""
"null","273413","pSARL_v2","pSARL_v2jk9yzwbw","63e55908254a436361a6787b","fixation","img/fixation.png","null","","test","","","","","",""
"251.39999997615814","273667","pSARL_v2","pSARL_v2jk9yzwbw","63e55908254a436361a6787b","freq","img/green_2bandit_b2.png","70","70","test","1","125","125","6","",""
"null","274230","pSARL_v2","pSARL_v2jk9yzwbw","63e55908254a436361a6787b","freq_resp","img/green_2bandit_b.png","70","70","test","","","","6","",""
"null","274390","pSARL_v2","pSARL_v2jk9yzwbw","63e55908254a436361a6787b","fixation","img/fixation.png","null","","test","","","","","",""
"281.39999997615814","274674","pSARL_v2","pSARL_v2jk9yzwbw","63e55908254a436361a6787b","freq","img/green_2bandit_b2.png","70","70","test","1","126","126","6","",""
"null","275204","pSARL_v2","pSARL_v2jk9yzwbw","63e55908254a436361a6787b","freq_resp","img/green_2bandit_b.png","70","70","test","","","","6","",""
"null","275365","pSARL_v2","pSARL_v2jk9yzwbw","63e55908254a436361a6787b","fixation","img/fixation.png","null","","test","","","","","",""
"290.60000002384186","275658","pSARL_v2","pSARL_v2jk9yzwbw","63e55908254a436361a6787b","freq","img/green_2bandit_b2.png","70","70","test","1","127","127","6","",""
"null","276180","pSARL_v2","pSARL_v2jk9yzwbw","63e55908254a436361a6787b","freq_resp","img/green_2bandit_b.png","70","70","test","","","","6","",""
"null","276340","pSARL_v2","pSARL_v2jk9yzwbw","63e55908254a436361a6787b","fixation","img/fixation.png","null","","test","","","","","",""
"298.7000000476837","276641","pSARL_v2","pSARL_v2jk9yzwbw","63e55908254a436361a6787b","freq","img/green_2bandit_b2.png","70","70","test","1","128","128","6","",""
"null","277154","pSARL_v2","pSARL_v2jk9yzwbw","63e55908254a436361a6787b","freq_resp","img/green_2bandit_b.png","70","70","test","","","","6","",""
"null","277314","pSARL_v2","pSARL_v2jk9yzwbw","63e55908254a436361a6787b","fixation","img/fixation.png","null","","test","","","","","",""
"263","277580","pSARL_v2","pSARL_v2jk9yzwbw","63e55908254a436361a6787b","freq","img/green_2bandit_b2.png","70","70","test","1","129","129","6","",""
"null","278129","pSARL_v2","pSARL_v2jk9yzwbw","63e55908254a436361a6787b","freq_resp","img/green_2bandit_b.png","70","70","test","","","","6","",""
"null","278290","pSARL_v2","pSARL_v2jk9yzwbw","63e55908254a436361a6787b","fixation","img/fixation.png","null","","test","","","","","",""
"264.7999999523163","278557","pSARL_v2","pSARL_v2jk9yzwbw","63e55908254a436361a6787b","freq","img/green_2bandit_b2.png","70","70","test","1","130","130","6","",""
"null","279106","pSARL_v2","pSARL_v2jk9yzwbw","63e55908254a436361a6787b","freq_resp","img/green_2bandit_b.png","70","70","test","","","","6","",""
"null","279266","pSARL_v2","pSARL_v2jk9yzwbw","63e55908254a436361a6787b","fixation","img/fixation.png","null","","test","","","","","",""
"494.10000002384186","279763","pSARL_v2","pSARL_v2jk9yzwbw","63e55908254a436361a6787b","infreq","img/orange_2bandit_b2.png","68","68","test","1","131","131","6","",""
"null","280081","pSARL_v2","pSARL_v2jk9yzwbw","63e55908254a436361a6787b","infreq_resp","img/orange_2bandit_b.png","68","68","test","","","","6","",""
"null","280239","pSARL_v2","pSARL_v2jk9yzwbw","63e55908254a436361a6787b","fixation","img/fixation.png","null","","test","","","","","",""
"376.59999990463257","280618","pSARL_v2","pSARL_v2jk9yzwbw","63e55908254a436361a6787b","freq","img/green_2bandit_b2.png","70","70","test","1","132","132","6","",""
"null","281054","pSARL_v2","pSARL_v2jk9yzwbw","63e55908254a436361a6787b","freq_resp","img/green_2bandit_b.png","70","70","test","","","","6","",""
"null","281214","pSARL_v2","pSARL_v2jk9yzwbw","63e55908254a436361a6787b","fixation","img/fixation.png","null","","test","","","","","",""
"338.5","281555","pSARL_v2","pSARL_v2jk9yzwbw","63e55908254a436361a6787b","freq","img/green_2bandit_b2.png","70","70","test","1","133","133","6","",""
"null","282030","pSARL_v2","pSARL_v2jk9yzwbw","63e55908254a436361a6787b","freq_resp","img/green_2bandit_b.png","70","70","test","","","","6","",""
"null","282189","pSARL_v2","pSARL_v2jk9yzwbw","63e55908254a436361a6787b","fixation","img/fixation.png","null","","test","","","","","",""
"276.39999997615814","282468","pSARL_v2","pSARL_v2jk9yzwbw","63e55908254a436361a6787b","freq","img/green_2bandit_b2.png","70","70","test","1","134","134","6","",""
"null","283004","pSARL_v2","pSARL_v2jk9yzwbw","63e55908254a436361a6787b","freq_resp","img/green_2bandit_b.png","70","70","test","","","","6","",""
"null","283164","pSARL_v2","pSARL_v2jk9yzwbw","63e55908254a436361a6787b","fixation","img/fixation.png","null","","test","","","","","",""
"244.60000002384186","283411","pSARL_v2","pSARL_v2jk9yzwbw","63e55908254a436361a6787b","freq","img/green_2bandit_b2.png","70","70","test","1","135","135","6","",""
"null","283980","pSARL_v2","pSARL_v2jk9yzwbw","63e55908254a436361a6787b","freq_resp","img/green_2bandit_b.png","70","70","test","","","","6","",""
"null","284140","pSARL_v2","pSARL_v2jk9yzwbw","63e55908254a436361a6787b","fixation","img/fixation.png","null","","test","","","","","",""
"282.60000002384186","284426","pSARL_v2","pSARL_v2jk9yzwbw","63e55908254a436361a6787b","freq","img/green_2bandit_b2.png","70","70","test","1","136","136","6","",""
"null","284955","pSARL_v2","pSARL_v2jk9yzwbw","63e55908254a436361a6787b","freq_resp","img/green_2bandit_b.png","70","70","test","","","","6","",""
"null","285113","pSARL_v2","pSARL_v2jk9yzwbw","63e55908254a436361a6787b","fixation","img/fixation.png","null","","test","","","","","",""
"492.10000002384186","285608","pSARL_v2","pSARL_v2jk9yzwbw","63e55908254a436361a6787b","reward","img/slot.png","74","","test","","","","","",""
"null","286374","pSARL_v2","pSARL_v2jk9yzwbw","63e55908254a436361a6787b","points","<div class=""verylowPoints""> -7 </div>","null","na","test","","","","6","-7","5"
"488.7000000476837","286866","pSARL_v2","pSARL_v2jk9yzwbw","63e55908254a436361a6787b","freq","img/green_2bandit_b2.png","70","70","test","1","137","137","7","",""
"null","287188","pSARL_v2","pSARL_v2jk9yzwbw","63e55908254a436361a6787b","freq_resp","img/green_2bandit_b.png","70","70","test","","","","7","",""
"null","287347","pSARL_v2","pSARL_v2jk9yzwbw","63e55908254a436361a6787b","fixation","img/fixation.png","null","","test","","","","","",""
"425.60000002384186","287776","pSARL_v2","pSARL_v2jk9yzwbw","63e55908254a436361a6787b","freq","img/green_2bandit_b2.png","70","70","test","1","138","138","7","",""
"null","288164","pSARL_v2","pSARL_v2jk9yzwbw","63e55908254a436361a6787b","freq_resp","img/green_2bandit_b.png","70","70","test","","","","7","",""
"null","288325","pSARL_v2","pSARL_v2jk9yzwbw","63e55908254a436361a6787b","fixation","img/fixation.png","null","","test","","","","","",""
"434.7000000476837","288762","pSARL_v2","pSARL_v2jk9yzwbw","63e55908254a436361a6787b","freq","img/green_2bandit_b2.png","70","70","test","1","139","139","7","",""
"null","289141","pSARL_v2","pSARL_v2jk9yzwbw","63e55908254a436361a6787b","freq_resp","img/green_2bandit_b.png","70","70","test","","","","7","",""
"null","289301","pSARL_v2","pSARL_v2jk9yzwbw","63e55908254a436361a6787b","fixation","img/fixation.png","null","","test","","","","","",""
"350.7000000476837","289654","pSARL_v2","pSARL_v2jk9yzwbw","63e55908254a436361a6787b","freq","img/green_2bandit_b2.png","70","70","test","1","140","140","7","",""
"null","290118","pSARL_v2","pSARL_v2jk9yzwbw","63e55908254a436361a6787b","freq_resp","img/green_2bandit_b.png","70","70","test","","","","7","",""
"null","290278","pSARL_v2","pSARL_v2jk9yzwbw","63e55908254a436361a6787b","fixation","img/fixation.png","null","","test","","","","","",""
"325.39999997615814","290606","pSARL_v2","pSARL_v2jk9yzwbw","63e55908254a436361a6787b","freq","img/green_2bandit_b2.png","70","70","test","1","141","141","7","",""
"null","291089","pSARL_v2","pSARL_v2jk9yzwbw","63e55908254a436361a6787b","freq_resp","img/green_2bandit_b.png","70","70","test","","","","7","",""
"null","291249","pSARL_v2","pSARL_v2jk9yzwbw","63e55908254a436361a6787b","fixation","img/fixation.png","null","","test","","","","","",""
"275.3000000715256","291527","pSARL_v2","pSARL_v2jk9yzwbw","63e55908254a436361a6787b","freq","img/green_2bandit_b2.png","70","70","test","1","142","142","7","",""
"null","292064","pSARL_v2","pSARL_v2jk9yzwbw","63e55908254a436361a6787b","freq_resp","img/green_2bandit_b.png","70","70","test","","","","7","",""
"null","292224","pSARL_v2","pSARL_v2jk9yzwbw","63e55908254a436361a6787b","fixation","img/fixation.png","null","","test","","","","","",""
"193.60000002384186","292420","pSARL_v2","pSARL_v2jk9yzwbw","63e55908254a436361a6787b","freq","img/green_2bandit_b2.png","70","70","test","1","143","143","7","",""
"null","293037","pSARL_v2","pSARL_v2jk9yzwbw","63e55908254a436361a6787b","freq_resp","img/green_2bandit_b.png","70","70","test","","","","7","",""
"null","293197","pSARL_v2","pSARL_v2jk9yzwbw","63e55908254a436361a6787b","fixation","img/fixation.png","null","","test","","","","","",""
"375.39999997615814","293575","pSARL_v2","pSARL_v2jk9yzwbw","63e55908254a436361a6787b","infreq","img/orange_2bandit_b2.png","68","68","test","1","144","144","7","",""
"null","294014","pSARL_v2","pSARL_v2jk9yzwbw","63e55908254a436361a6787b","infreq_resp","img/orange_2bandit_b.png","68","68","test","","","","7","",""
"null","294173","pSARL_v2","pSARL_v2jk9yzwbw","63e55908254a436361a6787b","fixation","img/fixation.png","null","","test","","","","","",""
"420.5","294596","pSARL_v2","pSARL_v2jk9yzwbw","63e55908254a436361a6787b","infreq","img/orange_2bandit_b2.png","68","68","test","1","145","145","7","",""
"null","294989","pSARL_v2","pSARL_v2jk9yzwbw","63e55908254a436361a6787b","infreq_resp","img/orange_2bandit_b.png","68","68","test","","","","7","",""
"null","295148","pSARL_v2","pSARL_v2jk9yzwbw","63e55908254a436361a6787b","fixation","img/fixation.png","null","","test","","","","","",""
"361.7000000476837","295513","pSARL_v2","pSARL_v2jk9yzwbw","63e55908254a436361a6787b","freq","img/green_2bandit_b2.png","70","70","test","1","146","146","7","",""
"null","295957","pSARL_v2","pSARL_v2jk9yzwbw","63e55908254a436361a6787b","freq_resp","img/green_2bandit_b.png","70","70","test","","","","7","",""
"null","296117","pSARL_v2","pSARL_v2jk9yzwbw","63e55908254a436361a6787b","fixation","img/fixation.png","null","","test","","","","","",""
"294.7000000476837","296415","pSARL_v2","pSARL_v2jk9yzwbw","63e55908254a436361a6787b","freq","img/green_2bandit_b2.png","70","70","test","1","147","147","7","",""
"null","296934","pSARL_v2","pSARL_v2jk9yzwbw","63e55908254a436361a6787b","freq_resp","img/green_2bandit_b.png","70","70","test","","","","7","",""
"null","297094","pSARL_v2","pSARL_v2jk9yzwbw","63e55908254a436361a6787b","fixation","img/fixation.png","null","","test","","","","","",""
"229.89999997615814","297327","pSARL_v2","pSARL_v2jk9yzwbw","63e55908254a436361a6787b","freq","img/green_2bandit_b2.png","70","70","test","1","148","148","7","",""
"null","297909","pSARL_v2","pSARL_v2jk9yzwbw","63e55908254a436361a6787b","freq_resp","img/green_2bandit_b.png","70","70","test","","","","7","",""
"null","298069","pSARL_v2","pSARL_v2jk9yzwbw","63e55908254a436361a6787b","fixation","img/fixation.png","null","","test","","","","","",""
"177.10000002384186","298249","pSARL_v2","pSARL_v2jk9yzwbw","63e55908254a436361a6787b","freq","img/green_2bandit_b2.png","70","70","test","1","149","149","7","",""
"null","298884","pSARL_v2","pSARL_v2jk9yzwbw","63e55908254a436361a6787b","freq_resp","img/green_2bandit_b.png","70","70","test","","","","7","",""
"null","299044","pSARL_v2","pSARL_v2jk9yzwbw","63e55908254a436361a6787b","fixation","img/fixation.png","null","","test","","","","","",""
"99.80000007152557","299146","pSARL_v2","pSARL_v2jk9yzwbw","63e55908254a436361a6787b","freq","img/green_2bandit_b2.png","70","70","test","1","150","150","7","",""
"null","299857","pSARL_v2","pSARL_v2jk9yzwbw","63e55908254a436361a6787b","freq_resp","img/green_2bandit_b.png","70","70","test","","","","7","",""
"null","300017","pSARL_v2","pSARL_v2jk9yzwbw","63e55908254a436361a6787b","fixation","img/fixation.png","null","","test","","","","","",""
"78.39999997615814","300098","pSARL_v2","pSARL_v2jk9yzwbw","63e55908254a436361a6787b","freq","img/green_2bandit_b2.png","70","70","test","1","151","151","7","",""
"null","300834","pSARL_v2","pSARL_v2jk9yzwbw","63e55908254a436361a6787b","freq_resp","img/green_2bandit_b.png","70","70","test","","","","7","",""
"null","300994","pSARL_v2","pSARL_v2jk9yzwbw","63e55908254a436361a6787b","fixation","img/fixation.png","null","","test","","","","","",""
"19.200000047683716","301016","pSARL_v2","pSARL_v2jk9yzwbw","63e55908254a436361a6787b","freq","img/green_2bandit_b2.png","70","70","test","1","152","152","7","",""
"null","301809","pSARL_v2","pSARL_v2jk9yzwbw","63e55908254a436361a6787b","freq_resp","img/green_2bandit_b.png","70","70","test","","","","7","",""
"null","301969","pSARL_v2","pSARL_v2jk9yzwbw","63e55908254a436361a6787b","fixation","img/fixation.png","null","","test","","","","","",""
"258.3000000715256","302229","pSARL_v2","pSARL_v2jk9yzwbw","63e55908254a436361a6787b","freq","img/green_2bandit_b2.png","70","70","test","1","153","153","7","",""
"null","302783","pSARL_v2","pSARL_v2jk9yzwbw","63e55908254a436361a6787b","freq_resp","img/green_2bandit_b.png","70","70","test","","","","7","",""
"null","302943","pSARL_v2","pSARL_v2jk9yzwbw","63e55908254a436361a6787b","fixation","img/fixation.png","null","","test","","","","","",""
"230.5","303176","pSARL_v2","pSARL_v2jk9yzwbw","63e55908254a436361a6787b","freq","img/green_2bandit_b2.png","70","70","test","1","154","154","7","",""
"null","303758","pSARL_v2","pSARL_v2jk9yzwbw","63e55908254a436361a6787b","freq_resp","img/green_2bandit_b.png","70","70","test","","","","7","",""
"null","303918","pSARL_v2","pSARL_v2jk9yzwbw","63e55908254a436361a6787b","fixation","img/fixation.png","null","","test","","","","","",""
"209.5","304130","pSARL_v2","pSARL_v2jk9yzwbw","63e55908254a436361a6787b","freq","img/green_2bandit_b2.png","70","70","test","1","155","155","7","",""
"null","304733","pSARL_v2","pSARL_v2jk9yzwbw","63e55908254a436361a6787b","freq_resp","img/green_2bandit_b.png","70","70","test","","","","7","",""
"null","304893","pSARL_v2","pSARL_v2jk9yzwbw","63e55908254a436361a6787b","fixation","img/fixation.png","null","","test","","","","","",""
"183.29999995231628","305079","pSARL_v2","pSARL_v2jk9yzwbw","63e55908254a436361a6787b","freq","img/green_2bandit_b2.png","70","70","test","1","156","156","7","",""
"null","305708","pSARL_v2","pSARL_v2jk9yzwbw","63e55908254a436361a6787b","freq_resp","img/green_2bandit_b.png","70","70","test","","","","7","",""
"null","305868","pSARL_v2","pSARL_v2jk9yzwbw","63e55908254a436361a6787b","fixation","img/fixation.png","null","","test","","","","","",""
"193","306063","pSARL_v2","pSARL_v2jk9yzwbw","63e55908254a436361a6787b","freq","img/green_2bandit_b2.png","70","70","test","1","157","157","7","",""
"null","306681","pSARL_v2","pSARL_v2jk9yzwbw","63e55908254a436361a6787b","freq_resp","img/green_2bandit_b.png","70","70","test","","","","7","",""
"null","306841","pSARL_v2","pSARL_v2jk9yzwbw","63e55908254a436361a6787b","fixation","img/fixation.png","null","","test","","","","","",""
"282.3000000715256","307125","pSARL_v2","pSARL_v2jk9yzwbw","63e55908254a436361a6787b","freq","img/green_2bandit_b2.png","70","70","test","1","158","158","7","",""
"null","307658","pSARL_v2","pSARL_v2jk9yzwbw","63e55908254a436361a6787b","freq_resp","img/green_2bandit_b.png","70","70","test","","","","7","",""
"null","307817","pSARL_v2","pSARL_v2jk9yzwbw","63e55908254a436361a6787b","fixation","img/fixation.png","null","","test","","","","","",""
"259.39999997615814","308079","pSARL_v2","pSARL_v2jk9yzwbw","63e55908254a436361a6787b","freq","img/green_2bandit_b2.png","70","70","test","1","159","159","7","",""
"null","308633","pSARL_v2","pSARL_v2jk9yzwbw","63e55908254a436361a6787b","freq_resp","img/green_2bandit_b.png","70","70","test","","","","7","",""
"null","308793","pSARL_v2","pSARL_v2jk9yzwbw","63e55908254a436361a6787b","fixation","img/fixation.png","null","","test","","","","","",""
"258","309053","pSARL_v2","pSARL_v2jk9yzwbw","63e55908254a436361a6787b","freq","img/green_2bandit_b2.png","70","70","test","1","160","160","7","",""
"null","309607","pSARL_v2","pSARL_v2jk9yzwbw","63e55908254a436361a6787b","freq_resp","img/green_2bandit_b.png","70","70","test","","","","7","",""
"null","309767","pSARL_v2","pSARL_v2jk9yzwbw","63e55908254a436361a6787b","fixation","img/fixation.png","null","","test","","","","","",""
"418.5","310188","pSARL_v2","pSARL_v2jk9yzwbw","63e55908254a436361a6787b","reward","img/slot.png","74","","test","","","","","",""
"null","310949","pSARL_v2","pSARL_v2jk9yzwbw","63e55908254a436361a6787b","points","<div class=""verylowPoints""> -6 </div>","null","na","test","","","","7","-6","6"
"394","311345","pSARL_v2","pSARL_v2jk9yzwbw","63e55908254a436361a6787b","freq","img/green_2bandit_b2.png","70","70","test","1","161","161","8","",""
"null","311765","pSARL_v2","pSARL_v2jk9yzwbw","63e55908254a436361a6787b","freq_resp","img/green_2bandit_b.png","70","70","test","","","","8","",""
"null","311926","pSARL_v2","pSARL_v2jk9yzwbw","63e55908254a436361a6787b","fixation","img/fixation.png","null","","test","","","","","",""
"278.2000000476837","312206","pSARL_v2","pSARL_v2jk9yzwbw","63e55908254a436361a6787b","freq","img/green_2bandit_b2.png","70","70","test","1","162","162","8","",""
"null","312742","pSARL_v2","pSARL_v2jk9yzwbw","63e55908254a436361a6787b","freq_resp","img/green_2bandit_b.png","70","70","test","","","","8","",""
"null","312902","pSARL_v2","pSARL_v2jk9yzwbw","63e55908254a436361a6787b","fixation","img/fixation.png","null","","test","","","","","",""
"193.5","313098","pSARL_v2","pSARL_v2jk9yzwbw","63e55908254a436361a6787b","freq","img/green_2bandit_b2.png","70","70","test","1","163","163","8","",""
"null","313715","pSARL_v2","pSARL_v2jk9yzwbw","63e55908254a436361a6787b","freq_resp","img/green_2bandit_b.png","70","70","test","","","","8","",""
"null","313875","pSARL_v2","pSARL_v2jk9yzwbw","63e55908254a436361a6787b","fixation","img/fixation.png","null","","test","","","","","",""
"220.39999997615814","314098","pSARL_v2","pSARL_v2jk9yzwbw","63e55908254a436361a6787b","freq","img/green_2bandit_b2.png","70","70","test","1","164","164","8","",""
"null","314692","pSARL_v2","pSARL_v2jk9yzwbw","63e55908254a436361a6787b","freq_resp","img/green_2bandit_b.png","70","70","test","","","","8","",""
"null","314850","pSARL_v2","pSARL_v2jk9yzwbw","63e55908254a436361a6787b","fixation","img/fixation.png","null","","test","","","","","",""
"138.39999997615814","314991","pSARL_v2","pSARL_v2jk9yzwbw","63e55908254a436361a6787b","freq","img/green_2bandit_b2.png","70","70","test","1","165","165","8","",""
"null","315665","pSARL_v2","pSARL_v2jk9yzwbw","63e55908254a436361a6787b","freq_resp","img/green_2bandit_b.png","70","70","test","","","","8","",""
"null","315825","pSARL_v2","pSARL_v2jk9yzwbw","63e55908254a436361a6787b","fixation","img/fixation.png","null","","test","","","","","",""
"79.70000004768372","315907","pSARL_v2","pSARL_v2jk9yzwbw","63e55908254a436361a6787b","infreq","img/orange_2bandit_b2.png","70","68","test","0","166","166","8","",""
"null","316642","pSARL_v2","pSARL_v2jk9yzwbw","63e55908254a436361a6787b","infreq_resp","img/orange_2bandit_b.png","70","68","test","","","","8","",""
"null","316802","pSARL_v2","pSARL_v2jk9yzwbw","63e55908254a436361a6787b","fixation","img/fixation.png","null","","test","","","","","",""
"298.89999997615814","317103","pSARL_v2","pSARL_v2jk9yzwbw","63e55908254a436361a6787b","freq","img/green_2bandit_b2.png","70","70","test","1","167","167","8","",""
"null","317617","pSARL_v2","pSARL_v2jk9yzwbw","63e55908254a436361a6787b","freq_resp","img/green_2bandit_b.png","70","70","test","","","","8","",""
"null","317775","pSARL_v2","pSARL_v2jk9yzwbw","63e55908254a436361a6787b","fixation","img/fixation.png","null","","test","","","","","",""
"403.2000000476837","318180","pSARL_v2","pSARL_v2jk9yzwbw","63e55908254a436361a6787b","freq","img/green_2bandit_b2.png","70","70","test","1","168","168","8","",""
"null","318591","pSARL_v2","pSARL_v2jk9yzwbw","63e55908254a436361a6787b","freq_resp","img/green_2bandit_b.png","70","70","test","","","","8","",""
"null","318752","pSARL_v2","pSARL_v2jk9yzwbw","63e55908254a436361a6787b","fixation","img/fixation.png","null","","test","","","","","",""
"231.29999995231628","318985","pSARL_v2","pSARL_v2jk9yzwbw","63e55908254a436361a6787b","freq","img/green_2bandit_b2.png","70","70","test","1","169","169","8","",""
"null","319564","pSARL_v2","pSARL_v2jk9yzwbw","63e55908254a436361a6787b","freq_resp","img/green_2bandit_b.png","70","70","test","","","","8","",""
"null","319725","pSARL_v2","pSARL_v2jk9yzwbw","63e55908254a436361a6787b","fixation","img/fixation.png","null","","test","","","","","",""
"285.10000002384186","320012","pSARL_v2","pSARL_v2jk9yzwbw","63e55908254a436361a6787b","freq","img/green_2bandit_b2.png","70","70","test","1","170","170","8","",""
"null","320537","pSARL_v2","pSARL_v2jk9yzwbw","63e55908254a436361a6787b","freq_resp","img/green_2bandit_b.png","70","70","test","","","","8","",""
"null","320697","pSARL_v2","pSARL_v2jk9yzwbw","63e55908254a436361a6787b","fixation","img/fixation.png","null","","test","","","","","",""
"198.39999997615814","320898","pSARL_v2","pSARL_v2jk9yzwbw","63e55908254a436361a6787b","freq","img/green_2bandit_b2.png","70","70","test","1","171","171","8","",""
"null","321514","pSARL_v2","pSARL_v2jk9yzwbw","63e55908254a436361a6787b","freq_resp","img/green_2bandit_b.png","70","70","test","","","","8","",""
"null","321672","pSARL_v2","pSARL_v2jk9yzwbw","63e55908254a436361a6787b","fixation","img/fixation.png","null","","test","","","","","",""
"133.5","321808","pSARL_v2","pSARL_v2jk9yzwbw","63e55908254a436361a6787b","infreq","img/orange_2bandit_b2.png","70","68","test","0","172","172","8","",""
"null","322489","pSARL_v2","pSARL_v2jk9yzwbw","63e55908254a436361a6787b","infreq_resp","img/orange_2bandit_b.png","70","68","test","","","","8","",""
"null","322650","pSARL_v2","pSARL_v2jk9yzwbw","63e55908254a436361a6787b","fixation","img/fixation.png","null","","test","","","","","",""
"149.19999992847443","322801","pSARL_v2","pSARL_v2jk9yzwbw","63e55908254a436361a6787b","freq","img/green_2bandit_b2.png","70","70","test","1","173","173","8","",""
"null","323462","pSARL_v2","pSARL_v2jk9yzwbw","63e55908254a436361a6787b","freq_resp","img/green_2bandit_b.png","70","70","test","","","","8","",""
"null","323622","pSARL_v2","pSARL_v2jk9yzwbw","63e55908254a436361a6787b","fixation","img/fixation.png","null","","test","","","","","",""
"134.69999992847443","323759","pSARL_v2","pSARL_v2jk9yzwbw","63e55908254a436361a6787b","freq","img/green_2bandit_b2.png","70","70","test","1","174","174","8","",""
"null","324437","pSARL_v2","pSARL_v2jk9yzwbw","63e55908254a436361a6787b","freq_resp","img/green_2bandit_b.png","70","70","test","","","","8","",""
"null","324597","pSARL_v2","pSARL_v2jk9yzwbw","63e55908254a436361a6787b","fixation","img/fixation.png","null","","test","","","","","",""
"87.10000002384186","324686","pSARL_v2","pSARL_v2jk9yzwbw","63e55908254a436361a6787b","freq","img/green_2bandit_b2.png","70","70","test","1","175","175","8","",""
"null","325414","pSARL_v2","pSARL_v2jk9yzwbw","63e55908254a436361a6787b","freq_resp","img/green_2bandit_b.png","70","70","test","","","","8","",""
"null","325574","pSARL_v2","pSARL_v2jk9yzwbw","63e55908254a436361a6787b","fixation","img/fixation.png","null","","test","","","","","",""
"91.79999995231628","325668","pSARL_v2","pSARL_v2jk9yzwbw","63e55908254a436361a6787b","freq","img/green_2bandit_b2.png","70","70","test","1","176","176","8","",""
"null","326388","pSARL_v2","pSARL_v2jk9yzwbw","63e55908254a436361a6787b","freq_resp","img/green_2bandit_b.png","70","70","test","","","","8","",""
"null","326547","pSARL_v2","pSARL_v2jk9yzwbw","63e55908254a436361a6787b","fixation","img/fixation.png","null","","test","","","","","",""
"80.5","326630","pSARL_v2","pSARL_v2jk9yzwbw","63e55908254a436361a6787b","freq","img/green_2bandit_b2.png","70","70","test","1","177","177","8","",""
"null","327364","pSARL_v2","pSARL_v2jk9yzwbw","63e55908254a436361a6787b","freq_resp","img/green_2bandit_b.png","70","70","test","","","","8","",""
"null","327524","pSARL_v2","pSARL_v2jk9yzwbw","63e55908254a436361a6787b","fixation","img/fixation.png","null","","test","","","","","",""
"93.89999997615814","327620","pSARL_v2","pSARL_v2jk9yzwbw","63e55908254a436361a6787b","freq","img/green_2bandit_b2.png","70","70","test","1","178","178","8","",""
"null","328340","pSARL_v2","pSARL_v2jk9yzwbw","63e55908254a436361a6787b","freq_resp","img/green_2bandit_b.png","70","70","test","","","","8","",""
"null","328500","pSARL_v2","pSARL_v2jk9yzwbw","63e55908254a436361a6787b","fixation","img/fixation.png","null","","test","","","","","",""
"52.199999928474426","328555","pSARL_v2","pSARL_v2jk9yzwbw","63e55908254a436361a6787b","freq","img/green_2bandit_b2.png","70","70","test","1","179","179","8","",""
"null","329313","pSARL_v2","pSARL_v2jk9yzwbw","63e55908254a436361a6787b","freq_resp","img/green_2bandit_b.png","70","70","test","","","","8","",""
"null","329474","pSARL_v2","pSARL_v2jk9yzwbw","63e55908254a436361a6787b","fixation","img/fixation.png","null","","test","","","","","",""
"158","329634","pSARL_v2","pSARL_v2jk9yzwbw","63e55908254a436361a6787b","freq","img/green_2bandit_b2.png","70","70","test","1","180","180","8","",""
"null","330284","pSARL_v2","pSARL_v2jk9yzwbw","63e55908254a436361a6787b","freq_resp","img/green_2bandit_b.png","70","70","test","","","","8","",""
"null","330444","pSARL_v2","pSARL_v2jk9yzwbw","63e55908254a436361a6787b","fixation","img/fixation.png","null","","test","","","","","",""
"260.2999999523163","330707","pSARL_v2","pSARL_v2jk9yzwbw","63e55908254a436361a6787b","freq","img/green_2bandit_b2.png","70","70","test","1","181","181","8","",""
"null","331259","pSARL_v2","pSARL_v2jk9yzwbw","63e55908254a436361a6787b","freq_resp","img/green_2bandit_b.png","70","70","test","","","","8","",""
"null","331419","pSARL_v2","pSARL_v2jk9yzwbw","63e55908254a436361a6787b","fixation","img/fixation.png","null","","test","","","","","",""
"257.7000000476837","331679","pSARL_v2","pSARL_v2jk9yzwbw","63e55908254a436361a6787b","freq","img/green_2bandit_b2.png","70","70","test","1","182","182","8","",""
"null","332234","pSARL_v2","pSARL_v2jk9yzwbw","63e55908254a436361a6787b","freq_resp","img/green_2bandit_b.png","70","70","test","","","","8","",""
"null","332394","pSARL_v2","pSARL_v2jk9yzwbw","63e55908254a436361a6787b","fixation","img/fixation.png","null","","test","","","","","",""
"290.2999999523163","332687","pSARL_v2","pSARL_v2jk9yzwbw","63e55908254a436361a6787b","freq","img/green_2bandit_b2.png","70","70","test","1","183","183","8","",""
"null","333209","pSARL_v2","pSARL_v2jk9yzwbw","63e55908254a436361a6787b","freq_resp","img/green_2bandit_b.png","70","70","test","","","","8","",""
"null","333369","pSARL_v2","pSARL_v2jk9yzwbw","63e55908254a436361a6787b","fixation","img/fixation.png","null","","test","","","","","",""
"510.89999997615814","333882","pSARL_v2","pSARL_v2jk9yzwbw","63e55908254a436361a6787b","reward","img/slot.png","74","","test","","","","","",""
"null","334648","pSARL_v2","pSARL_v2jk9yzwbw","63e55908254a436361a6787b","points","<div class=""verylowPoints""> -4 </div>","null","na","test","","","","8","-4","7"
"454.5","335105","pSARL_v2","pSARL_v2jk9yzwbw","63e55908254a436361a6787b","freq","img/green_2bandit_b2.png","70","70","test","1","184","184","9","",""
"null","335461","pSARL_v2","pSARL_v2jk9yzwbw","63e55908254a436361a6787b","freq_resp","img/green_2bandit_b.png","70","70","test","","","","9","",""
"null","335621","pSARL_v2","pSARL_v2jk9yzwbw","63e55908254a436361a6787b","fixation","img/fixation.png","null","","test","","","","","",""
"490.5","336114","pSARL_v2","pSARL_v2jk9yzwbw","63e55908254a436361a6787b","freq","img/green_2bandit_b2.png","70","70","test","1","185","185","9","",""
"null","336438","pSARL_v2","pSARL_v2jk9yzwbw","63e55908254a436361a6787b","freq_resp","img/green_2bandit_b.png","70","70","test","","","","9","",""
"null","336598","pSARL_v2","pSARL_v2jk9yzwbw","63e55908254a436361a6787b","fixation","img/fixation.png","null","","test","","","","","",""
"501.5","337102","pSARL_v2","pSARL_v2jk9yzwbw","63e55908254a436361a6787b","freq","img/green_2bandit_b2.png","70","70","test","1","186","186","9","",""
"null","337411","pSARL_v2","pSARL_v2jk9yzwbw","63e55908254a436361a6787b","freq_resp","img/green_2bandit_b.png","70","70","test","","","","9","",""
"null","337571","pSARL_v2","pSARL_v2jk9yzwbw","63e55908254a436361a6787b","fixation","img/fixation.png","null","","test","","","","","",""
"451.60000002384186","338025","pSARL_v2","pSARL_v2jk9yzwbw","63e55908254a436361a6787b","freq","img/green_2bandit_b2.png","70","70","test","1","187","187","9","",""
"null","338388","pSARL_v2","pSARL_v2jk9yzwbw","63e55908254a436361a6787b","freq_resp","img/green_2bandit_b.png","70","70","test","","","","9","",""
"null","338548","pSARL_v2","pSARL_v2jk9yzwbw","63e55908254a436361a6787b","fixation","img/fixation.png","null","","test","","","","","",""
"438.6999999284744","338989","pSARL_v2","pSARL_v2jk9yzwbw","63e55908254a436361a6787b","freq","img/green_2bandit_b2.png","70","70","test","1","188","188","9","",""
"null","339362","pSARL_v2","pSARL_v2jk9yzwbw","63e55908254a436361a6787b","freq_resp","img/green_2bandit_b.png","70","70","test","","","","9","",""
"null","339521","pSARL_v2","pSARL_v2jk9yzwbw","63e55908254a436361a6787b","fixation","img/fixation.png","null","","test","","","","","",""
"395","339918","pSARL_v2","pSARL_v2jk9yzwbw","63e55908254a436361a6787b","freq","img/green_2bandit_b2.png","70","70","test","1","189","189","9","",""
"null","340337","pSARL_v2","pSARL_v2jk9yzwbw","63e55908254a436361a6787b","freq_resp","img/green_2bandit_b.png","70","70","test","","","","9","",""
"null","340498","pSARL_v2","pSARL_v2jk9yzwbw","63e55908254a436361a6787b","fixation","img/fixation.png","null","","test","","","","","",""
"277.89999997615814","340778","pSARL_v2","pSARL_v2jk9yzwbw","63e55908254a436361a6787b","freq","img/green_2bandit_b2.png","70","70","test","1","190","190","9","",""
"null","341312","pSARL_v2","pSARL_v2jk9yzwbw","63e55908254a436361a6787b","freq_resp","img/green_2bandit_b.png","70","70","test","","","","9","",""
"null","341472","pSARL_v2","pSARL_v2jk9yzwbw","63e55908254a436361a6787b","fixation","img/fixation.png","null","","test","","","","","",""
"217.60000002384186","341692","pSARL_v2","pSARL_v2jk9yzwbw","63e55908254a436361a6787b","infreq","img/orange_2bandit_b2.png","70","68","test","0","191","191","9","",""
"null","342287","pSARL_v2","pSARL_v2jk9yzwbw","63e55908254a436361a6787b","infreq_resp","img/orange_2bandit_b.png","70","68","test","","","","9","",""
"null","342447","pSARL_v2","pSARL_v2jk9yzwbw","63e55908254a436361a6787b","fixation","img/fixation.png","null","","test","","","","","",""
"279.5","342729","pSARL_v2","pSARL_v2jk9yzwbw","63e55908254a436361a6787b","freq","img/green_2bandit_b2.png","70","70","test","1","192","192","9","",""
"null","343262","pSARL_v2","pSARL_v2jk9yzwbw","63e55908254a436361a6787b","freq_resp","img/green_2bandit_b.png","70","70","test","","","","9","",""
"null","343422","pSARL_v2","pSARL_v2jk9yzwbw","63e55908254a436361a6787b","fixation","img/fixation.png","null","","test","","","","","",""
"312.39999997615814","343737","pSARL_v2","pSARL_v2jk9yzwbw","63e55908254a436361a6787b","freq","img/green_2bandit_b2.png","70","70","test","1","193","193","9","",""
"null","344237","pSARL_v2","pSARL_v2jk9yzwbw","63e55908254a436361a6787b","freq_resp","img/green_2bandit_b.png","70","70","test","","","","9","",""
"null","344397","pSARL_v2","pSARL_v2jk9yzwbw","63e55908254a436361a6787b","fixation","img/fixation.png","null","","test","","","","","",""
"431.5","344831","pSARL_v2","pSARL_v2jk9yzwbw","63e55908254a436361a6787b","infreq","img/orange_2bandit_b2.png","68","68","test","1","194","194","9","",""
"null","345206","pSARL_v2","pSARL_v2jk9yzwbw","63e55908254a436361a6787b","infreq_resp","img/orange_2bandit_b.png","68","68","test","","","","9","",""
"null","345366","pSARL_v2","pSARL_v2jk9yzwbw","63e55908254a436361a6787b","fixation","img/fixation.png","null","","test","","","","","",""
"409","345777","pSARL_v2","pSARL_v2jk9yzwbw","63e55908254a436361a6787b","infreq","img/orange_2bandit_b2.png","68","68","test","1","195","195","9","",""
"null","346181","pSARL_v2","pSARL_v2jk9yzwbw","63e55908254a436361a6787b","infreq_resp","img/orange_2bandit_b.png","68","68","test","","","","9","",""
"null","346341","pSARL_v2","pSARL_v2jk9yzwbw","63e55908254a436361a6787b","fixation","img/fixation.png","null","","test","","","","","",""
"402","346745","pSARL_v2","pSARL_v2jk9yzwbw","63e55908254a436361a6787b","freq","img/green_2bandit_b2.png","70","70","test","1","196","196","9","",""
"null","347157","pSARL_v2","pSARL_v2jk9yzwbw","63e55908254a436361a6787b","freq_resp","img/green_2bandit_b.png","70","70","test","","","","9","",""
"null","347317","pSARL_v2","pSARL_v2jk9yzwbw","63e55908254a436361a6787b","fixation","img/fixation.png","null","","test","","","","","",""
"366.7999999523163","347687","pSARL_v2","pSARL_v2jk9yzwbw","63e55908254a436361a6787b","freq","img/green_2bandit_b2.png","70","70","test","1","197","197","9","",""
"null","348130","pSARL_v2","pSARL_v2jk9yzwbw","63e55908254a436361a6787b","freq_resp","img/green_2bandit_b.png","70","70","test","","","","9","",""
"null","348288","pSARL_v2","pSARL_v2jk9yzwbw","63e55908254a436361a6787b","fixation","img/fixation.png","null","","test","","","","","",""
"324.1999999284744","348615","pSARL_v2","pSARL_v2jk9yzwbw","63e55908254a436361a6787b","freq","img/green_2bandit_b2.png","70","70","test","1","198","198","9","",""
"null","349102","pSARL_v2","pSARL_v2jk9yzwbw","63e55908254a436361a6787b","freq_resp","img/green_2bandit_b.png","70","70","test","","","","9","",""
"null","349262","pSARL_v2","pSARL_v2jk9yzwbw","63e55908254a436361a6787b","fixation","img/fixation.png","null","","test","","","","","",""
"245.79999995231628","349510","pSARL_v2","pSARL_v2jk9yzwbw","63e55908254a436361a6787b","freq","img/green_2bandit_b2.png","70","70","test","1","199","199","9","",""
"null","350078","pSARL_v2","pSARL_v2jk9yzwbw","63e55908254a436361a6787b","freq_resp","img/green_2bandit_b.png","70","70","test","","","","9","",""
"null","350238","pSARL_v2","pSARL_v2jk9yzwbw","63e55908254a436361a6787b","fixation","img/fixation.png","null","","test","","","","","",""
"284.1999999284744","350525","pSARL_v2","pSARL_v2jk9yzwbw","63e55908254a436361a6787b","freq","img/green_2bandit_b2.png","70","70","test","1","200","200","9","",""
"null","351053","pSARL_v2","pSARL_v2jk9yzwbw","63e55908254a436361a6787b","freq_resp","img/green_2bandit_b.png","70","70","test","","","","9","",""
"null","351211","pSARL_v2","pSARL_v2jk9yzwbw","63e55908254a436361a6787b","fixation","img/fixation.png","null","","test","","","","","",""
"298.39999997615814","351512","pSARL_v2","pSARL_v2jk9yzwbw","63e55908254a436361a6787b","freq","img/green_2bandit_b2.png","70","70","test","1","201","201","9","",""
"null","352028","pSARL_v2","pSARL_v2jk9yzwbw","63e55908254a436361a6787b","freq_resp","img/green_2bandit_b.png","70","70","test","","","","9","",""
"null","352188","pSARL_v2","pSARL_v2jk9yzwbw","63e55908254a436361a6787b","fixation","img/fixation.png","null","","test","","","","","",""
"247.39999997615814","352438","pSARL_v2","pSARL_v2jk9yzwbw","63e55908254a436361a6787b","freq","img/green_2bandit_b2.png","70","70","test","1","202","202","9","",""
"null","353003","pSARL_v2","pSARL_v2jk9yzwbw","63e55908254a436361a6787b","freq_resp","img/green_2bandit_b.png","70","70","test","","","","9","",""
"null","353163","pSARL_v2","pSARL_v2jk9yzwbw","63e55908254a436361a6787b","fixation","img/fixation.png","null","","test","","","","","",""
"294.7999999523163","353460","pSARL_v2","pSARL_v2jk9yzwbw","63e55908254a436361a6787b","freq","img/green_2bandit_b2.png","70","70","test","1","203","203","9","",""
"null","353978","pSARL_v2","pSARL_v2jk9yzwbw","63e55908254a436361a6787b","freq_resp","img/green_2bandit_b.png","70","70","test","","","","9","",""
"null","354138","pSARL_v2","pSARL_v2jk9yzwbw","63e55908254a436361a6787b","fixation","img/fixation.png","null","","test","","","","","",""
"296.6999999284744","354437","pSARL_v2","pSARL_v2jk9yzwbw","63e55908254a436361a6787b","freq","img/green_2bandit_b2.png","70","70","test","1","204","204","9","",""
"null","354952","pSARL_v2","pSARL_v2jk9yzwbw","63e55908254a436361a6787b","freq_resp","img/green_2bandit_b.png","70","70","test","","","","9","",""
"null","355113","pSARL_v2","pSARL_v2jk9yzwbw","63e55908254a436361a6787b","fixation","img/fixation.png","null","","test","","","","","",""
"430.5","355546","pSARL_v2","pSARL_v2jk9yzwbw","63e55908254a436361a6787b","freq","img/green_2bandit_b2.png","70","70","test","1","205","205","9","",""
"null","355928","pSARL_v2","pSARL_v2jk9yzwbw","63e55908254a436361a6787b","freq_resp","img/green_2bandit_b.png","70","70","test","","","","9","",""
"null","356088","pSARL_v2","pSARL_v2jk9yzwbw","63e55908254a436361a6787b","fixation","img/fixation.png","null","","test","","","","","",""
"null","356902","pSARL_v2","pSARL_v2jk9yzwbw","63e55908254a436361a6787b","freq","img/green_2bandit_b2.png","null","70","test","0","206","206","9","",""
"null","357060","pSARL_v2","pSARL_v2jk9yzwbw","63e55908254a436361a6787b","fixation","img/fixation.png","null","","test","","","","","",""
"638.2999999523163","357701","pSARL_v2","pSARL_v2jk9yzwbw","63e55908254a436361a6787b","freq","img/green_2bandit_b2.png","70","70","test","1","207","207","9","",""
"null","357865","pSARL_v2","pSARL_v2jk9yzwbw","63e55908254a436361a6787b","freq_resp","img/green_2bandit_b.png","70","70","test","","","","9","",""
"null","358021","pSARL_v2","pSARL_v2jk9yzwbw","63e55908254a436361a6787b","fixation","img/fixation.png","null","","test","","","","","",""
"229.89999997615814","358254","pSARL_v2","pSARL_v2jk9yzwbw","63e55908254a436361a6787b","freq","img/green_2bandit_b2.png","70","70","test","1","208","208","9","",""
"null","358835","pSARL_v2","pSARL_v2jk9yzwbw","63e55908254a436361a6787b","freq_resp","img/green_2bandit_b.png","70","70","test","","","","9","",""
"null","358994","pSARL_v2","pSARL_v2jk9yzwbw","63e55908254a436361a6787b","fixation","img/fixation.png","null","","test","","","","","",""
"144.29999995231628","359141","pSARL_v2","pSARL_v2jk9yzwbw","63e55908254a436361a6787b","freq","img/green_2bandit_b2.png","70","70","test","1","209","209","9","",""
