"rt","time_elapsed","expId","subject","prolificID","trialType","stimulus","key_press","corrresp","phase","corr","trialNum","attentionRunNum","blockNum","points","rlNum"
"11698","11717","pSARL_v2","pSARL_v2xux4msp0","6165af4b36cb3bae91f2e355","","","","","","","","","","",""
"","15951","pSARL_v2","pSARL_v2xux4msp0","6165af4b36cb3bae91f2e355","fullscreen","","","","","","","","","",""
"74309","90265","pSARL_v2","pSARL_v2xux4msp0","6165af4b36cb3bae91f2e355","","","","","","","","","","",""
"689","90959","pSARL_v2","pSARL_v2xux4msp0","6165af4b36cb3bae91f2e355","freqPrac","img/orange_2bandit_b2.png","70","70","prac","1","","","","",""
"689","91082","pSARL_v2","pSARL_v2xux4msp0","6165af4b36cb3bae91f2e355","freqPrac_resp","img/orange_2bandit_b.png","70","70","prac","","","","","",""
"null","91240","pSARL_v2","pSARL_v2xux4msp0","6165af4b36cb3bae91f2e355","fixation","img/fixation.png","null","","prac","","","","","",""
"null","92049","pSARL_v2","pSARL_v2xux4msp0","6165af4b36cb3bae91f2e355","infreqPrac","img/green_2bandit_b2.png","null","68","prac","0","","","","",""
"null","93059","pSARL_v2","pSARL_v2xux4msp0","6165af4b36cb3bae91f2e355","feedback","img/tooSlow.png","null","na","prac","","","","","",""
"null","93216","pSARL_v2","pSARL_v2xux4msp0","6165af4b36cb3bae91f2e355","fixation","img/fixation.png","null","","prac","","","","","",""
"null","94026","pSARL_v2","pSARL_v2xux4msp0","6165af4b36cb3bae91f2e355","freqPrac","img/orange_2bandit_b2.png","null","70","prac","0","","","","",""
"null","95036","pSARL_v2","pSARL_v2xux4msp0","6165af4b36cb3bae91f2e355","feedback","img/tooSlow.png","null","na","prac","","","","","",""
"null","95193","pSARL_v2","pSARL_v2xux4msp0","6165af4b36cb3bae91f2e355","fixation","img/fixation.png","null","","prac","","","","","",""
"596","95793","pSARL_v2","pSARL_v2xux4msp0","6165af4b36cb3bae91f2e355","infreqPrac","img/green_2bandit_b2.png","68","68","prac","1","","","","",""
"596","96017","pSARL_v2","pSARL_v2xux4msp0","6165af4b36cb3bae91f2e355","infreqPrac_resp","img/green_2bandit_b.png","68","68","prac","","","","","",""
"null","96174","pSARL_v2","pSARL_v2xux4msp0","6165af4b36cb3bae91f2e355","fixation","img/fixation.png","null","","prac","","","","","",""
"null","97045","pSARL_v2","pSARL_v2xux4msp0","6165af4b36cb3bae91f2e355","infreqPrac","img/green_2bandit_b2.png","null","68","prac","0","","","","",""
"null","98062","pSARL_v2","pSARL_v2xux4msp0","6165af4b36cb3bae91f2e355","feedback","img/tooSlow.png","null","na","prac","","","","","",""
"null","98220","pSARL_v2","pSARL_v2xux4msp0","6165af4b36cb3bae91f2e355","fixation","img/fixation.png","null","","prac","","","","","",""
"489","98713","pSARL_v2","pSARL_v2xux4msp0","6165af4b36cb3bae91f2e355","infreqPrac","img/green_2bandit_b2.png","68","68","prac","1","","","","",""
"489","99055","pSARL_v2","pSARL_v2xux4msp0","6165af4b36cb3bae91f2e355","infreqPrac_resp","img/green_2bandit_b.png","68","68","prac","","","","","",""
"null","99214","pSARL_v2","pSARL_v2xux4msp0","6165af4b36cb3bae91f2e355","fixation","img/fixation.png","null","","prac","","","","","",""
"39","99257","pSARL_v2","pSARL_v2xux4msp0","6165af4b36cb3bae91f2e355","freqPrac","img/orange_2bandit_b2.png","68","70","prac","0","","","","",""
"39","100025","pSARL_v2","pSARL_v2xux4msp0","6165af4b36cb3bae91f2e355","freqPrac_resp","img/orange_2bandit_b.png","68","70","prac","","","","","",""
"null","101071","pSARL_v2","pSARL_v2xux4msp0","6165af4b36cb3bae91f2e355","feedback","img/wrongKey.png","null","na","prac","","","","","",""
"null","101229","pSARL_v2","pSARL_v2xux4msp0","6165af4b36cb3bae91f2e355","fixation","img/fixation.png","null","","prac","","","","","",""
"null","102068","pSARL_v2","pSARL_v2xux4msp0","6165af4b36cb3bae91f2e355","infreqPrac","img/green_2bandit_b2.png","null","68","prac","0","","","","",""
"null","103077","pSARL_v2","pSARL_v2xux4msp0","6165af4b36cb3bae91f2e355","feedback","img/tooSlow.png","null","na","prac","","","","","",""
"null","103236","pSARL_v2","pSARL_v2xux4msp0","6165af4b36cb3bae91f2e355","fixation","img/fixation.png","null","","prac","","","","","",""
"649","103889","pSARL_v2","pSARL_v2xux4msp0","6165af4b36cb3bae91f2e355","freqPrac","img/orange_2bandit_b2.png","70","70","prac","1","","","","",""
"649","104043","pSARL_v2","pSARL_v2xux4msp0","6165af4b36cb3bae91f2e355","freqPrac_resp","img/orange_2bandit_b.png","70","70","prac","","","","","",""
"null","104202","pSARL_v2","pSARL_v2xux4msp0","6165af4b36cb3bae91f2e355","fixation","img/fixation.png","null","","prac","","","","","",""
"531","104737","pSARL_v2","pSARL_v2xux4msp0","6165af4b36cb3bae91f2e355","freqPrac","img/orange_2bandit_b2.png","70","70","prac","1","","","","",""
"531","105022","pSARL_v2","pSARL_v2xux4msp0","6165af4b36cb3bae91f2e355","freqPrac_resp","img/orange_2bandit_b.png","70","70","prac","","","","","",""
"null","105180","pSARL_v2","pSARL_v2xux4msp0","6165af4b36cb3bae91f2e355","fixation","img/fixation.png","null","","prac","","","","","",""
"40486","145670","pSARL_v2","pSARL_v2xux4msp0","6165af4b36cb3bae91f2e355","","","","","prac","","","","","",""
"748","146423","pSARL_v2","pSARL_v2xux4msp0","6165af4b36cb3bae91f2e355","rewardPractice","img/slot.png","74","","prac","","","","","",""
"null","147180","pSARL_v2","pSARL_v2xux4msp0","6165af4b36cb3bae91f2e355","feedback","<div class=""veryhighPoints""> +15 </div>","null","na","prac","","","","","",""
"null","147339","pSARL_v2","pSARL_v2xux4msp0","6165af4b36cb3bae91f2e355","fixation","img/fixation.png","null","","prac","","","","","",""
"15323","162665","pSARL_v2","pSARL_v2xux4msp0","6165af4b36cb3bae91f2e355","","","","","prac","","","","","",""
"null","163480","pSARL_v2","pSARL_v2xux4msp0","6165af4b36cb3bae91f2e355","freq","img/orange_2bandit_b2.png","null","70","test","0","1","1","1","",""
"null","163637","pSARL_v2","pSARL_v2xux4msp0","6165af4b36cb3bae91f2e355","fixation","img/fixation.png","null","","test","","","","","",""
"558","164199","pSARL_v2","pSARL_v2xux4msp0","6165af4b36cb3bae91f2e355","freq","img/orange_2bandit_b2.png","70","70","test","1","2","2","1","",""
"null","164458","pSARL_v2","pSARL_v2xux4msp0","6165af4b36cb3bae91f2e355","freq_resp","img/orange_2bandit_b.png","70","70","test","","","","1","",""
"null","164617","pSARL_v2","pSARL_v2xux4msp0","6165af4b36cb3bae91f2e355","fixation","img/fixation.png","null","","test","","","","","",""
"475","165095","pSARL_v2","pSARL_v2xux4msp0","6165af4b36cb3bae91f2e355","freq","img/orange_2bandit_b2.png","70","70","test","1","3","3","1","",""
"null","165439","pSARL_v2","pSARL_v2xux4msp0","6165af4b36cb3bae91f2e355","freq_resp","img/orange_2bandit_b.png","70","70","test","","","","1","",""
"null","165598","pSARL_v2","pSARL_v2xux4msp0","6165af4b36cb3bae91f2e355","fixation","img/fixation.png","null","","test","","","","","",""
"478","166080","pSARL_v2","pSARL_v2xux4msp0","6165af4b36cb3bae91f2e355","infreq","img/green_2bandit_b2.png","68","68","test","1","4","4","1","",""
"null","166419","pSARL_v2","pSARL_v2xux4msp0","6165af4b36cb3bae91f2e355","infreq_resp","img/green_2bandit_b.png","68","68","test","","","","1","",""
"null","166579","pSARL_v2","pSARL_v2xux4msp0","6165af4b36cb3bae91f2e355","fixation","img/fixation.png","null","","test","","","","","",""
"451","167032","pSARL_v2","pSARL_v2xux4msp0","6165af4b36cb3bae91f2e355","freq","img/orange_2bandit_b2.png","70","70","test","1","5","5","1","",""
"null","167398","pSARL_v2","pSARL_v2xux4msp0","6165af4b36cb3bae91f2e355","freq_resp","img/orange_2bandit_b.png","70","70","test","","","","1","",""
"null","167557","pSARL_v2","pSARL_v2xux4msp0","6165af4b36cb3bae91f2e355","fixation","img/fixation.png","null","","test","","","","","",""
"376","167937","pSARL_v2","pSARL_v2xux4msp0","6165af4b36cb3bae91f2e355","infreq","img/green_2bandit_b2.png","68","68","test","1","6","6","1","",""
"null","168377","pSARL_v2","pSARL_v2xux4msp0","6165af4b36cb3bae91f2e355","infreq_resp","img/green_2bandit_b.png","68","68","test","","","","1","",""
"null","168538","pSARL_v2","pSARL_v2xux4msp0","6165af4b36cb3bae91f2e355","fixation","img/fixation.png","null","","test","","","","","",""
"306","168848","pSARL_v2","pSARL_v2xux4msp0","6165af4b36cb3bae91f2e355","freq","img/orange_2bandit_b2.png","70","70","test","1","7","7","1","",""
"null","169356","pSARL_v2","pSARL_v2xux4msp0","6165af4b36cb3bae91f2e355","freq_resp","img/orange_2bandit_b.png","70","70","test","","","","1","",""
"null","169515","pSARL_v2","pSARL_v2xux4msp0","6165af4b36cb3bae91f2e355","fixation","img/fixation.png","null","","test","","","","","",""
"427","169945","pSARL_v2","pSARL_v2xux4msp0","6165af4b36cb3bae91f2e355","freq","img/orange_2bandit_b2.png","70","70","test","1","8","8","1","",""
"null","170334","pSARL_v2","pSARL_v2xux4msp0","6165af4b36cb3bae91f2e355","freq_resp","img/orange_2bandit_b.png","70","70","test","","","","1","",""
"null","170491","pSARL_v2","pSARL_v2xux4msp0","6165af4b36cb3bae91f2e355","fixation","img/fixation.png","null","","test","","","","","",""
"387","170881","pSARL_v2","pSARL_v2xux4msp0","6165af4b36cb3bae91f2e355","freq","img/orange_2bandit_b2.png","70","70","test","1","9","9","1","",""
"null","171307","pSARL_v2","pSARL_v2xux4msp0","6165af4b36cb3bae91f2e355","freq_resp","img/orange_2bandit_b.png","70","70","test","","","","1","",""
"null","171467","pSARL_v2","pSARL_v2xux4msp0","6165af4b36cb3bae91f2e355","fixation","img/fixation.png","null","","test","","","","","",""
"348","171817","pSARL_v2","pSARL_v2xux4msp0","6165af4b36cb3bae91f2e355","freq","img/orange_2bandit_b2.png","70","70","test","1","10","10","1","",""
"null","172274","pSARL_v2","pSARL_v2xux4msp0","6165af4b36cb3bae91f2e355","freq_resp","img/orange_2bandit_b.png","70","70","test","","","","1","",""
"null","172432","pSARL_v2","pSARL_v2xux4msp0","6165af4b36cb3bae91f2e355","fixation","img/fixation.png","null","","test","","","","","",""
"477","172913","pSARL_v2","pSARL_v2xux4msp0","6165af4b36cb3bae91f2e355","freq","img/orange_2bandit_b2.png","70","70","test","1","11","11","1","",""
"null","173251","pSARL_v2","pSARL_v2xux4msp0","6165af4b36cb3bae91f2e355","freq_resp","img/orange_2bandit_b.png","70","70","test","","","","1","",""
"null","173408","pSARL_v2","pSARL_v2xux4msp0","6165af4b36cb3bae91f2e355","fixation","img/fixation.png","null","","test","","","","","",""
"453","173866","pSARL_v2","pSARL_v2xux4msp0","6165af4b36cb3bae91f2e355","freq","img/orange_2bandit_b2.png","70","70","test","1","12","12","1","",""
"null","174221","pSARL_v2","pSARL_v2xux4msp0","6165af4b36cb3bae91f2e355","freq_resp","img/orange_2bandit_b.png","70","70","test","","","","1","",""
"null","174378","pSARL_v2","pSARL_v2xux4msp0","6165af4b36cb3bae91f2e355","fixation","img/fixation.png","null","","test","","","","","",""
"387","174769","pSARL_v2","pSARL_v2xux4msp0","6165af4b36cb3bae91f2e355","freq","img/orange_2bandit_b2.png","70","70","test","1","13","13","1","",""
"null","175199","pSARL_v2","pSARL_v2xux4msp0","6165af4b36cb3bae91f2e355","freq_resp","img/orange_2bandit_b.png","70","70","test","","","","1","",""
"null","175357","pSARL_v2","pSARL_v2xux4msp0","6165af4b36cb3bae91f2e355","fixation","img/fixation.png","null","","test","","","","","",""
"384","175745","pSARL_v2","pSARL_v2xux4msp0","6165af4b36cb3bae91f2e355","freq","img/orange_2bandit_b2.png","70","70","test","1","14","14","1","",""
"null","176169","pSARL_v2","pSARL_v2xux4msp0","6165af4b36cb3bae91f2e355","freq_resp","img/orange_2bandit_b.png","70","70","test","","","","1","",""
"null","176328","pSARL_v2","pSARL_v2xux4msp0","6165af4b36cb3bae91f2e355","fixation","img/fixation.png","null","","test","","","","","",""
"358","176689","pSARL_v2","pSARL_v2xux4msp0","6165af4b36cb3bae91f2e355","freq","img/orange_2bandit_b2.png","70","70","test","1","15","15","1","",""
"null","177149","pSARL_v2","pSARL_v2xux4msp0","6165af4b36cb3bae91f2e355","freq_resp","img/orange_2bandit_b.png","70","70","test","","","","1","",""
"null","177307","pSARL_v2","pSARL_v2xux4msp0","6165af4b36cb3bae91f2e355","fixation","img/fixation.png","null","","test","","","","","",""
"347","177658","pSARL_v2","pSARL_v2xux4msp0","6165af4b36cb3bae91f2e355","freq","img/orange_2bandit_b2.png","70","70","test","1","16","16","1","",""
"null","178117","pSARL_v2","pSARL_v2xux4msp0","6165af4b36cb3bae91f2e355","freq_resp","img/orange_2bandit_b.png","70","70","test","","","","1","",""
"null","178275","pSARL_v2","pSARL_v2xux4msp0","6165af4b36cb3bae91f2e355","fixation","img/fixation.png","null","","test","","","","","",""
"330","178610","pSARL_v2","pSARL_v2xux4msp0","6165af4b36cb3bae91f2e355","freq","img/orange_2bandit_b2.png","70","70","test","1","17","17","1","",""
"null","179095","pSARL_v2","pSARL_v2xux4msp0","6165af4b36cb3bae91f2e355","freq_resp","img/orange_2bandit_b.png","70","70","test","","","","1","",""
"null","179256","pSARL_v2","pSARL_v2xux4msp0","6165af4b36cb3bae91f2e355","fixation","img/fixation.png","null","","test","","","","","",""
"319","179577","pSARL_v2","pSARL_v2xux4msp0","6165af4b36cb3bae91f2e355","freq","img/orange_2bandit_b2.png","70","70","test","1","18","18","1","",""
"null","180065","pSARL_v2","pSARL_v2xux4msp0","6165af4b36cb3bae91f2e355","freq_resp","img/orange_2bandit_b.png","70","70","test","","","","1","",""
"null","180222","pSARL_v2","pSARL_v2xux4msp0","6165af4b36cb3bae91f2e355","fixation","img/fixation.png","null","","test","","","","","",""
"321","180546","pSARL_v2","pSARL_v2xux4msp0","6165af4b36cb3bae91f2e355","freq","img/orange_2bandit_b2.png","70","70","test","1","19","19","1","",""
"null","181046","pSARL_v2","pSARL_v2xux4msp0","6165af4b36cb3bae91f2e355","freq_resp","img/orange_2bandit_b.png","70","70","test","","","","1","",""
"null","181202","pSARL_v2","pSARL_v2xux4msp0","6165af4b36cb3bae91f2e355","fixation","img/fixation.png","null","","test","","","","","",""
"317","181521","pSARL_v2","pSARL_v2xux4msp0","6165af4b36cb3bae91f2e355","freq","img/orange_2bandit_b2.png","70","70","test","1","20","20","1","",""
"null","182009","pSARL_v2","pSARL_v2xux4msp0","6165af4b36cb3bae91f2e355","freq_resp","img/orange_2bandit_b.png","70","70","test","","","","1","",""
"null","182165","pSARL_v2","pSARL_v2xux4msp0","6165af4b36cb3bae91f2e355","fixation","img/fixation.png","null","","test","","","","","",""
"1322","183489","pSARL_v2","pSARL_v2xux4msp0","6165af4b36cb3bae91f2e355","reward","img/slot.png","74","","test","","","","","",""
"null","184255","pSARL_v2","pSARL_v2xux4msp0","6165af4b36cb3bae91f2e355","points","<div class=""verylowPoints""> -6 </div>","null","na","test","","","","1","-6","0"
"null","185063","pSARL_v2","pSARL_v2xux4msp0","6165af4b36cb3bae91f2e355","freq","img/orange_2bandit_b2.png","null","70","test","0","21","21","2","",""
"null","185219","pSARL_v2","pSARL_v2xux4msp0","6165af4b36cb3bae91f2e355","fixation","img/fixation.png","null","","test","","","","","",""
"699","185922","pSARL_v2","pSARL_v2xux4msp0","6165af4b36cb3bae91f2e355","freq","img/orange_2bandit_b2.png","70","70","test","1","22","22","2","",""
"null","186040","pSARL_v2","pSARL_v2xux4msp0","6165af4b36cb3bae91f2e355","freq_resp","img/orange_2bandit_b.png","70","70","test","","","","2","",""
"null","186200","pSARL_v2","pSARL_v2xux4msp0","6165af4b36cb3bae91f2e355","fixation","img/fixation.png","null","","test","","","","","",""
"575","186778","pSARL_v2","pSARL_v2xux4msp0","6165af4b36cb3bae91f2e355","freq","img/orange_2bandit_b2.png","70","70","test","1","23","23","2","",""
"null","187019","pSARL_v2","pSARL_v2xux4msp0","6165af4b36cb3bae91f2e355","freq_resp","img/orange_2bandit_b.png","70","70","test","","","","2","",""
"null","187179","pSARL_v2","pSARL_v2xux4msp0","6165af4b36cb3bae91f2e355","fixation","img/fixation.png","null","","test","","","","","",""
"451","187634","pSARL_v2","pSARL_v2xux4msp0","6165af4b36cb3bae91f2e355","freq","img/orange_2bandit_b2.png","70","70","test","1","24","24","2","",""
"null","187988","pSARL_v2","pSARL_v2xux4msp0","6165af4b36cb3bae91f2e355","freq_resp","img/orange_2bandit_b.png","70","70","test","","","","2","",""
"null","188147","pSARL_v2","pSARL_v2xux4msp0","6165af4b36cb3bae91f2e355","fixation","img/fixation.png","null","","test","","","","","",""
"388","188540","pSARL_v2","pSARL_v2xux4msp0","6165af4b36cb3bae91f2e355","freq","img/orange_2bandit_b2.png","70","70","test","1","25","25","2","",""
"null","188956","pSARL_v2","pSARL_v2xux4msp0","6165af4b36cb3bae91f2e355","freq_resp","img/orange_2bandit_b.png","70","70","test","","","","2","",""
"null","189114","pSARL_v2","pSARL_v2xux4msp0","6165af4b36cb3bae91f2e355","fixation","img/fixation.png","null","","test","","","","","",""
"342","189459","pSARL_v2","pSARL_v2xux4msp0","6165af4b36cb3bae91f2e355","freq","img/orange_2bandit_b2.png","70","70","test","1","26","26","2","",""
"null","189938","pSARL_v2","pSARL_v2xux4msp0","6165af4b36cb3bae91f2e355","freq_resp","img/orange_2bandit_b.png","70","70","test","","","","2","",""
"null","190096","pSARL_v2","pSARL_v2xux4msp0","6165af4b36cb3bae91f2e355","fixation","img/fixation.png","null","","test","","","","","",""
"312","190410","pSARL_v2","pSARL_v2xux4msp0","6165af4b36cb3bae91f2e355","freq","img/orange_2bandit_b2.png","70","70","test","1","27","27","2","",""
"null","190968","pSARL_v2","pSARL_v2xux4msp0","6165af4b36cb3bae91f2e355","freq_resp","img/orange_2bandit_b.png","70","70","test","","","","2","",""
"null","191123","pSARL_v2","pSARL_v2xux4msp0","6165af4b36cb3bae91f2e355","fixation","img/fixation.png","null","","test","","","","","",""
"332","191460","pSARL_v2","pSARL_v2xux4msp0","6165af4b36cb3bae91f2e355","freq","img/orange_2bandit_b2.png","70","70","test","1","28","28","2","",""
"null","191934","pSARL_v2","pSARL_v2xux4msp0","6165af4b36cb3bae91f2e355","freq_resp","img/orange_2bandit_b.png","70","70","test","","","","2","",""
"null","192095","pSARL_v2","pSARL_v2xux4msp0","6165af4b36cb3bae91f2e355","fixation","img/fixation.png","null","","test","","","","","",""
"305","192403","pSARL_v2","pSARL_v2xux4msp0","6165af4b36cb3bae91f2e355","freq","img/orange_2bandit_b2.png","70","70","test","1","29","29","2","",""
"null","192915","pSARL_v2","pSARL_v2xux4msp0","6165af4b36cb3bae91f2e355","freq_resp","img/orange_2bandit_b.png","70","70","test","","","","2","",""
"null","193072","pSARL_v2","pSARL_v2xux4msp0","6165af4b36cb3bae91f2e355","fixation","img/fixation.png","null","","test","","","","","",""
"303","193379","pSARL_v2","pSARL_v2xux4msp0","6165af4b36cb3bae91f2e355","freq","img/orange_2bandit_b2.png","70","70","test","1","30","30","2","",""
"null","193896","pSARL_v2","pSARL_v2xux4msp0","6165af4b36cb3bae91f2e355","freq_resp","img/orange_2bandit_b.png","70","70","test","","","","2","",""
"null","194053","pSARL_v2","pSARL_v2xux4msp0","6165af4b36cb3bae91f2e355","fixation","img/fixation.png","null","","test","","","","","",""
"null","194867","pSARL_v2","pSARL_v2xux4msp0","6165af4b36cb3bae91f2e355","infreq","img/green_2bandit_b2.png","null","68","test","0","31","31","2","",""
"null","195025","pSARL_v2","pSARL_v2xux4msp0","6165af4b36cb3bae91f2e355","fixation","img/fixation.png","null","","test","","","","","",""
"735","195763","pSARL_v2","pSARL_v2xux4msp0","6165af4b36cb3bae91f2e355","freq","img/orange_2bandit_b2.png","70","70","test","1","32","32","2","",""
"null","195846","pSARL_v2","pSARL_v2xux4msp0","6165af4b36cb3bae91f2e355","freq_resp","img/orange_2bandit_b.png","70","70","test","","","","2","",""
"null","196004","pSARL_v2","pSARL_v2xux4msp0","6165af4b36cb3bae91f2e355","fixation","img/fixation.png","null","","test","","","","","",""
"660","196668","pSARL_v2","pSARL_v2xux4msp0","6165af4b36cb3bae91f2e355","freq","img/orange_2bandit_b2.png","70","70","test","1","33","33","2","",""
"null","196813","pSARL_v2","pSARL_v2xux4msp0","6165af4b36cb3bae91f2e355","freq_resp","img/orange_2bandit_b.png","70","70","test","","","","2","",""
"null","196972","pSARL_v2","pSARL_v2xux4msp0","6165af4b36cb3bae91f2e355","fixation","img/fixation.png","null","","test","","","","","",""
"419","197396","pSARL_v2","pSARL_v2xux4msp0","6165af4b36cb3bae91f2e355","freq","img/orange_2bandit_b2.png","70","70","test","1","34","34","2","",""
"null","197796","pSARL_v2","pSARL_v2xux4msp0","6165af4b36cb3bae91f2e355","freq_resp","img/orange_2bandit_b.png","70","70","test","","","","2","",""
"null","197953","pSARL_v2","pSARL_v2xux4msp0","6165af4b36cb3bae91f2e355","fixation","img/fixation.png","null","","test","","","","","",""
"351","198309","pSARL_v2","pSARL_v2xux4msp0","6165af4b36cb3bae91f2e355","freq","img/orange_2bandit_b2.png","70","70","test","1","35","35","2","",""
"null","198778","pSARL_v2","pSARL_v2xux4msp0","6165af4b36cb3bae91f2e355","freq_resp","img/orange_2bandit_b.png","70","70","test","","","","2","",""
"null","198934","pSARL_v2","pSARL_v2xux4msp0","6165af4b36cb3bae91f2e355","fixation","img/fixation.png","null","","test","","","","","",""
"337","199275","pSARL_v2","pSARL_v2xux4msp0","6165af4b36cb3bae91f2e355","freq","img/orange_2bandit_b2.png","70","70","test","1","36","36","2","",""
"null","199744","pSARL_v2","pSARL_v2xux4msp0","6165af4b36cb3bae91f2e355","freq_resp","img/orange_2bandit_b.png","70","70","test","","","","2","",""
"null","199901","pSARL_v2","pSARL_v2xux4msp0","6165af4b36cb3bae91f2e355","fixation","img/fixation.png","null","","test","","","","","",""
"347","200252","pSARL_v2","pSARL_v2xux4msp0","6165af4b36cb3bae91f2e355","freq","img/orange_2bandit_b2.png","70","70","test","1","37","37","2","",""
"null","200713","pSARL_v2","pSARL_v2xux4msp0","6165af4b36cb3bae91f2e355","freq_resp","img/orange_2bandit_b.png","70","70","test","","","","2","",""
"null","200873","pSARL_v2","pSARL_v2xux4msp0","6165af4b36cb3bae91f2e355","fixation","img/fixation.png","null","","test","","","","","",""
"343","201221","pSARL_v2","pSARL_v2xux4msp0","6165af4b36cb3bae91f2e355","freq","img/orange_2bandit_b2.png","70","70","test","1","38","38","2","",""
"null","201683","pSARL_v2","pSARL_v2xux4msp0","6165af4b36cb3bae91f2e355","freq_resp","img/orange_2bandit_b.png","70","70","test","","","","2","",""
"null","201838","pSARL_v2","pSARL_v2xux4msp0","6165af4b36cb3bae91f2e355","fixation","img/fixation.png","null","","test","","","","","",""
"345","202187","pSARL_v2","pSARL_v2xux4msp0","6165af4b36cb3bae91f2e355","freq","img/orange_2bandit_b2.png","70","70","test","1","39","39","2","",""
"null","202647","pSARL_v2","pSARL_v2xux4msp0","6165af4b36cb3bae91f2e355","freq_resp","img/orange_2bandit_b.png","70","70","test","","","","2","",""
"null","202806","pSARL_v2","pSARL_v2xux4msp0","6165af4b36cb3bae91f2e355","fixation","img/fixation.png","null","","test","","","","","",""
"362","203172","pSARL_v2","pSARL_v2xux4msp0","6165af4b36cb3bae91f2e355","freq","img/orange_2bandit_b2.png","70","70","test","1","40","40","2","",""
"null","203615","pSARL_v2","pSARL_v2xux4msp0","6165af4b36cb3bae91f2e355","freq_resp","img/orange_2bandit_b.png","70","70","test","","","","2","",""
"null","203774","pSARL_v2","pSARL_v2xux4msp0","6165af4b36cb3bae91f2e355","fixation","img/fixation.png","null","","test","","","","","",""
"531","204309","pSARL_v2","pSARL_v2xux4msp0","6165af4b36cb3bae91f2e355","infreq","img/green_2bandit_b2.png","68","68","test","1","41","41","2","",""
"null","204594","pSARL_v2","pSARL_v2xux4msp0","6165af4b36cb3bae91f2e355","infreq_resp","img/green_2bandit_b.png","68","68","test","","","","2","",""
"null","204754","pSARL_v2","pSARL_v2xux4msp0","6165af4b36cb3bae91f2e355","fixation","img/fixation.png","null","","test","","","","","",""
"390","205149","pSARL_v2","pSARL_v2xux4msp0","6165af4b36cb3bae91f2e355","freq","img/orange_2bandit_b2.png","70","70","test","1","42","42","2","",""
"null","205574","pSARL_v2","pSARL_v2xux4msp0","6165af4b36cb3bae91f2e355","freq_resp","img/orange_2bandit_b.png","70","70","test","","","","2","",""
"null","205731","pSARL_v2","pSARL_v2xux4msp0","6165af4b36cb3bae91f2e355","fixation","img/fixation.png","null","","test","","","","","",""
"565","206301","pSARL_v2","pSARL_v2xux4msp0","6165af4b36cb3bae91f2e355","reward","img/slot.png","74","","test","","","","","",""
"null","207062","pSARL_v2","pSARL_v2xux4msp0","6165af4b36cb3bae91f2e355","points","<div class=""verylowPoints""> -11 </div>","null","na","test","","","","2","-11","1"
"null","207934","pSARL_v2","pSARL_v2xux4msp0","6165af4b36cb3bae91f2e355","freq","img/orange_2bandit_b2.png","null","70","test","0","43","43","3","",""
"null","208089","pSARL_v2","pSARL_v2xux4msp0","6165af4b36cb3bae91f2e355","fixation","img/fixation.png","null","","test","","","","","",""
"537","208630","pSARL_v2","pSARL_v2xux4msp0","6165af4b36cb3bae91f2e355","freq","img/orange_2bandit_b2.png","70","70","test","1","44","44","3","",""
"null","208911","pSARL_v2","pSARL_v2xux4msp0","6165af4b36cb3bae91f2e355","freq_resp","img/orange_2bandit_b.png","70","70","test","","","","3","",""
"null","209070","pSARL_v2","pSARL_v2xux4msp0","6165af4b36cb3bae91f2e355","fixation","img/fixation.png","null","","test","","","","","",""
"364","209437","pSARL_v2","pSARL_v2xux4msp0","6165af4b36cb3bae91f2e355","freq","img/orange_2bandit_b2.png","70","70","test","1","45","45","3","",""
"null","209893","pSARL_v2","pSARL_v2xux4msp0","6165af4b36cb3bae91f2e355","freq_resp","img/orange_2bandit_b.png","70","70","test","","","","3","",""
"null","210049","pSARL_v2","pSARL_v2xux4msp0","6165af4b36cb3bae91f2e355","fixation","img/fixation.png","null","","test","","","","","",""
"377","210429","pSARL_v2","pSARL_v2xux4msp0","6165af4b36cb3bae91f2e355","freq","img/orange_2bandit_b2.png","70","70","test","1","46","46","3","",""
"null","210868","pSARL_v2","pSARL_v2xux4msp0","6165af4b36cb3bae91f2e355","freq_resp","img/orange_2bandit_b.png","70","70","test","","","","3","",""
"null","211021","pSARL_v2","pSARL_v2xux4msp0","6165af4b36cb3bae91f2e355","fixation","img/fixation.png","null","","test","","","","","",""
"365","211389","pSARL_v2","pSARL_v2xux4msp0","6165af4b36cb3bae91f2e355","freq","img/orange_2bandit_b2.png","70","70","test","1","47","47","3","",""
"null","211842","pSARL_v2","pSARL_v2xux4msp0","6165af4b36cb3bae91f2e355","freq_resp","img/orange_2bandit_b.png","70","70","test","","","","3","",""
"null","212000","pSARL_v2","pSARL_v2xux4msp0","6165af4b36cb3bae91f2e355","fixation","img/fixation.png","null","","test","","","","","",""
"362","212366","pSARL_v2","pSARL_v2xux4msp0","6165af4b36cb3bae91f2e355","freq","img/orange_2bandit_b2.png","70","70","test","1","48","48","3","",""
"null","212811","pSARL_v2","pSARL_v2xux4msp0","6165af4b36cb3bae91f2e355","freq_resp","img/orange_2bandit_b.png","70","70","test","","","","3","",""
"null","212969","pSARL_v2","pSARL_v2xux4msp0","6165af4b36cb3bae91f2e355","fixation","img/fixation.png","null","","test","","","","","",""
"457","213428","pSARL_v2","pSARL_v2xux4msp0","6165af4b36cb3bae91f2e355","infreq","img/green_2bandit_b2.png","68","68","test","1","49","49","3","",""
"null","213791","pSARL_v2","pSARL_v2xux4msp0","6165af4b36cb3bae91f2e355","infreq_resp","img/green_2bandit_b.png","68","68","test","","","","3","",""
"null","213948","pSARL_v2","pSARL_v2xux4msp0","6165af4b36cb3bae91f2e355","fixation","img/fixation.png","null","","test","","","","","",""
"429","214382","pSARL_v2","pSARL_v2xux4msp0","6165af4b36cb3bae91f2e355","freq","img/orange_2bandit_b2.png","70","70","test","1","50","50","3","",""
"null","214772","pSARL_v2","pSARL_v2xux4msp0","6165af4b36cb3bae91f2e355","freq_resp","img/orange_2bandit_b.png","70","70","test","","","","3","",""
"null","214930","pSARL_v2","pSARL_v2xux4msp0","6165af4b36cb3bae91f2e355","fixation","img/fixation.png","null","","test","","","","","",""
"455","215390","pSARL_v2","pSARL_v2xux4msp0","6165af4b36cb3bae91f2e355","freq","img/orange_2bandit_b2.png","70","70","test","1","51","51","3","",""
"null","215739","pSARL_v2","pSARL_v2xux4msp0","6165af4b36cb3bae91f2e355","freq_resp","img/orange_2bandit_b.png","70","70","test","","","","3","",""
"null","215897","pSARL_v2","pSARL_v2xux4msp0","6165af4b36cb3bae91f2e355","fixation","img/fixation.png","null","","test","","","","","",""
"425","216326","pSARL_v2","pSARL_v2xux4msp0","6165af4b36cb3bae91f2e355","freq","img/orange_2bandit_b2.png","70","70","test","1","52","52","3","",""
"null","216721","pSARL_v2","pSARL_v2xux4msp0","6165af4b36cb3bae91f2e355","freq_resp","img/orange_2bandit_b.png","70","70","test","","","","3","",""
"null","216879","pSARL_v2","pSARL_v2xux4msp0","6165af4b36cb3bae91f2e355","fixation","img/fixation.png","null","","test","","","","","",""
"347","217229","pSARL_v2","pSARL_v2xux4msp0","6165af4b36cb3bae91f2e355","freq","img/orange_2bandit_b2.png","70","70","test","1","53","53","3","",""
"null","217686","pSARL_v2","pSARL_v2xux4msp0","6165af4b36cb3bae91f2e355","freq_resp","img/orange_2bandit_b.png","70","70","test","","","","3","",""
"null","217846","pSARL_v2","pSARL_v2xux4msp0","6165af4b36cb3bae91f2e355","fixation","img/fixation.png","null","","test","","","","","",""
"373","218221","pSARL_v2","pSARL_v2xux4msp0","6165af4b36cb3bae91f2e355","freq","img/orange_2bandit_b2.png","70","70","test","1","54","54","3","",""
"null","218657","pSARL_v2","pSARL_v2xux4msp0","6165af4b36cb3bae91f2e355","freq_resp","img/orange_2bandit_b.png","70","70","test","","","","3","",""
"null","218813","pSARL_v2","pSARL_v2xux4msp0","6165af4b36cb3bae91f2e355","fixation","img/fixation.png","null","","test","","","","","",""
"446","219263","pSARL_v2","pSARL_v2xux4msp0","6165af4b36cb3bae91f2e355","infreq","img/green_2bandit_b2.png","68","68","test","1","55","55","3","",""
"null","219623","pSARL_v2","pSARL_v2xux4msp0","6165af4b36cb3bae91f2e355","infreq_resp","img/green_2bandit_b.png","68","68","test","","","","3","",""
"null","219777","pSARL_v2","pSARL_v2xux4msp0","6165af4b36cb3bae91f2e355","fixation","img/fixation.png","null","","test","","","","","",""
"322","220102","pSARL_v2","pSARL_v2xux4msp0","6165af4b36cb3bae91f2e355","freq","img/orange_2bandit_b2.png","70","70","test","1","56","56","3","",""
"null","220587","pSARL_v2","pSARL_v2xux4msp0","6165af4b36cb3bae91f2e355","freq_resp","img/orange_2bandit_b.png","70","70","test","","","","3","",""
"null","220744","pSARL_v2","pSARL_v2xux4msp0","6165af4b36cb3bae91f2e355","fixation","img/fixation.png","null","","test","","","","","",""
"354","221102","pSARL_v2","pSARL_v2xux4msp0","6165af4b36cb3bae91f2e355","freq","img/orange_2bandit_b2.png","70","70","test","1","57","57","3","",""
"null","221556","pSARL_v2","pSARL_v2xux4msp0","6165af4b36cb3bae91f2e355","freq_resp","img/orange_2bandit_b.png","70","70","test","","","","3","",""
"null","221713","pSARL_v2","pSARL_v2xux4msp0","6165af4b36cb3bae91f2e355","fixation","img/fixation.png","null","","test","","","","","",""
"361","222079","pSARL_v2","pSARL_v2xux4msp0","6165af4b36cb3bae91f2e355","freq","img/orange_2bandit_b2.png","70","70","test","1","58","58","3","",""
"null","222523","pSARL_v2","pSARL_v2xux4msp0","6165af4b36cb3bae91f2e355","freq_resp","img/orange_2bandit_b.png","70","70","test","","","","3","",""
"null","222680","pSARL_v2","pSARL_v2xux4msp0","6165af4b36cb3bae91f2e355","fixation","img/fixation.png","null","","test","","","","","",""
"362","223046","pSARL_v2","pSARL_v2xux4msp0","6165af4b36cb3bae91f2e355","freq","img/orange_2bandit_b2.png","70","70","test","1","59","59","3","",""
"null","223503","pSARL_v2","pSARL_v2xux4msp0","6165af4b36cb3bae91f2e355","freq_resp","img/orange_2bandit_b.png","70","70","test","","","","3","",""
"null","223662","pSARL_v2","pSARL_v2xux4msp0","6165af4b36cb3bae91f2e355","fixation","img/fixation.png","null","","test","","","","","",""
"373","224039","pSARL_v2","pSARL_v2xux4msp0","6165af4b36cb3bae91f2e355","freq","img/orange_2bandit_b2.png","70","70","test","1","60","60","3","",""
"null","224476","pSARL_v2","pSARL_v2xux4msp0","6165af4b36cb3bae91f2e355","freq_resp","img/orange_2bandit_b.png","70","70","test","","","","3","",""
"null","224636","pSARL_v2","pSARL_v2xux4msp0","6165af4b36cb3bae91f2e355","fixation","img/fixation.png","null","","test","","","","","",""
"343","224983","pSARL_v2","pSARL_v2xux4msp0","6165af4b36cb3bae91f2e355","freq","img/orange_2bandit_b2.png","70","70","test","1","61","61","3","",""
"null","225457","pSARL_v2","pSARL_v2xux4msp0","6165af4b36cb3bae91f2e355","freq_resp","img/orange_2bandit_b.png","70","70","test","","","","3","",""
"null","225613","pSARL_v2","pSARL_v2xux4msp0","6165af4b36cb3bae91f2e355","fixation","img/fixation.png","null","","test","","","","","",""
"365","225983","pSARL_v2","pSARL_v2xux4msp0","6165af4b36cb3bae91f2e355","freq","img/orange_2bandit_b2.png","70","70","test","1","62","62","3","",""
"null","226424","pSARL_v2","pSARL_v2xux4msp0","6165af4b36cb3bae91f2e355","freq_resp","img/orange_2bandit_b.png","70","70","test","","","","3","",""
"null","226583","pSARL_v2","pSARL_v2xux4msp0","6165af4b36cb3bae91f2e355","fixation","img/fixation.png","null","","test","","","","","",""
"326","226911","pSARL_v2","pSARL_v2xux4msp0","6165af4b36cb3bae91f2e355","freq","img/orange_2bandit_b2.png","70","70","test","1","63","63","3","",""
"null","227402","pSARL_v2","pSARL_v2xux4msp0","6165af4b36cb3bae91f2e355","freq_resp","img/orange_2bandit_b.png","70","70","test","","","","3","",""
"null","227559","pSARL_v2","pSARL_v2xux4msp0","6165af4b36cb3bae91f2e355","fixation","img/fixation.png","null","","test","","","","","",""
"341","227904","pSARL_v2","pSARL_v2xux4msp0","6165af4b36cb3bae91f2e355","freq","img/orange_2bandit_b2.png","70","70","test","1","64","64","3","",""
"null","228380","pSARL_v2","pSARL_v2xux4msp0","6165af4b36cb3bae91f2e355","freq_resp","img/orange_2bandit_b.png","70","70","test","","","","3","",""
"null","228541","pSARL_v2","pSARL_v2xux4msp0","6165af4b36cb3bae91f2e355","fixation","img/fixation.png","null","","test","","","","","",""
"533","229079","pSARL_v2","pSARL_v2xux4msp0","6165af4b36cb3bae91f2e355","reward","img/slot.png","74","","test","","","","","",""
"null","229836","pSARL_v2","pSARL_v2xux4msp0","6165af4b36cb3bae91f2e355","points","<div class=""verylowPoints""> -7 </div>","null","na","test","","","","3","-7","2"
"487","230329","pSARL_v2","pSARL_v2xux4msp0","6165af4b36cb3bae91f2e355","freq","img/orange_2bandit_b2.png","70","70","test","1","65","65","4","",""
"null","230655","pSARL_v2","pSARL_v2xux4msp0","6165af4b36cb3bae91f2e355","freq_resp","img/orange_2bandit_b.png","70","70","test","","","","4","",""
"null","230815","pSARL_v2","pSARL_v2xux4msp0","6165af4b36cb3bae91f2e355","fixation","img/fixation.png","null","","test","","","","","",""
"333","231150","pSARL_v2","pSARL_v2xux4msp0","6165af4b36cb3bae91f2e355","freq","img/orange_2bandit_b2.png","70","70","test","1","66","66","4","",""
"null","231637","pSARL_v2","pSARL_v2xux4msp0","6165af4b36cb3bae91f2e355","freq_resp","img/orange_2bandit_b.png","70","70","test","","","","4","",""
"null","231797","pSARL_v2","pSARL_v2xux4msp0","6165af4b36cb3bae91f2e355","fixation","img/fixation.png","null","","test","","","","","",""
"287","232088","pSARL_v2","pSARL_v2xux4msp0","6165af4b36cb3bae91f2e355","freq","img/orange_2bandit_b2.png","70","70","test","1","67","67","4","",""
"null","232619","pSARL_v2","pSARL_v2xux4msp0","6165af4b36cb3bae91f2e355","freq_resp","img/orange_2bandit_b.png","70","70","test","","","","4","",""
"null","232778","pSARL_v2","pSARL_v2xux4msp0","6165af4b36cb3bae91f2e355","fixation","img/fixation.png","null","","test","","","","","",""
"433","233216","pSARL_v2","pSARL_v2xux4msp0","6165af4b36cb3bae91f2e355","freq","img/orange_2bandit_b2.png","70","70","test","1","68","68","4","",""
"null","233598","pSARL_v2","pSARL_v2xux4msp0","6165af4b36cb3bae91f2e355","freq_resp","img/orange_2bandit_b.png","70","70","test","","","","4","",""
"null","233755","pSARL_v2","pSARL_v2xux4msp0","6165af4b36cb3bae91f2e355","fixation","img/fixation.png","null","","test","","","","","",""
"417","234175","pSARL_v2","pSARL_v2xux4msp0","6165af4b36cb3bae91f2e355","freq","img/orange_2bandit_b2.png","70","70","test","1","69","69","4","",""
"null","234572","pSARL_v2","pSARL_v2xux4msp0","6165af4b36cb3bae91f2e355","freq_resp","img/orange_2bandit_b.png","70","70","test","","","","4","",""
"null","234729","pSARL_v2","pSARL_v2xux4msp0","6165af4b36cb3bae91f2e355","fixation","img/fixation.png","null","","test","","","","","",""
"355","235088","pSARL_v2","pSARL_v2xux4msp0","6165af4b36cb3bae91f2e355","freq","img/orange_2bandit_b2.png","70","70","test","1","70","70","4","",""
"null","235544","pSARL_v2","pSARL_v2xux4msp0","6165af4b36cb3bae91f2e355","freq_resp","img/orange_2bandit_b.png","70","70","test","","","","4","",""
"null","235700","pSARL_v2","pSARL_v2xux4msp0","6165af4b36cb3bae91f2e355","fixation","img/fixation.png","null","","test","","","","","",""
"319","236024","pSARL_v2","pSARL_v2xux4msp0","6165af4b36cb3bae91f2e355","freq","img/orange_2bandit_b2.png","70","70","test","1","71","71","4","",""
"null","236510","pSARL_v2","pSARL_v2xux4msp0","6165af4b36cb3bae91f2e355","freq_resp","img/orange_2bandit_b.png","70","70","test","","","","4","",""
"null","236666","pSARL_v2","pSARL_v2xux4msp0","6165af4b36cb3bae91f2e355","fixation","img/fixation.png","null","","test","","","","","",""
"337","237009","pSARL_v2","pSARL_v2xux4msp0","6165af4b36cb3bae91f2e355","freq","img/orange_2bandit_b2.png","70","70","test","1","72","72","4","",""
"null","237485","pSARL_v2","pSARL_v2xux4msp0","6165af4b36cb3bae91f2e355","freq_resp","img/orange_2bandit_b.png","70","70","test","","","","4","",""
"null","237642","pSARL_v2","pSARL_v2xux4msp0","6165af4b36cb3bae91f2e355","fixation","img/fixation.png","null","","test","","","","","",""
"355","238000","pSARL_v2","pSARL_v2xux4msp0","6165af4b36cb3bae91f2e355","freq","img/orange_2bandit_b2.png","70","70","test","1","73","73","4","",""
"null","238459","pSARL_v2","pSARL_v2xux4msp0","6165af4b36cb3bae91f2e355","freq_resp","img/orange_2bandit_b.png","70","70","test","","","","4","",""
"null","238616","pSARL_v2","pSARL_v2xux4msp0","6165af4b36cb3bae91f2e355","fixation","img/fixation.png","null","","test","","","","","",""
"325","238944","pSARL_v2","pSARL_v2xux4msp0","6165af4b36cb3bae91f2e355","freq","img/orange_2bandit_b2.png","70","70","test","1","74","74","4","",""
"null","239437","pSARL_v2","pSARL_v2xux4msp0","6165af4b36cb3bae91f2e355","freq_resp","img/orange_2bandit_b.png","70","70","test","","","","4","",""
"null","239595","pSARL_v2","pSARL_v2xux4msp0","6165af4b36cb3bae91f2e355","fixation","img/fixation.png","null","","test","","","","","",""
"546","240144","pSARL_v2","pSARL_v2xux4msp0","6165af4b36cb3bae91f2e355","infreq","img/green_2bandit_b2.png","68","68","test","1","75","75","4","",""
"null","240417","pSARL_v2","pSARL_v2xux4msp0","6165af4b36cb3bae91f2e355","infreq_resp","img/green_2bandit_b.png","68","68","test","","","","4","",""
"null","240575","pSARL_v2","pSARL_v2xux4msp0","6165af4b36cb3bae91f2e355","fixation","img/fixation.png","null","","test","","","","","",""
"614","241193","pSARL_v2","pSARL_v2xux4msp0","6165af4b36cb3bae91f2e355","freq","img/orange_2bandit_b2.png","70","70","test","1","76","76","4","",""
"null","241393","pSARL_v2","pSARL_v2xux4msp0","6165af4b36cb3bae91f2e355","freq_resp","img/orange_2bandit_b.png","70","70","test","","","","4","",""
"null","241552","pSARL_v2","pSARL_v2xux4msp0","6165af4b36cb3bae91f2e355","fixation","img/fixation.png","null","","test","","","","","",""
"765","242320","pSARL_v2","pSARL_v2xux4msp0","6165af4b36cb3bae91f2e355","freq","img/orange_2bandit_b2.png","70","70","test","1","77","77","4","",""
"null","242371","pSARL_v2","pSARL_v2xux4msp0","6165af4b36cb3bae91f2e355","freq_resp","img/orange_2bandit_b.png","70","70","test","","","","4","",""
"null","242528","pSARL_v2","pSARL_v2xux4msp0","6165af4b36cb3bae91f2e355","fixation","img/fixation.png","null","","test","","","","","",""
"612","243145","pSARL_v2","pSARL_v2xux4msp0","6165af4b36cb3bae91f2e355","freq","img/orange_2bandit_b2.png","70","70","test","1","78","78","4","",""
"null","243338","pSARL_v2","pSARL_v2xux4msp0","6165af4b36cb3bae91f2e355","freq_resp","img/orange_2bandit_b.png","70","70","test","","","","4","",""
"null","243498","pSARL_v2","pSARL_v2xux4msp0","6165af4b36cb3bae91f2e355","fixation","img/fixation.png","null","","test","","","","","",""
"442","243946","pSARL_v2","pSARL_v2xux4msp0","6165af4b36cb3bae91f2e355","infreq","img/green_2bandit_b2.png","68","68","test","1","79","79","4","",""
"null","244313","pSARL_v2","pSARL_v2xux4msp0","6165af4b36cb3bae91f2e355","infreq_resp","img/green_2bandit_b.png","68","68","test","","","","4","",""
"null","244471","pSARL_v2","pSARL_v2xux4msp0","6165af4b36cb3bae91f2e355","fixation","img/fixation.png","null","","test","","","","","",""
"423","244897","pSARL_v2","pSARL_v2xux4msp0","6165af4b36cb3bae91f2e355","freq","img/orange_2bandit_b2.png","70","70","test","1","80","80","4","",""
"null","245292","pSARL_v2","pSARL_v2xux4msp0","6165af4b36cb3bae91f2e355","freq_resp","img/orange_2bandit_b.png","70","70","test","","","","4","",""
"null","245451","pSARL_v2","pSARL_v2xux4msp0","6165af4b36cb3bae91f2e355","fixation","img/fixation.png","null","","test","","","","","",""
"363","245818","pSARL_v2","pSARL_v2xux4msp0","6165af4b36cb3bae91f2e355","freq","img/orange_2bandit_b2.png","70","70","test","1","81","81","4","",""
"null","246261","pSARL_v2","pSARL_v2xux4msp0","6165af4b36cb3bae91f2e355","freq_resp","img/orange_2bandit_b.png","70","70","test","","","","4","",""
"null","246417","pSARL_v2","pSARL_v2xux4msp0","6165af4b36cb3bae91f2e355","fixation","img/fixation.png","null","","test","","","","","",""
"389","246809","pSARL_v2","pSARL_v2xux4msp0","6165af4b36cb3bae91f2e355","freq","img/orange_2bandit_b2.png","70","70","test","1","82","82","4","",""
"null","247226","pSARL_v2","pSARL_v2xux4msp0","6165af4b36cb3bae91f2e355","freq_resp","img/orange_2bandit_b.png","70","70","test","","","","4","",""
"null","247385","pSARL_v2","pSARL_v2xux4msp0","6165af4b36cb3bae91f2e355","fixation","img/fixation.png","null","","test","","","","","",""
"373","247761","pSARL_v2","pSARL_v2xux4msp0","6165af4b36cb3bae91f2e355","freq","img/orange_2bandit_b2.png","70","70","test","1","83","83","4","",""
"null","248207","pSARL_v2","pSARL_v2xux4msp0","6165af4b36cb3bae91f2e355","freq_resp","img/orange_2bandit_b.png","70","70","test","","","","4","",""
"null","248366","pSARL_v2","pSARL_v2xux4msp0","6165af4b36cb3bae91f2e355","fixation","img/fixation.png","null","","test","","","","","",""
"328","248697","pSARL_v2","pSARL_v2xux4msp0","6165af4b36cb3bae91f2e355","freq","img/orange_2bandit_b2.png","70","70","test","1","84","84","4","",""
"null","249183","pSARL_v2","pSARL_v2xux4msp0","6165af4b36cb3bae91f2e355","freq_resp","img/orange_2bandit_b.png","70","70","test","","","","4","",""
"null","249342","pSARL_v2","pSARL_v2xux4msp0","6165af4b36cb3bae91f2e355","fixation","img/fixation.png","null","","test","","","","","",""
"297","249642","pSARL_v2","pSARL_v2xux4msp0","6165af4b36cb3bae91f2e355","freq","img/orange_2bandit_b2.png","70","70","test","1","85","85","4","",""
"null","250164","pSARL_v2","pSARL_v2xux4msp0","6165af4b36cb3bae91f2e355","freq_resp","img/orange_2bandit_b.png","70","70","test","","","","4","",""
"null","250322","pSARL_v2","pSARL_v2xux4msp0","6165af4b36cb3bae91f2e355","fixation","img/fixation.png","null","","test","","","","","",""
"316","250642","pSARL_v2","pSARL_v2xux4msp0","6165af4b36cb3bae91f2e355","freq","img/orange_2bandit_b2.png","70","70","test","1","86","86","4","",""
"null","251194","pSARL_v2","pSARL_v2xux4msp0","6165af4b36cb3bae91f2e355","freq_resp","img/orange_2bandit_b.png","70","70","test","","","","4","",""
"null","251350","pSARL_v2","pSARL_v2xux4msp0","6165af4b36cb3bae91f2e355","fixation","img/fixation.png","null","","test","","","","","",""
"351","251706","pSARL_v2","pSARL_v2xux4msp0","6165af4b36cb3bae91f2e355","freq","img/orange_2bandit_b2.png","70","70","test","1","87","87","4","",""
"null","252169","pSARL_v2","pSARL_v2xux4msp0","6165af4b36cb3bae91f2e355","freq_resp","img/orange_2bandit_b.png","70","70","test","","","","4","",""
"null","252330","pSARL_v2","pSARL_v2xux4msp0","6165af4b36cb3bae91f2e355","fixation","img/fixation.png","null","","test","","","","","",""
"347","252681","pSARL_v2","pSARL_v2xux4msp0","6165af4b36cb3bae91f2e355","freq","img/orange_2bandit_b2.png","70","70","test","1","88","88","4","",""
"null","253151","pSARL_v2","pSARL_v2xux4msp0","6165af4b36cb3bae91f2e355","freq_resp","img/orange_2bandit_b.png","70","70","test","","","","4","",""
"null","253311","pSARL_v2","pSARL_v2xux4msp0","6165af4b36cb3bae91f2e355","fixation","img/fixation.png","null","","test","","","","","",""
"536","253850","pSARL_v2","pSARL_v2xux4msp0","6165af4b36cb3bae91f2e355","reward","img/slot.png","74","","test","","","","","",""
"null","254614","pSARL_v2","pSARL_v2xux4msp0","6165af4b36cb3bae91f2e355","points","<div class=""verylowPoints""> -3 </div>","null","na","test","","","","4","-3","3"
"625","255243","pSARL_v2","pSARL_v2xux4msp0","6165af4b36cb3bae91f2e355","freq","img/orange_2bandit_b2.png","70","70","test","1","89","89","5","",""
"null","255434","pSARL_v2","pSARL_v2xux4msp0","6165af4b36cb3bae91f2e355","freq_resp","img/orange_2bandit_b.png","70","70","test","","","","5","",""
"null","255594","pSARL_v2","pSARL_v2xux4msp0","6165af4b36cb3bae91f2e355","fixation","img/fixation.png","null","","test","","","","","",""
"517","256115","pSARL_v2","pSARL_v2xux4msp0","6165af4b36cb3bae91f2e355","freq","img/orange_2bandit_b2.png","70","70","test","1","90","90","5","",""
"null","256412","pSARL_v2","pSARL_v2xux4msp0","6165af4b36cb3bae91f2e355","freq_resp","img/orange_2bandit_b.png","70","70","test","","","","5","",""
"null","256569","pSARL_v2","pSARL_v2xux4msp0","6165af4b36cb3bae91f2e355","fixation","img/fixation.png","null","","test","","","","","",""
"357","256932","pSARL_v2","pSARL_v2xux4msp0","6165af4b36cb3bae91f2e355","freq","img/orange_2bandit_b2.png","70","70","test","1","91","91","5","",""
"null","257392","pSARL_v2","pSARL_v2xux4msp0","6165af4b36cb3bae91f2e355","freq_resp","img/orange_2bandit_b.png","70","70","test","","","","5","",""
"null","257566","pSARL_v2","pSARL_v2xux4msp0","6165af4b36cb3bae91f2e355","fixation","img/fixation.png","null","","test","","","","","",""
"313","257882","pSARL_v2","pSARL_v2xux4msp0","6165af4b36cb3bae91f2e355","freq","img/orange_2bandit_b2.png","70","70","test","1","92","92","5","",""
"null","258388","pSARL_v2","pSARL_v2xux4msp0","6165af4b36cb3bae91f2e355","freq_resp","img/orange_2bandit_b.png","70","70","test","","","","5","",""
"null","258547","pSARL_v2","pSARL_v2xux4msp0","6165af4b36cb3bae91f2e355","fixation","img/fixation.png","null","","test","","","","","",""
"324","258874","pSARL_v2","pSARL_v2xux4msp0","6165af4b36cb3bae91f2e355","freq","img/orange_2bandit_b2.png","70","70","test","1","93","93","5","",""
"null","259369","pSARL_v2","pSARL_v2xux4msp0","6165af4b36cb3bae91f2e355","freq_resp","img/orange_2bandit_b.png","70","70","test","","","","5","",""
"null","259524","pSARL_v2","pSARL_v2xux4msp0","6165af4b36cb3bae91f2e355","fixation","img/fixation.png","null","","test","","","","","",""
"291","259819","pSARL_v2","pSARL_v2xux4msp0","6165af4b36cb3bae91f2e355","freq","img/orange_2bandit_b2.png","70","70","test","1","94","94","5","",""
"null","260344","pSARL_v2","pSARL_v2xux4msp0","6165af4b36cb3bae91f2e355","freq_resp","img/orange_2bandit_b.png","70","70","test","","","","5","",""
"null","260501","pSARL_v2","pSARL_v2xux4msp0","6165af4b36cb3bae91f2e355","fixation","img/fixation.png","null","","test","","","","","",""
"322","260828","pSARL_v2","pSARL_v2xux4msp0","6165af4b36cb3bae91f2e355","freq","img/orange_2bandit_b2.png","70","70","test","1","95","95","5","",""
"null","261321","pSARL_v2","pSARL_v2xux4msp0","6165af4b36cb3bae91f2e355","freq_resp","img/orange_2bandit_b.png","70","70","test","","","","5","",""
"null","261480","pSARL_v2","pSARL_v2xux4msp0","6165af4b36cb3bae91f2e355","fixation","img/fixation.png","null","","test","","","","","",""
"342","261827","pSARL_v2","pSARL_v2xux4msp0","6165af4b36cb3bae91f2e355","freq","img/orange_2bandit_b2.png","70","70","test","1","96","96","5","",""
"null","262301","pSARL_v2","pSARL_v2xux4msp0","6165af4b36cb3bae91f2e355","freq_resp","img/orange_2bandit_b.png","70","70","test","","","","5","",""
"null","262459","pSARL_v2","pSARL_v2xux4msp0","6165af4b36cb3bae91f2e355","fixation","img/fixation.png","null","","test","","","","","",""
"317","262779","pSARL_v2","pSARL_v2xux4msp0","6165af4b36cb3bae91f2e355","freq","img/orange_2bandit_b2.png","70","70","test","1","97","97","5","",""
"null","263266","pSARL_v2","pSARL_v2xux4msp0","6165af4b36cb3bae91f2e355","freq_resp","img/orange_2bandit_b.png","70","70","test","","","","5","",""
"null","263426","pSARL_v2","pSARL_v2xux4msp0","6165af4b36cb3bae91f2e355","fixation","img/fixation.png","null","","test","","","","","",""
"326","263756","pSARL_v2","pSARL_v2xux4msp0","6165af4b36cb3bae91f2e355","freq","img/orange_2bandit_b2.png","70","70","test","1","98","98","5","",""
"null","264247","pSARL_v2","pSARL_v2xux4msp0","6165af4b36cb3bae91f2e355","freq_resp","img/orange_2bandit_b.png","70","70","test","","","","5","",""
"null","264408","pSARL_v2","pSARL_v2xux4msp0","6165af4b36cb3bae91f2e355","fixation","img/fixation.png","null","","test","","","","","",""
"672","265083","pSARL_v2","pSARL_v2xux4msp0","6165af4b36cb3bae91f2e355","infreq","img/green_2bandit_b2.png","68","68","test","1","99","99","5","",""
"null","265216","pSARL_v2","pSARL_v2xux4msp0","6165af4b36cb3bae91f2e355","infreq_resp","img/green_2bandit_b.png","68","68","test","","","","5","",""
"null","265376","pSARL_v2","pSARL_v2xux4msp0","6165af4b36cb3bae91f2e355","fixation","img/fixation.png","null","","test","","","","","",""
"552","265931","pSARL_v2","pSARL_v2xux4msp0","6165af4b36cb3bae91f2e355","infreq","img/green_2bandit_b2.png","68","68","test","1","100","100","5","",""
"null","266198","pSARL_v2","pSARL_v2xux4msp0","6165af4b36cb3bae91f2e355","infreq_resp","img/green_2bandit_b.png","68","68","test","","","","5","",""
"null","266356","pSARL_v2","pSARL_v2xux4msp0","6165af4b36cb3bae91f2e355","fixation","img/fixation.png","null","","test","","","","","",""
"507","266866","pSARL_v2","pSARL_v2xux4msp0","6165af4b36cb3bae91f2e355","freq","img/orange_2bandit_b2.png","70","70","test","1","101","101","5","",""
"null","267177","pSARL_v2","pSARL_v2xux4msp0","6165af4b36cb3bae91f2e355","freq_resp","img/orange_2bandit_b.png","70","70","test","","","","5","",""
"null","267335","pSARL_v2","pSARL_v2xux4msp0","6165af4b36cb3bae91f2e355","fixation","img/fixation.png","null","","test","","","","","",""
"376","267715","pSARL_v2","pSARL_v2xux4msp0","6165af4b36cb3bae91f2e355","freq","img/orange_2bandit_b2.png","70","70","test","1","102","102","5","",""
"null","268149","pSARL_v2","pSARL_v2xux4msp0","6165af4b36cb3bae91f2e355","freq_resp","img/orange_2bandit_b.png","70","70","test","","","","5","",""
"null","268306","pSARL_v2","pSARL_v2xux4msp0","6165af4b36cb3bae91f2e355","fixation","img/fixation.png","null","","test","","","","","",""
"374","268684","pSARL_v2","pSARL_v2xux4msp0","6165af4b36cb3bae91f2e355","freq","img/orange_2bandit_b2.png","70","70","test","1","103","103","5","",""
"null","269129","pSARL_v2","pSARL_v2xux4msp0","6165af4b36cb3bae91f2e355","freq_resp","img/orange_2bandit_b.png","70","70","test","","","","5","",""
"null","269285","pSARL_v2","pSARL_v2xux4msp0","6165af4b36cb3bae91f2e355","fixation","img/fixation.png","null","","test","","","","","",""
"370","269662","pSARL_v2","pSARL_v2xux4msp0","6165af4b36cb3bae91f2e355","freq","img/orange_2bandit_b2.png","70","70","test","1","104","104","5","",""
"null","270110","pSARL_v2","pSARL_v2xux4msp0","6165af4b36cb3bae91f2e355","freq_resp","img/orange_2bandit_b.png","70","70","test","","","","5","",""
"null","270268","pSARL_v2","pSARL_v2xux4msp0","6165af4b36cb3bae91f2e355","fixation","img/fixation.png","null","","test","","","","","",""
"323","270597","pSARL_v2","pSARL_v2xux4msp0","6165af4b36cb3bae91f2e355","freq","img/orange_2bandit_b2.png","70","70","test","1","105","105","5","",""
"null","271091","pSARL_v2","pSARL_v2xux4msp0","6165af4b36cb3bae91f2e355","freq_resp","img/orange_2bandit_b.png","70","70","test","","","","5","",""
"null","271248","pSARL_v2","pSARL_v2xux4msp0","6165af4b36cb3bae91f2e355","fixation","img/fixation.png","null","","test","","","","","",""
"337","271588","pSARL_v2","pSARL_v2xux4msp0","6165af4b36cb3bae91f2e355","freq","img/orange_2bandit_b2.png","70","70","test","1","106","106","5","",""
"null","272056","pSARL_v2","pSARL_v2xux4msp0","6165af4b36cb3bae91f2e355","freq_resp","img/orange_2bandit_b.png","70","70","test","","","","5","",""
"null","272215","pSARL_v2","pSARL_v2xux4msp0","6165af4b36cb3bae91f2e355","fixation","img/fixation.png","null","","test","","","","","",""
"283","272500","pSARL_v2","pSARL_v2xux4msp0","6165af4b36cb3bae91f2e355","freq","img/orange_2bandit_b2.png","70","70","test","1","107","107","5","",""
"null","273027","pSARL_v2","pSARL_v2xux4msp0","6165af4b36cb3bae91f2e355","freq_resp","img/orange_2bandit_b.png","70","70","test","","","","5","",""
"null","273197","pSARL_v2","pSARL_v2xux4msp0","6165af4b36cb3bae91f2e355","fixation","img/fixation.png","null","","test","","","","","",""
"346","273547","pSARL_v2","pSARL_v2xux4msp0","6165af4b36cb3bae91f2e355","freq","img/orange_2bandit_b2.png","70","70","test","1","108","108","5","",""
"null","274006","pSARL_v2","pSARL_v2xux4msp0","6165af4b36cb3bae91f2e355","freq_resp","img/orange_2bandit_b.png","70","70","test","","","","5","",""
"null","274165","pSARL_v2","pSARL_v2xux4msp0","6165af4b36cb3bae91f2e355","fixation","img/fixation.png","null","","test","","","","","",""
"308","274477","pSARL_v2","pSARL_v2xux4msp0","6165af4b36cb3bae91f2e355","freq","img/orange_2bandit_b2.png","70","70","test","1","109","109","5","",""
"null","274987","pSARL_v2","pSARL_v2xux4msp0","6165af4b36cb3bae91f2e355","freq_resp","img/orange_2bandit_b.png","70","70","test","","","","5","",""
"null","275146","pSARL_v2","pSARL_v2xux4msp0","6165af4b36cb3bae91f2e355","fixation","img/fixation.png","null","","test","","","","","",""
"375","275524","pSARL_v2","pSARL_v2xux4msp0","6165af4b36cb3bae91f2e355","freq","img/orange_2bandit_b2.png","70","70","test","1","110","110","5","",""
"null","275956","pSARL_v2","pSARL_v2xux4msp0","6165af4b36cb3bae91f2e355","freq_resp","img/orange_2bandit_b.png","70","70","test","","","","5","",""
"null","276113","pSARL_v2","pSARL_v2xux4msp0","6165af4b36cb3bae91f2e355","fixation","img/fixation.png","null","","test","","","","","",""
"336","276454","pSARL_v2","pSARL_v2xux4msp0","6165af4b36cb3bae91f2e355","freq","img/orange_2bandit_b2.png","70","70","test","1","111","111","5","",""
"null","276924","pSARL_v2","pSARL_v2xux4msp0","6165af4b36cb3bae91f2e355","freq_resp","img/orange_2bandit_b.png","70","70","test","","","","5","",""
"null","277079","pSARL_v2","pSARL_v2xux4msp0","6165af4b36cb3bae91f2e355","fixation","img/fixation.png","null","","test","","","","","",""
"609","277692","pSARL_v2","pSARL_v2xux4msp0","6165af4b36cb3bae91f2e355","reward","img/slot.png","74","","test","","","","","",""
"null","278505","pSARL_v2","pSARL_v2xux4msp0","6165af4b36cb3bae91f2e355","points","<div class=""veryhighPoints""> +1 </div>","null","na","test","","","","5","1","4"
"607","279117","pSARL_v2","pSARL_v2xux4msp0","6165af4b36cb3bae91f2e355","freq","img/orange_2bandit_b2.png","70","70","test","1","112","112","6","",""
"null","279328","pSARL_v2","pSARL_v2xux4msp0","6165af4b36cb3bae91f2e355","freq_resp","img/orange_2bandit_b.png","70","70","test","","","","6","",""
"null","279488","pSARL_v2","pSARL_v2xux4msp0","6165af4b36cb3bae91f2e355","fixation","img/fixation.png","null","","test","","","","","",""
"497","279990","pSARL_v2","pSARL_v2xux4msp0","6165af4b36cb3bae91f2e355","freq","img/orange_2bandit_b2.png","70","70","test","1","113","113","6","",""
"null","280312","pSARL_v2","pSARL_v2xux4msp0","6165af4b36cb3bae91f2e355","freq_resp","img/orange_2bandit_b.png","70","70","test","","","","6","",""
"null","280469","pSARL_v2","pSARL_v2xux4msp0","6165af4b36cb3bae91f2e355","fixation","img/fixation.png","null","","test","","","","","",""
"500","280974","pSARL_v2","pSARL_v2xux4msp0","6165af4b36cb3bae91f2e355","freq","img/orange_2bandit_b2.png","70","70","test","1","114","114","6","",""
"null","281294","pSARL_v2","pSARL_v2xux4msp0","6165af4b36cb3bae91f2e355","freq_resp","img/orange_2bandit_b.png","70","70","test","","","","6","",""
"null","281452","pSARL_v2","pSARL_v2xux4msp0","6165af4b36cb3bae91f2e355","fixation","img/fixation.png","null","","test","","","","","",""
"451","281910","pSARL_v2","pSARL_v2xux4msp0","6165af4b36cb3bae91f2e355","freq","img/orange_2bandit_b2.png","70","70","test","1","115","115","6","",""
"null","282264","pSARL_v2","pSARL_v2xux4msp0","6165af4b36cb3bae91f2e355","freq_resp","img/orange_2bandit_b.png","70","70","test","","","","6","",""
"null","282423","pSARL_v2","pSARL_v2xux4msp0","6165af4b36cb3bae91f2e355","fixation","img/fixation.png","null","","test","","","","","",""
"666","283093","pSARL_v2","pSARL_v2xux4msp0","6165af4b36cb3bae91f2e355","infreq","img/green_2bandit_b2.png","68","68","test","1","116","116","6","",""
"null","283244","pSARL_v2","pSARL_v2xux4msp0","6165af4b36cb3bae91f2e355","infreq_resp","img/green_2bandit_b.png","68","68","test","","","","6","",""
"null","283403","pSARL_v2","pSARL_v2xux4msp0","6165af4b36cb3bae91f2e355","fixation","img/fixation.png","null","","test","","","","","",""
"502","283908","pSARL_v2","pSARL_v2xux4msp0","6165af4b36cb3bae91f2e355","freq","img/orange_2bandit_b2.png","70","70","test","1","117","117","6","",""
"null","284215","pSARL_v2","pSARL_v2xux4msp0","6165af4b36cb3bae91f2e355","freq_resp","img/orange_2bandit_b.png","70","70","test","","","","6","",""
"null","284374","pSARL_v2","pSARL_v2xux4msp0","6165af4b36cb3bae91f2e355","fixation","img/fixation.png","null","","test","","","","","",""
"324","284701","pSARL_v2","pSARL_v2xux4msp0","6165af4b36cb3bae91f2e355","freq","img/orange_2bandit_b2.png","70","70","test","1","118","118","6","",""
"null","285194","pSARL_v2","pSARL_v2xux4msp0","6165af4b36cb3bae91f2e355","freq_resp","img/orange_2bandit_b.png","70","70","test","","","","6","",""
"null","285355","pSARL_v2","pSARL_v2xux4msp0","6165af4b36cb3bae91f2e355","fixation","img/fixation.png","null","","test","","","","","",""
"439","285797","pSARL_v2","pSARL_v2xux4msp0","6165af4b36cb3bae91f2e355","freq","img/orange_2bandit_b2.png","70","70","test","1","119","119","6","",""
"null","286166","pSARL_v2","pSARL_v2xux4msp0","6165af4b36cb3bae91f2e355","freq_resp","img/orange_2bandit_b.png","70","70","test","","","","6","",""
"null","286320","pSARL_v2","pSARL_v2xux4msp0","6165af4b36cb3bae91f2e355","fixation","img/fixation.png","null","","test","","","","","",""
"369","286694","pSARL_v2","pSARL_v2xux4msp0","6165af4b36cb3bae91f2e355","freq","img/orange_2bandit_b2.png","70","70","test","1","120","120","6","",""
"null","287143","pSARL_v2","pSARL_v2xux4msp0","6165af4b36cb3bae91f2e355","freq_resp","img/orange_2bandit_b.png","70","70","test","","","","6","",""
"null","287302","pSARL_v2","pSARL_v2xux4msp0","6165af4b36cb3bae91f2e355","fixation","img/fixation.png","null","","test","","","","","",""
"340","287645","pSARL_v2","pSARL_v2xux4msp0","6165af4b36cb3bae91f2e355","freq","img/orange_2bandit_b2.png","70","70","test","1","121","121","6","",""
"null","288121","pSARL_v2","pSARL_v2xux4msp0","6165af4b36cb3bae91f2e355","freq_resp","img/orange_2bandit_b.png","70","70","test","","","","6","",""
"null","288278","pSARL_v2","pSARL_v2xux4msp0","6165af4b36cb3bae91f2e355","fixation","img/fixation.png","null","","test","","","","","",""
"475","288759","pSARL_v2","pSARL_v2xux4msp0","6165af4b36cb3bae91f2e355","infreq","img/green_2bandit_b2.png","68","68","test","1","122","122","6","",""
"null","289088","pSARL_v2","pSARL_v2xux4msp0","6165af4b36cb3bae91f2e355","infreq_resp","img/green_2bandit_b.png","68","68","test","","","","6","",""
"null","289246","pSARL_v2","pSARL_v2xux4msp0","6165af4b36cb3bae91f2e355","fixation","img/fixation.png","null","","test","","","","","",""
"444","289694","pSARL_v2","pSARL_v2xux4msp0","6165af4b36cb3bae91f2e355","freq","img/orange_2bandit_b2.png","70","70","test","1","123","123","6","",""
"null","290069","pSARL_v2","pSARL_v2xux4msp0","6165af4b36cb3bae91f2e355","freq_resp","img/orange_2bandit_b.png","70","70","test","","","","6","",""
"null","290225","pSARL_v2","pSARL_v2xux4msp0","6165af4b36cb3bae91f2e355","fixation","img/fixation.png","null","","test","","","","","",""
"618","290846","pSARL_v2","pSARL_v2xux4msp0","6165af4b36cb3bae91f2e355","infreq","img/green_2bandit_b2.png","68","68","test","1","124","124","6","",""
"null","291040","pSARL_v2","pSARL_v2xux4msp0","6165af4b36cb3bae91f2e355","infreq_resp","img/green_2bandit_b.png","68","68","test","","","","6","",""
"null","291197","pSARL_v2","pSARL_v2xux4msp0","6165af4b36cb3bae91f2e355","fixation","img/fixation.png","null","","test","","","","","",""
"373","291575","pSARL_v2","pSARL_v2xux4msp0","6165af4b36cb3bae91f2e355","freq","img/orange_2bandit_b2.png","70","70","test","1","125","125","6","",""
"null","292009","pSARL_v2","pSARL_v2xux4msp0","6165af4b36cb3bae91f2e355","freq_resp","img/orange_2bandit_b.png","70","70","test","","","","6","",""
"null","292167","pSARL_v2","pSARL_v2xux4msp0","6165af4b36cb3bae91f2e355","fixation","img/fixation.png","null","","test","","","","","",""
"740","292911","pSARL_v2","pSARL_v2xux4msp0","6165af4b36cb3bae91f2e355","freq","img/orange_2bandit_b2.png","70","70","test","1","126","126","6","",""
"null","292977","pSARL_v2","pSARL_v2xux4msp0","6165af4b36cb3bae91f2e355","freq_resp","img/orange_2bandit_b.png","70","70","test","","","","6","",""
"null","293136","pSARL_v2","pSARL_v2xux4msp0","6165af4b36cb3bae91f2e355","fixation","img/fixation.png","null","","test","","","","","",""
"355","293494","pSARL_v2","pSARL_v2xux4msp0","6165af4b36cb3bae91f2e355","freq","img/orange_2bandit_b2.png","70","70","test","1","127","127","6","",""
"null","293943","pSARL_v2","pSARL_v2xux4msp0","6165af4b36cb3bae91f2e355","freq_resp","img/orange_2bandit_b.png","70","70","test","","","","6","",""
"null","294103","pSARL_v2","pSARL_v2xux4msp0","6165af4b36cb3bae91f2e355","fixation","img/fixation.png","null","","test","","","","","",""
"437","294542","pSARL_v2","pSARL_v2xux4msp0","6165af4b36cb3bae91f2e355","freq","img/orange_2bandit_b2.png","70","70","test","1","128","128","6","",""
"null","294925","pSARL_v2","pSARL_v2xux4msp0","6165af4b36cb3bae91f2e355","freq_resp","img/orange_2bandit_b.png","70","70","test","","","","6","",""
"null","295081","pSARL_v2","pSARL_v2xux4msp0","6165af4b36cb3bae91f2e355","fixation","img/fixation.png","null","","test","","","","","",""
"346","295431","pSARL_v2","pSARL_v2xux4msp0","6165af4b36cb3bae91f2e355","freq","img/orange_2bandit_b2.png","70","70","test","1","129","129","6","",""
"null","295904","pSARL_v2","pSARL_v2xux4msp0","6165af4b36cb3bae91f2e355","freq_resp","img/orange_2bandit_b.png","70","70","test","","","","6","",""
"null","296062","pSARL_v2","pSARL_v2xux4msp0","6165af4b36cb3bae91f2e355","fixation","img/fixation.png","null","","test","","","","","",""
"309","296375","pSARL_v2","pSARL_v2xux4msp0","6165af4b36cb3bae91f2e355","freq","img/orange_2bandit_b2.png","70","70","test","1","130","130","6","",""
"null","296872","pSARL_v2","pSARL_v2xux4msp0","6165af4b36cb3bae91f2e355","freq_resp","img/orange_2bandit_b.png","70","70","test","","","","6","",""
"null","297031","pSARL_v2","pSARL_v2xux4msp0","6165af4b36cb3bae91f2e355","fixation","img/fixation.png","null","","test","","","","","",""
"315","297351","pSARL_v2","pSARL_v2xux4msp0","6165af4b36cb3bae91f2e355","freq","img/orange_2bandit_b2.png","70","70","test","1","131","131","6","",""
"null","297851","pSARL_v2","pSARL_v2xux4msp0","6165af4b36cb3bae91f2e355","freq_resp","img/orange_2bandit_b.png","70","70","test","","","","6","",""
"null","298011","pSARL_v2","pSARL_v2xux4msp0","6165af4b36cb3bae91f2e355","fixation","img/fixation.png","null","","test","","","","","",""
"288","298303","pSARL_v2","pSARL_v2xux4msp0","6165af4b36cb3bae91f2e355","freq","img/orange_2bandit_b2.png","70","70","test","1","132","132","6","",""
"null","298829","pSARL_v2","pSARL_v2xux4msp0","6165af4b36cb3bae91f2e355","freq_resp","img/orange_2bandit_b.png","70","70","test","","","","6","",""
"null","298988","pSARL_v2","pSARL_v2xux4msp0","6165af4b36cb3bae91f2e355","fixation","img/fixation.png","null","","test","","","","","",""
"336","299327","pSARL_v2","pSARL_v2xux4msp0","6165af4b36cb3bae91f2e355","freq","img/orange_2bandit_b2.png","70","70","test","1","133","133","6","",""
"null","299795","pSARL_v2","pSARL_v2xux4msp0","6165af4b36cb3bae91f2e355","freq_resp","img/orange_2bandit_b.png","70","70","test","","","","6","",""
"null","299954","pSARL_v2","pSARL_v2xux4msp0","6165af4b36cb3bae91f2e355","fixation","img/fixation.png","null","","test","","","","","",""
"513","300470","pSARL_v2","pSARL_v2xux4msp0","6165af4b36cb3bae91f2e355","reward","img/slot.png","74","","test","","","","","",""
"null","301234","pSARL_v2","pSARL_v2xux4msp0","6165af4b36cb3bae91f2e355","points","<div class=""verylowPoints""> -7 </div>","null","na","test","","","","6","-7","5"
"481","301719","pSARL_v2","pSARL_v2xux4msp0","6165af4b36cb3bae91f2e355","freq","img/orange_2bandit_b2.png","70","70","test","1","134","134","7","",""
"null","302058","pSARL_v2","pSARL_v2xux4msp0","6165af4b36cb3bae91f2e355","freq_resp","img/orange_2bandit_b.png","70","70","test","","","","7","",""
"null","302216","pSARL_v2","pSARL_v2xux4msp0","6165af4b36cb3bae91f2e355","fixation","img/fixation.png","null","","test","","","","","",""
"589","302810","pSARL_v2","pSARL_v2xux4msp0","6165af4b36cb3bae91f2e355","freq","img/orange_2bandit_b2.png","70","70","test","1","135","135","7","",""
"null","303040","pSARL_v2","pSARL_v2xux4msp0","6165af4b36cb3bae91f2e355","freq_resp","img/orange_2bandit_b.png","70","70","test","","","","7","",""
"null","303196","pSARL_v2","pSARL_v2xux4msp0","6165af4b36cb3bae91f2e355","fixation","img/fixation.png","null","","test","","","","","",""
"310","303511","pSARL_v2","pSARL_v2xux4msp0","6165af4b36cb3bae91f2e355","freq","img/orange_2bandit_b2.png","70","70","test","1","136","136","7","",""
"null","304020","pSARL_v2","pSARL_v2xux4msp0","6165af4b36cb3bae91f2e355","freq_resp","img/orange_2bandit_b.png","70","70","test","","","","7","",""
"null","304180","pSARL_v2","pSARL_v2xux4msp0","6165af4b36cb3bae91f2e355","fixation","img/fixation.png","null","","test","","","","","",""
"208","304393","pSARL_v2","pSARL_v2xux4msp0","6165af4b36cb3bae91f2e355","freq","img/orange_2bandit_b2.png","70","70","test","1","137","137","7","",""
"null","304990","pSARL_v2","pSARL_v2xux4msp0","6165af4b36cb3bae91f2e355","freq_resp","img/orange_2bandit_b.png","70","70","test","","","","7","",""
"null","305147","pSARL_v2","pSARL_v2xux4msp0","6165af4b36cb3bae91f2e355","fixation","img/fixation.png","null","","test","","","","","",""
"137","305288","pSARL_v2","pSARL_v2xux4msp0","6165af4b36cb3bae91f2e355","freq","img/orange_2bandit_b2.png","70","70","test","1","138","138","7","",""
"null","305970","pSARL_v2","pSARL_v2xux4msp0","6165af4b36cb3bae91f2e355","freq_resp","img/orange_2bandit_b.png","70","70","test","","","","7","",""
"null","306129","pSARL_v2","pSARL_v2xux4msp0","6165af4b36cb3bae91f2e355","fixation","img/fixation.png","null","","test","","","","","",""
"283","306417","pSARL_v2","pSARL_v2xux4msp0","6165af4b36cb3bae91f2e355","freq","img/orange_2bandit_b2.png","70","70","test","1","139","139","7","",""
"null","306999","pSARL_v2","pSARL_v2xux4msp0","6165af4b36cb3bae91f2e355","freq_resp","img/orange_2bandit_b.png","70","70","test","","","","7","",""
"null","307158","pSARL_v2","pSARL_v2xux4msp0","6165af4b36cb3bae91f2e355","fixation","img/fixation.png","null","","test","","","","","",""
"295","307457","pSARL_v2","pSARL_v2xux4msp0","6165af4b36cb3bae91f2e355","freq","img/orange_2bandit_b2.png","70","70","test","1","140","140","7","",""
"null","307966","pSARL_v2","pSARL_v2xux4msp0","6165af4b36cb3bae91f2e355","freq_resp","img/orange_2bandit_b.png","70","70","test","","","","7","",""
"null","308126","pSARL_v2","pSARL_v2xux4msp0","6165af4b36cb3bae91f2e355","fixation","img/fixation.png","null","","test","","","","","",""
"270","308399","pSARL_v2","pSARL_v2xux4msp0","6165af4b36cb3bae91f2e355","freq","img/orange_2bandit_b2.png","70","70","test","1","141","141","7","",""
"null","308945","pSARL_v2","pSARL_v2xux4msp0","6165af4b36cb3bae91f2e355","freq_resp","img/orange_2bandit_b.png","70","70","test","","","","7","",""
"null","309103","pSARL_v2","pSARL_v2xux4msp0","6165af4b36cb3bae91f2e355","fixation","img/fixation.png","null","","test","","","","","",""
"133","309239","pSARL_v2","pSARL_v2xux4msp0","6165af4b36cb3bae91f2e355","freq","img/orange_2bandit_b2.png","70","70","test","1","142","142","7","",""
"null","309911","pSARL_v2","pSARL_v2xux4msp0","6165af4b36cb3bae91f2e355","freq_resp","img/orange_2bandit_b.png","70","70","test","","","","7","",""
"null","310071","pSARL_v2","pSARL_v2xux4msp0","6165af4b36cb3bae91f2e355","fixation","img/fixation.png","null","","test","","","","","",""
"142","310216","pSARL_v2","pSARL_v2xux4msp0","6165af4b36cb3bae91f2e355","freq","img/orange_2bandit_b2.png","70","70","test","1","143","143","7","",""
"null","310891","pSARL_v2","pSARL_v2xux4msp0","6165af4b36cb3bae91f2e355","freq_resp","img/orange_2bandit_b.png","70","70","test","","","","7","",""
"null","311049","pSARL_v2","pSARL_v2xux4msp0","6165af4b36cb3bae91f2e355","fixation","img/fixation.png","null","","test","","","","","",""
"397","311447","pSARL_v2","pSARL_v2xux4msp0","6165af4b36cb3bae91f2e355","freq","img/orange_2bandit_b2.png","70","70","test","1","144","144","7","",""
"null","311858","pSARL_v2","pSARL_v2xux4msp0","6165af4b36cb3bae91f2e355","freq_resp","img/orange_2bandit_b.png","70","70","test","","","","7","",""
"null","312016","pSARL_v2","pSARL_v2xux4msp0","6165af4b36cb3bae91f2e355","fixation","img/fixation.png","null","","test","","","","","",""
"260","312281","pSARL_v2","pSARL_v2xux4msp0","6165af4b36cb3bae91f2e355","freq","img/orange_2bandit_b2.png","70","70","test","1","145","145","7","",""
"null","312824","pSARL_v2","pSARL_v2xux4msp0","6165af4b36cb3bae91f2e355","freq_resp","img/orange_2bandit_b.png","70","70","test","","","","7","",""
"null","312983","pSARL_v2","pSARL_v2xux4msp0","6165af4b36cb3bae91f2e355","fixation","img/fixation.png","null","","test","","","","","",""
"175","313162","pSARL_v2","pSARL_v2xux4msp0","6165af4b36cb3bae91f2e355","freq","img/orange_2bandit_b2.png","70","70","test","1","146","146","7","",""
"null","313807","pSARL_v2","pSARL_v2xux4msp0","6165af4b36cb3bae91f2e355","freq_resp","img/orange_2bandit_b.png","70","70","test","","","","7","",""
"null","313965","pSARL_v2","pSARL_v2xux4msp0","6165af4b36cb3bae91f2e355","fixation","img/fixation.png","null","","test","","","","","",""
"136","314105","pSARL_v2","pSARL_v2xux4msp0","6165af4b36cb3bae91f2e355","freq","img/orange_2bandit_b2.png","70","70","test","1","147","147","7","",""
"null","314777","pSARL_v2","pSARL_v2xux4msp0","6165af4b36cb3bae91f2e355","freq_resp","img/orange_2bandit_b.png","70","70","test","","","","7","",""
"null","314935","pSARL_v2","pSARL_v2xux4msp0","6165af4b36cb3bae91f2e355","fixation","img/fixation.png","null","","test","","","","","",""
"326","315265","pSARL_v2","pSARL_v2xux4msp0","6165af4b36cb3bae91f2e355","freq","img/orange_2bandit_b2.png","70","70","test","1","148","148","7","",""
"null","315757","pSARL_v2","pSARL_v2xux4msp0","6165af4b36cb3bae91f2e355","freq_resp","img/orange_2bandit_b.png","70","70","test","","","","7","",""
"null","315914","pSARL_v2","pSARL_v2xux4msp0","6165af4b36cb3bae91f2e355","fixation","img/fixation.png","null","","test","","","","","",""
"283","316202","pSARL_v2","pSARL_v2xux4msp0","6165af4b36cb3bae91f2e355","infreq","img/green_2bandit_b2.png","70","68","test","0","149","149","7","",""
"null","316735","pSARL_v2","pSARL_v2xux4msp0","6165af4b36cb3bae91f2e355","infreq_resp","img/green_2bandit_b.png","70","68","test","","","","7","",""
"null","316892","pSARL_v2","pSARL_v2xux4msp0","6165af4b36cb3bae91f2e355","fixation","img/fixation.png","null","","test","","","","","",""
"442","317336","pSARL_v2","pSARL_v2xux4msp0","6165af4b36cb3bae91f2e355","infreq","img/green_2bandit_b2.png","68","68","test","1","150","150","7","",""
"null","317701","pSARL_v2","pSARL_v2xux4msp0","6165af4b36cb3bae91f2e355","infreq_resp","img/green_2bandit_b.png","68","68","test","","","","7","",""
"null","317859","pSARL_v2","pSARL_v2xux4msp0","6165af4b36cb3bae91f2e355","fixation","img/fixation.png","null","","test","","","","","",""
"418","318280","pSARL_v2","pSARL_v2xux4msp0","6165af4b36cb3bae91f2e355","freq","img/orange_2bandit_b2.png","70","70","test","1","151","151","7","",""
"null","318668","pSARL_v2","pSARL_v2xux4msp0","6165af4b36cb3bae91f2e355","freq_resp","img/orange_2bandit_b.png","70","70","test","","","","7","",""
"null","318826","pSARL_v2","pSARL_v2xux4msp0","6165af4b36cb3bae91f2e355","fixation","img/fixation.png","null","","test","","","","","",""
"388","319217","pSARL_v2","pSARL_v2xux4msp0","6165af4b36cb3bae91f2e355","freq","img/orange_2bandit_b2.png","70","70","test","1","152","152","7","",""
"null","319636","pSARL_v2","pSARL_v2xux4msp0","6165af4b36cb3bae91f2e355","freq_resp","img/orange_2bandit_b.png","70","70","test","","","","7","",""
"null","319793","pSARL_v2","pSARL_v2xux4msp0","6165af4b36cb3bae91f2e355","fixation","img/fixation.png","null","","test","","","","","",""
"316","320113","pSARL_v2","pSARL_v2xux4msp0","6165af4b36cb3bae91f2e355","freq","img/orange_2bandit_b2.png","70","70","test","1","153","153","7","",""
"null","320602","pSARL_v2","pSARL_v2xux4msp0","6165af4b36cb3bae91f2e355","freq_resp","img/orange_2bandit_b.png","70","70","test","","","","7","",""
"null","320761","pSARL_v2","pSARL_v2xux4msp0","6165af4b36cb3bae91f2e355","fixation","img/fixation.png","null","","test","","","","","",""
"325","321089","pSARL_v2","pSARL_v2xux4msp0","6165af4b36cb3bae91f2e355","freq","img/orange_2bandit_b2.png","70","70","test","1","154","154","7","",""
"null","321584","pSARL_v2","pSARL_v2xux4msp0","6165af4b36cb3bae91f2e355","freq_resp","img/orange_2bandit_b.png","70","70","test","","","","7","",""
"null","321741","pSARL_v2","pSARL_v2xux4msp0","6165af4b36cb3bae91f2e355","fixation","img/fixation.png","null","","test","","","","","",""
"409","322154","pSARL_v2","pSARL_v2xux4msp0","6165af4b36cb3bae91f2e355","freq","img/orange_2bandit_b2.png","70","70","test","1","155","155","7","",""
"null","322550","pSARL_v2","pSARL_v2xux4msp0","6165af4b36cb3bae91f2e355","freq_resp","img/orange_2bandit_b.png","70","70","test","","","","7","",""
"null","322707","pSARL_v2","pSARL_v2xux4msp0","6165af4b36cb3bae91f2e355","fixation","img/fixation.png","null","","test","","","","","",""
"274","322986","pSARL_v2","pSARL_v2xux4msp0","6165af4b36cb3bae91f2e355","freq","img/orange_2bandit_b2.png","70","70","test","1","156","156","7","",""
"null","323527","pSARL_v2","pSARL_v2xux4msp0","6165af4b36cb3bae91f2e355","freq_resp","img/orange_2bandit_b.png","70","70","test","","","","7","",""
"null","323682","pSARL_v2","pSARL_v2xux4msp0","6165af4b36cb3bae91f2e355","fixation","img/fixation.png","null","","test","","","","","",""
"340","324026","pSARL_v2","pSARL_v2xux4msp0","6165af4b36cb3bae91f2e355","freq","img/orange_2bandit_b2.png","70","70","test","1","157","157","7","",""
"null","324498","pSARL_v2","pSARL_v2xux4msp0","6165af4b36cb3bae91f2e355","freq_resp","img/orange_2bandit_b.png","70","70","test","","","","7","",""
"null","324656","pSARL_v2","pSARL_v2xux4msp0","6165af4b36cb3bae91f2e355","fixation","img/fixation.png","null","","test","","","","","",""
"439","325097","pSARL_v2","pSARL_v2xux4msp0","6165af4b36cb3bae91f2e355","reward","img/slot.png","74","","test","","","","","",""
"null","325860","pSARL_v2","pSARL_v2xux4msp0","6165af4b36cb3bae91f2e355","points","<div class=""verylowPoints""> -6 </div>","null","na","test","","","","7","-6","6"
"530","326394","pSARL_v2","pSARL_v2xux4msp0","6165af4b36cb3bae91f2e355","freq","img/orange_2bandit_b2.png","70","70","test","1","158","158","8","",""
"null","326669","pSARL_v2","pSARL_v2xux4msp0","6165af4b36cb3bae91f2e355","freq_resp","img/orange_2bandit_b.png","70","70","test","","","","8","",""
"null","326826","pSARL_v2","pSARL_v2xux4msp0","6165af4b36cb3bae91f2e355","fixation","img/fixation.png","null","","test","","","","","",""
"292","327124","pSARL_v2","pSARL_v2xux4msp0","6165af4b36cb3bae91f2e355","freq","img/orange_2bandit_b2.png","70","70","test","1","159","159","8","",""
"null","327645","pSARL_v2","pSARL_v2xux4msp0","6165af4b36cb3bae91f2e355","freq_resp","img/orange_2bandit_b.png","70","70","test","","","","8","",""
"null","327804","pSARL_v2","pSARL_v2xux4msp0","6165af4b36cb3bae91f2e355","fixation","img/fixation.png","null","","test","","","","","",""
"115","327922","pSARL_v2","pSARL_v2xux4msp0","6165af4b36cb3bae91f2e355","freq","img/orange_2bandit_b2.png","70","70","test","1","160","160","8","",""
"null","328681","pSARL_v2","pSARL_v2xux4msp0","6165af4b36cb3bae91f2e355","freq_resp","img/orange_2bandit_b.png","70","70","test","","","","8","",""
"null","328839","pSARL_v2","pSARL_v2xux4msp0","6165af4b36cb3bae91f2e355","fixation","img/fixation.png","null","","test","","","","","",""
"103","328946","pSARL_v2","pSARL_v2xux4msp0","6165af4b36cb3bae91f2e355","freq","img/orange_2bandit_b2.png","70","70","test","1","161","161","8","",""
"null","329663","pSARL_v2","pSARL_v2xux4msp0","6165af4b36cb3bae91f2e355","freq_resp","img/orange_2bandit_b.png","70","70","test","","","","8","",""
"null","329823","pSARL_v2","pSARL_v2xux4msp0","6165af4b36cb3bae91f2e355","fixation","img/fixation.png","null","","test","","","","","",""
"120","329948","pSARL_v2","pSARL_v2xux4msp0","6165af4b36cb3bae91f2e355","infreq","img/green_2bandit_b2.png","70","68","test","0","162","162","8","",""
"null","330694","pSARL_v2","pSARL_v2xux4msp0","6165af4b36cb3bae91f2e355","infreq_resp","img/green_2bandit_b.png","70","68","test","","","","8","",""
"null","330853","pSARL_v2","pSARL_v2xux4msp0","6165af4b36cb3bae91f2e355","fixation","img/fixation.png","null","","test","","","","","",""
"458","331314","pSARL_v2","pSARL_v2xux4msp0","6165af4b36cb3bae91f2e355","freq","img/orange_2bandit_b2.png","70","70","test","1","163","163","8","",""
"null","331673","pSARL_v2","pSARL_v2xux4msp0","6165af4b36cb3bae91f2e355","freq_resp","img/orange_2bandit_b.png","70","70","test","","","","8","",""
"null","331829","pSARL_v2","pSARL_v2xux4msp0","6165af4b36cb3bae91f2e355","fixation","img/fixation.png","null","","test","","","","","",""
"426","332258","pSARL_v2","pSARL_v2xux4msp0","6165af4b36cb3bae91f2e355","freq","img/orange_2bandit_b2.png","70","70","test","1","164","164","8","",""
"null","332651","pSARL_v2","pSARL_v2xux4msp0","6165af4b36cb3bae91f2e355","freq_resp","img/orange_2bandit_b.png","70","70","test","","","","8","",""
"null","332809","pSARL_v2","pSARL_v2xux4msp0","6165af4b36cb3bae91f2e355","fixation","img/fixation.png","null","","test","","","","","",""
"309","333123","pSARL_v2","pSARL_v2xux4msp0","6165af4b36cb3bae91f2e355","freq","img/orange_2bandit_b2.png","70","70","test","1","165","165","8","",""
"null","333631","pSARL_v2","pSARL_v2xux4msp0","6165af4b36cb3bae91f2e355","freq_resp","img/orange_2bandit_b.png","70","70","test","","","","8","",""
"null","333790","pSARL_v2","pSARL_v2xux4msp0","6165af4b36cb3bae91f2e355","fixation","img/fixation.png","null","","test","","","","","",""
"330","334122","pSARL_v2","pSARL_v2xux4msp0","6165af4b36cb3bae91f2e355","freq","img/orange_2bandit_b2.png","70","70","test","1","166","166","8","",""
"null","334657","pSARL_v2","pSARL_v2xux4msp0","6165af4b36cb3bae91f2e355","freq_resp","img/orange_2bandit_b.png","70","70","test","","","","8","",""
"null","334815","pSARL_v2","pSARL_v2xux4msp0","6165af4b36cb3bae91f2e355","fixation","img/fixation.png","null","","test","","","","","",""
"129","334947","pSARL_v2","pSARL_v2xux4msp0","6165af4b36cb3bae91f2e355","freq","img/orange_2bandit_b2.png","70","70","test","1","167","167","8","",""
"null","335636","pSARL_v2","pSARL_v2xux4msp0","6165af4b36cb3bae91f2e355","freq_resp","img/orange_2bandit_b.png","70","70","test","","","","8","",""
"null","335793","pSARL_v2","pSARL_v2xux4msp0","6165af4b36cb3bae91f2e355","fixation","img/fixation.png","null","","test","","","","","",""
"302","336099","pSARL_v2","pSARL_v2xux4msp0","6165af4b36cb3bae91f2e355","freq","img/orange_2bandit_b2.png","70","70","test","1","168","168","8","",""
"null","336606","pSARL_v2","pSARL_v2xux4msp0","6165af4b36cb3bae91f2e355","freq_resp","img/orange_2bandit_b.png","70","70","test","","","","8","",""
"null","336764","pSARL_v2","pSARL_v2xux4msp0","6165af4b36cb3bae91f2e355","fixation","img/fixation.png","null","","test","","","","","",""
"172","336942","pSARL_v2","pSARL_v2xux4msp0","6165af4b36cb3bae91f2e355","freq","img/orange_2bandit_b2.png","70","70","test","1","169","169","8","",""
"null","337591","pSARL_v2","pSARL_v2xux4msp0","6165af4b36cb3bae91f2e355","freq_resp","img/orange_2bandit_b.png","70","70","test","","","","8","",""
"null","337745","pSARL_v2","pSARL_v2xux4msp0","6165af4b36cb3bae91f2e355","fixation","img/fixation.png","null","","test","","","","","",""
"358","338108","pSARL_v2","pSARL_v2xux4msp0","6165af4b36cb3bae91f2e355","freq","img/orange_2bandit_b2.png","70","70","test","1","170","170","8","",""
"null","338568","pSARL_v2","pSARL_v2xux4msp0","6165af4b36cb3bae91f2e355","freq_resp","img/orange_2bandit_b.png","70","70","test","","","","8","",""
"null","338726","pSARL_v2","pSARL_v2xux4msp0","6165af4b36cb3bae91f2e355","fixation","img/fixation.png","null","","test","","","","","",""
"401","339131","pSARL_v2","pSARL_v2xux4msp0","6165af4b36cb3bae91f2e355","infreq","img/green_2bandit_b2.png","68","68","test","1","171","171","8","",""
"null","339546","pSARL_v2","pSARL_v2xux4msp0","6165af4b36cb3bae91f2e355","infreq_resp","img/green_2bandit_b.png","68","68","test","","","","8","",""
"null","339704","pSARL_v2","pSARL_v2xux4msp0","6165af4b36cb3bae91f2e355","fixation","img/fixation.png","null","","test","","","","","",""
"335","340043","pSARL_v2","pSARL_v2xux4msp0","6165af4b36cb3bae91f2e355","freq","img/orange_2bandit_b2.png","70","70","test","1","172","172","8","",""
"null","340525","pSARL_v2","pSARL_v2xux4msp0","6165af4b36cb3bae91f2e355","freq_resp","img/orange_2bandit_b.png","70","70","test","","","","8","",""
"null","340682","pSARL_v2","pSARL_v2xux4msp0","6165af4b36cb3bae91f2e355","fixation","img/fixation.png","null","","test","","","","","",""
"293","340980","pSARL_v2","pSARL_v2xux4msp0","6165af4b36cb3bae91f2e355","freq","img/orange_2bandit_b2.png","70","70","test","1","173","173","8","",""
"null","341506","pSARL_v2","pSARL_v2xux4msp0","6165af4b36cb3bae91f2e355","freq_resp","img/orange_2bandit_b.png","70","70","test","","","","8","",""
"null","341661","pSARL_v2","pSARL_v2xux4msp0","6165af4b36cb3bae91f2e355","fixation","img/fixation.png","null","","test","","","","","",""
"147","341812","pSARL_v2","pSARL_v2xux4msp0","6165af4b36cb3bae91f2e355","freq","img/orange_2bandit_b2.png","70","70","test","1","174","174","8","",""
"null","342484","pSARL_v2","pSARL_v2xux4msp0","6165af4b36cb3bae91f2e355","freq_resp","img/orange_2bandit_b.png","70","70","test","","","","8","",""
"null","342639","pSARL_v2","pSARL_v2xux4msp0","6165af4b36cb3bae91f2e355","fixation","img/fixation.png","null","","test","","","","","",""
"121","342764","pSARL_v2","pSARL_v2xux4msp0","6165af4b36cb3bae91f2e355","freq","img/orange_2bandit_b2.png","70","70","test","1","175","175","8","",""
"null","343525","pSARL_v2","pSARL_v2xux4msp0","6165af4b36cb3bae91f2e355","freq_resp","img/orange_2bandit_b.png","70","70","test","","","","8","",""
"null","343680","pSARL_v2","pSARL_v2xux4msp0","6165af4b36cb3bae91f2e355","fixation","img/fixation.png","null","","test","","","","","",""
"328","344012","pSARL_v2","pSARL_v2xux4msp0","6165af4b36cb3bae91f2e355","freq","img/orange_2bandit_b2.png","70","70","test","1","176","176","8","",""
"null","344496","pSARL_v2","pSARL_v2xux4msp0","6165af4b36cb3bae91f2e355","freq_resp","img/orange_2bandit_b.png","70","70","test","","","","8","",""
"null","344652","pSARL_v2","pSARL_v2xux4msp0","6165af4b36cb3bae91f2e355","fixation","img/fixation.png","null","","test","","","","","",""
"293","344949","pSARL_v2","pSARL_v2xux4msp0","6165af4b36cb3bae91f2e355","freq","img/orange_2bandit_b2.png","70","70","test","1","177","177","8","",""
"null","345469","pSARL_v2","pSARL_v2xux4msp0","6165af4b36cb3bae91f2e355","freq_resp","img/orange_2bandit_b.png","70","70","test","","","","8","",""
"null","345626","pSARL_v2","pSARL_v2xux4msp0","6165af4b36cb3bae91f2e355","fixation","img/fixation.png","null","","test","","","","","",""
"278","345909","pSARL_v2","pSARL_v2xux4msp0","6165af4b36cb3bae91f2e355","freq","img/orange_2bandit_b2.png","70","70","test","1","178","178","8","",""
"null","346438","pSARL_v2","pSARL_v2xux4msp0","6165af4b36cb3bae91f2e355","freq_resp","img/orange_2bandit_b.png","70","70","test","","","","8","",""
"null","346597","pSARL_v2","pSARL_v2xux4msp0","6165af4b36cb3bae91f2e355","fixation","img/fixation.png","null","","test","","","","","",""
"203","346804","pSARL_v2","pSARL_v2xux4msp0","6165af4b36cb3bae91f2e355","freq","img/orange_2bandit_b2.png","70","70","test","1","179","179","8","",""
"null","347412","pSARL_v2","pSARL_v2xux4msp0","6165af4b36cb3bae91f2e355","freq_resp","img/orange_2bandit_b.png","70","70","test","","","","8","",""
"null","347569","pSARL_v2","pSARL_v2xux4msp0","6165af4b36cb3bae91f2e355","fixation","img/fixation.png","null","","test","","","","","",""
"360","347934","pSARL_v2","pSARL_v2xux4msp0","6165af4b36cb3bae91f2e355","freq","img/orange_2bandit_b2.png","70","70","test","1","180","180","8","",""
"null","348379","pSARL_v2","pSARL_v2xux4msp0","6165af4b36cb3bae91f2e355","freq_resp","img/orange_2bandit_b.png","70","70","test","","","","8","",""
"null","348540","pSARL_v2","pSARL_v2xux4msp0","6165af4b36cb3bae91f2e355","fixation","img/fixation.png","null","","test","","","","","",""
"271","348813","pSARL_v2","pSARL_v2xux4msp0","6165af4b36cb3bae91f2e355","freq","img/orange_2bandit_b2.png","70","70","test","1","181","181","8","",""
"null","349356","pSARL_v2","pSARL_v2xux4msp0","6165af4b36cb3bae91f2e355","freq_resp","img/orange_2bandit_b.png","70","70","test","","","","8","",""
"null","349514","pSARL_v2","pSARL_v2xux4msp0","6165af4b36cb3bae91f2e355","fixation","img/fixation.png","null","","test","","","","","",""
"143","349661","pSARL_v2","pSARL_v2xux4msp0","6165af4b36cb3bae91f2e355","freq","img/orange_2bandit_b2.png","70","70","test","1","182","182","8","",""
"null","350325","pSARL_v2","pSARL_v2xux4msp0","6165af4b36cb3bae91f2e355","freq_resp","img/orange_2bandit_b.png","70","70","test","","","","8","",""
"null","350484","pSARL_v2","pSARL_v2xux4msp0","6165af4b36cb3bae91f2e355","fixation","img/fixation.png","null","","test","","","","","",""
"284","350774","pSARL_v2","pSARL_v2xux4msp0","6165af4b36cb3bae91f2e355","freq","img/orange_2bandit_b2.png","70","70","test","1","183","183","8","",""
"null","351295","pSARL_v2","pSARL_v2xux4msp0","6165af4b36cb3bae91f2e355","freq_resp","img/orange_2bandit_b.png","70","70","test","","","","8","",""
"null","351455","pSARL_v2","pSARL_v2xux4msp0","6165af4b36cb3bae91f2e355","fixation","img/fixation.png","null","","test","","","","","",""
"539","351996","pSARL_v2","pSARL_v2xux4msp0","6165af4b36cb3bae91f2e355","reward","img/slot.png","74","","test","","","","","",""
"null","352750","pSARL_v2","pSARL_v2xux4msp0","6165af4b36cb3bae91f2e355","points","<div class=""verylowPoints""> -4 </div>","null","na","test","","","","8","-4","7"
"715","353469","pSARL_v2","pSARL_v2xux4msp0","6165af4b36cb3bae91f2e355","freq","img/orange_2bandit_b2.png","70","70","test","1","184","184","9","",""
"null","353559","pSARL_v2","pSARL_v2xux4msp0","6165af4b36cb3bae91f2e355","freq_resp","img/orange_2bandit_b.png","70","70","test","","","","9","",""
"null","353716","pSARL_v2","pSARL_v2xux4msp0","6165af4b36cb3bae91f2e355","fixation","img/fixation.png","null","","test","","","","","",""
"469","354189","pSARL_v2","pSARL_v2xux4msp0","6165af4b36cb3bae91f2e355","freq","img/orange_2bandit_b2.png","70","70","test","1","185","185","9","",""
"null","354537","pSARL_v2","pSARL_v2xux4msp0","6165af4b36cb3bae91f2e355","freq_resp","img/orange_2bandit_b.png","70","70","test","","","","9","",""
"null","354692","pSARL_v2","pSARL_v2xux4msp0","6165af4b36cb3bae91f2e355","fixation","img/fixation.png","null","","test","","","","","",""
"287","354981","pSARL_v2","pSARL_v2xux4msp0","6165af4b36cb3bae91f2e355","freq","img/orange_2bandit_b2.png","70","70","test","1","186","186","9","",""
"null","355514","pSARL_v2","pSARL_v2xux4msp0","6165af4b36cb3bae91f2e355","freq_resp","img/orange_2bandit_b.png","70","70","test","","","","9","",""
"null","355671","pSARL_v2","pSARL_v2xux4msp0","6165af4b36cb3bae91f2e355","fixation","img/fixation.png","null","","test","","","","","",""
"195","355869","pSARL_v2","pSARL_v2xux4msp0","6165af4b36cb3bae91f2e355","freq","img/orange_2bandit_b2.png","70","70","test","1","187","187","9","",""
"null","356479","pSARL_v2","pSARL_v2xux4msp0","6165af4b36cb3bae91f2e355","freq_resp","img/orange_2bandit_b.png","70","70","test","","","","9","",""
"null","356639","pSARL_v2","pSARL_v2xux4msp0","6165af4b36cb3bae91f2e355","fixation","img/fixation.png","null","","test","","","","","",""
"171","356813","pSARL_v2","pSARL_v2xux4msp0","6165af4b36cb3bae91f2e355","infreq","img/green_2bandit_b2.png","70","68","test","0","188","188","9","",""
"null","357459","pSARL_v2","pSARL_v2xux4msp0","6165af4b36cb3bae91f2e355","infreq_resp","img/green_2bandit_b.png","70","68","test","","","","9","",""
"null","357616","pSARL_v2","pSARL_v2xux4msp0","6165af4b36cb3bae91f2e355","fixation","img/fixation.png","null","","test","","","","","",""
"554","358174","pSARL_v2","pSARL_v2xux4msp0","6165af4b36cb3bae91f2e355","freq","img/orange_2bandit_b2.png","70","70","test","1","189","189","9","",""
"null","358424","pSARL_v2","pSARL_v2xux4msp0","6165af4b36cb3bae91f2e355","freq_resp","img/orange_2bandit_b.png","70","70","test","","","","9","",""
"null","358583","pSARL_v2","pSARL_v2xux4msp0","6165af4b36cb3bae91f2e355","fixation","img/fixation.png","null","","test","","","","","",""
"362","358949","pSARL_v2","pSARL_v2xux4msp0","6165af4b36cb3bae91f2e355","infreq","img/green_2bandit_b2.png","68","68","test","1","190","190","9","",""
"null","359403","pSARL_v2","pSARL_v2xux4msp0","6165af4b36cb3bae91f2e355","infreq_resp","img/green_2bandit_b.png","68","68","test","","","","9","",""
"null","359562","pSARL_v2","pSARL_v2xux4msp0","6165af4b36cb3bae91f2e355","fixation","img/fixation.png","null","","test","","","","","",""
"320","359885","pSARL_v2","pSARL_v2xux4msp0","6165af4b36cb3bae91f2e355","freq","img/orange_2bandit_b2.png","70","70","test","1","191","191","9","",""
"null","360382","pSARL_v2","pSARL_v2xux4msp0","6165af4b36cb3bae91f2e355","freq_resp","img/orange_2bandit_b.png","70","70","test","","","","9","",""
"null","360542","pSARL_v2","pSARL_v2xux4msp0","6165af4b36cb3bae91f2e355","fixation","img/fixation.png","null","","test","","","","","",""
"179","360726","pSARL_v2","pSARL_v2xux4msp0","6165af4b36cb3bae91f2e355","freq","img/orange_2bandit_b2.png","70","70","test","1","192","192","9","",""
"null","361358","pSARL_v2","pSARL_v2xux4msp0","6165af4b36cb3bae91f2e355","freq_resp","img/orange_2bandit_b.png","70","70","test","","","","9","",""
"null","361516","pSARL_v2","pSARL_v2xux4msp0","6165af4b36cb3bae91f2e355","fixation","img/fixation.png","null","","test","","","","","",""
"102","361623","pSARL_v2","pSARL_v2xux4msp0","6165af4b36cb3bae91f2e355","freq","img/orange_2bandit_b2.png","70","70","test","1","193","193","9","",""
"null","362326","pSARL_v2","pSARL_v2xux4msp0","6165af4b36cb3bae91f2e355","freq_resp","img/orange_2bandit_b.png","70","70","test","","","","9","",""
"null","362483","pSARL_v2","pSARL_v2xux4msp0","6165af4b36cb3bae91f2e355","fixation","img/fixation.png","null","","test","","","","","",""
"153","362637","pSARL_v2","pSARL_v2xux4msp0","6165af4b36cb3bae91f2e355","freq","img/orange_2bandit_b2.png","70","70","test","1","194","194","9","",""
"null","363372","pSARL_v2","pSARL_v2xux4msp0","6165af4b36cb3bae91f2e355","freq_resp","img/orange_2bandit_b.png","70","70","test","","","","9","",""
"null","363533","pSARL_v2","pSARL_v2xux4msp0","6165af4b36cb3bae91f2e355","fixation","img/fixation.png","null","","test","","","","","",""
"142","363679","pSARL_v2","pSARL_v2xux4msp0","6165af4b36cb3bae91f2e355","freq","img/orange_2bandit_b2.png","70","70","test","1","195","195","9","",""
"null","364351","pSARL_v2","pSARL_v2xux4msp0","6165af4b36cb3bae91f2e355","freq_resp","img/orange_2bandit_b.png","70","70","test","","","","9","",""
"null","364510","pSARL_v2","pSARL_v2xux4msp0","6165af4b36cb3bae91f2e355","fixation","img/fixation.png","null","","test","","","","","",""
"285","364798","pSARL_v2","pSARL_v2xux4msp0","6165af4b36cb3bae91f2e355","freq","img/orange_2bandit_b2.png","70","70","test","1","196","196","9","",""
"null","365392","pSARL_v2","pSARL_v2xux4msp0","6165af4b36cb3bae91f2e355","freq_resp","img/orange_2bandit_b.png","70","70","test","","","","9","",""
"null","365550","pSARL_v2","pSARL_v2xux4msp0","6165af4b36cb3bae91f2e355","fixation","img/fixation.png","null","","test","","","","","",""
"230","365783","pSARL_v2","pSARL_v2xux4msp0","6165af4b36cb3bae91f2e355","freq","img/orange_2bandit_b2.png","70","70","test","1","197","197","9","",""
"null","366359","pSARL_v2","pSARL_v2xux4msp0","6165af4b36cb3bae91f2e355","freq_resp","img/orange_2bandit_b.png","70","70","test","","","","9","",""
"null","366517","pSARL_v2","pSARL_v2xux4msp0","6165af4b36cb3bae91f2e355","fixation","img/fixation.png","null","","test","","","","","",""
"318","366838","pSARL_v2","pSARL_v2xux4msp0","6165af4b36cb3bae91f2e355","freq","img/orange_2bandit_b2.png","70","70","test","1","198","198","9","",""
"null","367337","pSARL_v2","pSARL_v2xux4msp0","6165af4b36cb3bae91f2e355","freq_resp","img/orange_2bandit_b.png","70","70","test","","","","9","",""
"null","367496","pSARL_v2","pSARL_v2xux4msp0","6165af4b36cb3bae91f2e355","fixation","img/fixation.png","null","","test","","","","","",""
"291","367790","pSARL_v2","pSARL_v2xux4msp0","6165af4b36cb3bae91f2e355","freq","img/orange_2bandit_b2.png","70","70","test","1","199","199","9","",""
"null","368304","pSARL_v2","pSARL_v2xux4msp0","6165af4b36cb3bae91f2e355","freq_resp","img/orange_2bandit_b.png","70","70","test","","","","9","",""
"null","368461","pSARL_v2","pSARL_v2xux4msp0","6165af4b36cb3bae91f2e355","fixation","img/fixation.png","null","","test","","","","","",""
"286","368752","pSARL_v2","pSARL_v2xux4msp0","6165af4b36cb3bae91f2e355","freq","img/orange_2bandit_b2.png","70","70","test","1","200","200","9","",""
"null","369272","pSARL_v2","pSARL_v2xux4msp0","6165af4b36cb3bae91f2e355","freq_resp","img/orange_2bandit_b.png","70","70","test","","","","9","",""
"null","369433","pSARL_v2","pSARL_v2xux4msp0","6165af4b36cb3bae91f2e355","fixation","img/fixation.png","null","","test","","","","","",""
"267","369704","pSARL_v2","pSARL_v2xux4msp0","6165af4b36cb3bae91f2e355","freq","img/orange_2bandit_b2.png","70","70","test","1","201","201","9","",""
"null","370255","pSARL_v2","pSARL_v2xux4msp0","6165af4b36cb3bae91f2e355","freq_resp","img/orange_2bandit_b.png","70","70","test","","","","9","",""
"null","370414","pSARL_v2","pSARL_v2xux4msp0","6165af4b36cb3bae91f2e355","fixation","img/fixation.png","null","","test","","","","","",""
"294","370711","pSARL_v2","pSARL_v2xux4msp0","6165af4b36cb3bae91f2e355","freq","img/orange_2bandit_b2.png","70","70","test","1","202","202","9","",""
"null","371221","pSARL_v2","pSARL_v2xux4msp0","6165af4b36cb3bae91f2e355","freq_resp","img/orange_2bandit_b.png","70","70","test","","","","9","",""
"null","371377","pSARL_v2","pSARL_v2xux4msp0","6165af4b36cb3bae91f2e355","fixation","img/fixation.png","null","","test","","","","","",""
"282","371665","pSARL_v2","pSARL_v2xux4msp0","6165af4b36cb3bae91f2e355","freq","img/orange_2bandit_b2.png","70","70","test","1","203","203","9","",""
"null","372202","pSARL_v2","pSARL_v2xux4msp0","6165af4b36cb3bae91f2e355","freq_resp","img/orange_2bandit_b.png","70","70","test","","","","9","",""
"null","372359","pSARL_v2","pSARL_v2xux4msp0","6165af4b36cb3bae91f2e355","fixation","img/fixation.png","null","","test","","","","","",""
"212","372577","pSARL_v2","pSARL_v2xux4msp0","6165af4b36cb3bae91f2e355","infreq","img/green_2bandit_b2.png","70","68","test","0","204","204","9","",""
"null","373184","pSARL_v2","pSARL_v2xux4msp0","6165af4b36cb3bae91f2e355","infreq_resp","img/green_2bandit_b.png","70","68","test","","","","9","",""
"null","373340","pSARL_v2","pSARL_v2xux4msp0","6165af4b36cb3bae91f2e355","fixation","img/fixation.png","null","","test","","","","","",""
"497","373840","pSARL_v2","pSARL_v2xux4msp0","6165af4b36cb3bae91f2e355","freq","img/orange_2bandit_b2.png","70","70","test","1","205","205","9","",""
"null","374147","pSARL_v2","pSARL_v2xux4msp0","6165af4b36cb3bae91f2e355","freq_resp","img/orange_2bandit_b.png","70","70","test","","","","9","",""
"null","374307","pSARL_v2","pSARL_v2xux4msp0","6165af4b36cb3bae91f2e355","fixation","img/fixation.png","null","","test","","","","","",""
"384","374694","pSARL_v2","pSARL_v2xux4msp0","6165af4b36cb3bae91f2e355","freq","img/orange_2bandit_b2.png","70","70","test","1","206","206","9","",""
"null","375117","pSARL_v2","pSARL_v2xux4msp0","6165af4b36cb3bae91f2e355","freq_resp","img/orange_2bandit_b.png","70","70","test","","","","9","",""
"null","375274","pSARL_v2","pSARL_v2xux4msp0","6165af4b36cb3bae91f2e355","fixation","img/fixation.png","null","","test","","","","","",""
"570","375848","pSARL_v2","pSARL_v2xux4msp0","6165af4b36cb3bae91f2e355","reward","img/slot.png","74","","test","","","","","",""
"null","376616","pSARL_v2","pSARL_v2xux4msp0","6165af4b36cb3bae91f2e355","points","<div class=""verylowPoints""> -3 </div>","null","na","test","","","","9","-3","8"
"null","377427","pSARL_v2","pSARL_v2xux4msp0","6165af4b36cb3bae91f2e355","freq","img/orange_2bandit_b2.png","null","70","test","0","207","207","10","",""
"null","377585","pSARL_v2","pSARL_v2xux4msp0","6165af4b36cb3bae91f2e355","fixation","img/fixation.png","null","","test","","","","","",""
"43","377632","pSARL_v2","pSARL_v2xux4msp0","6165af4b36cb3bae91f2e355","freq","img/orange_2bandit_b2.png","70","70","test","1","208","208","10","",""
"null","378407","pSARL_v2","pSARL_v2xux4msp0","6165af4b36cb3bae91f2e355","freq_resp","img/orange_2bandit_b.png","70","70","test","","","","10","",""
"null","378569","pSARL_v2","pSARL_v2xux4msp0","6165af4b36cb3bae91f2e355","fixation","img/fixation.png","null","","test","","","","","",""
"283","378856","pSARL_v2","pSARL_v2xux4msp0","6165af4b36cb3bae91f2e355","freq","img/orange_2bandit_b2.png","70","70","test","1","209","209","10","",""
"null","379392","pSARL_v2","pSARL_v2xux4msp0","6165af4b36cb3bae91f2e355","freq_resp","img/orange_2bandit_b.png","70","70","test","","","","10","",""
"null","379549","pSARL_v2","pSARL_v2xux4msp0","6165af4b36cb3bae91f2e355","fixation","img/fixation.png","null","","test","","","","","",""
"231","379784","pSARL_v2","pSARL_v2xux4msp0","6165af4b36cb3bae91f2e355","freq","img/orange_2bandit_b2.png","70","70","test","1","210","210","10","",""
"null","380371","pSARL_v2","pSARL_v2xux4msp0","6165af4b36cb3bae91f2e355","freq_resp","img/orange_2bandit_b.png","70","70","test","","","","10","",""
"null","380530","pSARL_v2","pSARL_v2xux4msp0","6165af4b36cb3bae91f2e355","fixation","img/fixation.png","null","","test","","","","","",""
"242","380776","pSARL_v2","pSARL_v2xux4msp0","6165af4b36cb3bae91f2e355","freq","img/orange_2bandit_b2.png","70","70","test","1","211","211","10","",""
"null","381352","pSARL_v2","pSARL_v2xux4msp0","6165af4b36cb3bae91f2e355","freq_resp","img/orange_2bandit_b.png","70","70","test","","","","10","",""
"null","381509","pSARL_v2","pSARL_v2xux4msp0","6165af4b36cb3bae91f2e355","fixation","img/fixation.png","null","","test","","","","","",""
"294","381808","pSARL_v2","pSARL_v2xux4msp0","6165af4b36cb3bae91f2e355","freq","img/orange_2bandit_b2.png","70","70","test","1","212","212","10","",""
"null","382380","pSARL_v2","pSARL_v2xux4msp0","6165af4b36cb3bae91f2e355","freq_resp","img/orange_2bandit_b.png","70","70","test","","","","10","",""
"null","382540","pSARL_v2","pSARL_v2xux4msp0","6165af4b36cb3bae91f2e355","fixation","img/fixation.png","null","","test","","","","","",""
"276","382819","pSARL_v2","pSARL_v2xux4msp0","6165af4b36cb3bae91f2e355","freq","img/orange_2bandit_b2.png","70","70","test","1","213","213","10","",""
