"rt","time_elapsed","expId","subject","prolificID","trialType","stimulus","key_press","corrresp","phase","corr","trialNum","attentionRunNum","blockNum","points","rlNum"
"26680.900000095367","26687","pSARL_v2","pSARL_v28dvb6hr0","63bc819194ca25a555eb8fb5","","","","","","","","","","",""
"","31181","pSARL_v2","pSARL_v28dvb6hr0","63bc819194ca25a555eb8fb5","fullscreen","","","","","","","","","",""
"93611.09999990463","124805","pSARL_v2","pSARL_v28dvb6hr0","63bc819194ca25a555eb8fb5","","","","","","","","","","",""
"null","125624","pSARL_v2","pSARL_v28dvb6hr0","63bc819194ca25a555eb8fb5","freqPrac","img/green_2bandit_b2.png","null","70","prac","0","","","","",""
"null","126641","pSARL_v2","pSARL_v28dvb6hr0","63bc819194ca25a555eb8fb5","feedback","img/tooSlow.png","null","na","prac","","","","","",""
"null","126813","pSARL_v2","pSARL_v28dvb6hr0","63bc819194ca25a555eb8fb5","fixation","img/fixation.png","null","","prac","","","","","",""
"719.2999999523163","127544","pSARL_v2","pSARL_v28dvb6hr0","63bc819194ca25a555eb8fb5","infreqPrac","img/orange_2bandit_b2.png","68","68","prac","1","","","","",""
"719.2999999523163","127632","pSARL_v2","pSARL_v28dvb6hr0","63bc819194ca25a555eb8fb5","infreqPrac_resp","img/orange_2bandit_b.png","68","68","prac","","","","","",""
"null","127793","pSARL_v2","pSARL_v28dvb6hr0","63bc819194ca25a555eb8fb5","fixation","img/fixation.png","null","","prac","","","","","",""
"645.2999999523163","128447","pSARL_v2","pSARL_v28dvb6hr0","63bc819194ca25a555eb8fb5","freqPrac","img/green_2bandit_b2.png","70","70","prac","1","","","","",""
"645.2999999523163","128618","pSARL_v2","pSARL_v28dvb6hr0","63bc819194ca25a555eb8fb5","freqPrac_resp","img/green_2bandit_b.png","70","70","prac","","","","","",""
"null","128792","pSARL_v2","pSARL_v28dvb6hr0","63bc819194ca25a555eb8fb5","fixation","img/fixation.png","null","","prac","","","","","",""
"544.9000000953674","129347","pSARL_v2","pSARL_v28dvb6hr0","63bc819194ca25a555eb8fb5","infreqPrac","img/orange_2bandit_b2.png","68","68","prac","1","","","","",""
"544.9000000953674","129613","pSARL_v2","pSARL_v28dvb6hr0","63bc819194ca25a555eb8fb5","infreqPrac_resp","img/orange_2bandit_b.png","68","68","prac","","","","","",""
"null","129788","pSARL_v2","pSARL_v28dvb6hr0","63bc819194ca25a555eb8fb5","fixation","img/fixation.png","null","","prac","","","","","",""
"475","130272","pSARL_v2","pSARL_v28dvb6hr0","63bc819194ca25a555eb8fb5","infreqPrac","img/orange_2bandit_b2.png","68","68","prac","1","","","","",""
"475","130612","pSARL_v2","pSARL_v28dvb6hr0","63bc819194ca25a555eb8fb5","infreqPrac_resp","img/orange_2bandit_b.png","68","68","prac","","","","","",""
"null","130774","pSARL_v2","pSARL_v28dvb6hr0","63bc819194ca25a555eb8fb5","fixation","img/fixation.png","null","","prac","","","","","",""
"440.59999990463257","131224","pSARL_v2","pSARL_v28dvb6hr0","63bc819194ca25a555eb8fb5","infreqPrac","img/orange_2bandit_b2.png","68","68","prac","1","","","","",""
"440.59999990463257","131593","pSARL_v2","pSARL_v28dvb6hr0","63bc819194ca25a555eb8fb5","infreqPrac_resp","img/orange_2bandit_b.png","68","68","prac","","","","","",""
"null","131764","pSARL_v2","pSARL_v28dvb6hr0","63bc819194ca25a555eb8fb5","fixation","img/fixation.png","null","","prac","","","","","",""
"538.4000000953674","132312","pSARL_v2","pSARL_v28dvb6hr0","63bc819194ca25a555eb8fb5","freqPrac","img/green_2bandit_b2.png","70","70","prac","1","","","","",""
"538.4000000953674","132592","pSARL_v2","pSARL_v28dvb6hr0","63bc819194ca25a555eb8fb5","freqPrac_resp","img/green_2bandit_b.png","70","70","prac","","","","","",""
"null","132765","pSARL_v2","pSARL_v28dvb6hr0","63bc819194ca25a555eb8fb5","fixation","img/fixation.png","null","","prac","","","","","",""
"500.39999985694885","133275","pSARL_v2","pSARL_v28dvb6hr0","63bc819194ca25a555eb8fb5","infreqPrac","img/orange_2bandit_b2.png","68","68","prac","1","","","","",""
"500.39999985694885","133584","pSARL_v2","pSARL_v28dvb6hr0","63bc819194ca25a555eb8fb5","infreqPrac_resp","img/orange_2bandit_b.png","68","68","prac","","","","","",""
"null","133743","pSARL_v2","pSARL_v28dvb6hr0","63bc819194ca25a555eb8fb5","fixation","img/fixation.png","null","","prac","","","","","",""
"470.60000014305115","134223","pSARL_v2","pSARL_v28dvb6hr0","63bc819194ca25a555eb8fb5","freqPrac","img/green_2bandit_b2.png","70","70","prac","1","","","","",""
"470.60000014305115","134570","pSARL_v2","pSARL_v28dvb6hr0","63bc819194ca25a555eb8fb5","freqPrac_resp","img/green_2bandit_b.png","70","70","prac","","","","","",""
"null","134728","pSARL_v2","pSARL_v28dvb6hr0","63bc819194ca25a555eb8fb5","fixation","img/fixation.png","null","","prac","","","","","",""
"521.3999998569489","135258","pSARL_v2","pSARL_v28dvb6hr0","63bc819194ca25a555eb8fb5","freqPrac","img/green_2bandit_b2.png","70","70","prac","1","","","","",""
"521.3999998569489","135560","pSARL_v2","pSARL_v28dvb6hr0","63bc819194ca25a555eb8fb5","freqPrac_resp","img/green_2bandit_b.png","70","70","prac","","","","","",""
"null","135727","pSARL_v2","pSARL_v28dvb6hr0","63bc819194ca25a555eb8fb5","fixation","img/fixation.png","null","","prac","","","","","",""
"29100.299999952316","164837","pSARL_v2","pSARL_v28dvb6hr0","63bc819194ca25a555eb8fb5","","","","","prac","","","","","",""
"795.4000000953674","165642","pSARL_v2","pSARL_v28dvb6hr0","63bc819194ca25a555eb8fb5","rewardPractice","img/slot.png","74","","prac","","","","","",""
"null","166402","pSARL_v2","pSARL_v28dvb6hr0","63bc819194ca25a555eb8fb5","feedback","<div class=""veryhighPoints""> +15 </div>","null","na","prac","","","","","",""
"null","166575","pSARL_v2","pSARL_v28dvb6hr0","63bc819194ca25a555eb8fb5","fixation","img/fixation.png","null","","prac","","","","","",""
"22894.299999952316","189477","pSARL_v2","pSARL_v28dvb6hr0","63bc819194ca25a555eb8fb5","","","","","prac","","","","","",""
"803.2000000476837","190291","pSARL_v2","pSARL_v28dvb6hr0","63bc819194ca25a555eb8fb5","freq","img/green_2bandit_b2.png","70","70","test","1","1","1","1","",""
"null","190458","pSARL_v2","pSARL_v28dvb6hr0","63bc819194ca25a555eb8fb5","fixation","img/fixation.png","null","","test","","","","","",""
"465.59999990463257","190933","pSARL_v2","pSARL_v28dvb6hr0","63bc819194ca25a555eb8fb5","freq","img/green_2bandit_b2.png","70","70","test","1","2","2","1","",""
"null","191280","pSARL_v2","pSARL_v28dvb6hr0","63bc819194ca25a555eb8fb5","freq_resp","img/green_2bandit_b.png","70","70","test","","","","1","",""
"null","191452","pSARL_v2","pSARL_v28dvb6hr0","63bc819194ca25a555eb8fb5","fixation","img/fixation.png","null","","test","","","","","",""
"507.89999985694885","191970","pSARL_v2","pSARL_v28dvb6hr0","63bc819194ca25a555eb8fb5","freq","img/green_2bandit_b2.png","70","70","test","1","3","3","1","",""
"null","192287","pSARL_v2","pSARL_v28dvb6hr0","63bc819194ca25a555eb8fb5","freq_resp","img/green_2bandit_b.png","70","70","test","","","","1","",""
"null","192458","pSARL_v2","pSARL_v28dvb6hr0","63bc819194ca25a555eb8fb5","fixation","img/fixation.png","null","","test","","","","","",""
"691.7000000476837","193159","pSARL_v2","pSARL_v28dvb6hr0","63bc819194ca25a555eb8fb5","freq","img/green_2bandit_b2.png","70","70","test","1","4","4","1","",""
"null","193290","pSARL_v2","pSARL_v28dvb6hr0","63bc819194ca25a555eb8fb5","freq_resp","img/green_2bandit_b.png","70","70","test","","","","1","",""
"null","193461","pSARL_v2","pSARL_v28dvb6hr0","63bc819194ca25a555eb8fb5","fixation","img/fixation.png","null","","test","","","","","",""
"538.9000000953674","194008","pSARL_v2","pSARL_v28dvb6hr0","63bc819194ca25a555eb8fb5","freq","img/green_2bandit_b2.png","70","70","test","1","5","5","1","",""
"null","194288","pSARL_v2","pSARL_v28dvb6hr0","63bc819194ca25a555eb8fb5","freq_resp","img/green_2bandit_b.png","70","70","test","","","","1","",""
"null","194461","pSARL_v2","pSARL_v28dvb6hr0","63bc819194ca25a555eb8fb5","fixation","img/fixation.png","null","","test","","","","","",""
"404.39999985694885","194875","pSARL_v2","pSARL_v28dvb6hr0","63bc819194ca25a555eb8fb5","freq","img/green_2bandit_b2.png","70","70","test","1","6","6","1","",""
"null","195284","pSARL_v2","pSARL_v28dvb6hr0","63bc819194ca25a555eb8fb5","freq_resp","img/green_2bandit_b.png","70","70","test","","","","1","",""
"null","195458","pSARL_v2","pSARL_v28dvb6hr0","63bc819194ca25a555eb8fb5","fixation","img/fixation.png","null","","test","","","","","",""
"384.39999985694885","195852","pSARL_v2","pSARL_v28dvb6hr0","63bc819194ca25a555eb8fb5","freq","img/green_2bandit_b2.png","70","70","test","1","7","7","1","",""
"null","196281","pSARL_v2","pSARL_v28dvb6hr0","63bc819194ca25a555eb8fb5","freq_resp","img/green_2bandit_b.png","70","70","test","","","","1","",""
"null","196453","pSARL_v2","pSARL_v28dvb6hr0","63bc819194ca25a555eb8fb5","fixation","img/fixation.png","null","","test","","","","","",""
"534.7000000476837","196997","pSARL_v2","pSARL_v28dvb6hr0","63bc819194ca25a555eb8fb5","infreq","img/orange_2bandit_b2.png","68","68","test","1","8","8","1","",""
"null","197286","pSARL_v2","pSARL_v28dvb6hr0","63bc819194ca25a555eb8fb5","infreq_resp","img/orange_2bandit_b.png","68","68","test","","","","1","",""
"null","197447","pSARL_v2","pSARL_v28dvb6hr0","63bc819194ca25a555eb8fb5","fixation","img/fixation.png","null","","test","","","","","",""
"650","198106","pSARL_v2","pSARL_v28dvb6hr0","63bc819194ca25a555eb8fb5","freq","img/green_2bandit_b2.png","70","70","test","1","9","9","1","",""
"null","198278","pSARL_v2","pSARL_v28dvb6hr0","63bc819194ca25a555eb8fb5","freq_resp","img/green_2bandit_b.png","70","70","test","","","","1","",""
"null","198450","pSARL_v2","pSARL_v28dvb6hr0","63bc819194ca25a555eb8fb5","fixation","img/fixation.png","null","","test","","","","","",""
"428.7000000476837","198888","pSARL_v2","pSARL_v28dvb6hr0","63bc819194ca25a555eb8fb5","freq","img/green_2bandit_b2.png","70","70","test","1","10","10","1","",""
"null","199276","pSARL_v2","pSARL_v28dvb6hr0","63bc819194ca25a555eb8fb5","freq_resp","img/green_2bandit_b.png","70","70","test","","","","1","",""
"null","199436","pSARL_v2","pSARL_v28dvb6hr0","63bc819194ca25a555eb8fb5","fixation","img/fixation.png","null","","test","","","","","",""
"384.2999999523163","199830","pSARL_v2","pSARL_v28dvb6hr0","63bc819194ca25a555eb8fb5","freq","img/green_2bandit_b2.png","70","70","test","1","11","11","1","",""
"null","200269","pSARL_v2","pSARL_v28dvb6hr0","63bc819194ca25a555eb8fb5","freq_resp","img/green_2bandit_b.png","70","70","test","","","","1","",""
"null","200430","pSARL_v2","pSARL_v28dvb6hr0","63bc819194ca25a555eb8fb5","fixation","img/fixation.png","null","","test","","","","","",""
"393","200833","pSARL_v2","pSARL_v28dvb6hr0","63bc819194ca25a555eb8fb5","freq","img/green_2bandit_b2.png","70","70","test","1","12","12","1","",""
"null","201264","pSARL_v2","pSARL_v28dvb6hr0","63bc819194ca25a555eb8fb5","freq_resp","img/green_2bandit_b.png","70","70","test","","","","1","",""
"null","201426","pSARL_v2","pSARL_v28dvb6hr0","63bc819194ca25a555eb8fb5","fixation","img/fixation.png","null","","test","","","","","",""
"378.2000000476837","201814","pSARL_v2","pSARL_v28dvb6hr0","63bc819194ca25a555eb8fb5","freq","img/green_2bandit_b2.png","70","70","test","1","13","13","1","",""
"null","202246","pSARL_v2","pSARL_v28dvb6hr0","63bc819194ca25a555eb8fb5","freq_resp","img/green_2bandit_b.png","70","70","test","","","","1","",""
"null","202421","pSARL_v2","pSARL_v28dvb6hr0","63bc819194ca25a555eb8fb5","fixation","img/fixation.png","null","","test","","","","","",""
"358.89999985694885","202789","pSARL_v2","pSARL_v28dvb6hr0","63bc819194ca25a555eb8fb5","freq","img/green_2bandit_b2.png","70","70","test","1","14","14","1","",""
"null","203240","pSARL_v2","pSARL_v28dvb6hr0","63bc819194ca25a555eb8fb5","freq_resp","img/green_2bandit_b.png","70","70","test","","","","1","",""
"null","203399","pSARL_v2","pSARL_v28dvb6hr0","63bc819194ca25a555eb8fb5","fixation","img/fixation.png","null","","test","","","","","",""
"399.10000014305115","203808","pSARL_v2","pSARL_v28dvb6hr0","63bc819194ca25a555eb8fb5","freq","img/green_2bandit_b2.png","70","70","test","1","15","15","1","",""
"null","204222","pSARL_v2","pSARL_v28dvb6hr0","63bc819194ca25a555eb8fb5","freq_resp","img/green_2bandit_b.png","70","70","test","","","","1","",""
"null","204394","pSARL_v2","pSARL_v28dvb6hr0","63bc819194ca25a555eb8fb5","fixation","img/fixation.png","null","","test","","","","","",""
"460.39999985694885","204863","pSARL_v2","pSARL_v28dvb6hr0","63bc819194ca25a555eb8fb5","freq","img/green_2bandit_b2.png","70","70","test","1","16","16","1","",""
"null","205220","pSARL_v2","pSARL_v28dvb6hr0","63bc819194ca25a555eb8fb5","freq_resp","img/green_2bandit_b.png","70","70","test","","","","1","",""
"null","205394","pSARL_v2","pSARL_v28dvb6hr0","63bc819194ca25a555eb8fb5","fixation","img/fixation.png","null","","test","","","","","",""
"366.60000014305115","205770","pSARL_v2","pSARL_v28dvb6hr0","63bc819194ca25a555eb8fb5","freq","img/green_2bandit_b2.png","70","70","test","1","17","17","1","",""
"null","206220","pSARL_v2","pSARL_v28dvb6hr0","63bc819194ca25a555eb8fb5","freq_resp","img/green_2bandit_b.png","70","70","test","","","","1","",""
"null","206391","pSARL_v2","pSARL_v28dvb6hr0","63bc819194ca25a555eb8fb5","fixation","img/fixation.png","null","","test","","","","","",""
"335.5","206735","pSARL_v2","pSARL_v28dvb6hr0","63bc819194ca25a555eb8fb5","freq","img/green_2bandit_b2.png","70","70","test","1","18","18","1","",""
"null","207221","pSARL_v2","pSARL_v28dvb6hr0","63bc819194ca25a555eb8fb5","freq_resp","img/green_2bandit_b.png","70","70","test","","","","1","",""
"null","207394","pSARL_v2","pSARL_v28dvb6hr0","63bc819194ca25a555eb8fb5","fixation","img/fixation.png","null","","test","","","","","",""
"329","207733","pSARL_v2","pSARL_v28dvb6hr0","63bc819194ca25a555eb8fb5","freq","img/green_2bandit_b2.png","70","70","test","1","19","19","1","",""
"null","208229","pSARL_v2","pSARL_v28dvb6hr0","63bc819194ca25a555eb8fb5","freq_resp","img/green_2bandit_b.png","70","70","test","","","","1","",""
"null","208402","pSARL_v2","pSARL_v28dvb6hr0","63bc819194ca25a555eb8fb5","fixation","img/fixation.png","null","","test","","","","","",""
"469.5","208881","pSARL_v2","pSARL_v28dvb6hr0","63bc819194ca25a555eb8fb5","freq","img/green_2bandit_b2.png","70","70","test","1","20","20","1","",""
"null","209235","pSARL_v2","pSARL_v28dvb6hr0","63bc819194ca25a555eb8fb5","freq_resp","img/green_2bandit_b.png","70","70","test","","","","1","",""
"null","209410","pSARL_v2","pSARL_v28dvb6hr0","63bc819194ca25a555eb8fb5","fixation","img/fixation.png","null","","test","","","","","",""
"373.09999990463257","209792","pSARL_v2","pSARL_v28dvb6hr0","63bc819194ca25a555eb8fb5","freq","img/green_2bandit_b2.png","70","70","test","1","21","21","1","",""
"null","210243","pSARL_v2","pSARL_v28dvb6hr0","63bc819194ca25a555eb8fb5","freq_resp","img/green_2bandit_b.png","70","70","test","","","","1","",""
"null","210413","pSARL_v2","pSARL_v28dvb6hr0","63bc819194ca25a555eb8fb5","fixation","img/fixation.png","null","","test","","","","","",""
"332.90000009536743","210756","pSARL_v2","pSARL_v28dvb6hr0","63bc819194ca25a555eb8fb5","freq","img/green_2bandit_b2.png","70","70","test","1","22","22","1","",""
"null","211243","pSARL_v2","pSARL_v28dvb6hr0","63bc819194ca25a555eb8fb5","freq_resp","img/green_2bandit_b.png","70","70","test","","","","1","",""
"null","211413","pSARL_v2","pSARL_v28dvb6hr0","63bc819194ca25a555eb8fb5","fixation","img/fixation.png","null","","test","","","","","",""
"340","211762","pSARL_v2","pSARL_v28dvb6hr0","63bc819194ca25a555eb8fb5","infreq","img/orange_2bandit_b2.png","70","68","test","0","23","23","1","",""
"null","212241","pSARL_v2","pSARL_v28dvb6hr0","63bc819194ca25a555eb8fb5","infreq_resp","img/orange_2bandit_b.png","70","68","test","","","","1","",""
"null","212411","pSARL_v2","pSARL_v28dvb6hr0","63bc819194ca25a555eb8fb5","fixation","img/fixation.png","null","","test","","","","","",""
"602.1000001430511","213020","pSARL_v2","pSARL_v28dvb6hr0","63bc819194ca25a555eb8fb5","freq","img/green_2bandit_b2.png","70","70","test","1","24","24","1","",""
"null","213237","pSARL_v2","pSARL_v28dvb6hr0","63bc819194ca25a555eb8fb5","freq_resp","img/green_2bandit_b.png","70","70","test","","","","1","",""
"null","213411","pSARL_v2","pSARL_v28dvb6hr0","63bc819194ca25a555eb8fb5","fixation","img/fixation.png","null","","test","","","","","",""
"416.39999985694885","213837","pSARL_v2","pSARL_v28dvb6hr0","63bc819194ca25a555eb8fb5","freq","img/green_2bandit_b2.png","70","70","test","1","25","25","1","",""
"null","214237","pSARL_v2","pSARL_v28dvb6hr0","63bc819194ca25a555eb8fb5","freq_resp","img/green_2bandit_b.png","70","70","test","","","","1","",""
"null","214407","pSARL_v2","pSARL_v28dvb6hr0","63bc819194ca25a555eb8fb5","fixation","img/fixation.png","null","","test","","","","","",""
"347.40000009536743","214765","pSARL_v2","pSARL_v28dvb6hr0","63bc819194ca25a555eb8fb5","freq","img/green_2bandit_b2.png","70","70","test","1","26","26","1","",""
"null","215231","pSARL_v2","pSARL_v28dvb6hr0","63bc819194ca25a555eb8fb5","freq_resp","img/green_2bandit_b.png","70","70","test","","","","1","",""
"null","215388","pSARL_v2","pSARL_v28dvb6hr0","63bc819194ca25a555eb8fb5","fixation","img/fixation.png","null","","test","","","","","",""
"665.7999999523163","216059","pSARL_v2","pSARL_v28dvb6hr0","63bc819194ca25a555eb8fb5","reward","img/slot.png","74","","test","","","","","",""
"null","216820","pSARL_v2","pSARL_v28dvb6hr0","63bc819194ca25a555eb8fb5","points","<div class=""verylowPoints""> -6 </div>","null","na","test","","","","1","-6","0"
"null","217645","pSARL_v2","pSARL_v28dvb6hr0","63bc819194ca25a555eb8fb5","freq","img/green_2bandit_b2.png","null","70","test","0","27","27","2","",""
"null","217817","pSARL_v2","pSARL_v28dvb6hr0","63bc819194ca25a555eb8fb5","fixation","img/fixation.png","null","","test","","","","","",""
"290.2999999523163","218117","pSARL_v2","pSARL_v28dvb6hr0","63bc819194ca25a555eb8fb5","freq","img/green_2bandit_b2.png","70","70","test","1","28","28","2","",""
"null","218646","pSARL_v2","pSARL_v28dvb6hr0","63bc819194ca25a555eb8fb5","freq_resp","img/green_2bandit_b.png","70","70","test","","","","2","",""
"null","218818","pSARL_v2","pSARL_v28dvb6hr0","63bc819194ca25a555eb8fb5","fixation","img/fixation.png","null","","test","","","","","",""
"158.30000019073486","218986","pSARL_v2","pSARL_v28dvb6hr0","63bc819194ca25a555eb8fb5","freq","img/green_2bandit_b2.png","70","70","test","1","29","29","2","",""
"null","219650","pSARL_v2","pSARL_v28dvb6hr0","63bc819194ca25a555eb8fb5","freq_resp","img/green_2bandit_b.png","70","70","test","","","","2","",""
"null","219810","pSARL_v2","pSARL_v28dvb6hr0","63bc819194ca25a555eb8fb5","fixation","img/fixation.png","null","","test","","","","","",""
"154.19999980926514","219974","pSARL_v2","pSARL_v28dvb6hr0","63bc819194ca25a555eb8fb5","infreq","img/orange_2bandit_b2.png","70","68","test","0","30","30","2","",""
"null","220644","pSARL_v2","pSARL_v28dvb6hr0","63bc819194ca25a555eb8fb5","infreq_resp","img/orange_2bandit_b.png","70","68","test","","","","2","",""
"null","220813","pSARL_v2","pSARL_v28dvb6hr0","63bc819194ca25a555eb8fb5","fixation","img/fixation.png","null","","test","","","","","",""
"615.5","221438","pSARL_v2","pSARL_v28dvb6hr0","63bc819194ca25a555eb8fb5","freq","img/green_2bandit_b2.png","70","70","test","1","31","31","2","",""
"null","221633","pSARL_v2","pSARL_v28dvb6hr0","63bc819194ca25a555eb8fb5","freq_resp","img/green_2bandit_b.png","70","70","test","","","","2","",""
"null","221794","pSARL_v2","pSARL_v28dvb6hr0","63bc819194ca25a555eb8fb5","fixation","img/fixation.png","null","","test","","","","","",""
"630.7999999523163","222433","pSARL_v2","pSARL_v28dvb6hr0","63bc819194ca25a555eb8fb5","freq","img/green_2bandit_b2.png","70","70","test","1","32","32","2","",""
"null","222619","pSARL_v2","pSARL_v28dvb6hr0","63bc819194ca25a555eb8fb5","freq_resp","img/green_2bandit_b.png","70","70","test","","","","2","",""
"null","222791","pSARL_v2","pSARL_v28dvb6hr0","63bc819194ca25a555eb8fb5","fixation","img/fixation.png","null","","test","","","","","",""
"485.10000014305115","223286","pSARL_v2","pSARL_v28dvb6hr0","63bc819194ca25a555eb8fb5","freq","img/green_2bandit_b2.png","70","70","test","1","33","33","2","",""
"null","223610","pSARL_v2","pSARL_v28dvb6hr0","63bc819194ca25a555eb8fb5","freq_resp","img/green_2bandit_b.png","70","70","test","","","","2","",""
"null","223770","pSARL_v2","pSARL_v28dvb6hr0","63bc819194ca25a555eb8fb5","fixation","img/fixation.png","null","","test","","","","","",""
"490.80000019073486","224271","pSARL_v2","pSARL_v28dvb6hr0","63bc819194ca25a555eb8fb5","infreq","img/orange_2bandit_b2.png","68","68","test","1","34","34","2","",""
"null","224592","pSARL_v2","pSARL_v28dvb6hr0","63bc819194ca25a555eb8fb5","infreq_resp","img/orange_2bandit_b.png","68","68","test","","","","2","",""
"null","224763","pSARL_v2","pSARL_v28dvb6hr0","63bc819194ca25a555eb8fb5","fixation","img/fixation.png","null","","test","","","","","",""
"431.7000000476837","225205","pSARL_v2","pSARL_v28dvb6hr0","63bc819194ca25a555eb8fb5","freq","img/green_2bandit_b2.png","70","70","test","1","35","35","2","",""
"null","225592","pSARL_v2","pSARL_v28dvb6hr0","63bc819194ca25a555eb8fb5","freq_resp","img/green_2bandit_b.png","70","70","test","","","","2","",""
"null","225761","pSARL_v2","pSARL_v28dvb6hr0","63bc819194ca25a555eb8fb5","fixation","img/fixation.png","null","","test","","","","","",""
"381.7999999523163","226154","pSARL_v2","pSARL_v28dvb6hr0","63bc819194ca25a555eb8fb5","freq","img/green_2bandit_b2.png","70","70","test","1","36","36","2","",""
"null","226597","pSARL_v2","pSARL_v28dvb6hr0","63bc819194ca25a555eb8fb5","freq_resp","img/green_2bandit_b.png","70","70","test","","","","2","",""
"null","226767","pSARL_v2","pSARL_v28dvb6hr0","63bc819194ca25a555eb8fb5","fixation","img/fixation.png","null","","test","","","","","",""
"411.60000014305115","227188","pSARL_v2","pSARL_v28dvb6hr0","63bc819194ca25a555eb8fb5","freq","img/green_2bandit_b2.png","70","70","test","1","37","37","2","",""
"null","227592","pSARL_v2","pSARL_v28dvb6hr0","63bc819194ca25a555eb8fb5","freq_resp","img/green_2bandit_b.png","70","70","test","","","","2","",""
"null","227752","pSARL_v2","pSARL_v28dvb6hr0","63bc819194ca25a555eb8fb5","fixation","img/fixation.png","null","","test","","","","","",""
"376.39999985694885","228138","pSARL_v2","pSARL_v28dvb6hr0","63bc819194ca25a555eb8fb5","freq","img/green_2bandit_b2.png","70","70","test","1","38","38","2","",""
"null","228573","pSARL_v2","pSARL_v28dvb6hr0","63bc819194ca25a555eb8fb5","freq_resp","img/green_2bandit_b.png","70","70","test","","","","2","",""
"null","228733","pSARL_v2","pSARL_v28dvb6hr0","63bc819194ca25a555eb8fb5","fixation","img/fixation.png","null","","test","","","","","",""
"382.7000000476837","229125","pSARL_v2","pSARL_v28dvb6hr0","63bc819194ca25a555eb8fb5","freq","img/green_2bandit_b2.png","70","70","test","1","39","39","2","",""
"null","229560","pSARL_v2","pSARL_v28dvb6hr0","63bc819194ca25a555eb8fb5","freq_resp","img/green_2bandit_b.png","70","70","test","","","","2","",""
"null","229732","pSARL_v2","pSARL_v28dvb6hr0","63bc819194ca25a555eb8fb5","fixation","img/fixation.png","null","","test","","","","","",""
"354.5","230096","pSARL_v2","pSARL_v28dvb6hr0","63bc819194ca25a555eb8fb5","freq","img/green_2bandit_b2.png","70","70","test","1","40","40","2","",""
"null","230564","pSARL_v2","pSARL_v28dvb6hr0","63bc819194ca25a555eb8fb5","freq_resp","img/green_2bandit_b.png","70","70","test","","","","2","",""
"null","230735","pSARL_v2","pSARL_v28dvb6hr0","63bc819194ca25a555eb8fb5","fixation","img/fixation.png","null","","test","","","","","",""
"369.7999999523163","231114","pSARL_v2","pSARL_v28dvb6hr0","63bc819194ca25a555eb8fb5","freq","img/green_2bandit_b2.png","70","70","test","1","41","41","2","",""
"null","231558","pSARL_v2","pSARL_v28dvb6hr0","63bc819194ca25a555eb8fb5","freq_resp","img/green_2bandit_b.png","70","70","test","","","","2","",""
"null","231730","pSARL_v2","pSARL_v28dvb6hr0","63bc819194ca25a555eb8fb5","fixation","img/fixation.png","null","","test","","","","","",""
"377.40000009536743","232117","pSARL_v2","pSARL_v28dvb6hr0","63bc819194ca25a555eb8fb5","freq","img/green_2bandit_b2.png","70","70","test","1","42","42","2","",""
"null","232554","pSARL_v2","pSARL_v28dvb6hr0","63bc819194ca25a555eb8fb5","freq_resp","img/green_2bandit_b.png","70","70","test","","","","2","",""
"null","232715","pSARL_v2","pSARL_v28dvb6hr0","63bc819194ca25a555eb8fb5","fixation","img/fixation.png","null","","test","","","","","",""
"356.59999990463257","233080","pSARL_v2","pSARL_v28dvb6hr0","63bc819194ca25a555eb8fb5","freq","img/green_2bandit_b2.png","70","70","test","1","43","43","2","",""
"null","233533","pSARL_v2","pSARL_v28dvb6hr0","63bc819194ca25a555eb8fb5","freq_resp","img/green_2bandit_b.png","70","70","test","","","","2","",""
"null","233695","pSARL_v2","pSARL_v28dvb6hr0","63bc819194ca25a555eb8fb5","fixation","img/fixation.png","null","","test","","","","","",""
"361.7999999523163","234066","pSARL_v2","pSARL_v28dvb6hr0","63bc819194ca25a555eb8fb5","freq","img/green_2bandit_b2.png","70","70","test","1","44","44","2","",""
"null","234524","pSARL_v2","pSARL_v28dvb6hr0","63bc819194ca25a555eb8fb5","freq_resp","img/green_2bandit_b.png","70","70","test","","","","2","",""
"null","234694","pSARL_v2","pSARL_v28dvb6hr0","63bc819194ca25a555eb8fb5","fixation","img/fixation.png","null","","test","","","","","",""
"338","235042","pSARL_v2","pSARL_v28dvb6hr0","63bc819194ca25a555eb8fb5","freq","img/green_2bandit_b2.png","70","70","test","1","45","45","2","",""
"null","235526","pSARL_v2","pSARL_v28dvb6hr0","63bc819194ca25a555eb8fb5","freq_resp","img/green_2bandit_b.png","70","70","test","","","","2","",""
"null","235697","pSARL_v2","pSARL_v28dvb6hr0","63bc819194ca25a555eb8fb5","fixation","img/fixation.png","null","","test","","","","","",""
"405.40000009536743","236113","pSARL_v2","pSARL_v28dvb6hr0","63bc819194ca25a555eb8fb5","freq","img/green_2bandit_b2.png","70","70","test","1","46","46","2","",""
"null","236525","pSARL_v2","pSARL_v28dvb6hr0","63bc819194ca25a555eb8fb5","freq_resp","img/green_2bandit_b.png","70","70","test","","","","2","",""
"null","236698","pSARL_v2","pSARL_v28dvb6hr0","63bc819194ca25a555eb8fb5","fixation","img/fixation.png","null","","test","","","","","",""
"317.10000014305115","237025","pSARL_v2","pSARL_v28dvb6hr0","63bc819194ca25a555eb8fb5","freq","img/green_2bandit_b2.png","70","70","test","1","47","47","2","",""
"null","237524","pSARL_v2","pSARL_v28dvb6hr0","63bc819194ca25a555eb8fb5","freq_resp","img/green_2bandit_b.png","70","70","test","","","","2","",""
"null","237686","pSARL_v2","pSARL_v28dvb6hr0","63bc819194ca25a555eb8fb5","fixation","img/fixation.png","null","","test","","","","","",""
"298.19999980926514","237993","pSARL_v2","pSARL_v28dvb6hr0","63bc819194ca25a555eb8fb5","freq","img/green_2bandit_b2.png","70","70","test","1","48","48","2","",""
"null","238512","pSARL_v2","pSARL_v28dvb6hr0","63bc819194ca25a555eb8fb5","freq_resp","img/green_2bandit_b.png","70","70","test","","","","2","",""
"null","238683","pSARL_v2","pSARL_v28dvb6hr0","63bc819194ca25a555eb8fb5","fixation","img/fixation.png","null","","test","","","","","",""
"666.2999999523163","239359","pSARL_v2","pSARL_v28dvb6hr0","63bc819194ca25a555eb8fb5","reward","img/slot.png","74","","test","","","","","",""
"null","240133","pSARL_v2","pSARL_v28dvb6hr0","63bc819194ca25a555eb8fb5","points","<div class=""verylowPoints""> -11 </div>","null","na","test","","","","2","-11","1"
"619.3999998569489","240763","pSARL_v2","pSARL_v28dvb6hr0","63bc819194ca25a555eb8fb5","freq","img/green_2bandit_b2.png","70","70","test","1","49","49","3","",""
"null","240954","pSARL_v2","pSARL_v28dvb6hr0","63bc819194ca25a555eb8fb5","freq_resp","img/green_2bandit_b.png","70","70","test","","","","3","",""
"null","241117","pSARL_v2","pSARL_v28dvb6hr0","63bc819194ca25a555eb8fb5","fixation","img/fixation.png","null","","test","","","","","",""
"381.90000009536743","241509","pSARL_v2","pSARL_v28dvb6hr0","63bc819194ca25a555eb8fb5","freq","img/green_2bandit_b2.png","70","70","test","1","50","50","3","",""
"null","241948","pSARL_v2","pSARL_v28dvb6hr0","63bc819194ca25a555eb8fb5","freq_resp","img/green_2bandit_b.png","70","70","test","","","","3","",""
"null","242117","pSARL_v2","pSARL_v28dvb6hr0","63bc819194ca25a555eb8fb5","fixation","img/fixation.png","null","","test","","","","","",""
"346.89999985694885","242474","pSARL_v2","pSARL_v28dvb6hr0","63bc819194ca25a555eb8fb5","freq","img/green_2bandit_b2.png","70","70","test","1","51","51","3","",""
"null","242944","pSARL_v2","pSARL_v28dvb6hr0","63bc819194ca25a555eb8fb5","freq_resp","img/green_2bandit_b.png","70","70","test","","","","3","",""
"null","243106","pSARL_v2","pSARL_v28dvb6hr0","63bc819194ca25a555eb8fb5","fixation","img/fixation.png","null","","test","","","","","",""
"334.39999985694885","243449","pSARL_v2","pSARL_v28dvb6hr0","63bc819194ca25a555eb8fb5","freq","img/green_2bandit_b2.png","70","70","test","1","52","52","3","",""
"null","243935","pSARL_v2","pSARL_v28dvb6hr0","63bc819194ca25a555eb8fb5","freq_resp","img/green_2bandit_b.png","70","70","test","","","","3","",""
"null","244097","pSARL_v2","pSARL_v28dvb6hr0","63bc819194ca25a555eb8fb5","fixation","img/fixation.png","null","","test","","","","","",""
"259.2999999523163","244366","pSARL_v2","pSARL_v28dvb6hr0","63bc819194ca25a555eb8fb5","freq","img/green_2bandit_b2.png","70","70","test","1","53","53","3","",""
"null","244923","pSARL_v2","pSARL_v28dvb6hr0","63bc819194ca25a555eb8fb5","freq_resp","img/green_2bandit_b.png","70","70","test","","","","3","",""
"null","245095","pSARL_v2","pSARL_v28dvb6hr0","63bc819194ca25a555eb8fb5","fixation","img/fixation.png","null","","test","","","","","",""
"283.2000000476837","245388","pSARL_v2","pSARL_v28dvb6hr0","63bc819194ca25a555eb8fb5","freq","img/green_2bandit_b2.png","70","70","test","1","54","54","3","",""
"null","245925","pSARL_v2","pSARL_v28dvb6hr0","63bc819194ca25a555eb8fb5","freq_resp","img/green_2bandit_b.png","70","70","test","","","","3","",""
"null","246097","pSARL_v2","pSARL_v28dvb6hr0","63bc819194ca25a555eb8fb5","fixation","img/fixation.png","null","","test","","","","","",""
"195.19999980926514","246302","pSARL_v2","pSARL_v28dvb6hr0","63bc819194ca25a555eb8fb5","infreq","img/orange_2bandit_b2.png","70","68","test","0","55","55","3","",""
"null","246921","pSARL_v2","pSARL_v28dvb6hr0","63bc819194ca25a555eb8fb5","infreq_resp","img/orange_2bandit_b.png","70","68","test","","","","3","",""
"null","247094","pSARL_v2","pSARL_v28dvb6hr0","63bc819194ca25a555eb8fb5","fixation","img/fixation.png","null","","test","","","","","",""
"417.90000009536743","247522","pSARL_v2","pSARL_v28dvb6hr0","63bc819194ca25a555eb8fb5","freq","img/green_2bandit_b2.png","70","70","test","1","56","56","3","",""
"null","247926","pSARL_v2","pSARL_v28dvb6hr0","63bc819194ca25a555eb8fb5","freq_resp","img/green_2bandit_b.png","70","70","test","","","","3","",""
"null","248100","pSARL_v2","pSARL_v28dvb6hr0","63bc819194ca25a555eb8fb5","fixation","img/fixation.png","null","","test","","","","","",""
"372.7000000476837","248479","pSARL_v2","pSARL_v28dvb6hr0","63bc819194ca25a555eb8fb5","freq","img/green_2bandit_b2.png","70","70","test","1","57","57","3","",""
"null","248927","pSARL_v2","pSARL_v28dvb6hr0","63bc819194ca25a555eb8fb5","freq_resp","img/green_2bandit_b.png","70","70","test","","","","3","",""
"null","249099","pSARL_v2","pSARL_v28dvb6hr0","63bc819194ca25a555eb8fb5","fixation","img/fixation.png","null","","test","","","","","",""
"315.89999985694885","249424","pSARL_v2","pSARL_v28dvb6hr0","63bc819194ca25a555eb8fb5","freq","img/green_2bandit_b2.png","70","70","test","1","58","58","3","",""
"null","249927","pSARL_v2","pSARL_v28dvb6hr0","63bc819194ca25a555eb8fb5","freq_resp","img/green_2bandit_b.png","70","70","test","","","","3","",""
"null","250100","pSARL_v2","pSARL_v28dvb6hr0","63bc819194ca25a555eb8fb5","fixation","img/fixation.png","null","","test","","","","","",""
"540.5","250650","pSARL_v2","pSARL_v28dvb6hr0","63bc819194ca25a555eb8fb5","infreq","img/orange_2bandit_b2.png","68","68","test","1","59","59","3","",""
"null","250922","pSARL_v2","pSARL_v28dvb6hr0","63bc819194ca25a555eb8fb5","infreq_resp","img/orange_2bandit_b.png","68","68","test","","","","3","",""
"null","251095","pSARL_v2","pSARL_v28dvb6hr0","63bc819194ca25a555eb8fb5","fixation","img/fixation.png","null","","test","","","","","",""
"486.7000000476837","251592","pSARL_v2","pSARL_v28dvb6hr0","63bc819194ca25a555eb8fb5","freq","img/green_2bandit_b2.png","70","70","test","1","60","60","3","",""
"null","251921","pSARL_v2","pSARL_v28dvb6hr0","63bc819194ca25a555eb8fb5","freq_resp","img/green_2bandit_b.png","70","70","test","","","","3","",""
"null","252092","pSARL_v2","pSARL_v28dvb6hr0","63bc819194ca25a555eb8fb5","fixation","img/fixation.png","null","","test","","","","","",""
"628.2999999523163","252729","pSARL_v2","pSARL_v28dvb6hr0","63bc819194ca25a555eb8fb5","freq","img/green_2bandit_b2.png","70","70","test","1","61","61","3","",""
"null","252922","pSARL_v2","pSARL_v28dvb6hr0","63bc819194ca25a555eb8fb5","freq_resp","img/green_2bandit_b.png","70","70","test","","","","3","",""
"null","253081","pSARL_v2","pSARL_v28dvb6hr0","63bc819194ca25a555eb8fb5","fixation","img/fixation.png","null","","test","","","","","",""
"475.2000000476837","253562","pSARL_v2","pSARL_v28dvb6hr0","63bc819194ca25a555eb8fb5","freq","img/green_2bandit_b2.png","70","70","test","1","62","62","3","",""
"null","253898","pSARL_v2","pSARL_v28dvb6hr0","63bc819194ca25a555eb8fb5","freq_resp","img/green_2bandit_b.png","70","70","test","","","","3","",""
"null","254070","pSARL_v2","pSARL_v28dvb6hr0","63bc819194ca25a555eb8fb5","fixation","img/fixation.png","null","","test","","","","","",""
"458.09999990463257","254537","pSARL_v2","pSARL_v28dvb6hr0","63bc819194ca25a555eb8fb5","freq","img/green_2bandit_b2.png","70","70","test","1","63","63","3","",""
"null","254896","pSARL_v2","pSARL_v28dvb6hr0","63bc819194ca25a555eb8fb5","freq_resp","img/green_2bandit_b.png","70","70","test","","","","3","",""
"null","255066","pSARL_v2","pSARL_v28dvb6hr0","63bc819194ca25a555eb8fb5","fixation","img/fixation.png","null","","test","","","","","",""
"437","255513","pSARL_v2","pSARL_v28dvb6hr0","63bc819194ca25a555eb8fb5","freq","img/green_2bandit_b2.png","70","70","test","1","64","64","3","",""
"null","255896","pSARL_v2","pSARL_v28dvb6hr0","63bc819194ca25a555eb8fb5","freq_resp","img/green_2bandit_b.png","70","70","test","","","","3","",""
"null","256068","pSARL_v2","pSARL_v28dvb6hr0","63bc819194ca25a555eb8fb5","fixation","img/fixation.png","null","","test","","","","","",""
"487.60000014305115","256566","pSARL_v2","pSARL_v28dvb6hr0","63bc819194ca25a555eb8fb5","freq","img/green_2bandit_b2.png","70","70","test","1","65","65","3","",""
"null","256891","pSARL_v2","pSARL_v28dvb6hr0","63bc819194ca25a555eb8fb5","freq_resp","img/green_2bandit_b.png","70","70","test","","","","3","",""
"null","257061","pSARL_v2","pSARL_v28dvb6hr0","63bc819194ca25a555eb8fb5","fixation","img/fixation.png","null","","test","","","","","",""
"428.69999980926514","257499","pSARL_v2","pSARL_v28dvb6hr0","63bc819194ca25a555eb8fb5","freq","img/green_2bandit_b2.png","70","70","test","1","66","66","3","",""
"null","257883","pSARL_v2","pSARL_v28dvb6hr0","63bc819194ca25a555eb8fb5","freq_resp","img/green_2bandit_b.png","70","70","test","","","","3","",""
"null","258053","pSARL_v2","pSARL_v28dvb6hr0","63bc819194ca25a555eb8fb5","fixation","img/fixation.png","null","","test","","","","","",""
"452.2999999523163","258515","pSARL_v2","pSARL_v28dvb6hr0","63bc819194ca25a555eb8fb5","freq","img/green_2bandit_b2.png","70","70","test","1","67","67","3","",""
"null","258883","pSARL_v2","pSARL_v28dvb6hr0","63bc819194ca25a555eb8fb5","freq_resp","img/green_2bandit_b.png","70","70","test","","","","3","",""
"null","259054","pSARL_v2","pSARL_v28dvb6hr0","63bc819194ca25a555eb8fb5","fixation","img/fixation.png","null","","test","","","","","",""
"460","259523","pSARL_v2","pSARL_v28dvb6hr0","63bc819194ca25a555eb8fb5","freq","img/green_2bandit_b2.png","70","70","test","1","68","68","3","",""
"null","259874","pSARL_v2","pSARL_v28dvb6hr0","63bc819194ca25a555eb8fb5","freq_resp","img/green_2bandit_b.png","70","70","test","","","","3","",""
"null","260037","pSARL_v2","pSARL_v28dvb6hr0","63bc819194ca25a555eb8fb5","fixation","img/fixation.png","null","","test","","","","","",""
"507.39999985694885","260555","pSARL_v2","pSARL_v28dvb6hr0","63bc819194ca25a555eb8fb5","freq","img/green_2bandit_b2.png","70","70","test","1","69","69","3","",""
"null","260871","pSARL_v2","pSARL_v28dvb6hr0","63bc819194ca25a555eb8fb5","freq_resp","img/green_2bandit_b.png","70","70","test","","","","3","",""
"null","261033","pSARL_v2","pSARL_v28dvb6hr0","63bc819194ca25a555eb8fb5","fixation","img/fixation.png","null","","test","","","","","",""
"426.2000000476837","261466","pSARL_v2","pSARL_v28dvb6hr0","63bc819194ca25a555eb8fb5","freq","img/green_2bandit_b2.png","70","70","test","1","70","70","3","",""
"null","261853","pSARL_v2","pSARL_v28dvb6hr0","63bc819194ca25a555eb8fb5","freq_resp","img/green_2bandit_b.png","70","70","test","","","","3","",""
"null","262022","pSARL_v2","pSARL_v28dvb6hr0","63bc819194ca25a555eb8fb5","fixation","img/fixation.png","null","","test","","","","","",""
"378.7999999523163","262411","pSARL_v2","pSARL_v28dvb6hr0","63bc819194ca25a555eb8fb5","freq","img/green_2bandit_b2.png","70","70","test","1","71","71","3","",""
"null","262856","pSARL_v2","pSARL_v28dvb6hr0","63bc819194ca25a555eb8fb5","freq_resp","img/green_2bandit_b.png","70","70","test","","","","3","",""
"null","263026","pSARL_v2","pSARL_v28dvb6hr0","63bc819194ca25a555eb8fb5","fixation","img/fixation.png","null","","test","","","","","",""
"607","263642","pSARL_v2","pSARL_v28dvb6hr0","63bc819194ca25a555eb8fb5","reward","img/slot.png","74","","test","","","","","",""
"null","264411","pSARL_v2","pSARL_v28dvb6hr0","63bc819194ca25a555eb8fb5","points","<div class=""verylowPoints""> -7 </div>","null","na","test","","","","3","-7","2"
"568.0999999046326","264989","pSARL_v2","pSARL_v28dvb6hr0","63bc819194ca25a555eb8fb5","freq","img/green_2bandit_b2.png","70","70","test","1","72","72","4","",""
"null","265241","pSARL_v2","pSARL_v28dvb6hr0","63bc819194ca25a555eb8fb5","freq_resp","img/green_2bandit_b.png","70","70","test","","","","4","",""
"null","265416","pSARL_v2","pSARL_v28dvb6hr0","63bc819194ca25a555eb8fb5","fixation","img/fixation.png","null","","test","","","","","",""
"366.59999990463257","265792","pSARL_v2","pSARL_v28dvb6hr0","63bc819194ca25a555eb8fb5","freq","img/green_2bandit_b2.png","70","70","test","1","73","73","4","",""
"null","266242","pSARL_v2","pSARL_v28dvb6hr0","63bc819194ca25a555eb8fb5","freq_resp","img/green_2bandit_b.png","70","70","test","","","","4","",""
"null","266411","pSARL_v2","pSARL_v28dvb6hr0","63bc819194ca25a555eb8fb5","fixation","img/fixation.png","null","","test","","","","","",""
"390","266811","pSARL_v2","pSARL_v28dvb6hr0","63bc819194ca25a555eb8fb5","freq","img/green_2bandit_b2.png","70","70","test","1","74","74","4","",""
"null","267234","pSARL_v2","pSARL_v28dvb6hr0","63bc819194ca25a555eb8fb5","freq_resp","img/green_2bandit_b.png","70","70","test","","","","4","",""
"null","267408","pSARL_v2","pSARL_v28dvb6hr0","63bc819194ca25a555eb8fb5","fixation","img/fixation.png","null","","test","","","","","",""
"393.5","267811","pSARL_v2","pSARL_v28dvb6hr0","63bc819194ca25a555eb8fb5","freq","img/green_2bandit_b2.png","70","70","test","1","75","75","4","",""
"null","268239","pSARL_v2","pSARL_v28dvb6hr0","63bc819194ca25a555eb8fb5","freq_resp","img/green_2bandit_b.png","70","70","test","","","","4","",""
"null","268411","pSARL_v2","pSARL_v28dvb6hr0","63bc819194ca25a555eb8fb5","fixation","img/fixation.png","null","","test","","","","","",""
"387.7999999523163","268808","pSARL_v2","pSARL_v28dvb6hr0","63bc819194ca25a555eb8fb5","freq","img/green_2bandit_b2.png","70","70","test","1","76","76","4","",""
"null","269236","pSARL_v2","pSARL_v28dvb6hr0","63bc819194ca25a555eb8fb5","freq_resp","img/green_2bandit_b.png","70","70","test","","","","4","",""
"null","269409","pSARL_v2","pSARL_v28dvb6hr0","63bc819194ca25a555eb8fb5","fixation","img/fixation.png","null","","test","","","","","",""
"400.60000014305115","269819","pSARL_v2","pSARL_v28dvb6hr0","63bc819194ca25a555eb8fb5","freq","img/green_2bandit_b2.png","70","70","test","1","77","77","4","",""
"null","270240","pSARL_v2","pSARL_v28dvb6hr0","63bc819194ca25a555eb8fb5","freq_resp","img/green_2bandit_b.png","70","70","test","","","","4","",""
"null","270412","pSARL_v2","pSARL_v28dvb6hr0","63bc819194ca25a555eb8fb5","fixation","img/fixation.png","null","","test","","","","","",""
"356.7999999523163","270779","pSARL_v2","pSARL_v28dvb6hr0","63bc819194ca25a555eb8fb5","freq","img/green_2bandit_b2.png","70","70","test","1","78","78","4","",""
"null","271243","pSARL_v2","pSARL_v28dvb6hr0","63bc819194ca25a555eb8fb5","freq_resp","img/green_2bandit_b.png","70","70","test","","","","4","",""
"null","271418","pSARL_v2","pSARL_v28dvb6hr0","63bc819194ca25a555eb8fb5","fixation","img/fixation.png","null","","test","","","","","",""
"351.09999990463257","271778","pSARL_v2","pSARL_v28dvb6hr0","63bc819194ca25a555eb8fb5","freq","img/green_2bandit_b2.png","70","70","test","1","79","79","4","",""
"null","272242","pSARL_v2","pSARL_v28dvb6hr0","63bc819194ca25a555eb8fb5","freq_resp","img/green_2bandit_b.png","70","70","test","","","","4","",""
"null","272404","pSARL_v2","pSARL_v28dvb6hr0","63bc819194ca25a555eb8fb5","fixation","img/fixation.png","null","","test","","","","","",""
"422.59999990463257","272837","pSARL_v2","pSARL_v28dvb6hr0","63bc819194ca25a555eb8fb5","infreq","img/orange_2bandit_b2.png","68","68","test","1","80","80","4","",""
"null","273225","pSARL_v2","pSARL_v28dvb6hr0","63bc819194ca25a555eb8fb5","infreq_resp","img/orange_2bandit_b.png","68","68","test","","","","4","",""
"null","273385","pSARL_v2","pSARL_v28dvb6hr0","63bc819194ca25a555eb8fb5","fixation","img/fixation.png","null","","test","","","","","",""
"485.2999999523163","273880","pSARL_v2","pSARL_v28dvb6hr0","63bc819194ca25a555eb8fb5","freq","img/green_2bandit_b2.png","70","70","test","1","81","81","4","",""
"null","274210","pSARL_v2","pSARL_v28dvb6hr0","63bc819194ca25a555eb8fb5","freq_resp","img/green_2bandit_b.png","70","70","test","","","","4","",""
"null","274370","pSARL_v2","pSARL_v28dvb6hr0","63bc819194ca25a555eb8fb5","fixation","img/fixation.png","null","","test","","","","","",""
"384.2000000476837","274765","pSARL_v2","pSARL_v28dvb6hr0","63bc819194ca25a555eb8fb5","freq","img/green_2bandit_b2.png","70","70","test","1","82","82","4","",""
"null","275198","pSARL_v2","pSARL_v28dvb6hr0","63bc819194ca25a555eb8fb5","freq_resp","img/green_2bandit_b.png","70","70","test","","","","4","",""
"null","275373","pSARL_v2","pSARL_v28dvb6hr0","63bc819194ca25a555eb8fb5","fixation","img/fixation.png","null","","test","","","","","",""
"360.40000009536743","275743","pSARL_v2","pSARL_v28dvb6hr0","63bc819194ca25a555eb8fb5","freq","img/green_2bandit_b2.png","70","70","test","1","83","83","4","",""
"null","276205","pSARL_v2","pSARL_v28dvb6hr0","63bc819194ca25a555eb8fb5","freq_resp","img/green_2bandit_b.png","70","70","test","","","","4","",""
"null","276366","pSARL_v2","pSARL_v28dvb6hr0","63bc819194ca25a555eb8fb5","fixation","img/fixation.png","null","","test","","","","","",""
"364.60000014305115","276740","pSARL_v2","pSARL_v28dvb6hr0","63bc819194ca25a555eb8fb5","freq","img/green_2bandit_b2.png","70","70","test","1","84","84","4","",""
"null","277190","pSARL_v2","pSARL_v28dvb6hr0","63bc819194ca25a555eb8fb5","freq_resp","img/green_2bandit_b.png","70","70","test","","","","4","",""
"null","277348","pSARL_v2","pSARL_v28dvb6hr0","63bc819194ca25a555eb8fb5","fixation","img/fixation.png","null","","test","","","","","",""
"337.7000000476837","277694","pSARL_v2","pSARL_v28dvb6hr0","63bc819194ca25a555eb8fb5","freq","img/green_2bandit_b2.png","70","70","test","1","85","85","4","",""
"null","278181","pSARL_v2","pSARL_v28dvb6hr0","63bc819194ca25a555eb8fb5","freq_resp","img/green_2bandit_b.png","70","70","test","","","","4","",""
"null","278343","pSARL_v2","pSARL_v28dvb6hr0","63bc819194ca25a555eb8fb5","fixation","img/fixation.png","null","","test","","","","","",""
"386.60000014305115","278739","pSARL_v2","pSARL_v28dvb6hr0","63bc819194ca25a555eb8fb5","freq","img/green_2bandit_b2.png","70","70","test","1","86","86","4","",""
"null","279168","pSARL_v2","pSARL_v28dvb6hr0","63bc819194ca25a555eb8fb5","freq_resp","img/green_2bandit_b.png","70","70","test","","","","4","",""
"null","279339","pSARL_v2","pSARL_v28dvb6hr0","63bc819194ca25a555eb8fb5","fixation","img/fixation.png","null","","test","","","","","",""
"511.7999999523163","279860","pSARL_v2","pSARL_v28dvb6hr0","63bc819194ca25a555eb8fb5","infreq","img/orange_2bandit_b2.png","68","68","test","1","87","87","4","",""
"null","280158","pSARL_v2","pSARL_v28dvb6hr0","63bc819194ca25a555eb8fb5","infreq_resp","img/orange_2bandit_b.png","68","68","test","","","","4","",""
"null","280332","pSARL_v2","pSARL_v28dvb6hr0","63bc819194ca25a555eb8fb5","fixation","img/fixation.png","null","","test","","","","","",""
"374.59999990463257","280717","pSARL_v2","pSARL_v28dvb6hr0","63bc819194ca25a555eb8fb5","freq","img/green_2bandit_b2.png","70","70","test","1","88","88","4","",""
"null","281167","pSARL_v2","pSARL_v28dvb6hr0","63bc819194ca25a555eb8fb5","freq_resp","img/green_2bandit_b.png","70","70","test","","","","4","",""
"null","281328","pSARL_v2","pSARL_v28dvb6hr0","63bc819194ca25a555eb8fb5","fixation","img/fixation.png","null","","test","","","","","",""
"408.39999985694885","281746","pSARL_v2","pSARL_v28dvb6hr0","63bc819194ca25a555eb8fb5","freq","img/green_2bandit_b2.png","70","70","test","1","89","89","4","",""
"null","282153","pSARL_v2","pSARL_v28dvb6hr0","63bc819194ca25a555eb8fb5","freq_resp","img/green_2bandit_b.png","70","70","test","","","","4","",""
"null","282315","pSARL_v2","pSARL_v28dvb6hr0","63bc819194ca25a555eb8fb5","fixation","img/fixation.png","null","","test","","","","","",""
"346.5","282671","pSARL_v2","pSARL_v28dvb6hr0","63bc819194ca25a555eb8fb5","freq","img/green_2bandit_b2.png","70","70","test","1","90","90","4","",""
"null","283137","pSARL_v2","pSARL_v28dvb6hr0","63bc819194ca25a555eb8fb5","freq_resp","img/green_2bandit_b.png","70","70","test","","","","4","",""
"null","283309","pSARL_v2","pSARL_v28dvb6hr0","63bc819194ca25a555eb8fb5","fixation","img/fixation.png","null","","test","","","","","",""
"601.4000000953674","283920","pSARL_v2","pSARL_v28dvb6hr0","63bc819194ca25a555eb8fb5","reward","img/slot.png","74","","test","","","","","",""
"null","284687","pSARL_v2","pSARL_v28dvb6hr0","63bc819194ca25a555eb8fb5","points","<div class=""verylowPoints""> -3 </div>","null","na","test","","","","4","-3","3"
"678.5999999046326","285375","pSARL_v2","pSARL_v28dvb6hr0","63bc819194ca25a555eb8fb5","freq","img/green_2bandit_b2.png","70","70","test","1","91","91","5","",""
"null","285507","pSARL_v2","pSARL_v28dvb6hr0","63bc819194ca25a555eb8fb5","freq_resp","img/green_2bandit_b.png","70","70","test","","","","5","",""
"null","285679","pSARL_v2","pSARL_v28dvb6hr0","63bc819194ca25a555eb8fb5","fixation","img/fixation.png","null","","test","","","","","",""
"431.2000000476837","286120","pSARL_v2","pSARL_v28dvb6hr0","63bc819194ca25a555eb8fb5","freq","img/green_2bandit_b2.png","70","70","test","1","92","92","5","",""
"null","286511","pSARL_v2","pSARL_v28dvb6hr0","63bc819194ca25a555eb8fb5","freq_resp","img/green_2bandit_b.png","70","70","test","","","","5","",""
"null","286673","pSARL_v2","pSARL_v28dvb6hr0","63bc819194ca25a555eb8fb5","fixation","img/fixation.png","null","","test","","","","","",""
"348.80000019073486","287032","pSARL_v2","pSARL_v28dvb6hr0","63bc819194ca25a555eb8fb5","freq","img/green_2bandit_b2.png","70","70","test","1","93","93","5","",""
"null","287494","pSARL_v2","pSARL_v28dvb6hr0","63bc819194ca25a555eb8fb5","freq_resp","img/green_2bandit_b.png","70","70","test","","","","5","",""
"null","287665","pSARL_v2","pSARL_v28dvb6hr0","63bc819194ca25a555eb8fb5","fixation","img/fixation.png","null","","test","","","","","",""
"394.2000000476837","288069","pSARL_v2","pSARL_v28dvb6hr0","63bc819194ca25a555eb8fb5","freq","img/green_2bandit_b2.png","70","70","test","1","94","94","5","",""
"null","288498","pSARL_v2","pSARL_v28dvb6hr0","63bc819194ca25a555eb8fb5","freq_resp","img/green_2bandit_b.png","70","70","test","","","","5","",""
"null","288668","pSARL_v2","pSARL_v28dvb6hr0","63bc819194ca25a555eb8fb5","fixation","img/fixation.png","null","","test","","","","","",""
"398.10000014305115","289076","pSARL_v2","pSARL_v28dvb6hr0","63bc819194ca25a555eb8fb5","freq","img/green_2bandit_b2.png","70","70","test","1","95","95","5","",""
"null","289493","pSARL_v2","pSARL_v28dvb6hr0","63bc819194ca25a555eb8fb5","freq_resp","img/green_2bandit_b.png","70","70","test","","","","5","",""
"null","289664","pSARL_v2","pSARL_v28dvb6hr0","63bc819194ca25a555eb8fb5","fixation","img/fixation.png","null","","test","","","","","",""
"421.19999980926514","290095","pSARL_v2","pSARL_v28dvb6hr0","63bc819194ca25a555eb8fb5","freq","img/green_2bandit_b2.png","70","70","test","1","96","96","5","",""
"null","290493","pSARL_v2","pSARL_v28dvb6hr0","63bc819194ca25a555eb8fb5","freq_resp","img/green_2bandit_b.png","70","70","test","","","","5","",""
"null","290664","pSARL_v2","pSARL_v28dvb6hr0","63bc819194ca25a555eb8fb5","fixation","img/fixation.png","null","","test","","","","","",""
"428.90000009536743","291103","pSARL_v2","pSARL_v28dvb6hr0","63bc819194ca25a555eb8fb5","freq","img/green_2bandit_b2.png","70","70","test","1","97","97","5","",""
"null","291494","pSARL_v2","pSARL_v28dvb6hr0","63bc819194ca25a555eb8fb5","freq_resp","img/green_2bandit_b.png","70","70","test","","","","5","",""
"null","291653","pSARL_v2","pSARL_v28dvb6hr0","63bc819194ca25a555eb8fb5","fixation","img/fixation.png","null","","test","","","","","",""
"397.09999990463257","292059","pSARL_v2","pSARL_v28dvb6hr0","63bc819194ca25a555eb8fb5","freq","img/green_2bandit_b2.png","70","70","test","1","98","98","5","",""
"null","292485","pSARL_v2","pSARL_v28dvb6hr0","63bc819194ca25a555eb8fb5","freq_resp","img/green_2bandit_b.png","70","70","test","","","","5","",""
"null","292656","pSARL_v2","pSARL_v28dvb6hr0","63bc819194ca25a555eb8fb5","fixation","img/fixation.png","null","","test","","","","","",""
"515.3999998569489","293180","pSARL_v2","pSARL_v28dvb6hr0","63bc819194ca25a555eb8fb5","freq","img/green_2bandit_b2.png","70","70","test","1","99","99","5","",""
"null","293483","pSARL_v2","pSARL_v28dvb6hr0","63bc819194ca25a555eb8fb5","freq_resp","img/green_2bandit_b.png","70","70","test","","","","5","",""
"null","293652","pSARL_v2","pSARL_v28dvb6hr0","63bc819194ca25a555eb8fb5","fixation","img/fixation.png","null","","test","","","","","",""
"410.2999999523163","294071","pSARL_v2","pSARL_v28dvb6hr0","63bc819194ca25a555eb8fb5","freq","img/green_2bandit_b2.png","70","70","test","1","100","100","5","",""
"null","294480","pSARL_v2","pSARL_v28dvb6hr0","63bc819194ca25a555eb8fb5","freq_resp","img/green_2bandit_b.png","70","70","test","","","","5","",""
"null","294640","pSARL_v2","pSARL_v28dvb6hr0","63bc819194ca25a555eb8fb5","fixation","img/fixation.png","null","","test","","","","","",""
"416.09999990463257","295066","pSARL_v2","pSARL_v28dvb6hr0","63bc819194ca25a555eb8fb5","freq","img/green_2bandit_b2.png","70","70","test","1","101","101","5","",""
"null","295474","pSARL_v2","pSARL_v28dvb6hr0","63bc819194ca25a555eb8fb5","freq_resp","img/green_2bandit_b.png","70","70","test","","","","5","",""
"null","295647","pSARL_v2","pSARL_v28dvb6hr0","63bc819194ca25a555eb8fb5","fixation","img/fixation.png","null","","test","","","","","",""
"373.90000009536743","296030","pSARL_v2","pSARL_v28dvb6hr0","63bc819194ca25a555eb8fb5","freq","img/green_2bandit_b2.png","70","70","test","1","102","102","5","",""
"null","296474","pSARL_v2","pSARL_v28dvb6hr0","63bc819194ca25a555eb8fb5","freq_resp","img/green_2bandit_b.png","70","70","test","","","","5","",""
"null","296635","pSARL_v2","pSARL_v28dvb6hr0","63bc819194ca25a555eb8fb5","fixation","img/fixation.png","null","","test","","","","","",""
"533.1999998092651","297178","pSARL_v2","pSARL_v28dvb6hr0","63bc819194ca25a555eb8fb5","infreq","img/orange_2bandit_b2.png","68","68","test","1","103","103","5","",""
"null","297457","pSARL_v2","pSARL_v28dvb6hr0","63bc819194ca25a555eb8fb5","infreq_resp","img/orange_2bandit_b.png","68","68","test","","","","5","",""
"null","297628","pSARL_v2","pSARL_v28dvb6hr0","63bc819194ca25a555eb8fb5","fixation","img/fixation.png","null","","test","","","","","",""
"579.5","298217","pSARL_v2","pSARL_v28dvb6hr0","63bc819194ca25a555eb8fb5","freq","img/green_2bandit_b2.png","70","70","test","1","104","104","5","",""
"null","298457","pSARL_v2","pSARL_v28dvb6hr0","63bc819194ca25a555eb8fb5","freq_resp","img/green_2bandit_b.png","70","70","test","","","","5","",""
"null","298630","pSARL_v2","pSARL_v28dvb6hr0","63bc819194ca25a555eb8fb5","fixation","img/fixation.png","null","","test","","","","","",""
"386.59999990463257","299026","pSARL_v2","pSARL_v28dvb6hr0","63bc819194ca25a555eb8fb5","freq","img/green_2bandit_b2.png","70","70","test","1","105","105","5","",""
"null","299456","pSARL_v2","pSARL_v28dvb6hr0","63bc819194ca25a555eb8fb5","freq_resp","img/green_2bandit_b.png","70","70","test","","","","5","",""
"null","299629","pSARL_v2","pSARL_v28dvb6hr0","63bc819194ca25a555eb8fb5","fixation","img/fixation.png","null","","test","","","","","",""
"316.60000014305115","299954","pSARL_v2","pSARL_v28dvb6hr0","63bc819194ca25a555eb8fb5","freq","img/green_2bandit_b2.png","70","70","test","1","106","106","5","",""
"null","300450","pSARL_v2","pSARL_v28dvb6hr0","63bc819194ca25a555eb8fb5","freq_resp","img/green_2bandit_b.png","70","70","test","","","","5","",""
"null","300620","pSARL_v2","pSARL_v28dvb6hr0","63bc819194ca25a555eb8fb5","fixation","img/fixation.png","null","","test","","","","","",""
"334.7000000476837","300961","pSARL_v2","pSARL_v28dvb6hr0","63bc819194ca25a555eb8fb5","freq","img/green_2bandit_b2.png","70","70","test","1","107","107","5","",""
"null","301438","pSARL_v2","pSARL_v28dvb6hr0","63bc819194ca25a555eb8fb5","freq_resp","img/green_2bandit_b.png","70","70","test","","","","5","",""
"null","301609","pSARL_v2","pSARL_v28dvb6hr0","63bc819194ca25a555eb8fb5","fixation","img/fixation.png","null","","test","","","","","",""
"374.40000009536743","301992","pSARL_v2","pSARL_v28dvb6hr0","63bc819194ca25a555eb8fb5","freq","img/green_2bandit_b2.png","70","70","test","1","108","108","5","",""
"null","302429","pSARL_v2","pSARL_v28dvb6hr0","63bc819194ca25a555eb8fb5","freq_resp","img/green_2bandit_b.png","70","70","test","","","","5","",""
"null","302604","pSARL_v2","pSARL_v28dvb6hr0","63bc819194ca25a555eb8fb5","fixation","img/fixation.png","null","","test","","","","","",""
"341.2000000476837","302955","pSARL_v2","pSARL_v28dvb6hr0","63bc819194ca25a555eb8fb5","freq","img/green_2bandit_b2.png","70","70","test","1","109","109","5","",""
"null","303435","pSARL_v2","pSARL_v28dvb6hr0","63bc819194ca25a555eb8fb5","freq_resp","img/green_2bandit_b.png","70","70","test","","","","5","",""
"null","303604","pSARL_v2","pSARL_v28dvb6hr0","63bc819194ca25a555eb8fb5","fixation","img/fixation.png","null","","test","","","","","",""
"404.90000009536743","304019","pSARL_v2","pSARL_v28dvb6hr0","63bc819194ca25a555eb8fb5","freq","img/green_2bandit_b2.png","70","70","test","1","110","110","5","",""
"null","304424","pSARL_v2","pSARL_v28dvb6hr0","63bc819194ca25a555eb8fb5","freq_resp","img/green_2bandit_b.png","70","70","test","","","","5","",""
"null","304597","pSARL_v2","pSARL_v28dvb6hr0","63bc819194ca25a555eb8fb5","fixation","img/fixation.png","null","","test","","","","","",""
"494.5","305102","pSARL_v2","pSARL_v28dvb6hr0","63bc819194ca25a555eb8fb5","infreq","img/orange_2bandit_b2.png","68","68","test","1","111","111","5","",""
"null","305428","pSARL_v2","pSARL_v28dvb6hr0","63bc819194ca25a555eb8fb5","infreq_resp","img/orange_2bandit_b.png","68","68","test","","","","5","",""
"null","305598","pSARL_v2","pSARL_v28dvb6hr0","63bc819194ca25a555eb8fb5","fixation","img/fixation.png","null","","test","","","","","",""
"542.1000001430511","306150","pSARL_v2","pSARL_v28dvb6hr0","63bc819194ca25a555eb8fb5","freq","img/green_2bandit_b2.png","70","70","test","1","112","112","5","",""
"null","306422","pSARL_v2","pSARL_v28dvb6hr0","63bc819194ca25a555eb8fb5","freq_resp","img/green_2bandit_b.png","70","70","test","","","","5","",""
"null","306594","pSARL_v2","pSARL_v28dvb6hr0","63bc819194ca25a555eb8fb5","fixation","img/fixation.png","null","","test","","","","","",""
"372.39999985694885","306976","pSARL_v2","pSARL_v28dvb6hr0","63bc819194ca25a555eb8fb5","freq","img/green_2bandit_b2.png","70","70","test","1","113","113","5","",""
"null","307413","pSARL_v2","pSARL_v28dvb6hr0","63bc819194ca25a555eb8fb5","freq_resp","img/green_2bandit_b.png","70","70","test","","","","5","",""
"null","307588","pSARL_v2","pSARL_v28dvb6hr0","63bc819194ca25a555eb8fb5","fixation","img/fixation.png","null","","test","","","","","",""
"359.2000000476837","307957","pSARL_v2","pSARL_v28dvb6hr0","63bc819194ca25a555eb8fb5","freq","img/green_2bandit_b2.png","70","70","test","1","114","114","5","",""
"null","308421","pSARL_v2","pSARL_v28dvb6hr0","63bc819194ca25a555eb8fb5","freq_resp","img/green_2bandit_b.png","70","70","test","","","","5","",""
"null","308591","pSARL_v2","pSARL_v28dvb6hr0","63bc819194ca25a555eb8fb5","fixation","img/fixation.png","null","","test","","","","","",""
"427.69999980926514","309028","pSARL_v2","pSARL_v28dvb6hr0","63bc819194ca25a555eb8fb5","freq","img/green_2bandit_b2.png","70","70","test","1","115","115","5","",""
"null","309418","pSARL_v2","pSARL_v28dvb6hr0","63bc819194ca25a555eb8fb5","freq_resp","img/green_2bandit_b.png","70","70","test","","","","5","",""
"null","309591","pSARL_v2","pSARL_v28dvb6hr0","63bc819194ca25a555eb8fb5","fixation","img/fixation.png","null","","test","","","","","",""
"642.8000001907349","310243","pSARL_v2","pSARL_v28dvb6hr0","63bc819194ca25a555eb8fb5","reward","img/slot.png","74","","test","","","","","",""
"null","311011","pSARL_v2","pSARL_v28dvb6hr0","63bc819194ca25a555eb8fb5","points","<div class=""veryhighPoints""> +1 </div>","null","na","test","","","","5","1","4"
"582.5","311603","pSARL_v2","pSARL_v28dvb6hr0","63bc819194ca25a555eb8fb5","freq","img/green_2bandit_b2.png","70","70","test","1","116","116","6","",""
"null","311831","pSARL_v2","pSARL_v28dvb6hr0","63bc819194ca25a555eb8fb5","freq_resp","img/green_2bandit_b.png","70","70","test","","","","6","",""
"null","311991","pSARL_v2","pSARL_v28dvb6hr0","63bc819194ca25a555eb8fb5","fixation","img/fixation.png","null","","test","","","","","",""
"388.7000000476837","312389","pSARL_v2","pSARL_v28dvb6hr0","63bc819194ca25a555eb8fb5","freq","img/green_2bandit_b2.png","70","70","test","1","117","117","6","",""
"null","312816","pSARL_v2","pSARL_v28dvb6hr0","63bc819194ca25a555eb8fb5","freq_resp","img/green_2bandit_b.png","70","70","test","","","","6","",""
"null","312991","pSARL_v2","pSARL_v28dvb6hr0","63bc819194ca25a555eb8fb5","fixation","img/fixation.png","null","","test","","","","","",""
"376.90000009536743","313377","pSARL_v2","pSARL_v28dvb6hr0","63bc819194ca25a555eb8fb5","freq","img/green_2bandit_b2.png","70","70","test","1","118","118","6","",""
"null","313820","pSARL_v2","pSARL_v28dvb6hr0","63bc819194ca25a555eb8fb5","freq_resp","img/green_2bandit_b.png","70","70","test","","","","6","",""
"null","313990","pSARL_v2","pSARL_v28dvb6hr0","63bc819194ca25a555eb8fb5","fixation","img/fixation.png","null","","test","","","","","",""
"369.59999990463257","314370","pSARL_v2","pSARL_v28dvb6hr0","63bc819194ca25a555eb8fb5","freq","img/green_2bandit_b2.png","70","70","test","1","119","119","6","",""
"null","314824","pSARL_v2","pSARL_v28dvb6hr0","63bc819194ca25a555eb8fb5","freq_resp","img/green_2bandit_b.png","70","70","test","","","","6","",""
"null","314993","pSARL_v2","pSARL_v28dvb6hr0","63bc819194ca25a555eb8fb5","fixation","img/fixation.png","null","","test","","","","","",""
"407","315408","pSARL_v2","pSARL_v28dvb6hr0","63bc819194ca25a555eb8fb5","freq","img/green_2bandit_b2.png","70","70","test","1","120","120","6","",""
"null","315817","pSARL_v2","pSARL_v28dvb6hr0","63bc819194ca25a555eb8fb5","freq_resp","img/green_2bandit_b.png","70","70","test","","","","6","",""
"null","315989","pSARL_v2","pSARL_v28dvb6hr0","63bc819194ca25a555eb8fb5","fixation","img/fixation.png","null","","test","","","","","",""
"385.5","316384","pSARL_v2","pSARL_v28dvb6hr0","63bc819194ca25a555eb8fb5","freq","img/green_2bandit_b2.png","70","70","test","1","121","121","6","",""
"null","316822","pSARL_v2","pSARL_v28dvb6hr0","63bc819194ca25a555eb8fb5","freq_resp","img/green_2bandit_b.png","70","70","test","","","","6","",""
"null","316982","pSARL_v2","pSARL_v28dvb6hr0","63bc819194ca25a555eb8fb5","fixation","img/fixation.png","null","","test","","","","","",""
"397.7999999523163","317389","pSARL_v2","pSARL_v28dvb6hr0","63bc819194ca25a555eb8fb5","freq","img/green_2bandit_b2.png","70","70","test","1","122","122","6","",""
"null","317813","pSARL_v2","pSARL_v28dvb6hr0","63bc819194ca25a555eb8fb5","freq_resp","img/green_2bandit_b.png","70","70","test","","","","6","",""
"null","317982","pSARL_v2","pSARL_v28dvb6hr0","63bc819194ca25a555eb8fb5","fixation","img/fixation.png","null","","test","","","","","",""
"357.30000019073486","318349","pSARL_v2","pSARL_v28dvb6hr0","63bc819194ca25a555eb8fb5","freq","img/green_2bandit_b2.png","70","70","test","1","123","123","6","",""
"null","318809","pSARL_v2","pSARL_v28dvb6hr0","63bc819194ca25a555eb8fb5","freq_resp","img/green_2bandit_b.png","70","70","test","","","","6","",""
"null","318982","pSARL_v2","pSARL_v28dvb6hr0","63bc819194ca25a555eb8fb5","fixation","img/fixation.png","null","","test","","","","","",""
"386.59999990463257","319378","pSARL_v2","pSARL_v28dvb6hr0","63bc819194ca25a555eb8fb5","freq","img/green_2bandit_b2.png","70","70","test","1","124","124","6","",""
"null","319815","pSARL_v2","pSARL_v28dvb6hr0","63bc819194ca25a555eb8fb5","freq_resp","img/green_2bandit_b.png","70","70","test","","","","6","",""
"null","319983","pSARL_v2","pSARL_v28dvb6hr0","63bc819194ca25a555eb8fb5","fixation","img/fixation.png","null","","test","","","","","",""
"366.89999985694885","320362","pSARL_v2","pSARL_v28dvb6hr0","63bc819194ca25a555eb8fb5","freq","img/green_2bandit_b2.png","70","70","test","1","125","125","6","",""
"null","320817","pSARL_v2","pSARL_v28dvb6hr0","63bc819194ca25a555eb8fb5","freq_resp","img/green_2bandit_b.png","70","70","test","","","","6","",""
"null","320978","pSARL_v2","pSARL_v28dvb6hr0","63bc819194ca25a555eb8fb5","fixation","img/fixation.png","null","","test","","","","","",""
"371.10000014305115","321358","pSARL_v2","pSARL_v28dvb6hr0","63bc819194ca25a555eb8fb5","freq","img/green_2bandit_b2.png","70","70","test","1","126","126","6","",""
"null","321809","pSARL_v2","pSARL_v28dvb6hr0","63bc819194ca25a555eb8fb5","freq_resp","img/green_2bandit_b.png","70","70","test","","","","6","",""
"null","321981","pSARL_v2","pSARL_v28dvb6hr0","63bc819194ca25a555eb8fb5","fixation","img/fixation.png","null","","test","","","","","",""
"399.5","322390","pSARL_v2","pSARL_v28dvb6hr0","63bc819194ca25a555eb8fb5","freq","img/green_2bandit_b2.png","70","70","test","1","127","127","6","",""
"null","322807","pSARL_v2","pSARL_v28dvb6hr0","63bc819194ca25a555eb8fb5","freq_resp","img/green_2bandit_b.png","70","70","test","","","","6","",""
"null","322971","pSARL_v2","pSARL_v28dvb6hr0","63bc819194ca25a555eb8fb5","fixation","img/fixation.png","null","","test","","","","","",""
"374.2999999523163","323355","pSARL_v2","pSARL_v28dvb6hr0","63bc819194ca25a555eb8fb5","freq","img/green_2bandit_b2.png","70","70","test","1","128","128","6","",""
"null","323793","pSARL_v2","pSARL_v28dvb6hr0","63bc819194ca25a555eb8fb5","freq_resp","img/green_2bandit_b.png","70","70","test","","","","6","",""
"null","323959","pSARL_v2","pSARL_v28dvb6hr0","63bc819194ca25a555eb8fb5","fixation","img/fixation.png","null","","test","","","","","",""
"413.2999999523163","324382","pSARL_v2","pSARL_v28dvb6hr0","63bc819194ca25a555eb8fb5","freq","img/green_2bandit_b2.png","70","70","test","1","129","129","6","",""
"null","324781","pSARL_v2","pSARL_v28dvb6hr0","63bc819194ca25a555eb8fb5","freq_resp","img/green_2bandit_b.png","70","70","test","","","","6","",""
"null","324951","pSARL_v2","pSARL_v28dvb6hr0","63bc819194ca25a555eb8fb5","fixation","img/fixation.png","null","","test","","","","","",""
"573.1000001430511","325533","pSARL_v2","pSARL_v28dvb6hr0","63bc819194ca25a555eb8fb5","infreq","img/orange_2bandit_b2.png","68","68","test","1","130","130","6","",""
"null","325781","pSARL_v2","pSARL_v28dvb6hr0","63bc819194ca25a555eb8fb5","infreq_resp","img/orange_2bandit_b.png","68","68","test","","","","6","",""
"null","325954","pSARL_v2","pSARL_v28dvb6hr0","63bc819194ca25a555eb8fb5","fixation","img/fixation.png","null","","test","","","","","",""
"465.30000019073486","326429","pSARL_v2","pSARL_v28dvb6hr0","63bc819194ca25a555eb8fb5","freq","img/green_2bandit_b2.png","70","70","test","1","131","131","6","",""
"null","326783","pSARL_v2","pSARL_v28dvb6hr0","63bc819194ca25a555eb8fb5","freq_resp","img/green_2bandit_b.png","70","70","test","","","","6","",""
"null","326954","pSARL_v2","pSARL_v28dvb6hr0","63bc819194ca25a555eb8fb5","fixation","img/fixation.png","null","","test","","","","","",""
"376.90000009536743","327341","pSARL_v2","pSARL_v28dvb6hr0","63bc819194ca25a555eb8fb5","freq","img/green_2bandit_b2.png","70","70","test","1","132","132","6","",""
"null","327788","pSARL_v2","pSARL_v28dvb6hr0","63bc819194ca25a555eb8fb5","freq_resp","img/green_2bandit_b.png","70","70","test","","","","6","",""
"null","327958","pSARL_v2","pSARL_v28dvb6hr0","63bc819194ca25a555eb8fb5","fixation","img/fixation.png","null","","test","","","","","",""
"630.2000000476837","328598","pSARL_v2","pSARL_v28dvb6hr0","63bc819194ca25a555eb8fb5","infreq","img/orange_2bandit_b2.png","68","68","test","1","133","133","6","",""
"null","328792","pSARL_v2","pSARL_v28dvb6hr0","63bc819194ca25a555eb8fb5","infreq_resp","img/orange_2bandit_b.png","68","68","test","","","","6","",""
"null","328964","pSARL_v2","pSARL_v28dvb6hr0","63bc819194ca25a555eb8fb5","fixation","img/fixation.png","null","","test","","","","","",""
"424.7999999523163","329398","pSARL_v2","pSARL_v28dvb6hr0","63bc819194ca25a555eb8fb5","freq","img/green_2bandit_b2.png","70","70","test","1","134","134","6","",""
"null","329788","pSARL_v2","pSARL_v28dvb6hr0","63bc819194ca25a555eb8fb5","freq_resp","img/green_2bandit_b.png","70","70","test","","","","6","",""
"null","329960","pSARL_v2","pSARL_v28dvb6hr0","63bc819194ca25a555eb8fb5","fixation","img/fixation.png","null","","test","","","","","",""
"451.59999990463257","330421","pSARL_v2","pSARL_v28dvb6hr0","63bc819194ca25a555eb8fb5","freq","img/green_2bandit_b2.png","70","70","test","1","135","135","6","",""
"null","330782","pSARL_v2","pSARL_v28dvb6hr0","63bc819194ca25a555eb8fb5","freq_resp","img/green_2bandit_b.png","70","70","test","","","","6","",""
"null","330958","pSARL_v2","pSARL_v28dvb6hr0","63bc819194ca25a555eb8fb5","fixation","img/fixation.png","null","","test","","","","","",""
"591.5999999046326","331560","pSARL_v2","pSARL_v28dvb6hr0","63bc819194ca25a555eb8fb5","reward","img/slot.png","74","","test","","","","","",""
"null","332321","pSARL_v2","pSARL_v28dvb6hr0","63bc819194ca25a555eb8fb5","points","<div class=""verylowPoints""> -7 </div>","null","na","test","","","","6","-7","5"
"522.9000000953674","332854","pSARL_v2","pSARL_v28dvb6hr0","63bc819194ca25a555eb8fb5","freq","img/green_2bandit_b2.png","70","70","test","1","136","136","7","",""
"null","333147","pSARL_v2","pSARL_v28dvb6hr0","63bc819194ca25a555eb8fb5","freq_resp","img/green_2bandit_b.png","70","70","test","","","","7","",""
"null","333317","pSARL_v2","pSARL_v28dvb6hr0","63bc819194ca25a555eb8fb5","fixation","img/fixation.png","null","","test","","","","","",""
"583.5999999046326","333910","pSARL_v2","pSARL_v28dvb6hr0","63bc819194ca25a555eb8fb5","infreq","img/orange_2bandit_b2.png","68","68","test","1","137","137","7","",""
"null","334143","pSARL_v2","pSARL_v28dvb6hr0","63bc819194ca25a555eb8fb5","infreq_resp","img/orange_2bandit_b.png","68","68","test","","","","7","",""
"null","334316","pSARL_v2","pSARL_v28dvb6hr0","63bc819194ca25a555eb8fb5","fixation","img/fixation.png","null","","test","","","","","",""
"356.30000019073486","334682","pSARL_v2","pSARL_v28dvb6hr0","63bc819194ca25a555eb8fb5","freq","img/green_2bandit_b2.png","70","70","test","1","138","138","7","",""
"null","335146","pSARL_v2","pSARL_v28dvb6hr0","63bc819194ca25a555eb8fb5","freq_resp","img/green_2bandit_b.png","70","70","test","","","","7","",""
"null","335321","pSARL_v2","pSARL_v28dvb6hr0","63bc819194ca25a555eb8fb5","fixation","img/fixation.png","null","","test","","","","","",""
"382.7999999523163","335714","pSARL_v2","pSARL_v28dvb6hr0","63bc819194ca25a555eb8fb5","infreq","img/orange_2bandit_b2.png","70","68","test","0","139","139","7","",""
"null","336155","pSARL_v2","pSARL_v28dvb6hr0","63bc819194ca25a555eb8fb5","infreq_resp","img/orange_2bandit_b.png","70","68","test","","","","7","",""
"null","336327","pSARL_v2","pSARL_v28dvb6hr0","63bc819194ca25a555eb8fb5","fixation","img/fixation.png","null","","test","","","","","",""
"539.7000000476837","336876","pSARL_v2","pSARL_v28dvb6hr0","63bc819194ca25a555eb8fb5","freq","img/green_2bandit_b2.png","70","70","test","1","140","140","7","",""
"null","337160","pSARL_v2","pSARL_v28dvb6hr0","63bc819194ca25a555eb8fb5","freq_resp","img/green_2bandit_b.png","70","70","test","","","","7","",""
"null","337330","pSARL_v2","pSARL_v28dvb6hr0","63bc819194ca25a555eb8fb5","fixation","img/fixation.png","null","","test","","","","","",""
"481.60000014305115","337820","pSARL_v2","pSARL_v28dvb6hr0","63bc819194ca25a555eb8fb5","freq","img/green_2bandit_b2.png","70","70","test","1","141","141","7","",""
"null","338148","pSARL_v2","pSARL_v28dvb6hr0","63bc819194ca25a555eb8fb5","freq_resp","img/green_2bandit_b.png","70","70","test","","","","7","",""
"null","338311","pSARL_v2","pSARL_v28dvb6hr0","63bc819194ca25a555eb8fb5","fixation","img/fixation.png","null","","test","","","","","",""
"351","338672","pSARL_v2","pSARL_v28dvb6hr0","63bc819194ca25a555eb8fb5","freq","img/green_2bandit_b2.png","70","70","test","1","142","142","7","",""
"null","339144","pSARL_v2","pSARL_v28dvb6hr0","63bc819194ca25a555eb8fb5","freq_resp","img/green_2bandit_b.png","70","70","test","","","","7","",""
"null","339303","pSARL_v2","pSARL_v28dvb6hr0","63bc819194ca25a555eb8fb5","fixation","img/fixation.png","null","","test","","","","","",""
"338.7000000476837","339652","pSARL_v2","pSARL_v28dvb6hr0","63bc819194ca25a555eb8fb5","freq","img/green_2bandit_b2.png","70","70","test","1","143","143","7","",""
"null","340129","pSARL_v2","pSARL_v28dvb6hr0","63bc819194ca25a555eb8fb5","freq_resp","img/green_2bandit_b.png","70","70","test","","","","7","",""
"null","340301","pSARL_v2","pSARL_v28dvb6hr0","63bc819194ca25a555eb8fb5","fixation","img/fixation.png","null","","test","","","","","",""
"364.7999999523163","340675","pSARL_v2","pSARL_v28dvb6hr0","63bc819194ca25a555eb8fb5","freq","img/green_2bandit_b2.png","70","70","test","1","144","144","7","",""
"null","341122","pSARL_v2","pSARL_v28dvb6hr0","63bc819194ca25a555eb8fb5","freq_resp","img/green_2bandit_b.png","70","70","test","","","","7","",""
"null","341282","pSARL_v2","pSARL_v28dvb6hr0","63bc819194ca25a555eb8fb5","fixation","img/fixation.png","null","","test","","","","","",""
"387","341679","pSARL_v2","pSARL_v28dvb6hr0","63bc819194ca25a555eb8fb5","freq","img/green_2bandit_b2.png","70","70","test","1","145","145","7","",""
"null","342110","pSARL_v2","pSARL_v28dvb6hr0","63bc819194ca25a555eb8fb5","freq_resp","img/green_2bandit_b.png","70","70","test","","","","7","",""
"null","342282","pSARL_v2","pSARL_v28dvb6hr0","63bc819194ca25a555eb8fb5","fixation","img/fixation.png","null","","test","","","","","",""
"359.7999999523163","342652","pSARL_v2","pSARL_v28dvb6hr0","63bc819194ca25a555eb8fb5","freq","img/green_2bandit_b2.png","70","70","test","1","146","146","7","",""
"null","343113","pSARL_v2","pSARL_v28dvb6hr0","63bc819194ca25a555eb8fb5","freq_resp","img/green_2bandit_b.png","70","70","test","","","","7","",""
"null","343284","pSARL_v2","pSARL_v28dvb6hr0","63bc819194ca25a555eb8fb5","fixation","img/fixation.png","null","","test","","","","","",""
"439.5","343733","pSARL_v2","pSARL_v28dvb6hr0","63bc819194ca25a555eb8fb5","freq","img/green_2bandit_b2.png","70","70","test","1","147","147","7","",""
"null","344107","pSARL_v2","pSARL_v28dvb6hr0","63bc819194ca25a555eb8fb5","freq_resp","img/green_2bandit_b.png","70","70","test","","","","7","",""
"null","344278","pSARL_v2","pSARL_v28dvb6hr0","63bc819194ca25a555eb8fb5","fixation","img/fixation.png","null","","test","","","","","",""
"357.80000019073486","344646","pSARL_v2","pSARL_v28dvb6hr0","63bc819194ca25a555eb8fb5","freq","img/green_2bandit_b2.png","70","70","test","1","148","148","7","",""
"null","345111","pSARL_v2","pSARL_v28dvb6hr0","63bc819194ca25a555eb8fb5","freq_resp","img/green_2bandit_b.png","70","70","test","","","","7","",""
"null","345284","pSARL_v2","pSARL_v28dvb6hr0","63bc819194ca25a555eb8fb5","fixation","img/fixation.png","null","","test","","","","","",""
"401.40000009536743","345695","pSARL_v2","pSARL_v28dvb6hr0","63bc819194ca25a555eb8fb5","freq","img/green_2bandit_b2.png","70","70","test","1","149","149","7","",""
"null","346103","pSARL_v2","pSARL_v28dvb6hr0","63bc819194ca25a555eb8fb5","freq_resp","img/green_2bandit_b.png","70","70","test","","","","7","",""
"null","346276","pSARL_v2","pSARL_v28dvb6hr0","63bc819194ca25a555eb8fb5","fixation","img/fixation.png","null","","test","","","","","",""
"385.7999999523163","346671","pSARL_v2","pSARL_v28dvb6hr0","63bc819194ca25a555eb8fb5","freq","img/green_2bandit_b2.png","70","70","test","1","150","150","7","",""
"null","347096","pSARL_v2","pSARL_v28dvb6hr0","63bc819194ca25a555eb8fb5","freq_resp","img/green_2bandit_b.png","70","70","test","","","","7","",""
"null","347265","pSARL_v2","pSARL_v28dvb6hr0","63bc819194ca25a555eb8fb5","fixation","img/fixation.png","null","","test","","","","","",""
"456.2000000476837","347732","pSARL_v2","pSARL_v28dvb6hr0","63bc819194ca25a555eb8fb5","freq","img/green_2bandit_b2.png","70","70","test","1","151","151","7","",""
"null","348086","pSARL_v2","pSARL_v28dvb6hr0","63bc819194ca25a555eb8fb5","freq_resp","img/green_2bandit_b.png","70","70","test","","","","7","",""
"null","348246","pSARL_v2","pSARL_v28dvb6hr0","63bc819194ca25a555eb8fb5","fixation","img/fixation.png","null","","test","","","","","",""
"420.09999990463257","348676","pSARL_v2","pSARL_v28dvb6hr0","63bc819194ca25a555eb8fb5","freq","img/green_2bandit_b2.png","70","70","test","1","152","152","7","",""
"null","349068","pSARL_v2","pSARL_v28dvb6hr0","63bc819194ca25a555eb8fb5","freq_resp","img/green_2bandit_b.png","70","70","test","","","","7","",""
"null","349240","pSARL_v2","pSARL_v28dvb6hr0","63bc819194ca25a555eb8fb5","fixation","img/fixation.png","null","","test","","","","","",""
"397.10000014305115","349644","pSARL_v2","pSARL_v28dvb6hr0","63bc819194ca25a555eb8fb5","freq","img/green_2bandit_b2.png","70","70","test","1","153","153","7","",""
"null","350063","pSARL_v2","pSARL_v28dvb6hr0","63bc819194ca25a555eb8fb5","freq_resp","img/green_2bandit_b.png","70","70","test","","","","7","",""
"null","350235","pSARL_v2","pSARL_v28dvb6hr0","63bc819194ca25a555eb8fb5","fixation","img/fixation.png","null","","test","","","","","",""
"403.40000009536743","350648","pSARL_v2","pSARL_v28dvb6hr0","63bc819194ca25a555eb8fb5","freq","img/green_2bandit_b2.png","70","70","test","1","154","154","7","",""
"null","351069","pSARL_v2","pSARL_v28dvb6hr0","63bc819194ca25a555eb8fb5","freq_resp","img/green_2bandit_b.png","70","70","test","","","","7","",""
"null","351240","pSARL_v2","pSARL_v28dvb6hr0","63bc819194ca25a555eb8fb5","fixation","img/fixation.png","null","","test","","","","","",""
"391.2999999523163","351642","pSARL_v2","pSARL_v28dvb6hr0","63bc819194ca25a555eb8fb5","freq","img/green_2bandit_b2.png","70","70","test","1","155","155","7","",""
"null","352069","pSARL_v2","pSARL_v28dvb6hr0","63bc819194ca25a555eb8fb5","freq_resp","img/green_2bandit_b.png","70","70","test","","","","7","",""
"null","352241","pSARL_v2","pSARL_v28dvb6hr0","63bc819194ca25a555eb8fb5","fixation","img/fixation.png","null","","test","","","","","",""
"676.6999998092651","352927","pSARL_v2","pSARL_v28dvb6hr0","63bc819194ca25a555eb8fb5","reward","img/slot.png","74","","test","","","","","",""
"null","353692","pSARL_v2","pSARL_v28dvb6hr0","63bc819194ca25a555eb8fb5","points","<div class=""verylowPoints""> -6 </div>","null","na","test","","","","7","-6","6"
"null","354512","pSARL_v2","pSARL_v28dvb6hr0","63bc819194ca25a555eb8fb5","freq","img/green_2bandit_b2.png","null","70","test","0","156","156","8","",""
"null","354684","pSARL_v2","pSARL_v28dvb6hr0","63bc819194ca25a555eb8fb5","fixation","img/fixation.png","null","","test","","","","","",""
"784.0999999046326","355478","pSARL_v2","pSARL_v28dvb6hr0","63bc819194ca25a555eb8fb5","freq","img/green_2bandit_b2.png","70","70","test","1","157","157","8","",""
"null","355505","pSARL_v2","pSARL_v28dvb6hr0","63bc819194ca25a555eb8fb5","freq_resp","img/green_2bandit_b.png","70","70","test","","","","8","",""
"null","355680","pSARL_v2","pSARL_v28dvb6hr0","63bc819194ca25a555eb8fb5","fixation","img/fixation.png","null","","test","","","","","",""
"535.1999998092651","356225","pSARL_v2","pSARL_v28dvb6hr0","63bc819194ca25a555eb8fb5","freq","img/green_2bandit_b2.png","70","70","test","1","158","158","8","",""
"null","356502","pSARL_v2","pSARL_v28dvb6hr0","63bc819194ca25a555eb8fb5","freq_resp","img/green_2bandit_b.png","70","70","test","","","","8","",""
"null","356673","pSARL_v2","pSARL_v28dvb6hr0","63bc819194ca25a555eb8fb5","fixation","img/fixation.png","null","","test","","","","","",""
"416.89999985694885","357100","pSARL_v2","pSARL_v28dvb6hr0","63bc819194ca25a555eb8fb5","freq","img/green_2bandit_b2.png","70","70","test","1","159","159","8","",""
"null","357501","pSARL_v2","pSARL_v28dvb6hr0","63bc819194ca25a555eb8fb5","freq_resp","img/green_2bandit_b.png","70","70","test","","","","8","",""
"null","357676","pSARL_v2","pSARL_v28dvb6hr0","63bc819194ca25a555eb8fb5","fixation","img/fixation.png","null","","test","","","","","",""
"389.7999999523163","358076","pSARL_v2","pSARL_v28dvb6hr0","63bc819194ca25a555eb8fb5","freq","img/green_2bandit_b2.png","70","70","test","1","160","160","8","",""
"null","358509","pSARL_v2","pSARL_v28dvb6hr0","63bc819194ca25a555eb8fb5","freq_resp","img/green_2bandit_b.png","70","70","test","","","","8","",""
"null","358679","pSARL_v2","pSARL_v28dvb6hr0","63bc819194ca25a555eb8fb5","fixation","img/fixation.png","null","","test","","","","","",""
"397.40000009536743","359086","pSARL_v2","pSARL_v28dvb6hr0","63bc819194ca25a555eb8fb5","freq","img/green_2bandit_b2.png","70","70","test","1","161","161","8","",""
"null","359498","pSARL_v2","pSARL_v28dvb6hr0","63bc819194ca25a555eb8fb5","freq_resp","img/green_2bandit_b.png","70","70","test","","","","8","",""
"null","359668","pSARL_v2","pSARL_v28dvb6hr0","63bc819194ca25a555eb8fb5","fixation","img/fixation.png","null","","test","","","","","",""
"736","360413","pSARL_v2","pSARL_v28dvb6hr0","63bc819194ca25a555eb8fb5","infreq","img/orange_2bandit_b2.png","68","68","test","1","162","162","8","",""
"null","360485","pSARL_v2","pSARL_v28dvb6hr0","63bc819194ca25a555eb8fb5","infreq_resp","img/orange_2bandit_b.png","68","68","test","","","","8","",""
"null","360659","pSARL_v2","pSARL_v28dvb6hr0","63bc819194ca25a555eb8fb5","fixation","img/fixation.png","null","","test","","","","","",""
"514.5","361184","pSARL_v2","pSARL_v28dvb6hr0","63bc819194ca25a555eb8fb5","freq","img/green_2bandit_b2.png","70","70","test","1","163","163","8","",""
"null","361485","pSARL_v2","pSARL_v28dvb6hr0","63bc819194ca25a555eb8fb5","freq_resp","img/green_2bandit_b.png","70","70","test","","","","8","",""
"null","361655","pSARL_v2","pSARL_v28dvb6hr0","63bc819194ca25a555eb8fb5","fixation","img/fixation.png","null","","test","","","","","",""
"385.7000000476837","362051","pSARL_v2","pSARL_v28dvb6hr0","63bc819194ca25a555eb8fb5","freq","img/green_2bandit_b2.png","70","70","test","1","164","164","8","",""
"null","362491","pSARL_v2","pSARL_v28dvb6hr0","63bc819194ca25a555eb8fb5","freq_resp","img/green_2bandit_b.png","70","70","test","","","","8","",""
"null","362661","pSARL_v2","pSARL_v28dvb6hr0","63bc819194ca25a555eb8fb5","fixation","img/fixation.png","null","","test","","","","","",""
"362.59999990463257","363034","pSARL_v2","pSARL_v28dvb6hr0","63bc819194ca25a555eb8fb5","freq","img/green_2bandit_b2.png","70","70","test","1","165","165","8","",""
"null","363494","pSARL_v2","pSARL_v28dvb6hr0","63bc819194ca25a555eb8fb5","freq_resp","img/green_2bandit_b.png","70","70","test","","","","8","",""
"null","363666","pSARL_v2","pSARL_v28dvb6hr0","63bc819194ca25a555eb8fb5","fixation","img/fixation.png","null","","test","","","","","",""
"514.7999999523163","364191","pSARL_v2","pSARL_v28dvb6hr0","63bc819194ca25a555eb8fb5","infreq","img/orange_2bandit_b2.png","68","68","test","1","166","166","8","",""
"null","364490","pSARL_v2","pSARL_v28dvb6hr0","63bc819194ca25a555eb8fb5","infreq_resp","img/orange_2bandit_b.png","68","68","test","","","","8","",""
"null","364665","pSARL_v2","pSARL_v28dvb6hr0","63bc819194ca25a555eb8fb5","fixation","img/fixation.png","null","","test","","","","","",""
"377.69999980926514","365053","pSARL_v2","pSARL_v28dvb6hr0","63bc819194ca25a555eb8fb5","freq","img/green_2bandit_b2.png","70","70","test","1","167","167","8","",""
"null","365496","pSARL_v2","pSARL_v28dvb6hr0","63bc819194ca25a555eb8fb5","freq_resp","img/green_2bandit_b.png","70","70","test","","","","8","",""
"null","365666","pSARL_v2","pSARL_v28dvb6hr0","63bc819194ca25a555eb8fb5","fixation","img/fixation.png","null","","test","","","","","",""
"337.7999999523163","366014","pSARL_v2","pSARL_v28dvb6hr0","63bc819194ca25a555eb8fb5","freq","img/green_2bandit_b2.png","70","70","test","1","168","168","8","",""
"null","366487","pSARL_v2","pSARL_v28dvb6hr0","63bc819194ca25a555eb8fb5","freq_resp","img/green_2bandit_b.png","70","70","test","","","","8","",""
"null","366661","pSARL_v2","pSARL_v28dvb6hr0","63bc819194ca25a555eb8fb5","fixation","img/fixation.png","null","","test","","","","","",""
"472.89999985694885","367144","pSARL_v2","pSARL_v28dvb6hr0","63bc819194ca25a555eb8fb5","freq","img/green_2bandit_b2.png","70","70","test","1","169","169","8","",""
"null","367493","pSARL_v2","pSARL_v28dvb6hr0","63bc819194ca25a555eb8fb5","freq_resp","img/green_2bandit_b.png","70","70","test","","","","8","",""
"null","367667","pSARL_v2","pSARL_v28dvb6hr0","63bc819194ca25a555eb8fb5","fixation","img/fixation.png","null","","test","","","","","",""
"402.69999980926514","368080","pSARL_v2","pSARL_v28dvb6hr0","63bc819194ca25a555eb8fb5","freq","img/green_2bandit_b2.png","70","70","test","1","170","170","8","",""
"null","368490","pSARL_v2","pSARL_v28dvb6hr0","63bc819194ca25a555eb8fb5","freq_resp","img/green_2bandit_b.png","70","70","test","","","","8","",""
"null","368663","pSARL_v2","pSARL_v28dvb6hr0","63bc819194ca25a555eb8fb5","fixation","img/fixation.png","null","","test","","","","","",""
"570.4000000953674","369244","pSARL_v2","pSARL_v28dvb6hr0","63bc819194ca25a555eb8fb5","freq","img/green_2bandit_b2.png","70","70","test","1","171","171","8","",""
"null","369491","pSARL_v2","pSARL_v28dvb6hr0","63bc819194ca25a555eb8fb5","freq_resp","img/green_2bandit_b.png","70","70","test","","","","8","",""
"null","369663","pSARL_v2","pSARL_v28dvb6hr0","63bc819194ca25a555eb8fb5","fixation","img/fixation.png","null","","test","","","","","",""
"397.2999999523163","370071","pSARL_v2","pSARL_v28dvb6hr0","63bc819194ca25a555eb8fb5","freq","img/green_2bandit_b2.png","70","70","test","1","172","172","8","",""
"null","370492","pSARL_v2","pSARL_v28dvb6hr0","63bc819194ca25a555eb8fb5","freq_resp","img/green_2bandit_b.png","70","70","test","","","","8","",""
"null","370663","pSARL_v2","pSARL_v28dvb6hr0","63bc819194ca25a555eb8fb5","fixation","img/fixation.png","null","","test","","","","","",""
"354.30000019073486","371027","pSARL_v2","pSARL_v28dvb6hr0","63bc819194ca25a555eb8fb5","freq","img/green_2bandit_b2.png","70","70","test","1","173","173","8","",""
"null","371483","pSARL_v2","pSARL_v28dvb6hr0","63bc819194ca25a555eb8fb5","freq_resp","img/green_2bandit_b.png","70","70","test","","","","8","",""
"null","371646","pSARL_v2","pSARL_v28dvb6hr0","63bc819194ca25a555eb8fb5","fixation","img/fixation.png","null","","test","","","","","",""
"378.09999990463257","372034","pSARL_v2","pSARL_v28dvb6hr0","63bc819194ca25a555eb8fb5","freq","img/green_2bandit_b2.png","70","70","test","1","174","174","8","",""
"null","372471","pSARL_v2","pSARL_v28dvb6hr0","63bc819194ca25a555eb8fb5","freq_resp","img/green_2bandit_b.png","70","70","test","","","","8","",""
"null","372645","pSARL_v2","pSARL_v28dvb6hr0","63bc819194ca25a555eb8fb5","fixation","img/fixation.png","null","","test","","","","","",""
"551.2999999523163","373206","pSARL_v2","pSARL_v28dvb6hr0","63bc819194ca25a555eb8fb5","reward","img/slot.png","74","","test","","","","","",""
"null","373977","pSARL_v2","pSARL_v28dvb6hr0","63bc819194ca25a555eb8fb5","points","<div class=""verylowPoints""> -4 </div>","null","na","test","","","","8","-4","7"
"557.5999999046326","374545","pSARL_v2","pSARL_v28dvb6hr0","63bc819194ca25a555eb8fb5","freq","img/green_2bandit_b2.png","70","70","test","1","175","175","9","",""
"null","374799","pSARL_v2","pSARL_v28dvb6hr0","63bc819194ca25a555eb8fb5","freq_resp","img/green_2bandit_b.png","70","70","test","","","","9","",""
"null","374972","pSARL_v2","pSARL_v28dvb6hr0","63bc819194ca25a555eb8fb5","fixation","img/fixation.png","null","","test","","","","","",""
"582.5","375565","pSARL_v2","pSARL_v28dvb6hr0","63bc819194ca25a555eb8fb5","infreq","img/orange_2bandit_b2.png","68","68","test","1","176","176","9","",""
"null","375793","pSARL_v2","pSARL_v28dvb6hr0","63bc819194ca25a555eb8fb5","infreq_resp","img/orange_2bandit_b.png","68","68","test","","","","9","",""
"null","375956","pSARL_v2","pSARL_v28dvb6hr0","63bc819194ca25a555eb8fb5","fixation","img/fixation.png","null","","test","","","","","",""
"370.2000000476837","376336","pSARL_v2","pSARL_v28dvb6hr0","63bc819194ca25a555eb8fb5","freq","img/green_2bandit_b2.png","70","70","test","1","177","177","9","",""
"null","376790","pSARL_v2","pSARL_v28dvb6hr0","63bc819194ca25a555eb8fb5","freq_resp","img/green_2bandit_b.png","70","70","test","","","","9","",""
"null","376951","pSARL_v2","pSARL_v28dvb6hr0","63bc819194ca25a555eb8fb5","fixation","img/fixation.png","null","","test","","","","","",""
"374.7000000476837","377336","pSARL_v2","pSARL_v28dvb6hr0","63bc819194ca25a555eb8fb5","freq","img/green_2bandit_b2.png","70","70","test","1","178","178","9","",""
"null","377774","pSARL_v2","pSARL_v28dvb6hr0","63bc819194ca25a555eb8fb5","freq_resp","img/green_2bandit_b.png","70","70","test","","","","9","",""
"null","377946","pSARL_v2","pSARL_v28dvb6hr0","63bc819194ca25a555eb8fb5","fixation","img/fixation.png","null","","test","","","","","",""
"346.39999985694885","378303","pSARL_v2","pSARL_v28dvb6hr0","63bc819194ca25a555eb8fb5","freq","img/green_2bandit_b2.png","70","70","test","1","179","179","9","",""
"null","378778","pSARL_v2","pSARL_v28dvb6hr0","63bc819194ca25a555eb8fb5","freq_resp","img/green_2bandit_b.png","70","70","test","","","","9","",""
"null","378948","pSARL_v2","pSARL_v28dvb6hr0","63bc819194ca25a555eb8fb5","fixation","img/fixation.png","null","","test","","","","","",""
"345.40000009536743","379303","pSARL_v2","pSARL_v28dvb6hr0","63bc819194ca25a555eb8fb5","freq","img/green_2bandit_b2.png","70","70","test","1","180","180","9","",""
"null","379782","pSARL_v2","pSARL_v28dvb6hr0","63bc819194ca25a555eb8fb5","freq_resp","img/green_2bandit_b.png","70","70","test","","","","9","",""
"null","379952","pSARL_v2","pSARL_v28dvb6hr0","63bc819194ca25a555eb8fb5","fixation","img/fixation.png","null","","test","","","","","",""
"382.19999980926514","380345","pSARL_v2","pSARL_v28dvb6hr0","63bc819194ca25a555eb8fb5","freq","img/green_2bandit_b2.png","70","70","test","1","181","181","9","",""
"null","380787","pSARL_v2","pSARL_v28dvb6hr0","63bc819194ca25a555eb8fb5","freq_resp","img/green_2bandit_b.png","70","70","test","","","","9","",""
"null","380959","pSARL_v2","pSARL_v28dvb6hr0","63bc819194ca25a555eb8fb5","fixation","img/fixation.png","null","","test","","","","","",""
"312.09999990463257","381282","pSARL_v2","pSARL_v28dvb6hr0","63bc819194ca25a555eb8fb5","freq","img/green_2bandit_b2.png","70","70","test","1","182","182","9","",""
"null","381780","pSARL_v2","pSARL_v28dvb6hr0","63bc819194ca25a555eb8fb5","freq_resp","img/green_2bandit_b.png","70","70","test","","","","9","",""
"null","381951","pSARL_v2","pSARL_v28dvb6hr0","63bc819194ca25a555eb8fb5","fixation","img/fixation.png","null","","test","","","","","",""
"390.89999985694885","382352","pSARL_v2","pSARL_v28dvb6hr0","63bc819194ca25a555eb8fb5","freq","img/green_2bandit_b2.png","70","70","test","1","183","183","9","",""
"null","382775","pSARL_v2","pSARL_v28dvb6hr0","63bc819194ca25a555eb8fb5","freq_resp","img/green_2bandit_b.png","70","70","test","","","","9","",""
"null","382946","pSARL_v2","pSARL_v28dvb6hr0","63bc819194ca25a555eb8fb5","fixation","img/fixation.png","null","","test","","","","","",""
"380.2000000476837","383333","pSARL_v2","pSARL_v28dvb6hr0","63bc819194ca25a555eb8fb5","freq","img/green_2bandit_b2.png","70","70","test","1","184","184","9","",""
"null","383768","pSARL_v2","pSARL_v28dvb6hr0","63bc819194ca25a555eb8fb5","freq_resp","img/green_2bandit_b.png","70","70","test","","","","9","",""
"null","383944","pSARL_v2","pSARL_v28dvb6hr0","63bc819194ca25a555eb8fb5","fixation","img/fixation.png","null","","test","","","","","",""
"356.7000000476837","384310","pSARL_v2","pSARL_v28dvb6hr0","63bc819194ca25a555eb8fb5","freq","img/green_2bandit_b2.png","70","70","test","1","185","185","9","",""
"null","384772","pSARL_v2","pSARL_v28dvb6hr0","63bc819194ca25a555eb8fb5","freq_resp","img/green_2bandit_b.png","70","70","test","","","","9","",""
"null","384943","pSARL_v2","pSARL_v28dvb6hr0","63bc819194ca25a555eb8fb5","fixation","img/fixation.png","null","","test","","","","","",""
"375.7000000476837","385328","pSARL_v2","pSARL_v28dvb6hr0","63bc819194ca25a555eb8fb5","freq","img/green_2bandit_b2.png","70","70","test","1","186","186","9","",""
"null","385777","pSARL_v2","pSARL_v28dvb6hr0","63bc819194ca25a555eb8fb5","freq_resp","img/green_2bandit_b.png","70","70","test","","","","9","",""
"null","385947","pSARL_v2","pSARL_v28dvb6hr0","63bc819194ca25a555eb8fb5","fixation","img/fixation.png","null","","test","","","","","",""
"333.5","386291","pSARL_v2","pSARL_v28dvb6hr0","63bc819194ca25a555eb8fb5","freq","img/green_2bandit_b2.png","70","70","test","1","187","187","9","",""
"null","386768","pSARL_v2","pSARL_v28dvb6hr0","63bc819194ca25a555eb8fb5","freq_resp","img/green_2bandit_b.png","70","70","test","","","","9","",""
"null","386938","pSARL_v2","pSARL_v28dvb6hr0","63bc819194ca25a555eb8fb5","fixation","img/fixation.png","null","","test","","","","","",""
"376.60000014305115","387325","pSARL_v2","pSARL_v28dvb6hr0","63bc819194ca25a555eb8fb5","freq","img/green_2bandit_b2.png","70","70","test","1","188","188","9","",""
"null","387762","pSARL_v2","pSARL_v28dvb6hr0","63bc819194ca25a555eb8fb5","freq_resp","img/green_2bandit_b.png","70","70","test","","","","9","",""
"null","387933","pSARL_v2","pSARL_v28dvb6hr0","63bc819194ca25a555eb8fb5","fixation","img/fixation.png","null","","test","","","","","",""
"535.2999999523163","388478","pSARL_v2","pSARL_v28dvb6hr0","63bc819194ca25a555eb8fb5","infreq","img/orange_2bandit_b2.png","68","68","test","1","189","189","9","",""
"null","388764","pSARL_v2","pSARL_v28dvb6hr0","63bc819194ca25a555eb8fb5","infreq_resp","img/orange_2bandit_b.png","68","68","test","","","","9","",""
"null","388938","pSARL_v2","pSARL_v28dvb6hr0","63bc819194ca25a555eb8fb5","fixation","img/fixation.png","null","","test","","","","","",""
"450","389395","pSARL_v2","pSARL_v28dvb6hr0","63bc819194ca25a555eb8fb5","freq","img/green_2bandit_b2.png","70","70","test","1","190","190","9","",""
"null","389755","pSARL_v2","pSARL_v28dvb6hr0","63bc819194ca25a555eb8fb5","freq_resp","img/green_2bandit_b.png","70","70","test","","","","9","",""
"null","389929","pSARL_v2","pSARL_v28dvb6hr0","63bc819194ca25a555eb8fb5","fixation","img/fixation.png","null","","test","","","","","",""
"401.2999999523163","390341","pSARL_v2","pSARL_v28dvb6hr0","63bc819194ca25a555eb8fb5","freq","img/green_2bandit_b2.png","70","70","test","1","191","191","9","",""
"null","390760","pSARL_v2","pSARL_v28dvb6hr0","63bc819194ca25a555eb8fb5","freq_resp","img/green_2bandit_b.png","70","70","test","","","","9","",""
"null","390932","pSARL_v2","pSARL_v28dvb6hr0","63bc819194ca25a555eb8fb5","fixation","img/fixation.png","null","","test","","","","","",""
"554.3999998569489","391497","pSARL_v2","pSARL_v28dvb6hr0","63bc819194ca25a555eb8fb5","freq","img/green_2bandit_b2.png","70","70","test","1","192","192","9","",""
"null","391762","pSARL_v2","pSARL_v28dvb6hr0","63bc819194ca25a555eb8fb5","freq_resp","img/green_2bandit_b.png","70","70","test","","","","9","",""
"null","391935","pSARL_v2","pSARL_v28dvb6hr0","63bc819194ca25a555eb8fb5","fixation","img/fixation.png","null","","test","","","","","",""
"518.7999999523163","392465","pSARL_v2","pSARL_v28dvb6hr0","63bc819194ca25a555eb8fb5","freq","img/green_2bandit_b2.png","70","70","test","1","193","193","9","",""
"null","392760","pSARL_v2","pSARL_v28dvb6hr0","63bc819194ca25a555eb8fb5","freq_resp","img/green_2bandit_b.png","70","70","test","","","","9","",""
"null","392931","pSARL_v2","pSARL_v28dvb6hr0","63bc819194ca25a555eb8fb5","fixation","img/fixation.png","null","","test","","","","","",""
"536.3000001907349","393477","pSARL_v2","pSARL_v28dvb6hr0","63bc819194ca25a555eb8fb5","freq","img/green_2bandit_b2.png","70","70","test","1","194","194","9","",""
"null","393764","pSARL_v2","pSARL_v28dvb6hr0","63bc819194ca25a555eb8fb5","freq_resp","img/green_2bandit_b.png","70","70","test","","","","9","",""
"null","393937","pSARL_v2","pSARL_v28dvb6hr0","63bc819194ca25a555eb8fb5","fixation","img/fixation.png","null","","test","","","","","",""
"401.7999999523163","394348","pSARL_v2","pSARL_v28dvb6hr0","63bc819194ca25a555eb8fb5","freq","img/green_2bandit_b2.png","70","70","test","1","195","195","9","",""
"null","394771","pSARL_v2","pSARL_v28dvb6hr0","63bc819194ca25a555eb8fb5","freq_resp","img/green_2bandit_b.png","70","70","test","","","","9","",""
"null","394941","pSARL_v2","pSARL_v28dvb6hr0","63bc819194ca25a555eb8fb5","fixation","img/fixation.png","null","","test","","","","","",""
"312.2999999523163","395264","pSARL_v2","pSARL_v28dvb6hr0","63bc819194ca25a555eb8fb5","freq","img/green_2bandit_b2.png","70","70","test","1","196","196","9","",""
"null","395761","pSARL_v2","pSARL_v28dvb6hr0","63bc819194ca25a555eb8fb5","freq_resp","img/green_2bandit_b.png","70","70","test","","","","9","",""
"null","395922","pSARL_v2","pSARL_v28dvb6hr0","63bc819194ca25a555eb8fb5","fixation","img/fixation.png","null","","test","","","","","",""
"368.60000014305115","396300","pSARL_v2","pSARL_v28dvb6hr0","63bc819194ca25a555eb8fb5","freq","img/green_2bandit_b2.png","70","70","test","1","197","197","9","",""
"null","396747","pSARL_v2","pSARL_v28dvb6hr0","63bc819194ca25a555eb8fb5","freq_resp","img/green_2bandit_b.png","70","70","test","","","","9","",""
"null","396919","pSARL_v2","pSARL_v28dvb6hr0","63bc819194ca25a555eb8fb5","fixation","img/fixation.png","null","","test","","","","","",""
"356.2999999523163","397282","pSARL_v2","pSARL_v28dvb6hr0","63bc819194ca25a555eb8fb5","freq","img/green_2bandit_b2.png","70","70","test","1","198","198","9","",""
"null","397732","pSARL_v2","pSARL_v28dvb6hr0","63bc819194ca25a555eb8fb5","freq_resp","img/green_2bandit_b.png","70","70","test","","","","9","",""
"null","397890","pSARL_v2","pSARL_v28dvb6hr0","63bc819194ca25a555eb8fb5","fixation","img/fixation.png","null","","test","","","","","",""
"341.09999990463257","398240","pSARL_v2","pSARL_v28dvb6hr0","63bc819194ca25a555eb8fb5","freq","img/green_2bandit_b2.png","70","70","test","1","199","199","9","",""
"null","398722","pSARL_v2","pSARL_v28dvb6hr0","63bc819194ca25a555eb8fb5","freq_resp","img/green_2bandit_b.png","70","70","test","","","","9","",""
"null","398891","pSARL_v2","pSARL_v28dvb6hr0","63bc819194ca25a555eb8fb5","fixation","img/fixation.png","null","","test","","","","","",""
"523.7999999523163","399424","pSARL_v2","pSARL_v28dvb6hr0","63bc819194ca25a555eb8fb5","reward","img/slot.png","74","","test","","","","","",""
"null","400186","pSARL_v2","pSARL_v28dvb6hr0","63bc819194ca25a555eb8fb5","points","<div class=""verylowPoints""> -3 </div>","null","na","test","","","","9","-3","8"
"605.7000000476837","400802","pSARL_v2","pSARL_v28dvb6hr0","63bc819194ca25a555eb8fb5","freq","img/green_2bandit_b2.png","70","70","test","1","200","200","10","",""
"null","401010","pSARL_v2","pSARL_v28dvb6hr0","63bc819194ca25a555eb8fb5","freq_resp","img/green_2bandit_b.png","70","70","test","","","","10","",""
"null","401181","pSARL_v2","pSARL_v28dvb6hr0","63bc819194ca25a555eb8fb5","fixation","img/fixation.png","null","","test","","","","","",""
"662.9000000953674","401854","pSARL_v2","pSARL_v28dvb6hr0","63bc819194ca25a555eb8fb5","infreq","img/orange_2bandit_b2.png","68","68","test","1","201","201","10","",""
"null","402014","pSARL_v2","pSARL_v28dvb6hr0","63bc819194ca25a555eb8fb5","infreq_resp","img/orange_2bandit_b.png","68","68","test","","","","10","",""
"null","402187","pSARL_v2","pSARL_v28dvb6hr0","63bc819194ca25a555eb8fb5","fixation","img/fixation.png","null","","test","","","","","",""
"577.5","402775","pSARL_v2","pSARL_v28dvb6hr0","63bc819194ca25a555eb8fb5","infreq","img/orange_2bandit_b2.png","68","68","test","1","202","202","10","",""
"null","403017","pSARL_v2","pSARL_v28dvb6hr0","63bc819194ca25a555eb8fb5","infreq_resp","img/orange_2bandit_b.png","68","68","test","","","","10","",""
"null","403189","pSARL_v2","pSARL_v28dvb6hr0","63bc819194ca25a555eb8fb5","fixation","img/fixation.png","null","","test","","","","","",""
"523.2999999523163","403723","pSARL_v2","pSARL_v28dvb6hr0","63bc819194ca25a555eb8fb5","freq","img/green_2bandit_b2.png","70","70","test","1","203","203","10","",""
"null","404017","pSARL_v2","pSARL_v28dvb6hr0","63bc819194ca25a555eb8fb5","freq_resp","img/green_2bandit_b.png","70","70","test","","","","10","",""
"null","404187","pSARL_v2","pSARL_v28dvb6hr0","63bc819194ca25a555eb8fb5","fixation","img/fixation.png","null","","test","","","","","",""
"481.2999999523163","404678","pSARL_v2","pSARL_v28dvb6hr0","63bc819194ca25a555eb8fb5","freq","img/green_2bandit_b2.png","70","70","test","1","204","204","10","",""
"null","405021","pSARL_v2","pSARL_v28dvb6hr0","63bc819194ca25a555eb8fb5","freq_resp","img/green_2bandit_b.png","70","70","test","","","","10","",""
"null","405190","pSARL_v2","pSARL_v28dvb6hr0","63bc819194ca25a555eb8fb5","fixation","img/fixation.png","null","","test","","","","","",""
"344.89999985694885","405545","pSARL_v2","pSARL_v28dvb6hr0","63bc819194ca25a555eb8fb5","freq","img/green_2bandit_b2.png","70","70","test","1","205","205","10","",""
"null","406017","pSARL_v2","pSARL_v28dvb6hr0","63bc819194ca25a555eb8fb5","freq_resp","img/green_2bandit_b.png","70","70","test","","","","10","",""
"null","406188","pSARL_v2","pSARL_v28dvb6hr0","63bc819194ca25a555eb8fb5","fixation","img/fixation.png","null","","test","","","","","",""
"373.5","406571","pSARL_v2","pSARL_v28dvb6hr0","63bc819194ca25a555eb8fb5","freq","img/green_2bandit_b2.png","70","70","test","1","206","206","10","",""
"null","407020","pSARL_v2","pSARL_v28dvb6hr0","63bc819194ca25a555eb8fb5","freq_resp","img/green_2bandit_b.png","70","70","test","","","","10","",""
"null","407181","pSARL_v2","pSARL_v28dvb6hr0","63bc819194ca25a555eb8fb5","fixation","img/fixation.png","null","","test","","","","","",""
