"rt","time_elapsed","expId","subject","prolificID","trialType","stimulus","key_press","corrresp","phase","corr","trialNum","attentionRunNum","blockNum","points","rlNum"
"9958","9968","pSARL_v2","pSARL_v227d6hw6h","65028df3dcbf9224299692c4","","","","","","","","","","",""
"","19332","pSARL_v2","pSARL_v227d6hw6h","65028df3dcbf9224299692c4","fullscreen","","","","","","","","","",""
"98467","117807","pSARL_v2","pSARL_v227d6hw6h","65028df3dcbf9224299692c4","","","","","","","","","","",""
"null","118618","pSARL_v2","pSARL_v227d6hw6h","65028df3dcbf9224299692c4","freqPrac","img/green_2bandit_a2.png","null","70","prac","0","","","","",""
"null","119630","pSARL_v2","pSARL_v227d6hw6h","65028df3dcbf9224299692c4","feedback","img/tooSlow.png","null","na","prac","","","","","",""
"null","119791","pSARL_v2","pSARL_v227d6hw6h","65028df3dcbf9224299692c4","fixation","img/fixation.png","null","","prac","","","","","",""
"null","120604","pSARL_v2","pSARL_v227d6hw6h","65028df3dcbf9224299692c4","infreqPrac","img/orange_2bandit_a2.png","null","68","prac","0","","","","",""
"null","121614","pSARL_v2","pSARL_v227d6hw6h","65028df3dcbf9224299692c4","feedback","img/tooSlow.png","null","na","prac","","","","","",""
"null","121777","pSARL_v2","pSARL_v227d6hw6h","65028df3dcbf9224299692c4","fixation","img/fixation.png","null","","prac","","","","","",""
"null","122585","pSARL_v2","pSARL_v227d6hw6h","65028df3dcbf9224299692c4","freqPrac","img/green_2bandit_a2.png","null","70","prac","0","","","","",""
"null","123598","pSARL_v2","pSARL_v227d6hw6h","65028df3dcbf9224299692c4","feedback","img/tooSlow.png","null","na","prac","","","","","",""
"null","123762","pSARL_v2","pSARL_v227d6hw6h","65028df3dcbf9224299692c4","fixation","img/fixation.png","null","","prac","","","","","",""
"535.9999999999854","124312","pSARL_v2","pSARL_v227d6hw6h","65028df3dcbf9224299692c4","infreqPrac","img/orange_2bandit_a2.png","68","68","prac","1","","","","",""
"535.9999999999854","124588","pSARL_v2","pSARL_v227d6hw6h","65028df3dcbf9224299692c4","infreqPrac_resp","img/orange_2bandit_a.png","68","68","prac","","","","","",""
"null","124750","pSARL_v2","pSARL_v227d6hw6h","65028df3dcbf9224299692c4","fixation","img/fixation.png","null","","prac","","","","","",""
"607","125368","pSARL_v2","pSARL_v227d6hw6h","65028df3dcbf9224299692c4","infreqPrac","img/orange_2bandit_a2.png","68","68","prac","1","","","","",""
"607","125575","pSARL_v2","pSARL_v227d6hw6h","65028df3dcbf9224299692c4","infreqPrac_resp","img/orange_2bandit_a.png","68","68","prac","","","","","",""
"null","125737","pSARL_v2","pSARL_v227d6hw6h","65028df3dcbf9224299692c4","fixation","img/fixation.png","null","","prac","","","","","",""
"429","126174","pSARL_v2","pSARL_v227d6hw6h","65028df3dcbf9224299692c4","infreqPrac","img/orange_2bandit_a2.png","68","68","prac","1","","","","",""
"429","126558","pSARL_v2","pSARL_v227d6hw6h","65028df3dcbf9224299692c4","infreqPrac_resp","img/orange_2bandit_a.png","68","68","prac","","","","","",""
"null","126721","pSARL_v2","pSARL_v227d6hw6h","65028df3dcbf9224299692c4","fixation","img/fixation.png","null","","prac","","","","","",""
"480","127211","pSARL_v2","pSARL_v227d6hw6h","65028df3dcbf9224299692c4","freqPrac","img/green_2bandit_a2.png","70","70","prac","1","","","","",""
"480","127541","pSARL_v2","pSARL_v227d6hw6h","65028df3dcbf9224299692c4","freqPrac_resp","img/green_2bandit_a.png","70","70","prac","","","","","",""
"null","127700","pSARL_v2","pSARL_v227d6hw6h","65028df3dcbf9224299692c4","fixation","img/fixation.png","null","","prac","","","","","",""
"513.0000000000146","128222","pSARL_v2","pSARL_v227d6hw6h","65028df3dcbf9224299692c4","infreqPrac","img/orange_2bandit_a2.png","68","68","prac","1","","","","",""
"513.0000000000146","128518","pSARL_v2","pSARL_v227d6hw6h","65028df3dcbf9224299692c4","infreqPrac_resp","img/orange_2bandit_a.png","68","68","prac","","","","","",""
"null","128678","pSARL_v2","pSARL_v227d6hw6h","65028df3dcbf9224299692c4","fixation","img/fixation.png","null","","prac","","","","","",""
"321.9999999999709","129011","pSARL_v2","pSARL_v227d6hw6h","65028df3dcbf9224299692c4","freqPrac","img/green_2bandit_a2.png","70","70","prac","1","","","","",""
"321.9999999999709","129501","pSARL_v2","pSARL_v227d6hw6h","65028df3dcbf9224299692c4","freqPrac_resp","img/green_2bandit_a.png","70","70","prac","","","","","",""
"null","129659","pSARL_v2","pSARL_v227d6hw6h","65028df3dcbf9224299692c4","fixation","img/fixation.png","null","","prac","","","","","",""
"510.99999999998545","130179","pSARL_v2","pSARL_v227d6hw6h","65028df3dcbf9224299692c4","freqPrac","img/green_2bandit_a2.png","70","70","prac","1","","","","",""
"510.99999999998545","130478","pSARL_v2","pSARL_v227d6hw6h","65028df3dcbf9224299692c4","freqPrac_resp","img/green_2bandit_a.png","70","70","prac","","","","","",""
"null","130638","pSARL_v2","pSARL_v227d6hw6h","65028df3dcbf9224299692c4","fixation","img/fixation.png","null","","prac","","","","","",""
"35210","165854","pSARL_v2","pSARL_v227d6hw6h","65028df3dcbf9224299692c4","","","","","prac","","","","","",""
"1307","167171","pSARL_v2","pSARL_v227d6hw6h","65028df3dcbf9224299692c4","rewardPractice","img/slot.png","74","","prac","","","","","",""
"null","167934","pSARL_v2","pSARL_v227d6hw6h","65028df3dcbf9224299692c4","feedback","<div class=""veryhighPoints""> +15 </div>","null","na","prac","","","","","",""
"null","168093","pSARL_v2","pSARL_v227d6hw6h","65028df3dcbf9224299692c4","fixation","img/fixation.png","null","","prac","","","","","",""
"24027.00000000003","192126","pSARL_v2","pSARL_v227d6hw6h","65028df3dcbf9224299692c4","","","","","prac","","","","","",""
"481.0000000000291","192618","pSARL_v2","pSARL_v227d6hw6h","65028df3dcbf9224299692c4","freq","img/green_2bandit_a2.png","70","70","test","1","1","1","1","",""
"null","192947","pSARL_v2","pSARL_v227d6hw6h","65028df3dcbf9224299692c4","freq_resp","img/green_2bandit_a.png","70","70","test","","","","1","",""
"null","193106","pSARL_v2","pSARL_v227d6hw6h","65028df3dcbf9224299692c4","fixation","img/fixation.png","null","","test","","","","","",""
"715.9999999999709","193835","pSARL_v2","pSARL_v227d6hw6h","65028df3dcbf9224299692c4","freq","img/green_2bandit_a2.png","70","70","test","1","2","2","1","",""
"null","193928","pSARL_v2","pSARL_v227d6hw6h","65028df3dcbf9224299692c4","freq_resp","img/green_2bandit_a.png","70","70","test","","","","1","",""
"null","194089","pSARL_v2","pSARL_v227d6hw6h","65028df3dcbf9224299692c4","fixation","img/fixation.png","null","","test","","","","","",""
"476.9999999999709","194577","pSARL_v2","pSARL_v227d6hw6h","65028df3dcbf9224299692c4","freq","img/green_2bandit_a2.png","70","70","test","1","3","3","1","",""
"null","194912","pSARL_v2","pSARL_v227d6hw6h","65028df3dcbf9224299692c4","freq_resp","img/green_2bandit_a.png","70","70","test","","","","1","",""
"null","195072","pSARL_v2","pSARL_v227d6hw6h","65028df3dcbf9224299692c4","fixation","img/fixation.png","null","","test","","","","","",""
"438","195518","pSARL_v2","pSARL_v227d6hw6h","65028df3dcbf9224299692c4","freq","img/green_2bandit_a2.png","70","70","test","1","4","4","1","",""
"null","195893","pSARL_v2","pSARL_v227d6hw6h","65028df3dcbf9224299692c4","freq_resp","img/green_2bandit_a.png","70","70","test","","","","1","",""
"null","196055","pSARL_v2","pSARL_v227d6hw6h","65028df3dcbf9224299692c4","fixation","img/fixation.png","null","","test","","","","","",""
"333","196398","pSARL_v2","pSARL_v227d6hw6h","65028df3dcbf9224299692c4","freq","img/green_2bandit_a2.png","70","70","test","1","5","5","1","",""
"null","196877","pSARL_v2","pSARL_v227d6hw6h","65028df3dcbf9224299692c4","freq_resp","img/green_2bandit_a.png","70","70","test","","","","1","",""
"null","197037","pSARL_v2","pSARL_v227d6hw6h","65028df3dcbf9224299692c4","fixation","img/fixation.png","null","","test","","","","","",""
"318","197368","pSARL_v2","pSARL_v227d6hw6h","65028df3dcbf9224299692c4","freq","img/green_2bandit_a2.png","70","70","test","1","6","6","1","",""
"null","197863","pSARL_v2","pSARL_v227d6hw6h","65028df3dcbf9224299692c4","freq_resp","img/green_2bandit_a.png","70","70","test","","","","1","",""
"null","198022","pSARL_v2","pSARL_v227d6hw6h","65028df3dcbf9224299692c4","fixation","img/fixation.png","null","","test","","","","","",""
"279","198309","pSARL_v2","pSARL_v227d6hw6h","65028df3dcbf9224299692c4","freq","img/green_2bandit_a2.png","70","70","test","1","7","7","1","",""
"null","198843","pSARL_v2","pSARL_v227d6hw6h","65028df3dcbf9224299692c4","freq_resp","img/green_2bandit_a.png","70","70","test","","","","1","",""
"null","199005","pSARL_v2","pSARL_v227d6hw6h","65028df3dcbf9224299692c4","fixation","img/fixation.png","null","","test","","","","","",""
"465.0000000000291","199482","pSARL_v2","pSARL_v227d6hw6h","65028df3dcbf9224299692c4","infreq","img/orange_2bandit_a2.png","68","68","test","1","8","8","1","",""
"null","199828","pSARL_v2","pSARL_v227d6hw6h","65028df3dcbf9224299692c4","infreq_resp","img/orange_2bandit_a.png","68","68","test","","","","1","",""
"null","199987","pSARL_v2","pSARL_v227d6hw6h","65028df3dcbf9224299692c4","fixation","img/fixation.png","null","","test","","","","","",""
"451","200447","pSARL_v2","pSARL_v227d6hw6h","65028df3dcbf9224299692c4","freq","img/green_2bandit_a2.png","70","70","test","1","9","9","1","",""
"null","200810","pSARL_v2","pSARL_v227d6hw6h","65028df3dcbf9224299692c4","freq_resp","img/green_2bandit_a.png","70","70","test","","","","1","",""
"null","200973","pSARL_v2","pSARL_v227d6hw6h","65028df3dcbf9224299692c4","fixation","img/fixation.png","null","","test","","","","","",""
"456.0000000000291","201440","pSARL_v2","pSARL_v227d6hw6h","65028df3dcbf9224299692c4","freq","img/green_2bandit_a2.png","70","70","test","1","10","10","1","",""
"null","201792","pSARL_v2","pSARL_v227d6hw6h","65028df3dcbf9224299692c4","freq_resp","img/green_2bandit_a.png","70","70","test","","","","1","",""
"null","201955","pSARL_v2","pSARL_v227d6hw6h","65028df3dcbf9224299692c4","fixation","img/fixation.png","null","","test","","","","","",""
"327","202294","pSARL_v2","pSARL_v227d6hw6h","65028df3dcbf9224299692c4","freq","img/green_2bandit_a2.png","70","70","test","1","11","11","1","",""
"null","202781","pSARL_v2","pSARL_v227d6hw6h","65028df3dcbf9224299692c4","freq_resp","img/green_2bandit_a.png","70","70","test","","","","1","",""
"null","202944","pSARL_v2","pSARL_v227d6hw6h","65028df3dcbf9224299692c4","fixation","img/fixation.png","null","","test","","","","","",""
"306.0000000000291","203260","pSARL_v2","pSARL_v227d6hw6h","65028df3dcbf9224299692c4","freq","img/green_2bandit_a2.png","70","70","test","1","12","12","1","",""
"null","203764","pSARL_v2","pSARL_v227d6hw6h","65028df3dcbf9224299692c4","freq_resp","img/green_2bandit_a.png","70","70","test","","","","1","",""
"null","203926","pSARL_v2","pSARL_v227d6hw6h","65028df3dcbf9224299692c4","fixation","img/fixation.png","null","","test","","","","","",""
"334.9999999999709","204272","pSARL_v2","pSARL_v227d6hw6h","65028df3dcbf9224299692c4","freq","img/green_2bandit_a2.png","70","70","test","1","13","13","1","",""
"null","204746","pSARL_v2","pSARL_v227d6hw6h","65028df3dcbf9224299692c4","freq_resp","img/green_2bandit_a.png","70","70","test","","","","1","",""
"null","204909","pSARL_v2","pSARL_v227d6hw6h","65028df3dcbf9224299692c4","fixation","img/fixation.png","null","","test","","","","","",""
"366","205286","pSARL_v2","pSARL_v227d6hw6h","65028df3dcbf9224299692c4","freq","img/green_2bandit_a2.png","70","70","test","1","14","14","1","",""
"null","205733","pSARL_v2","pSARL_v227d6hw6h","65028df3dcbf9224299692c4","freq_resp","img/green_2bandit_a.png","70","70","test","","","","1","",""
"null","205893","pSARL_v2","pSARL_v227d6hw6h","65028df3dcbf9224299692c4","fixation","img/fixation.png","null","","test","","","","","",""
"350","206253","pSARL_v2","pSARL_v227d6hw6h","65028df3dcbf9224299692c4","freq","img/green_2bandit_a2.png","70","70","test","1","15","15","1","",""
"null","206714","pSARL_v2","pSARL_v227d6hw6h","65028df3dcbf9224299692c4","freq_resp","img/green_2bandit_a.png","70","70","test","","","","1","",""
"null","206873","pSARL_v2","pSARL_v227d6hw6h","65028df3dcbf9224299692c4","fixation","img/fixation.png","null","","test","","","","","",""
"293.0000000000291","207174","pSARL_v2","pSARL_v227d6hw6h","65028df3dcbf9224299692c4","freq","img/green_2bandit_a2.png","70","70","test","1","16","16","1","",""
"null","207689","pSARL_v2","pSARL_v227d6hw6h","65028df3dcbf9224299692c4","freq_resp","img/green_2bandit_a.png","70","70","test","","","","1","",""
"null","207849","pSARL_v2","pSARL_v227d6hw6h","65028df3dcbf9224299692c4","fixation","img/fixation.png","null","","test","","","","","",""
"351","208208","pSARL_v2","pSARL_v227d6hw6h","65028df3dcbf9224299692c4","freq","img/green_2bandit_a2.png","70","70","test","1","17","17","1","",""
"null","208669","pSARL_v2","pSARL_v227d6hw6h","65028df3dcbf9224299692c4","freq_resp","img/green_2bandit_a.png","70","70","test","","","","1","",""
"null","208831","pSARL_v2","pSARL_v227d6hw6h","65028df3dcbf9224299692c4","fixation","img/fixation.png","null","","test","","","","","",""
"337","209179","pSARL_v2","pSARL_v227d6hw6h","65028df3dcbf9224299692c4","freq","img/green_2bandit_a2.png","70","70","test","1","18","18","1","",""
"null","209654","pSARL_v2","pSARL_v227d6hw6h","65028df3dcbf9224299692c4","freq_resp","img/green_2bandit_a.png","70","70","test","","","","1","",""
"null","209815","pSARL_v2","pSARL_v227d6hw6h","65028df3dcbf9224299692c4","fixation","img/fixation.png","null","","test","","","","","",""
"299.9999999999709","210124","pSARL_v2","pSARL_v227d6hw6h","65028df3dcbf9224299692c4","freq","img/green_2bandit_a2.png","70","70","test","1","19","19","1","",""
"null","210636","pSARL_v2","pSARL_v227d6hw6h","65028df3dcbf9224299692c4","freq_resp","img/green_2bandit_a.png","70","70","test","","","","1","",""
"null","210795","pSARL_v2","pSARL_v227d6hw6h","65028df3dcbf9224299692c4","fixation","img/fixation.png","null","","test","","","","","",""
"332","211136","pSARL_v2","pSARL_v227d6hw6h","65028df3dcbf9224299692c4","freq","img/green_2bandit_a2.png","70","70","test","1","20","20","1","",""
"null","211613","pSARL_v2","pSARL_v227d6hw6h","65028df3dcbf9224299692c4","freq_resp","img/green_2bandit_a.png","70","70","test","","","","1","",""
"null","211776","pSARL_v2","pSARL_v227d6hw6h","65028df3dcbf9224299692c4","fixation","img/fixation.png","null","","test","","","","","",""
"318","212104","pSARL_v2","pSARL_v227d6hw6h","65028df3dcbf9224299692c4","freq","img/green_2bandit_a2.png","70","70","test","1","21","21","1","",""
"null","212599","pSARL_v2","pSARL_v227d6hw6h","65028df3dcbf9224299692c4","freq_resp","img/green_2bandit_a.png","70","70","test","","","","1","",""
"null","212761","pSARL_v2","pSARL_v227d6hw6h","65028df3dcbf9224299692c4","fixation","img/fixation.png","null","","test","","","","","",""
"299","213072","pSARL_v2","pSARL_v227d6hw6h","65028df3dcbf9224299692c4","freq","img/green_2bandit_a2.png","70","70","test","1","22","22","1","",""
"null","213582","pSARL_v2","pSARL_v227d6hw6h","65028df3dcbf9224299692c4","freq_resp","img/green_2bandit_a.png","70","70","test","","","","1","",""
"null","213742","pSARL_v2","pSARL_v227d6hw6h","65028df3dcbf9224299692c4","fixation","img/fixation.png","null","","test","","","","","",""
"286","214039","pSARL_v2","pSARL_v227d6hw6h","65028df3dcbf9224299692c4","infreq","img/orange_2bandit_a2.png","70","68","test","0","23","23","1","",""
"null","214566","pSARL_v2","pSARL_v227d6hw6h","65028df3dcbf9224299692c4","infreq_resp","img/orange_2bandit_a.png","70","68","test","","","","1","",""
"null","214728","pSARL_v2","pSARL_v227d6hw6h","65028df3dcbf9224299692c4","fixation","img/fixation.png","null","","test","","","","","",""
"740","215480","pSARL_v2","pSARL_v227d6hw6h","65028df3dcbf9224299692c4","freq","img/green_2bandit_a2.png","70","70","test","1","24","24","1","",""
"null","215543","pSARL_v2","pSARL_v227d6hw6h","65028df3dcbf9224299692c4","freq_resp","img/green_2bandit_a.png","70","70","test","","","","1","",""
"null","215705","pSARL_v2","pSARL_v227d6hw6h","65028df3dcbf9224299692c4","fixation","img/fixation.png","null","","test","","","","","",""
"573","216289","pSARL_v2","pSARL_v227d6hw6h","65028df3dcbf9224299692c4","freq","img/green_2bandit_a2.png","70","70","test","1","25","25","1","",""
"null","216530","pSARL_v2","pSARL_v227d6hw6h","65028df3dcbf9224299692c4","freq_resp","img/green_2bandit_a.png","70","70","test","","","","1","",""
"null","216693","pSARL_v2","pSARL_v227d6hw6h","65028df3dcbf9224299692c4","fixation","img/fixation.png","null","","test","","","","","",""
"373","217077","pSARL_v2","pSARL_v227d6hw6h","65028df3dcbf9224299692c4","freq","img/green_2bandit_a2.png","70","70","test","1","26","26","1","",""
"null","217513","pSARL_v2","pSARL_v227d6hw6h","65028df3dcbf9224299692c4","freq_resp","img/green_2bandit_a.png","70","70","test","","","","1","",""
"null","217674","pSARL_v2","pSARL_v227d6hw6h","65028df3dcbf9224299692c4","fixation","img/fixation.png","null","","test","","","","","",""
"921.0000000000291","218606","pSARL_v2","pSARL_v227d6hw6h","65028df3dcbf9224299692c4","reward","img/slot.png","74","","test","","","","","",""
"null","219366","pSARL_v2","pSARL_v227d6hw6h","65028df3dcbf9224299692c4","points","<div class=""verylowPoints""> -6 </div>","null","na","test","","","","1","-6","0"
"null","220176","pSARL_v2","pSARL_v227d6hw6h","65028df3dcbf9224299692c4","freq","img/green_2bandit_a2.png","null","70","test","0","27","27","2","",""
"null","220337","pSARL_v2","pSARL_v227d6hw6h","65028df3dcbf9224299692c4","fixation","img/fixation.png","null","","test","","","","","",""
"193","220539","pSARL_v2","pSARL_v227d6hw6h","65028df3dcbf9224299692c4","freq","img/green_2bandit_a2.png","70","70","test","1","28","28","2","",""
"null","221158","pSARL_v2","pSARL_v227d6hw6h","65028df3dcbf9224299692c4","freq_resp","img/green_2bandit_a.png","70","70","test","","","","2","",""
"null","221317","pSARL_v2","pSARL_v227d6hw6h","65028df3dcbf9224299692c4","fixation","img/fixation.png","null","","test","","","","","",""
"473.0000000000291","221799","pSARL_v2","pSARL_v227d6hw6h","65028df3dcbf9224299692c4","freq","img/green_2bandit_a2.png","70","70","test","1","29","29","2","",""
"null","222138","pSARL_v2","pSARL_v227d6hw6h","65028df3dcbf9224299692c4","freq_resp","img/green_2bandit_a.png","70","70","test","","","","2","",""
"null","222297","pSARL_v2","pSARL_v227d6hw6h","65028df3dcbf9224299692c4","fixation","img/fixation.png","null","","test","","","","","",""
"505.0000000000291","222811","pSARL_v2","pSARL_v227d6hw6h","65028df3dcbf9224299692c4","infreq","img/orange_2bandit_a2.png","68","68","test","1","30","30","2","",""
"null","223116","pSARL_v2","pSARL_v227d6hw6h","65028df3dcbf9224299692c4","infreq_resp","img/orange_2bandit_a.png","68","68","test","","","","2","",""
"null","223277","pSARL_v2","pSARL_v227d6hw6h","65028df3dcbf9224299692c4","fixation","img/fixation.png","null","","test","","","","","",""
"null","224086","pSARL_v2","pSARL_v227d6hw6h","65028df3dcbf9224299692c4","freq","img/green_2bandit_a2.png","null","70","test","0","31","31","2","",""
"null","224247","pSARL_v2","pSARL_v227d6hw6h","65028df3dcbf9224299692c4","fixation","img/fixation.png","null","","test","","","","","",""
"63","224313","pSARL_v2","pSARL_v227d6hw6h","65028df3dcbf9224299692c4","freq","img/green_2bandit_a2.png","70","70","test","1","32","32","2","",""
"null","225058","pSARL_v2","pSARL_v227d6hw6h","65028df3dcbf9224299692c4","freq_resp","img/green_2bandit_a.png","70","70","test","","","","2","",""
"null","225221","pSARL_v2","pSARL_v227d6hw6h","65028df3dcbf9224299692c4","fixation","img/fixation.png","null","","test","","","","","",""
"528.0000000000291","225760","pSARL_v2","pSARL_v227d6hw6h","65028df3dcbf9224299692c4","freq","img/green_2bandit_a2.png","70","70","test","1","33","33","2","",""
"null","226043","pSARL_v2","pSARL_v227d6hw6h","65028df3dcbf9224299692c4","freq_resp","img/green_2bandit_a.png","70","70","test","","","","2","",""
"null","226203","pSARL_v2","pSARL_v227d6hw6h","65028df3dcbf9224299692c4","fixation","img/fixation.png","null","","test","","","","","",""
"671.0000000000291","226887","pSARL_v2","pSARL_v227d6hw6h","65028df3dcbf9224299692c4","infreq","img/orange_2bandit_a2.png","68","68","test","1","34","34","2","",""
"null","227026","pSARL_v2","pSARL_v227d6hw6h","65028df3dcbf9224299692c4","infreq_resp","img/orange_2bandit_a.png","68","68","test","","","","2","",""
"null","227185","pSARL_v2","pSARL_v227d6hw6h","65028df3dcbf9224299692c4","fixation","img/fixation.png","null","","test","","","","","",""
"658","227854","pSARL_v2","pSARL_v227d6hw6h","65028df3dcbf9224299692c4","freq","img/green_2bandit_a2.png","70","70","test","1","35","35","2","",""
"null","228005","pSARL_v2","pSARL_v227d6hw6h","65028df3dcbf9224299692c4","freq_resp","img/green_2bandit_a.png","70","70","test","","","","2","",""
"null","228167","pSARL_v2","pSARL_v227d6hw6h","65028df3dcbf9224299692c4","fixation","img/fixation.png","null","","test","","","","","",""
"463","228641","pSARL_v2","pSARL_v227d6hw6h","65028df3dcbf9224299692c4","freq","img/green_2bandit_a2.png","70","70","test","1","36","36","2","",""
"null","228989","pSARL_v2","pSARL_v227d6hw6h","65028df3dcbf9224299692c4","freq_resp","img/green_2bandit_a.png","70","70","test","","","","2","",""
"null","229149","pSARL_v2","pSARL_v227d6hw6h","65028df3dcbf9224299692c4","fixation","img/fixation.png","null","","test","","","","","",""
"605","229767","pSARL_v2","pSARL_v227d6hw6h","65028df3dcbf9224299692c4","freq","img/green_2bandit_a2.png","70","70","test","1","37","37","2","",""
"null","229976","pSARL_v2","pSARL_v227d6hw6h","65028df3dcbf9224299692c4","freq_resp","img/green_2bandit_a.png","70","70","test","","","","2","",""
"null","230138","pSARL_v2","pSARL_v227d6hw6h","65028df3dcbf9224299692c4","fixation","img/fixation.png","null","","test","","","","","",""
"314.0000000000291","230462","pSARL_v2","pSARL_v227d6hw6h","65028df3dcbf9224299692c4","freq","img/green_2bandit_a2.png","70","70","test","1","38","38","2","",""
"null","230960","pSARL_v2","pSARL_v227d6hw6h","65028df3dcbf9224299692c4","freq_resp","img/green_2bandit_a.png","70","70","test","","","","2","",""
"null","231124","pSARL_v2","pSARL_v227d6hw6h","65028df3dcbf9224299692c4","fixation","img/fixation.png","null","","test","","","","","",""
"296","231431","pSARL_v2","pSARL_v227d6hw6h","65028df3dcbf9224299692c4","freq","img/green_2bandit_a2.png","70","70","test","1","39","39","2","",""
"null","231948","pSARL_v2","pSARL_v227d6hw6h","65028df3dcbf9224299692c4","freq_resp","img/green_2bandit_a.png","70","70","test","","","","2","",""
"null","232113","pSARL_v2","pSARL_v227d6hw6h","65028df3dcbf9224299692c4","fixation","img/fixation.png","null","","test","","","","","",""
"319.9999999999709","232441","pSARL_v2","pSARL_v227d6hw6h","65028df3dcbf9224299692c4","freq","img/green_2bandit_a2.png","70","70","test","1","40","40","2","",""
"null","232933","pSARL_v2","pSARL_v227d6hw6h","65028df3dcbf9224299692c4","freq_resp","img/green_2bandit_a.png","70","70","test","","","","2","",""
"null","233091","pSARL_v2","pSARL_v227d6hw6h","65028df3dcbf9224299692c4","fixation","img/fixation.png","null","","test","","","","","",""
"354","233455","pSARL_v2","pSARL_v227d6hw6h","65028df3dcbf9224299692c4","freq","img/green_2bandit_a2.png","70","70","test","1","41","41","2","",""
"null","233914","pSARL_v2","pSARL_v227d6hw6h","65028df3dcbf9224299692c4","freq_resp","img/green_2bandit_a.png","70","70","test","","","","2","",""
"null","234074","pSARL_v2","pSARL_v227d6hw6h","65028df3dcbf9224299692c4","fixation","img/fixation.png","null","","test","","","","","",""
"294","234379","pSARL_v2","pSARL_v227d6hw6h","65028df3dcbf9224299692c4","freq","img/green_2bandit_a2.png","70","70","test","1","42","42","2","",""
"null","234893","pSARL_v2","pSARL_v227d6hw6h","65028df3dcbf9224299692c4","freq_resp","img/green_2bandit_a.png","70","70","test","","","","2","",""
"null","235052","pSARL_v2","pSARL_v227d6hw6h","65028df3dcbf9224299692c4","fixation","img/fixation.png","null","","test","","","","","",""
"259.9999999999709","235324","pSARL_v2","pSARL_v227d6hw6h","65028df3dcbf9224299692c4","freq","img/green_2bandit_a2.png","70","70","test","1","43","43","2","",""
"null","235876","pSARL_v2","pSARL_v227d6hw6h","65028df3dcbf9224299692c4","freq_resp","img/green_2bandit_a.png","70","70","test","","","","2","",""
"null","236036","pSARL_v2","pSARL_v227d6hw6h","65028df3dcbf9224299692c4","fixation","img/fixation.png","null","","test","","","","","",""
"266","236313","pSARL_v2","pSARL_v227d6hw6h","65028df3dcbf9224299692c4","freq","img/green_2bandit_a2.png","70","70","test","1","44","44","2","",""
"null","236859","pSARL_v2","pSARL_v227d6hw6h","65028df3dcbf9224299692c4","freq_resp","img/green_2bandit_a.png","70","70","test","","","","2","",""
"null","237019","pSARL_v2","pSARL_v227d6hw6h","65028df3dcbf9224299692c4","fixation","img/fixation.png","null","","test","","","","","",""
"252","237280","pSARL_v2","pSARL_v227d6hw6h","65028df3dcbf9224299692c4","freq","img/green_2bandit_a2.png","70","70","test","1","45","45","2","",""
"null","237840","pSARL_v2","pSARL_v227d6hw6h","65028df3dcbf9224299692c4","freq_resp","img/green_2bandit_a.png","70","70","test","","","","2","",""
"null","237999","pSARL_v2","pSARL_v227d6hw6h","65028df3dcbf9224299692c4","fixation","img/fixation.png","null","","test","","","","","",""
"258.9999999999709","238268","pSARL_v2","pSARL_v227d6hw6h","65028df3dcbf9224299692c4","freq","img/green_2bandit_a2.png","70","70","test","1","46","46","2","",""
"null","238822","pSARL_v2","pSARL_v227d6hw6h","65028df3dcbf9224299692c4","freq_resp","img/green_2bandit_a.png","70","70","test","","","","2","",""
"null","238984","pSARL_v2","pSARL_v227d6hw6h","65028df3dcbf9224299692c4","fixation","img/fixation.png","null","","test","","","","","",""
"290","239283","pSARL_v2","pSARL_v227d6hw6h","65028df3dcbf9224299692c4","freq","img/green_2bandit_a2.png","70","70","test","1","47","47","2","",""
"null","239806","pSARL_v2","pSARL_v227d6hw6h","65028df3dcbf9224299692c4","freq_resp","img/green_2bandit_a.png","70","70","test","","","","2","",""
"null","239966","pSARL_v2","pSARL_v227d6hw6h","65028df3dcbf9224299692c4","fixation","img/fixation.png","null","","test","","","","","",""
"297","240270","pSARL_v2","pSARL_v227d6hw6h","65028df3dcbf9224299692c4","freq","img/green_2bandit_a2.png","70","70","test","1","48","48","2","",""
"null","240786","pSARL_v2","pSARL_v227d6hw6h","65028df3dcbf9224299692c4","freq_resp","img/green_2bandit_a.png","70","70","test","","","","2","",""
"null","240949","pSARL_v2","pSARL_v227d6hw6h","65028df3dcbf9224299692c4","fixation","img/fixation.png","null","","test","","","","","",""
"394","241353","pSARL_v2","pSARL_v227d6hw6h","65028df3dcbf9224299692c4","reward","img/slot.png","74","","test","","","","","",""
"null","242114","pSARL_v2","pSARL_v227d6hw6h","65028df3dcbf9224299692c4","points","<div class=""verylowPoints""> -11 </div>","null","na","test","","","","2","-11","1"
"null","242927","pSARL_v2","pSARL_v227d6hw6h","65028df3dcbf9224299692c4","freq","img/green_2bandit_a2.png","null","70","test","0","49","49","3","",""
"null","243088","pSARL_v2","pSARL_v227d6hw6h","65028df3dcbf9224299692c4","fixation","img/fixation.png","null","","test","","","","","",""
"301.9999999999709","243399","pSARL_v2","pSARL_v227d6hw6h","65028df3dcbf9224299692c4","freq","img/green_2bandit_a2.png","70","70","test","1","50","50","3","",""
"null","243910","pSARL_v2","pSARL_v227d6hw6h","65028df3dcbf9224299692c4","freq_resp","img/green_2bandit_a.png","70","70","test","","","","3","",""
"null","244068","pSARL_v2","pSARL_v227d6hw6h","65028df3dcbf9224299692c4","fixation","img/fixation.png","null","","test","","","","","",""
"154","244230","pSARL_v2","pSARL_v227d6hw6h","65028df3dcbf9224299692c4","freq","img/green_2bandit_a2.png","70","70","test","1","51","51","3","",""
"null","244889","pSARL_v2","pSARL_v227d6hw6h","65028df3dcbf9224299692c4","freq_resp","img/green_2bandit_a.png","70","70","test","","","","3","",""
"null","245051","pSARL_v2","pSARL_v227d6hw6h","65028df3dcbf9224299692c4","fixation","img/fixation.png","null","","test","","","","","",""
"296","245356","pSARL_v2","pSARL_v227d6hw6h","65028df3dcbf9224299692c4","freq","img/green_2bandit_a2.png","70","70","test","1","52","52","3","",""
"null","245873","pSARL_v2","pSARL_v227d6hw6h","65028df3dcbf9224299692c4","freq_resp","img/green_2bandit_a.png","70","70","test","","","","3","",""
"null","246032","pSARL_v2","pSARL_v227d6hw6h","65028df3dcbf9224299692c4","fixation","img/fixation.png","null","","test","","","","","",""
"283","246328","pSARL_v2","pSARL_v227d6hw6h","65028df3dcbf9224299692c4","freq","img/green_2bandit_a2.png","70","70","test","1","53","53","3","",""
"null","246856","pSARL_v2","pSARL_v227d6hw6h","65028df3dcbf9224299692c4","freq_resp","img/green_2bandit_a.png","70","70","test","","","","3","",""
"null","247016","pSARL_v2","pSARL_v227d6hw6h","65028df3dcbf9224299692c4","fixation","img/fixation.png","null","","test","","","","","",""
"221.0000000000291","247249","pSARL_v2","pSARL_v227d6hw6h","65028df3dcbf9224299692c4","freq","img/green_2bandit_a2.png","70","70","test","1","54","54","3","",""
"null","247839","pSARL_v2","pSARL_v227d6hw6h","65028df3dcbf9224299692c4","freq_resp","img/green_2bandit_a.png","70","70","test","","","","3","",""
"null","247999","pSARL_v2","pSARL_v227d6hw6h","65028df3dcbf9224299692c4","fixation","img/fixation.png","null","","test","","","","","",""
"253","248258","pSARL_v2","pSARL_v227d6hw6h","65028df3dcbf9224299692c4","infreq","img/orange_2bandit_a2.png","70","68","test","0","55","55","3","",""
"null","248818","pSARL_v2","pSARL_v227d6hw6h","65028df3dcbf9224299692c4","infreq_resp","img/orange_2bandit_a.png","70","68","test","","","","3","",""
"null","248981","pSARL_v2","pSARL_v227d6hw6h","65028df3dcbf9224299692c4","fixation","img/fixation.png","null","","test","","","","","",""
"349","249338","pSARL_v2","pSARL_v227d6hw6h","65028df3dcbf9224299692c4","freq","img/green_2bandit_a2.png","70","70","test","1","56","56","3","",""
"null","249802","pSARL_v2","pSARL_v227d6hw6h","65028df3dcbf9224299692c4","freq_resp","img/green_2bandit_a.png","70","70","test","","","","3","",""
"null","249960","pSARL_v2","pSARL_v227d6hw6h","65028df3dcbf9224299692c4","fixation","img/fixation.png","null","","test","","","","","",""
"651","250621","pSARL_v2","pSARL_v227d6hw6h","65028df3dcbf9224299692c4","freq","img/green_2bandit_a2.png","70","70","test","1","57","57","3","",""
"null","250779","pSARL_v2","pSARL_v227d6hw6h","65028df3dcbf9224299692c4","freq_resp","img/green_2bandit_a.png","70","70","test","","","","3","",""
"null","250941","pSARL_v2","pSARL_v227d6hw6h","65028df3dcbf9224299692c4","fixation","img/fixation.png","null","","test","","","","","",""
"482","251434","pSARL_v2","pSARL_v227d6hw6h","65028df3dcbf9224299692c4","freq","img/green_2bandit_a2.png","70","70","test","1","58","58","3","",""
"null","251763","pSARL_v2","pSARL_v227d6hw6h","65028df3dcbf9224299692c4","freq_resp","img/green_2bandit_a.png","70","70","test","","","","3","",""
"null","251923","pSARL_v2","pSARL_v227d6hw6h","65028df3dcbf9224299692c4","fixation","img/fixation.png","null","","test","","","","","",""
"602","252536","pSARL_v2","pSARL_v227d6hw6h","65028df3dcbf9224299692c4","infreq","img/orange_2bandit_a2.png","68","68","test","1","59","59","3","",""
"null","252744","pSARL_v2","pSARL_v227d6hw6h","65028df3dcbf9224299692c4","infreq_resp","img/orange_2bandit_a.png","68","68","test","","","","3","",""
"null","252906","pSARL_v2","pSARL_v227d6hw6h","65028df3dcbf9224299692c4","fixation","img/fixation.png","null","","test","","","","","",""
"432","253348","pSARL_v2","pSARL_v227d6hw6h","65028df3dcbf9224299692c4","freq","img/green_2bandit_a2.png","70","70","test","1","60","60","3","",""
"null","253726","pSARL_v2","pSARL_v227d6hw6h","65028df3dcbf9224299692c4","freq_resp","img/green_2bandit_a.png","70","70","test","","","","3","",""
"null","253885","pSARL_v2","pSARL_v227d6hw6h","65028df3dcbf9224299692c4","fixation","img/fixation.png","null","","test","","","","","",""
"439","254331","pSARL_v2","pSARL_v227d6hw6h","65028df3dcbf9224299692c4","freq","img/green_2bandit_a2.png","70","70","test","1","61","61","3","",""
"null","254703","pSARL_v2","pSARL_v227d6hw6h","65028df3dcbf9224299692c4","freq_resp","img/green_2bandit_a.png","70","70","test","","","","3","",""
"null","254864","pSARL_v2","pSARL_v227d6hw6h","65028df3dcbf9224299692c4","fixation","img/fixation.png","null","","test","","","","","",""
"294","255167","pSARL_v2","pSARL_v227d6hw6h","65028df3dcbf9224299692c4","freq","img/green_2bandit_a2.png","70","70","test","1","62","62","3","",""
"null","255683","pSARL_v2","pSARL_v227d6hw6h","65028df3dcbf9224299692c4","freq_resp","img/green_2bandit_a.png","70","70","test","","","","3","",""
"null","255843","pSARL_v2","pSARL_v227d6hw6h","65028df3dcbf9224299692c4","fixation","img/fixation.png","null","","test","","","","","",""
"282","256134","pSARL_v2","pSARL_v227d6hw6h","65028df3dcbf9224299692c4","freq","img/green_2bandit_a2.png","70","70","test","1","63","63","3","",""
"null","256662","pSARL_v2","pSARL_v227d6hw6h","65028df3dcbf9224299692c4","freq_resp","img/green_2bandit_a.png","70","70","test","","","","3","",""
"null","256821","pSARL_v2","pSARL_v227d6hw6h","65028df3dcbf9224299692c4","fixation","img/fixation.png","null","","test","","","","","",""
"316.0000000000291","257146","pSARL_v2","pSARL_v227d6hw6h","65028df3dcbf9224299692c4","freq","img/green_2bandit_a2.png","70","70","test","1","64","64","3","",""
"null","257642","pSARL_v2","pSARL_v227d6hw6h","65028df3dcbf9224299692c4","freq_resp","img/green_2bandit_a.png","70","70","test","","","","3","",""
"null","257801","pSARL_v2","pSARL_v227d6hw6h","65028df3dcbf9224299692c4","fixation","img/fixation.png","null","","test","","","","","",""
"282.0000000000582","258093","pSARL_v2","pSARL_v227d6hw6h","65028df3dcbf9224299692c4","freq","img/green_2bandit_a2.png","70","70","test","1","65","65","3","",""
"null","258623","pSARL_v2","pSARL_v227d6hw6h","65028df3dcbf9224299692c4","freq_resp","img/green_2bandit_a.png","70","70","test","","","","3","",""
"null","258781","pSARL_v2","pSARL_v227d6hw6h","65028df3dcbf9224299692c4","fixation","img/fixation.png","null","","test","","","","","",""
"292.0000000000291","259084","pSARL_v2","pSARL_v227d6hw6h","65028df3dcbf9224299692c4","freq","img/green_2bandit_a2.png","70","70","test","1","66","66","3","",""
"null","259603","pSARL_v2","pSARL_v227d6hw6h","65028df3dcbf9224299692c4","freq_resp","img/green_2bandit_a.png","70","70","test","","","","3","",""
"null","259762","pSARL_v2","pSARL_v227d6hw6h","65028df3dcbf9224299692c4","fixation","img/fixation.png","null","","test","","","","","",""
"323.0000000000291","260094","pSARL_v2","pSARL_v227d6hw6h","65028df3dcbf9224299692c4","freq","img/green_2bandit_a2.png","70","70","test","1","67","67","3","",""
"null","260582","pSARL_v2","pSARL_v227d6hw6h","65028df3dcbf9224299692c4","freq_resp","img/green_2bandit_a.png","70","70","test","","","","3","",""
"null","260744","pSARL_v2","pSARL_v227d6hw6h","65028df3dcbf9224299692c4","fixation","img/fixation.png","null","","test","","","","","",""
"263.0000000000291","261017","pSARL_v2","pSARL_v227d6hw6h","65028df3dcbf9224299692c4","freq","img/green_2bandit_a2.png","70","70","test","1","68","68","3","",""
"null","261565","pSARL_v2","pSARL_v227d6hw6h","65028df3dcbf9224299692c4","freq_resp","img/green_2bandit_a.png","70","70","test","","","","3","",""
"null","261726","pSARL_v2","pSARL_v227d6hw6h","65028df3dcbf9224299692c4","fixation","img/fixation.png","null","","test","","","","","",""
"293","262030","pSARL_v2","pSARL_v227d6hw6h","65028df3dcbf9224299692c4","freq","img/green_2bandit_a2.png","70","70","test","1","69","69","3","",""
"null","262549","pSARL_v2","pSARL_v227d6hw6h","65028df3dcbf9224299692c4","freq_resp","img/green_2bandit_a.png","70","70","test","","","","3","",""
"null","262711","pSARL_v2","pSARL_v227d6hw6h","65028df3dcbf9224299692c4","fixation","img/fixation.png","null","","test","","","","","",""
"321","263040","pSARL_v2","pSARL_v227d6hw6h","65028df3dcbf9224299692c4","freq","img/green_2bandit_a2.png","70","70","test","1","70","70","3","",""
"null","263531","pSARL_v2","pSARL_v227d6hw6h","65028df3dcbf9224299692c4","freq_resp","img/green_2bandit_a.png","70","70","test","","","","3","",""
"null","263691","pSARL_v2","pSARL_v227d6hw6h","65028df3dcbf9224299692c4","fixation","img/fixation.png","null","","test","","","","","",""
"331","264030","pSARL_v2","pSARL_v227d6hw6h","65028df3dcbf9224299692c4","freq","img/green_2bandit_a2.png","70","70","test","1","71","71","3","",""
"null","264511","pSARL_v2","pSARL_v227d6hw6h","65028df3dcbf9224299692c4","freq_resp","img/green_2bandit_a.png","70","70","test","","","","3","",""
"null","264670","pSARL_v2","pSARL_v227d6hw6h","65028df3dcbf9224299692c4","fixation","img/fixation.png","null","","test","","","","","",""
"610","265287","pSARL_v2","pSARL_v227d6hw6h","65028df3dcbf9224299692c4","reward","img/slot.png","74","","test","","","","","",""
"null","266049","pSARL_v2","pSARL_v227d6hw6h","65028df3dcbf9224299692c4","points","<div class=""verylowPoints""> -7 </div>","null","na","test","","","","3","-7","2"
"null","266861","pSARL_v2","pSARL_v227d6hw6h","65028df3dcbf9224299692c4","freq","img/green_2bandit_a2.png","null","70","test","0","72","72","4","",""
"null","267020","pSARL_v2","pSARL_v227d6hw6h","65028df3dcbf9224299692c4","fixation","img/fixation.png","null","","test","","","","","",""
"107","267135","pSARL_v2","pSARL_v227d6hw6h","65028df3dcbf9224299692c4","freq","img/green_2bandit_a2.png","70","70","test","1","73","73","4","",""
"null","267840","pSARL_v2","pSARL_v227d6hw6h","65028df3dcbf9224299692c4","freq_resp","img/green_2bandit_a.png","70","70","test","","","","4","",""
"null","268003","pSARL_v2","pSARL_v227d6hw6h","65028df3dcbf9224299692c4","fixation","img/fixation.png","null","","test","","","","","",""
"473","268488","pSARL_v2","pSARL_v227d6hw6h","65028df3dcbf9224299692c4","freq","img/green_2bandit_a2.png","70","70","test","1","74","74","4","",""
"null","268828","pSARL_v2","pSARL_v227d6hw6h","65028df3dcbf9224299692c4","freq_resp","img/green_2bandit_a.png","70","70","test","","","","4","",""
"null","268991","pSARL_v2","pSARL_v227d6hw6h","65028df3dcbf9224299692c4","fixation","img/fixation.png","null","","test","","","","","",""
"273.0000000000582","269276","pSARL_v2","pSARL_v227d6hw6h","65028df3dcbf9224299692c4","freq","img/green_2bandit_a2.png","70","70","test","1","75","75","4","",""
"null","269814","pSARL_v2","pSARL_v227d6hw6h","65028df3dcbf9224299692c4","freq_resp","img/green_2bandit_a.png","70","70","test","","","","4","",""
"null","269975","pSARL_v2","pSARL_v227d6hw6h","65028df3dcbf9224299692c4","fixation","img/fixation.png","null","","test","","","","","",""
"303","270287","pSARL_v2","pSARL_v227d6hw6h","65028df3dcbf9224299692c4","freq","img/green_2bandit_a2.png","70","70","test","1","76","76","4","",""
"null","270795","pSARL_v2","pSARL_v227d6hw6h","65028df3dcbf9224299692c4","freq_resp","img/green_2bandit_a.png","70","70","test","","","","4","",""
"null","270954","pSARL_v2","pSARL_v227d6hw6h","65028df3dcbf9224299692c4","fixation","img/fixation.png","null","","test","","","","","",""
"405","271371","pSARL_v2","pSARL_v227d6hw6h","65028df3dcbf9224299692c4","freq","img/green_2bandit_a2.png","70","70","test","1","77","77","4","",""
"null","271779","pSARL_v2","pSARL_v227d6hw6h","65028df3dcbf9224299692c4","freq_resp","img/green_2bandit_a.png","70","70","test","","","","4","",""
"null","271941","pSARL_v2","pSARL_v227d6hw6h","65028df3dcbf9224299692c4","fixation","img/fixation.png","null","","test","","","","","",""
"361","272309","pSARL_v2","pSARL_v227d6hw6h","65028df3dcbf9224299692c4","freq","img/green_2bandit_a2.png","70","70","test","1","78","78","4","",""
"null","272758","pSARL_v2","pSARL_v227d6hw6h","65028df3dcbf9224299692c4","freq_resp","img/green_2bandit_a.png","70","70","test","","","","4","",""
"null","272919","pSARL_v2","pSARL_v227d6hw6h","65028df3dcbf9224299692c4","fixation","img/fixation.png","null","","test","","","","","",""
"260.9999999999418","273188","pSARL_v2","pSARL_v227d6hw6h","65028df3dcbf9224299692c4","freq","img/green_2bandit_a2.png","70","70","test","1","79","79","4","",""
"null","273739","pSARL_v2","pSARL_v227d6hw6h","65028df3dcbf9224299692c4","freq_resp","img/green_2bandit_a.png","70","70","test","","","","4","",""
"null","273900","pSARL_v2","pSARL_v227d6hw6h","65028df3dcbf9224299692c4","fixation","img/fixation.png","null","","test","","","","","",""
"473","274380","pSARL_v2","pSARL_v227d6hw6h","65028df3dcbf9224299692c4","infreq","img/orange_2bandit_a2.png","68","68","test","1","80","80","4","",""
"null","274717","pSARL_v2","pSARL_v227d6hw6h","65028df3dcbf9224299692c4","infreq_resp","img/orange_2bandit_a.png","68","68","test","","","","4","",""
"null","274878","pSARL_v2","pSARL_v227d6hw6h","65028df3dcbf9224299692c4","fixation","img/fixation.png","null","","test","","","","","",""
"415.0000000000582","275304","pSARL_v2","pSARL_v227d6hw6h","65028df3dcbf9224299692c4","freq","img/green_2bandit_a2.png","70","70","test","1","81","81","4","",""
"null","275698","pSARL_v2","pSARL_v227d6hw6h","65028df3dcbf9224299692c4","freq_resp","img/green_2bandit_a.png","70","70","test","","","","4","",""
"null","275860","pSARL_v2","pSARL_v227d6hw6h","65028df3dcbf9224299692c4","fixation","img/fixation.png","null","","test","","","","","",""
"313","276184","pSARL_v2","pSARL_v227d6hw6h","65028df3dcbf9224299692c4","freq","img/green_2bandit_a2.png","70","70","test","1","82","82","4","",""
"null","276683","pSARL_v2","pSARL_v227d6hw6h","65028df3dcbf9224299692c4","freq_resp","img/green_2bandit_a.png","70","70","test","","","","4","",""
"null","276843","pSARL_v2","pSARL_v227d6hw6h","65028df3dcbf9224299692c4","fixation","img/fixation.png","null","","test","","","","","",""
"316","277162","pSARL_v2","pSARL_v227d6hw6h","65028df3dcbf9224299692c4","freq","img/green_2bandit_a2.png","70","70","test","1","83","83","4","",""
"null","277659","pSARL_v2","pSARL_v227d6hw6h","65028df3dcbf9224299692c4","freq_resp","img/green_2bandit_a.png","70","70","test","","","","4","",""
"null","277819","pSARL_v2","pSARL_v227d6hw6h","65028df3dcbf9224299692c4","fixation","img/fixation.png","null","","test","","","","","",""
"310","278141","pSARL_v2","pSARL_v227d6hw6h","65028df3dcbf9224299692c4","freq","img/green_2bandit_a2.png","70","70","test","1","84","84","4","",""
"null","278641","pSARL_v2","pSARL_v227d6hw6h","65028df3dcbf9224299692c4","freq_resp","img/green_2bandit_a.png","70","70","test","","","","4","",""
"null","278804","pSARL_v2","pSARL_v227d6hw6h","65028df3dcbf9224299692c4","fixation","img/fixation.png","null","","test","","","","","",""
"337","279150","pSARL_v2","pSARL_v227d6hw6h","65028df3dcbf9224299692c4","freq","img/green_2bandit_a2.png","70","70","test","1","85","85","4","",""
"null","279623","pSARL_v2","pSARL_v227d6hw6h","65028df3dcbf9224299692c4","freq_resp","img/green_2bandit_a.png","70","70","test","","","","4","",""
"null","279785","pSARL_v2","pSARL_v227d6hw6h","65028df3dcbf9224299692c4","fixation","img/fixation.png","null","","test","","","","","",""
"324","280113","pSARL_v2","pSARL_v227d6hw6h","65028df3dcbf9224299692c4","freq","img/green_2bandit_a2.png","70","70","test","1","86","86","4","",""
"null","280600","pSARL_v2","pSARL_v227d6hw6h","65028df3dcbf9224299692c4","freq_resp","img/green_2bandit_a.png","70","70","test","","","","4","",""
"null","280762","pSARL_v2","pSARL_v227d6hw6h","65028df3dcbf9224299692c4","fixation","img/fixation.png","null","","test","","","","","",""
"405","281174","pSARL_v2","pSARL_v227d6hw6h","65028df3dcbf9224299692c4","infreq","img/orange_2bandit_a2.png","68","68","test","1","87","87","4","",""
"null","281580","pSARL_v2","pSARL_v227d6hw6h","65028df3dcbf9224299692c4","infreq_resp","img/orange_2bandit_a.png","68","68","test","","","","4","",""
"null","281739","pSARL_v2","pSARL_v227d6hw6h","65028df3dcbf9224299692c4","fixation","img/fixation.png","null","","test","","","","","",""
"417","282169","pSARL_v2","pSARL_v227d6hw6h","65028df3dcbf9224299692c4","freq","img/green_2bandit_a2.png","70","70","test","1","88","88","4","",""
"null","282563","pSARL_v2","pSARL_v227d6hw6h","65028df3dcbf9224299692c4","freq_resp","img/green_2bandit_a.png","70","70","test","","","","4","",""
"null","282723","pSARL_v2","pSARL_v227d6hw6h","65028df3dcbf9224299692c4","fixation","img/fixation.png","null","","test","","","","","",""
"536","283268","pSARL_v2","pSARL_v227d6hw6h","65028df3dcbf9224299692c4","freq","img/green_2bandit_a2.png","70","70","test","1","89","89","4","",""
"null","283541","pSARL_v2","pSARL_v227d6hw6h","65028df3dcbf9224299692c4","freq_resp","img/green_2bandit_a.png","70","70","test","","","","4","",""
"null","283701","pSARL_v2","pSARL_v227d6hw6h","65028df3dcbf9224299692c4","fixation","img/fixation.png","null","","test","","","","","",""
"594","284303","pSARL_v2","pSARL_v227d6hw6h","65028df3dcbf9224299692c4","freq","img/green_2bandit_a2.png","70","70","test","1","90","90","4","",""
"null","284518","pSARL_v2","pSARL_v227d6hw6h","65028df3dcbf9224299692c4","freq_resp","img/green_2bandit_a.png","70","70","test","","","","4","",""
"null","284679","pSARL_v2","pSARL_v227d6hw6h","65028df3dcbf9224299692c4","fixation","img/fixation.png","null","","test","","","","","",""
"425.0000000000582","285115","pSARL_v2","pSARL_v227d6hw6h","65028df3dcbf9224299692c4","reward","img/slot.png","74","","test","","","","","",""
"null","285877","pSARL_v2","pSARL_v227d6hw6h","65028df3dcbf9224299692c4","points","<div class=""verylowPoints""> -3 </div>","null","na","test","","","","4","-3","3"
"623","286511","pSARL_v2","pSARL_v227d6hw6h","65028df3dcbf9224299692c4","freq","img/green_2bandit_a2.png","70","70","test","1","91","91","5","",""
"null","286701","pSARL_v2","pSARL_v227d6hw6h","65028df3dcbf9224299692c4","freq_resp","img/green_2bandit_a.png","70","70","test","","","","5","",""
"null","286860","pSARL_v2","pSARL_v227d6hw6h","65028df3dcbf9224299692c4","fixation","img/fixation.png","null","","test","","","","","",""
"629","287500","pSARL_v2","pSARL_v227d6hw6h","65028df3dcbf9224299692c4","freq","img/green_2bandit_a2.png","70","70","test","1","92","92","5","",""
"null","287683","pSARL_v2","pSARL_v227d6hw6h","65028df3dcbf9224299692c4","freq_resp","img/green_2bandit_a.png","70","70","test","","","","5","",""
"null","287843","pSARL_v2","pSARL_v227d6hw6h","65028df3dcbf9224299692c4","fixation","img/fixation.png","null","","test","","","","","",""
"547.0000000000582","288401","pSARL_v2","pSARL_v227d6hw6h","65028df3dcbf9224299692c4","freq","img/green_2bandit_a2.png","70","70","test","1","93","93","5","",""
"null","288666","pSARL_v2","pSARL_v227d6hw6h","65028df3dcbf9224299692c4","freq_resp","img/green_2bandit_a.png","70","70","test","","","","5","",""
"null","288826","pSARL_v2","pSARL_v227d6hw6h","65028df3dcbf9224299692c4","fixation","img/fixation.png","null","","test","","","","","",""
"396","289232","pSARL_v2","pSARL_v227d6hw6h","65028df3dcbf9224299692c4","freq","img/green_2bandit_a2.png","70","70","test","1","94","94","5","",""
"null","289646","pSARL_v2","pSARL_v227d6hw6h","65028df3dcbf9224299692c4","freq_resp","img/green_2bandit_a.png","70","70","test","","","","5","",""
"null","289807","pSARL_v2","pSARL_v227d6hw6h","65028df3dcbf9224299692c4","fixation","img/fixation.png","null","","test","","","","","",""
"337","290152","pSARL_v2","pSARL_v227d6hw6h","65028df3dcbf9224299692c4","freq","img/green_2bandit_a2.png","70","70","test","1","95","95","5","",""
"null","290625","pSARL_v2","pSARL_v227d6hw6h","65028df3dcbf9224299692c4","freq_resp","img/green_2bandit_a.png","70","70","test","","","","5","",""
"null","290786","pSARL_v2","pSARL_v227d6hw6h","65028df3dcbf9224299692c4","fixation","img/fixation.png","null","","test","","","","","",""
"304","291101","pSARL_v2","pSARL_v227d6hw6h","65028df3dcbf9224299692c4","freq","img/green_2bandit_a2.png","70","70","test","1","96","96","5","",""
"null","291607","pSARL_v2","pSARL_v227d6hw6h","65028df3dcbf9224299692c4","freq_resp","img/green_2bandit_a.png","70","70","test","","","","5","",""
"null","291767","pSARL_v2","pSARL_v227d6hw6h","65028df3dcbf9224299692c4","fixation","img/fixation.png","null","","test","","","","","",""
"379","292159","pSARL_v2","pSARL_v227d6hw6h","65028df3dcbf9224299692c4","freq","img/green_2bandit_a2.png","70","70","test","1","97","97","5","",""
"null","292592","pSARL_v2","pSARL_v227d6hw6h","65028df3dcbf9224299692c4","freq_resp","img/green_2bandit_a.png","70","70","test","","","","5","",""
"null","292752","pSARL_v2","pSARL_v227d6hw6h","65028df3dcbf9224299692c4","fixation","img/fixation.png","null","","test","","","","","",""
"316.9999999999418","293079","pSARL_v2","pSARL_v227d6hw6h","65028df3dcbf9224299692c4","freq","img/green_2bandit_a2.png","70","70","test","1","98","98","5","",""
"null","293571","pSARL_v2","pSARL_v227d6hw6h","65028df3dcbf9224299692c4","freq_resp","img/green_2bandit_a.png","70","70","test","","","","5","",""
"null","293732","pSARL_v2","pSARL_v227d6hw6h","65028df3dcbf9224299692c4","fixation","img/fixation.png","null","","test","","","","","",""
"327","294069","pSARL_v2","pSARL_v227d6hw6h","65028df3dcbf9224299692c4","freq","img/green_2bandit_a2.png","70","70","test","1","99","99","5","",""
"null","294552","pSARL_v2","pSARL_v227d6hw6h","65028df3dcbf9224299692c4","freq_resp","img/green_2bandit_a.png","70","70","test","","","","5","",""
"null","294714","pSARL_v2","pSARL_v227d6hw6h","65028df3dcbf9224299692c4","fixation","img/fixation.png","null","","test","","","","","",""
"380","295106","pSARL_v2","pSARL_v227d6hw6h","65028df3dcbf9224299692c4","freq","img/green_2bandit_a2.png","70","70","test","1","100","100","5","",""
"null","295536","pSARL_v2","pSARL_v227d6hw6h","65028df3dcbf9224299692c4","freq_resp","img/green_2bandit_a.png","70","70","test","","","","5","",""
"null","295695","pSARL_v2","pSARL_v227d6hw6h","65028df3dcbf9224299692c4","fixation","img/fixation.png","null","","test","","","","","",""
"300","296006","pSARL_v2","pSARL_v227d6hw6h","65028df3dcbf9224299692c4","freq","img/green_2bandit_a2.png","70","70","test","1","101","101","5","",""
"null","296517","pSARL_v2","pSARL_v227d6hw6h","65028df3dcbf9224299692c4","freq_resp","img/green_2bandit_a.png","70","70","test","","","","5","",""
"null","296680","pSARL_v2","pSARL_v227d6hw6h","65028df3dcbf9224299692c4","fixation","img/fixation.png","null","","test","","","","","",""
"325","297017","pSARL_v2","pSARL_v227d6hw6h","65028df3dcbf9224299692c4","freq","img/green_2bandit_a2.png","70","70","test","1","102","102","5","",""
"null","297505","pSARL_v2","pSARL_v227d6hw6h","65028df3dcbf9224299692c4","freq_resp","img/green_2bandit_a.png","70","70","test","","","","5","",""
"null","297667","pSARL_v2","pSARL_v227d6hw6h","65028df3dcbf9224299692c4","fixation","img/fixation.png","null","","test","","","","","",""
"443","298121","pSARL_v2","pSARL_v227d6hw6h","65028df3dcbf9224299692c4","infreq","img/orange_2bandit_a2.png","68","68","test","1","103","103","5","",""
"null","298487","pSARL_v2","pSARL_v227d6hw6h","65028df3dcbf9224299692c4","infreq_resp","img/orange_2bandit_a.png","68","68","test","","","","5","",""
"null","298648","pSARL_v2","pSARL_v227d6hw6h","65028df3dcbf9224299692c4","fixation","img/fixation.png","null","","test","","","","","",""
"609","299265","pSARL_v2","pSARL_v227d6hw6h","65028df3dcbf9224299692c4","freq","img/green_2bandit_a2.png","70","70","test","1","104","104","5","",""
"null","299467","pSARL_v2","pSARL_v227d6hw6h","65028df3dcbf9224299692c4","freq_resp","img/green_2bandit_a.png","70","70","test","","","","5","",""
"null","299626","pSARL_v2","pSARL_v227d6hw6h","65028df3dcbf9224299692c4","fixation","img/fixation.png","null","","test","","","","","",""
"508","300143","pSARL_v2","pSARL_v227d6hw6h","65028df3dcbf9224299692c4","freq","img/green_2bandit_a2.png","70","70","test","1","105","105","5","",""
"null","300448","pSARL_v2","pSARL_v227d6hw6h","65028df3dcbf9224299692c4","freq_resp","img/green_2bandit_a.png","70","70","test","","","","5","",""
"null","300611","pSARL_v2","pSARL_v227d6hw6h","65028df3dcbf9224299692c4","fixation","img/fixation.png","null","","test","","","","","",""
"335","300957","pSARL_v2","pSARL_v227d6hw6h","65028df3dcbf9224299692c4","freq","img/green_2bandit_a2.png","70","70","test","1","106","106","5","",""
"null","301434","pSARL_v2","pSARL_v227d6hw6h","65028df3dcbf9224299692c4","freq_resp","img/green_2bandit_a.png","70","70","test","","","","5","",""
"null","301597","pSARL_v2","pSARL_v227d6hw6h","65028df3dcbf9224299692c4","fixation","img/fixation.png","null","","test","","","","","",""
"335","301944","pSARL_v2","pSARL_v227d6hw6h","65028df3dcbf9224299692c4","freq","img/green_2bandit_a2.png","70","70","test","1","107","107","5","",""
"null","302419","pSARL_v2","pSARL_v227d6hw6h","65028df3dcbf9224299692c4","freq_resp","img/green_2bandit_a.png","70","70","test","","","","5","",""
"null","302581","pSARL_v2","pSARL_v227d6hw6h","65028df3dcbf9224299692c4","fixation","img/fixation.png","null","","test","","","","","",""
"298","302891","pSARL_v2","pSARL_v227d6hw6h","65028df3dcbf9224299692c4","freq","img/green_2bandit_a2.png","70","70","test","1","108","108","5","",""
"null","303405","pSARL_v2","pSARL_v227d6hw6h","65028df3dcbf9224299692c4","freq_resp","img/green_2bandit_a.png","70","70","test","","","","5","",""
"null","303566","pSARL_v2","pSARL_v227d6hw6h","65028df3dcbf9224299692c4","fixation","img/fixation.png","null","","test","","","","","",""
"302","303880","pSARL_v2","pSARL_v227d6hw6h","65028df3dcbf9224299692c4","freq","img/green_2bandit_a2.png","70","70","test","1","109","109","5","",""
"null","304388","pSARL_v2","pSARL_v227d6hw6h","65028df3dcbf9224299692c4","freq_resp","img/green_2bandit_a.png","70","70","test","","","","5","",""
"null","304548","pSARL_v2","pSARL_v227d6hw6h","65028df3dcbf9224299692c4","fixation","img/fixation.png","null","","test","","","","","",""
"336","304892","pSARL_v2","pSARL_v227d6hw6h","65028df3dcbf9224299692c4","freq","img/green_2bandit_a2.png","70","70","test","1","110","110","5","",""
"null","305368","pSARL_v2","pSARL_v227d6hw6h","65028df3dcbf9224299692c4","freq_resp","img/green_2bandit_a.png","70","70","test","","","","5","",""
"null","305530","pSARL_v2","pSARL_v227d6hw6h","65028df3dcbf9224299692c4","fixation","img/fixation.png","null","","test","","","","","",""
"498","306040","pSARL_v2","pSARL_v227d6hw6h","65028df3dcbf9224299692c4","infreq","img/orange_2bandit_a2.png","68","68","test","1","111","111","5","",""
"null","306351","pSARL_v2","pSARL_v227d6hw6h","65028df3dcbf9224299692c4","infreq_resp","img/orange_2bandit_a.png","68","68","test","","","","5","",""
"null","306509","pSARL_v2","pSARL_v227d6hw6h","65028df3dcbf9224299692c4","fixation","img/fixation.png","null","","test","","","","","",""
"490","307008","pSARL_v2","pSARL_v227d6hw6h","65028df3dcbf9224299692c4","freq","img/green_2bandit_a2.png","70","70","test","1","112","112","5","",""
"null","307331","pSARL_v2","pSARL_v227d6hw6h","65028df3dcbf9224299692c4","freq_resp","img/green_2bandit_a.png","70","70","test","","","","5","",""
"null","307493","pSARL_v2","pSARL_v227d6hw6h","65028df3dcbf9224299692c4","fixation","img/fixation.png","null","","test","","","","","",""
"404","307908","pSARL_v2","pSARL_v227d6hw6h","65028df3dcbf9224299692c4","freq","img/green_2bandit_a2.png","70","70","test","1","113","113","5","",""
"null","308316","pSARL_v2","pSARL_v227d6hw6h","65028df3dcbf9224299692c4","freq_resp","img/green_2bandit_a.png","70","70","test","","","","5","",""
"null","308478","pSARL_v2","pSARL_v227d6hw6h","65028df3dcbf9224299692c4","fixation","img/fixation.png","null","","test","","","","","",""
"342","308830","pSARL_v2","pSARL_v227d6hw6h","65028df3dcbf9224299692c4","freq","img/green_2bandit_a2.png","70","70","test","1","114","114","5","",""
"null","309297","pSARL_v2","pSARL_v227d6hw6h","65028df3dcbf9224299692c4","freq_resp","img/green_2bandit_a.png","70","70","test","","","","5","",""
"null","309457","pSARL_v2","pSARL_v227d6hw6h","65028df3dcbf9224299692c4","fixation","img/fixation.png","null","","test","","","","","",""
"351","309818","pSARL_v2","pSARL_v227d6hw6h","65028df3dcbf9224299692c4","freq","img/green_2bandit_a2.png","70","70","test","1","115","115","5","",""
"null","310279","pSARL_v2","pSARL_v227d6hw6h","65028df3dcbf9224299692c4","freq_resp","img/green_2bandit_a.png","70","70","test","","","","5","",""
"null","310437","pSARL_v2","pSARL_v227d6hw6h","65028df3dcbf9224299692c4","fixation","img/fixation.png","null","","test","","","","","",""
"476.0000000000582","310926","pSARL_v2","pSARL_v227d6hw6h","65028df3dcbf9224299692c4","reward","img/slot.png","74","","test","","","","","",""
"null","311688","pSARL_v2","pSARL_v227d6hw6h","65028df3dcbf9224299692c4","points","<div class=""veryhighPoints""> +1 </div>","null","na","test","","","","5","1","4"
"596","312294","pSARL_v2","pSARL_v227d6hw6h","65028df3dcbf9224299692c4","freq","img/green_2bandit_a2.png","70","70","test","1","116","116","6","",""
"null","312508","pSARL_v2","pSARL_v227d6hw6h","65028df3dcbf9224299692c4","freq_resp","img/green_2bandit_a.png","70","70","test","","","","6","",""
"null","312670","pSARL_v2","pSARL_v227d6hw6h","65028df3dcbf9224299692c4","fixation","img/fixation.png","null","","test","","","","","",""
"335","313013","pSARL_v2","pSARL_v227d6hw6h","65028df3dcbf9224299692c4","freq","img/green_2bandit_a2.png","70","70","test","1","117","117","6","",""
"null","313491","pSARL_v2","pSARL_v227d6hw6h","65028df3dcbf9224299692c4","freq_resp","img/green_2bandit_a.png","70","70","test","","","","6","",""
"null","313653","pSARL_v2","pSARL_v227d6hw6h","65028df3dcbf9224299692c4","fixation","img/fixation.png","null","","test","","","","","",""
"363","314027","pSARL_v2","pSARL_v227d6hw6h","65028df3dcbf9224299692c4","freq","img/green_2bandit_a2.png","70","70","test","1","118","118","6","",""
"null","314476","pSARL_v2","pSARL_v227d6hw6h","65028df3dcbf9224299692c4","freq_resp","img/green_2bandit_a.png","70","70","test","","","","6","",""
"null","314636","pSARL_v2","pSARL_v227d6hw6h","65028df3dcbf9224299692c4","fixation","img/fixation.png","null","","test","","","","","",""
"371","315017","pSARL_v2","pSARL_v227d6hw6h","65028df3dcbf9224299692c4","freq","img/green_2bandit_a2.png","70","70","test","1","119","119","6","",""
"null","315456","pSARL_v2","pSARL_v227d6hw6h","65028df3dcbf9224299692c4","freq_resp","img/green_2bandit_a.png","70","70","test","","","","6","",""
"null","315615","pSARL_v2","pSARL_v227d6hw6h","65028df3dcbf9224299692c4","fixation","img/fixation.png","null","","test","","","","","",""
"335.9999999999418","315962","pSARL_v2","pSARL_v227d6hw6h","65028df3dcbf9224299692c4","freq","img/green_2bandit_a2.png","70","70","test","1","120","120","6","",""
"null","316439","pSARL_v2","pSARL_v227d6hw6h","65028df3dcbf9224299692c4","freq_resp","img/green_2bandit_a.png","70","70","test","","","","6","",""
"null","316601","pSARL_v2","pSARL_v227d6hw6h","65028df3dcbf9224299692c4","fixation","img/fixation.png","null","","test","","","","","",""
"316.0000000000582","316928","pSARL_v2","pSARL_v227d6hw6h","65028df3dcbf9224299692c4","freq","img/green_2bandit_a2.png","70","70","test","1","121","121","6","",""
"null","317424","pSARL_v2","pSARL_v227d6hw6h","65028df3dcbf9224299692c4","freq_resp","img/green_2bandit_a.png","70","70","test","","","","6","",""
"null","317584","pSARL_v2","pSARL_v227d6hw6h","65028df3dcbf9224299692c4","fixation","img/fixation.png","null","","test","","","","","",""
"303","317898","pSARL_v2","pSARL_v227d6hw6h","65028df3dcbf9224299692c4","freq","img/green_2bandit_a2.png","70","70","test","1","122","122","6","",""
"null","318408","pSARL_v2","pSARL_v227d6hw6h","65028df3dcbf9224299692c4","freq_resp","img/green_2bandit_a.png","70","70","test","","","","6","",""
"null","318568","pSARL_v2","pSARL_v227d6hw6h","65028df3dcbf9224299692c4","fixation","img/fixation.png","null","","test","","","","","",""
"331.9999999999418","318908","pSARL_v2","pSARL_v227d6hw6h","65028df3dcbf9224299692c4","freq","img/green_2bandit_a2.png","70","70","test","1","123","123","6","",""
"null","319389","pSARL_v2","pSARL_v227d6hw6h","65028df3dcbf9224299692c4","freq_resp","img/green_2bandit_a.png","70","70","test","","","","6","",""
"null","319550","pSARL_v2","pSARL_v227d6hw6h","65028df3dcbf9224299692c4","fixation","img/fixation.png","null","","test","","","","","",""
"360.9999999999418","319924","pSARL_v2","pSARL_v227d6hw6h","65028df3dcbf9224299692c4","freq","img/green_2bandit_a2.png","70","70","test","1","124","124","6","",""
"null","320375","pSARL_v2","pSARL_v227d6hw6h","65028df3dcbf9224299692c4","freq_resp","img/green_2bandit_a.png","70","70","test","","","","6","",""
"null","320537","pSARL_v2","pSARL_v227d6hw6h","65028df3dcbf9224299692c4","fixation","img/fixation.png","null","","test","","","","","",""
"388","320935","pSARL_v2","pSARL_v227d6hw6h","65028df3dcbf9224299692c4","freq","img/green_2bandit_a2.png","70","70","test","1","125","125","6","",""
"null","321356","pSARL_v2","pSARL_v227d6hw6h","65028df3dcbf9224299692c4","freq_resp","img/green_2bandit_a.png","70","70","test","","","","6","",""
"null","321516","pSARL_v2","pSARL_v227d6hw6h","65028df3dcbf9224299692c4","fixation","img/fixation.png","null","","test","","","","","",""
"399","321925","pSARL_v2","pSARL_v227d6hw6h","65028df3dcbf9224299692c4","freq","img/green_2bandit_a2.png","70","70","test","1","126","126","6","",""
"null","322336","pSARL_v2","pSARL_v227d6hw6h","65028df3dcbf9224299692c4","freq_resp","img/green_2bandit_a.png","70","70","test","","","","6","",""
"null","322498","pSARL_v2","pSARL_v227d6hw6h","65028df3dcbf9224299692c4","fixation","img/fixation.png","null","","test","","","","","",""
"362","322870","pSARL_v2","pSARL_v227d6hw6h","65028df3dcbf9224299692c4","freq","img/green_2bandit_a2.png","70","70","test","1","127","127","6","",""
"null","323317","pSARL_v2","pSARL_v227d6hw6h","65028df3dcbf9224299692c4","freq_resp","img/green_2bandit_a.png","70","70","test","","","","6","",""
"null","323480","pSARL_v2","pSARL_v227d6hw6h","65028df3dcbf9224299692c4","fixation","img/fixation.png","null","","test","","","","","",""
"349","323836","pSARL_v2","pSARL_v227d6hw6h","65028df3dcbf9224299692c4","freq","img/green_2bandit_a2.png","70","70","test","1","128","128","6","",""
"null","324295","pSARL_v2","pSARL_v227d6hw6h","65028df3dcbf9224299692c4","freq_resp","img/green_2bandit_a.png","70","70","test","","","","6","",""
"null","324458","pSARL_v2","pSARL_v227d6hw6h","65028df3dcbf9224299692c4","fixation","img/fixation.png","null","","test","","","","","",""
"336.0000000000582","324803","pSARL_v2","pSARL_v227d6hw6h","65028df3dcbf9224299692c4","freq","img/green_2bandit_a2.png","70","70","test","1","129","129","6","",""
"null","325279","pSARL_v2","pSARL_v227d6hw6h","65028df3dcbf9224299692c4","freq_resp","img/green_2bandit_a.png","70","70","test","","","","6","",""
"null","325438","pSARL_v2","pSARL_v227d6hw6h","65028df3dcbf9224299692c4","fixation","img/fixation.png","null","","test","","","","","",""
"368","325816","pSARL_v2","pSARL_v227d6hw6h","65028df3dcbf9224299692c4","infreq","img/orange_2bandit_a2.png","68","68","test","1","130","130","6","",""
"null","326260","pSARL_v2","pSARL_v227d6hw6h","65028df3dcbf9224299692c4","infreq_resp","img/orange_2bandit_a.png","68","68","test","","","","6","",""
"null","326421","pSARL_v2","pSARL_v227d6hw6h","65028df3dcbf9224299692c4","fixation","img/fixation.png","null","","test","","","","","",""
"375","326808","pSARL_v2","pSARL_v227d6hw6h","65028df3dcbf9224299692c4","freq","img/green_2bandit_a2.png","70","70","test","1","131","131","6","",""
"null","327243","pSARL_v2","pSARL_v227d6hw6h","65028df3dcbf9224299692c4","freq_resp","img/green_2bandit_a.png","70","70","test","","","","6","",""
"null","327404","pSARL_v2","pSARL_v227d6hw6h","65028df3dcbf9224299692c4","fixation","img/fixation.png","null","","test","","","","","",""
"405","327821","pSARL_v2","pSARL_v227d6hw6h","65028df3dcbf9224299692c4","freq","img/green_2bandit_a2.png","70","70","test","1","132","132","6","",""
"null","328225","pSARL_v2","pSARL_v227d6hw6h","65028df3dcbf9224299692c4","freq_resp","img/green_2bandit_a.png","70","70","test","","","","6","",""
"null","328388","pSARL_v2","pSARL_v227d6hw6h","65028df3dcbf9224299692c4","fixation","img/fixation.png","null","","test","","","","","",""
"432.9999999999418","328833","pSARL_v2","pSARL_v227d6hw6h","65028df3dcbf9224299692c4","infreq","img/orange_2bandit_a2.png","68","68","test","1","133","133","6","",""
"null","329210","pSARL_v2","pSARL_v227d6hw6h","65028df3dcbf9224299692c4","infreq_resp","img/orange_2bandit_a.png","68","68","test","","","","6","",""
"null","329372","pSARL_v2","pSARL_v227d6hw6h","65028df3dcbf9224299692c4","fixation","img/fixation.png","null","","test","","","","","",""
"462","329843","pSARL_v2","pSARL_v227d6hw6h","65028df3dcbf9224299692c4","freq","img/green_2bandit_a2.png","70","70","test","1","134","134","6","",""
"null","330191","pSARL_v2","pSARL_v227d6hw6h","65028df3dcbf9224299692c4","freq_resp","img/green_2bandit_a.png","70","70","test","","","","6","",""
"null","330353","pSARL_v2","pSARL_v227d6hw6h","65028df3dcbf9224299692c4","fixation","img/fixation.png","null","","test","","","","","",""
"381","330744","pSARL_v2","pSARL_v227d6hw6h","65028df3dcbf9224299692c4","freq","img/green_2bandit_a2.png","70","70","test","1","135","135","6","",""
"null","331175","pSARL_v2","pSARL_v227d6hw6h","65028df3dcbf9224299692c4","freq_resp","img/green_2bandit_a.png","70","70","test","","","","6","",""
"null","331334","pSARL_v2","pSARL_v227d6hw6h","65028df3dcbf9224299692c4","fixation","img/fixation.png","null","","test","","","","","",""
"389","331732","pSARL_v2","pSARL_v227d6hw6h","65028df3dcbf9224299692c4","reward","img/slot.png","74","","test","","","","","",""
"null","332494","pSARL_v2","pSARL_v227d6hw6h","65028df3dcbf9224299692c4","points","<div class=""verylowPoints""> -7 </div>","null","na","test","","","","6","-7","5"
"null","333304","pSARL_v2","pSARL_v227d6hw6h","65028df3dcbf9224299692c4","freq","img/green_2bandit_a2.png","null","70","test","0","136","136","7","",""
"null","333464","pSARL_v2","pSARL_v227d6hw6h","65028df3dcbf9224299692c4","fixation","img/fixation.png","null","","test","","","","","",""
"510","333985","pSARL_v2","pSARL_v227d6hw6h","65028df3dcbf9224299692c4","infreq","img/orange_2bandit_a2.png","68","68","test","1","137","137","7","",""
"null","334287","pSARL_v2","pSARL_v227d6hw6h","65028df3dcbf9224299692c4","infreq_resp","img/orange_2bandit_a.png","68","68","test","","","","7","",""
"null","334448","pSARL_v2","pSARL_v227d6hw6h","65028df3dcbf9224299692c4","fixation","img/fixation.png","null","","test","","","","","",""
"516","334972","pSARL_v2","pSARL_v227d6hw6h","65028df3dcbf9224299692c4","freq","img/green_2bandit_a2.png","70","70","test","1","138","138","7","",""
"null","335269","pSARL_v2","pSARL_v227d6hw6h","65028df3dcbf9224299692c4","freq_resp","img/green_2bandit_a.png","70","70","test","","","","7","",""
"null","335432","pSARL_v2","pSARL_v227d6hw6h","65028df3dcbf9224299692c4","fixation","img/fixation.png","null","","test","","","","","",""
"455","335895","pSARL_v2","pSARL_v227d6hw6h","65028df3dcbf9224299692c4","infreq","img/orange_2bandit_a2.png","68","68","test","1","139","139","7","",""
"null","336252","pSARL_v2","pSARL_v227d6hw6h","65028df3dcbf9224299692c4","infreq_resp","img/orange_2bandit_a.png","68","68","test","","","","7","",""
"null","336412","pSARL_v2","pSARL_v227d6hw6h","65028df3dcbf9224299692c4","fixation","img/fixation.png","null","","test","","","","","",""
"444","336864","pSARL_v2","pSARL_v227d6hw6h","65028df3dcbf9224299692c4","freq","img/green_2bandit_a2.png","70","70","test","1","140","140","7","",""
"null","337234","pSARL_v2","pSARL_v227d6hw6h","65028df3dcbf9224299692c4","freq_resp","img/green_2bandit_a.png","70","70","test","","","","7","",""
"null","337395","pSARL_v2","pSARL_v227d6hw6h","65028df3dcbf9224299692c4","fixation","img/fixation.png","null","","test","","","","","",""
"337","337743","pSARL_v2","pSARL_v227d6hw6h","65028df3dcbf9224299692c4","freq","img/green_2bandit_a2.png","70","70","test","1","141","141","7","",""
"null","338215","pSARL_v2","pSARL_v227d6hw6h","65028df3dcbf9224299692c4","freq_resp","img/green_2bandit_a.png","70","70","test","","","","7","",""
"null","338377","pSARL_v2","pSARL_v227d6hw6h","65028df3dcbf9224299692c4","fixation","img/fixation.png","null","","test","","","","","",""
"322","338710","pSARL_v2","pSARL_v227d6hw6h","65028df3dcbf9224299692c4","freq","img/green_2bandit_a2.png","70","70","test","1","142","142","7","",""
"null","339201","pSARL_v2","pSARL_v227d6hw6h","65028df3dcbf9224299692c4","freq_resp","img/green_2bandit_a.png","70","70","test","","","","7","",""
"null","339362","pSARL_v2","pSARL_v227d6hw6h","65028df3dcbf9224299692c4","fixation","img/fixation.png","null","","test","","","","","",""
"418","339788","pSARL_v2","pSARL_v227d6hw6h","65028df3dcbf9224299692c4","freq","img/green_2bandit_a2.png","70","70","test","1","143","143","7","",""
"null","340182","pSARL_v2","pSARL_v227d6hw6h","65028df3dcbf9224299692c4","freq_resp","img/green_2bandit_a.png","70","70","test","","","","7","",""
"null","340341","pSARL_v2","pSARL_v227d6hw6h","65028df3dcbf9224299692c4","fixation","img/fixation.png","null","","test","","","","","",""
"449.9999999999418","340801","pSARL_v2","pSARL_v227d6hw6h","65028df3dcbf9224299692c4","freq","img/green_2bandit_a2.png","70","70","test","1","144","144","7","",""
"null","341163","pSARL_v2","pSARL_v227d6hw6h","65028df3dcbf9224299692c4","freq_resp","img/green_2bandit_a.png","70","70","test","","","","7","",""
"null","341322","pSARL_v2","pSARL_v227d6hw6h","65028df3dcbf9224299692c4","fixation","img/fixation.png","null","","test","","","","","",""
"436","341768","pSARL_v2","pSARL_v227d6hw6h","65028df3dcbf9224299692c4","freq","img/green_2bandit_a2.png","70","70","test","1","145","145","7","",""
"null","342141","pSARL_v2","pSARL_v227d6hw6h","65028df3dcbf9224299692c4","freq_resp","img/green_2bandit_a.png","70","70","test","","","","7","",""
"null","342304","pSARL_v2","pSARL_v227d6hw6h","65028df3dcbf9224299692c4","fixation","img/fixation.png","null","","test","","","","","",""
"423","342738","pSARL_v2","pSARL_v227d6hw6h","65028df3dcbf9224299692c4","freq","img/green_2bandit_a2.png","70","70","test","1","146","146","7","",""
"null","343128","pSARL_v2","pSARL_v227d6hw6h","65028df3dcbf9224299692c4","freq_resp","img/green_2bandit_a.png","70","70","test","","","","7","",""
"null","343291","pSARL_v2","pSARL_v227d6hw6h","65028df3dcbf9224299692c4","fixation","img/fixation.png","null","","test","","","","","",""
"403","343705","pSARL_v2","pSARL_v227d6hw6h","65028df3dcbf9224299692c4","freq","img/green_2bandit_a2.png","70","70","test","1","147","147","7","",""
"null","344114","pSARL_v2","pSARL_v227d6hw6h","65028df3dcbf9224299692c4","freq_resp","img/green_2bandit_a.png","70","70","test","","","","7","",""
"null","344277","pSARL_v2","pSARL_v227d6hw6h","65028df3dcbf9224299692c4","fixation","img/fixation.png","null","","test","","","","","",""
"294","344583","pSARL_v2","pSARL_v227d6hw6h","65028df3dcbf9224299692c4","freq","img/green_2bandit_a2.png","70","70","test","1","148","148","7","",""
"null","345099","pSARL_v2","pSARL_v227d6hw6h","65028df3dcbf9224299692c4","freq_resp","img/green_2bandit_a.png","70","70","test","","","","7","",""
"null","345259","pSARL_v2","pSARL_v227d6hw6h","65028df3dcbf9224299692c4","fixation","img/fixation.png","null","","test","","","","","",""
"370","345640","pSARL_v2","pSARL_v227d6hw6h","65028df3dcbf9224299692c4","freq","img/green_2bandit_a2.png","70","70","test","1","149","149","7","",""
"null","346080","pSARL_v2","pSARL_v227d6hw6h","65028df3dcbf9224299692c4","freq_resp","img/green_2bandit_a.png","70","70","test","","","","7","",""
"null","346243","pSARL_v2","pSARL_v227d6hw6h","65028df3dcbf9224299692c4","fixation","img/fixation.png","null","","test","","","","","",""
"354","346607","pSARL_v2","pSARL_v227d6hw6h","65028df3dcbf9224299692c4","freq","img/green_2bandit_a2.png","70","70","test","1","150","150","7","",""
"null","347065","pSARL_v2","pSARL_v227d6hw6h","65028df3dcbf9224299692c4","freq_resp","img/green_2bandit_a.png","70","70","test","","","","7","",""
"null","347224","pSARL_v2","pSARL_v227d6hw6h","65028df3dcbf9224299692c4","fixation","img/fixation.png","null","","test","","","","","",""
"384","347620","pSARL_v2","pSARL_v227d6hw6h","65028df3dcbf9224299692c4","freq","img/green_2bandit_a2.png","70","70","test","1","151","151","7","",""
"null","348049","pSARL_v2","pSARL_v227d6hw6h","65028df3dcbf9224299692c4","freq_resp","img/green_2bandit_a.png","70","70","test","","","","7","",""
"null","348213","pSARL_v2","pSARL_v227d6hw6h","65028df3dcbf9224299692c4","fixation","img/fixation.png","null","","test","","","","","",""
"342","348564","pSARL_v2","pSARL_v227d6hw6h","65028df3dcbf9224299692c4","freq","img/green_2bandit_a2.png","70","70","test","1","152","152","7","",""
"null","349032","pSARL_v2","pSARL_v227d6hw6h","65028df3dcbf9224299692c4","freq_resp","img/green_2bandit_a.png","70","70","test","","","","7","",""
"null","349190","pSARL_v2","pSARL_v227d6hw6h","65028df3dcbf9224299692c4","fixation","img/fixation.png","null","","test","","","","","",""
"399","349601","pSARL_v2","pSARL_v227d6hw6h","65028df3dcbf9224299692c4","freq","img/green_2bandit_a2.png","70","70","test","1","153","153","7","",""
"null","350012","pSARL_v2","pSARL_v227d6hw6h","65028df3dcbf9224299692c4","freq_resp","img/green_2bandit_a.png","70","70","test","","","","7","",""
"null","350172","pSARL_v2","pSARL_v227d6hw6h","65028df3dcbf9224299692c4","fixation","img/fixation.png","null","","test","","","","","",""
"316","350500","pSARL_v2","pSARL_v227d6hw6h","65028df3dcbf9224299692c4","freq","img/green_2bandit_a2.png","70","70","test","1","154","154","7","",""
"null","350997","pSARL_v2","pSARL_v227d6hw6h","65028df3dcbf9224299692c4","freq_resp","img/green_2bandit_a.png","70","70","test","","","","7","",""
"null","351160","pSARL_v2","pSARL_v227d6hw6h","65028df3dcbf9224299692c4","fixation","img/fixation.png","null","","test","","","","","",""
"297","351465","pSARL_v2","pSARL_v227d6hw6h","65028df3dcbf9224299692c4","freq","img/green_2bandit_a2.png","70","70","test","1","155","155","7","",""
"null","351980","pSARL_v2","pSARL_v227d6hw6h","65028df3dcbf9224299692c4","freq_resp","img/green_2bandit_a.png","70","70","test","","","","7","",""
"null","352139","pSARL_v2","pSARL_v227d6hw6h","65028df3dcbf9224299692c4","fixation","img/fixation.png","null","","test","","","","","",""
"532.9999999999418","352685","pSARL_v2","pSARL_v227d6hw6h","65028df3dcbf9224299692c4","reward","img/slot.png","74","","test","","","","","",""
"null","353445","pSARL_v2","pSARL_v227d6hw6h","65028df3dcbf9224299692c4","points","<div class=""verylowPoints""> -6 </div>","null","na","test","","","","7","-6","6"
"null","354257","pSARL_v2","pSARL_v227d6hw6h","65028df3dcbf9224299692c4","freq","img/green_2bandit_a2.png","null","70","test","0","156","156","8","",""
"null","354419","pSARL_v2","pSARL_v227d6hw6h","65028df3dcbf9224299692c4","fixation","img/fixation.png","null","","test","","","","","",""
"502","354930","pSARL_v2","pSARL_v227d6hw6h","65028df3dcbf9224299692c4","freq","img/green_2bandit_a2.png","70","70","test","1","157","157","8","",""
"null","355239","pSARL_v2","pSARL_v227d6hw6h","65028df3dcbf9224299692c4","freq_resp","img/green_2bandit_a.png","70","70","test","","","","8","",""
"null","355395","pSARL_v2","pSARL_v227d6hw6h","65028df3dcbf9224299692c4","fixation","img/fixation.png","null","","test","","","","","",""
"337","355736","pSARL_v2","pSARL_v227d6hw6h","65028df3dcbf9224299692c4","freq","img/green_2bandit_a2.png","70","70","test","1","158","158","8","",""
"null","356208","pSARL_v2","pSARL_v227d6hw6h","65028df3dcbf9224299692c4","freq_resp","img/green_2bandit_a.png","70","70","test","","","","8","",""
"null","356370","pSARL_v2","pSARL_v227d6hw6h","65028df3dcbf9224299692c4","fixation","img/fixation.png","null","","test","","","","","",""
"238","356617","pSARL_v2","pSARL_v227d6hw6h","65028df3dcbf9224299692c4","freq","img/green_2bandit_a2.png","70","70","test","1","159","159","8","",""
"null","357191","pSARL_v2","pSARL_v227d6hw6h","65028df3dcbf9224299692c4","freq_resp","img/green_2bandit_a.png","70","70","test","","","","8","",""
"null","357352","pSARL_v2","pSARL_v227d6hw6h","65028df3dcbf9224299692c4","fixation","img/fixation.png","null","","test","","","","","",""
"290","357652","pSARL_v2","pSARL_v227d6hw6h","65028df3dcbf9224299692c4","freq","img/green_2bandit_a2.png","70","70","test","1","160","160","8","",""
"null","358175","pSARL_v2","pSARL_v227d6hw6h","65028df3dcbf9224299692c4","freq_resp","img/green_2bandit_a.png","70","70","test","","","","8","",""
"null","358337","pSARL_v2","pSARL_v227d6hw6h","65028df3dcbf9224299692c4","fixation","img/fixation.png","null","","test","","","","","",""
"319","358667","pSARL_v2","pSARL_v227d6hw6h","65028df3dcbf9224299692c4","freq","img/green_2bandit_a2.png","70","70","test","1","161","161","8","",""
"null","359151","pSARL_v2","pSARL_v227d6hw6h","65028df3dcbf9224299692c4","freq_resp","img/green_2bandit_a.png","70","70","test","","","","8","",""
"null","359306","pSARL_v2","pSARL_v227d6hw6h","65028df3dcbf9224299692c4","fixation","img/fixation.png","null","","test","","","","","",""
"745.9999999999418","360060","pSARL_v2","pSARL_v227d6hw6h","65028df3dcbf9224299692c4","infreq","img/orange_2bandit_a2.png","68","68","test","1","162","162","8","",""
"null","360124","pSARL_v2","pSARL_v227d6hw6h","65028df3dcbf9224299692c4","infreq_resp","img/orange_2bandit_a.png","68","68","test","","","","8","",""
"null","360283","pSARL_v2","pSARL_v227d6hw6h","65028df3dcbf9224299692c4","fixation","img/fixation.png","null","","test","","","","","",""
"510.0000000000582","360803","pSARL_v2","pSARL_v227d6hw6h","65028df3dcbf9224299692c4","freq","img/green_2bandit_a2.png","70","70","test","1","163","163","8","",""
"null","361104","pSARL_v2","pSARL_v227d6hw6h","65028df3dcbf9224299692c4","freq_resp","img/green_2bandit_a.png","70","70","test","","","","8","",""
"null","361268","pSARL_v2","pSARL_v227d6hw6h","65028df3dcbf9224299692c4","fixation","img/fixation.png","null","","test","","","","","",""
"402","361683","pSARL_v2","pSARL_v227d6hw6h","65028df3dcbf9224299692c4","freq","img/green_2bandit_a2.png","70","70","test","1","164","164","8","",""
"null","362091","pSARL_v2","pSARL_v227d6hw6h","65028df3dcbf9224299692c4","freq_resp","img/green_2bandit_a.png","70","70","test","","","","8","",""
"null","362253","pSARL_v2","pSARL_v227d6hw6h","65028df3dcbf9224299692c4","fixation","img/fixation.png","null","","test","","","","","",""
"295.9999999999418","362557","pSARL_v2","pSARL_v227d6hw6h","65028df3dcbf9224299692c4","freq","img/green_2bandit_a2.png","70","70","test","1","165","165","8","",""
"null","363074","pSARL_v2","pSARL_v227d6hw6h","65028df3dcbf9224299692c4","freq_resp","img/green_2bandit_a.png","70","70","test","","","","8","",""
"null","363237","pSARL_v2","pSARL_v227d6hw6h","65028df3dcbf9224299692c4","fixation","img/fixation.png","null","","test","","","","","",""
"459","363708","pSARL_v2","pSARL_v227d6hw6h","65028df3dcbf9224299692c4","infreq","img/orange_2bandit_a2.png","68","68","test","1","166","166","8","",""
"null","364059","pSARL_v2","pSARL_v227d6hw6h","65028df3dcbf9224299692c4","infreq_resp","img/orange_2bandit_a.png","68","68","test","","","","8","",""
"null","364221","pSARL_v2","pSARL_v227d6hw6h","65028df3dcbf9224299692c4","fixation","img/fixation.png","null","","test","","","","","",""
"352","364585","pSARL_v2","pSARL_v227d6hw6h","65028df3dcbf9224299692c4","freq","img/green_2bandit_a2.png","70","70","test","1","167","167","8","",""
"null","365044","pSARL_v2","pSARL_v227d6hw6h","65028df3dcbf9224299692c4","freq_resp","img/green_2bandit_a.png","70","70","test","","","","8","",""
"null","365206","pSARL_v2","pSARL_v227d6hw6h","65028df3dcbf9224299692c4","fixation","img/fixation.png","null","","test","","","","","",""
"561","365774","pSARL_v2","pSARL_v227d6hw6h","65028df3dcbf9224299692c4","freq","img/green_2bandit_a2.png","70","70","test","1","168","168","8","",""
"null","366027","pSARL_v2","pSARL_v227d6hw6h","65028df3dcbf9224299692c4","freq_resp","img/green_2bandit_a.png","70","70","test","","","","8","",""
"null","366189","pSARL_v2","pSARL_v227d6hw6h","65028df3dcbf9224299692c4","fixation","img/fixation.png","null","","test","","","","","",""
"365","366565","pSARL_v2","pSARL_v227d6hw6h","65028df3dcbf9224299692c4","freq","img/green_2bandit_a2.png","70","70","test","1","169","169","8","",""
"null","367011","pSARL_v2","pSARL_v227d6hw6h","65028df3dcbf9224299692c4","freq_resp","img/green_2bandit_a.png","70","70","test","","","","8","",""
"null","367174","pSARL_v2","pSARL_v227d6hw6h","65028df3dcbf9224299692c4","fixation","img/fixation.png","null","","test","","","","","",""
"480.9999999999418","367666","pSARL_v2","pSARL_v227d6hw6h","65028df3dcbf9224299692c4","freq","img/green_2bandit_a2.png","70","70","test","1","170","170","8","",""
"null","367996","pSARL_v2","pSARL_v227d6hw6h","65028df3dcbf9224299692c4","freq_resp","img/green_2bandit_a.png","70","70","test","","","","8","",""
"null","368156","pSARL_v2","pSARL_v227d6hw6h","65028df3dcbf9224299692c4","fixation","img/fixation.png","null","","test","","","","","",""
"490","368656","pSARL_v2","pSARL_v227d6hw6h","65028df3dcbf9224299692c4","freq","img/green_2bandit_a2.png","70","70","test","1","171","171","8","",""
"null","368979","pSARL_v2","pSARL_v227d6hw6h","65028df3dcbf9224299692c4","freq_resp","img/green_2bandit_a.png","70","70","test","","","","8","",""
"null","369139","pSARL_v2","pSARL_v227d6hw6h","65028df3dcbf9224299692c4","fixation","img/fixation.png","null","","test","","","","","",""
"541.9999999999418","369690","pSARL_v2","pSARL_v227d6hw6h","65028df3dcbf9224299692c4","freq","img/green_2bandit_a2.png","70","70","test","1","172","172","8","",""
"null","369959","pSARL_v2","pSARL_v227d6hw6h","65028df3dcbf9224299692c4","freq_resp","img/green_2bandit_a.png","70","70","test","","","","8","",""
"null","370118","pSARL_v2","pSARL_v227d6hw6h","65028df3dcbf9224299692c4","fixation","img/fixation.png","null","","test","","","","","",""
"418","370546","pSARL_v2","pSARL_v227d6hw6h","65028df3dcbf9224299692c4","freq","img/green_2bandit_a2.png","70","70","test","1","173","173","8","",""
"null","370940","pSARL_v2","pSARL_v227d6hw6h","65028df3dcbf9224299692c4","freq_resp","img/green_2bandit_a.png","70","70","test","","","","8","",""
"null","371101","pSARL_v2","pSARL_v227d6hw6h","65028df3dcbf9224299692c4","fixation","img/fixation.png","null","","test","","","","","",""
"359","371471","pSARL_v2","pSARL_v227d6hw6h","65028df3dcbf9224299692c4","freq","img/green_2bandit_a2.png","70","70","test","1","174","174","8","",""
"null","371924","pSARL_v2","pSARL_v227d6hw6h","65028df3dcbf9224299692c4","freq_resp","img/green_2bandit_a.png","70","70","test","","","","8","",""
"null","372084","pSARL_v2","pSARL_v227d6hw6h","65028df3dcbf9224299692c4","fixation","img/fixation.png","null","","test","","","","","",""
"432","372527","pSARL_v2","pSARL_v227d6hw6h","65028df3dcbf9224299692c4","reward","img/slot.png","74","","test","","","","","",""
"null","373286","pSARL_v2","pSARL_v227d6hw6h","65028df3dcbf9224299692c4","points","<div class=""verylowPoints""> -4 </div>","null","na","test","","","","8","-4","7"
"512","373809","pSARL_v2","pSARL_v227d6hw6h","65028df3dcbf9224299692c4","freq","img/green_2bandit_a2.png","70","70","test","1","175","175","9","",""
"null","374107","pSARL_v2","pSARL_v227d6hw6h","65028df3dcbf9224299692c4","freq_resp","img/green_2bandit_a.png","70","70","test","","","","9","",""
"null","374266","pSARL_v2","pSARL_v227d6hw6h","65028df3dcbf9224299692c4","fixation","img/fixation.png","null","","test","","","","","",""
"590","374866","pSARL_v2","pSARL_v227d6hw6h","65028df3dcbf9224299692c4","infreq","img/orange_2bandit_a2.png","68","68","test","1","176","176","9","",""
"null","375087","pSARL_v2","pSARL_v227d6hw6h","65028df3dcbf9224299692c4","infreq_resp","img/orange_2bandit_a.png","68","68","test","","","","9","",""
"null","375246","pSARL_v2","pSARL_v227d6hw6h","65028df3dcbf9224299692c4","fixation","img/fixation.png","null","","test","","","","","",""
"490","375747","pSARL_v2","pSARL_v227d6hw6h","65028df3dcbf9224299692c4","freq","img/green_2bandit_a2.png","70","70","test","1","177","177","9","",""
"null","376067","pSARL_v2","pSARL_v227d6hw6h","65028df3dcbf9224299692c4","freq_resp","img/green_2bandit_a.png","70","70","test","","","","9","",""
"null","376226","pSARL_v2","pSARL_v227d6hw6h","65028df3dcbf9224299692c4","fixation","img/fixation.png","null","","test","","","","","",""
"340","376577","pSARL_v2","pSARL_v227d6hw6h","65028df3dcbf9224299692c4","freq","img/green_2bandit_a2.png","70","70","test","1","178","178","9","",""
"null","377046","pSARL_v2","pSARL_v227d6hw6h","65028df3dcbf9224299692c4","freq_resp","img/green_2bandit_a.png","70","70","test","","","","9","",""
"null","377207","pSARL_v2","pSARL_v227d6hw6h","65028df3dcbf9224299692c4","fixation","img/fixation.png","null","","test","","","","","",""
"305","377518","pSARL_v2","pSARL_v227d6hw6h","65028df3dcbf9224299692c4","freq","img/green_2bandit_a2.png","68","70","test","0","179","179","9","",""
"null","378024","pSARL_v2","pSARL_v227d6hw6h","65028df3dcbf9224299692c4","freq_resp","img/green_2bandit_a.png","68","70","test","","","","9","",""
"null","378185","pSARL_v2","pSARL_v227d6hw6h","65028df3dcbf9224299692c4","fixation","img/fixation.png","null","","test","","","","","",""
"338","378533","pSARL_v2","pSARL_v227d6hw6h","65028df3dcbf9224299692c4","freq","img/green_2bandit_a2.png","70","70","test","1","180","180","9","",""
"null","379004","pSARL_v2","pSARL_v227d6hw6h","65028df3dcbf9224299692c4","freq_resp","img/green_2bandit_a.png","70","70","test","","","","9","",""
"null","379164","pSARL_v2","pSARL_v227d6hw6h","65028df3dcbf9224299692c4","fixation","img/fixation.png","null","","test","","","","","",""
"464.9999999999418","379640","pSARL_v2","pSARL_v227d6hw6h","65028df3dcbf9224299692c4","freq","img/green_2bandit_a2.png","70","70","test","1","181","181","9","",""
"null","379989","pSARL_v2","pSARL_v227d6hw6h","65028df3dcbf9224299692c4","freq_resp","img/green_2bandit_a.png","70","70","test","","","","9","",""
"null","380149","pSARL_v2","pSARL_v227d6hw6h","65028df3dcbf9224299692c4","fixation","img/fixation.png","null","","test","","","","","",""
"332","380490","pSARL_v2","pSARL_v227d6hw6h","65028df3dcbf9224299692c4","freq","img/green_2bandit_a2.png","70","70","test","1","182","182","9","",""
"null","380968","pSARL_v2","pSARL_v227d6hw6h","65028df3dcbf9224299692c4","freq_resp","img/green_2bandit_a.png","70","70","test","","","","9","",""
"null","381130","pSARL_v2","pSARL_v227d6hw6h","65028df3dcbf9224299692c4","fixation","img/fixation.png","null","","test","","","","","",""
"273","381415","pSARL_v2","pSARL_v227d6hw6h","65028df3dcbf9224299692c4","freq","img/green_2bandit_a2.png","70","70","test","1","183","183","9","",""
"null","381952","pSARL_v2","pSARL_v227d6hw6h","65028df3dcbf9224299692c4","freq_resp","img/green_2bandit_a.png","70","70","test","","","","9","",""
"null","382114","pSARL_v2","pSARL_v227d6hw6h","65028df3dcbf9224299692c4","fixation","img/fixation.png","null","","test","","","","","",""
"279","382401","pSARL_v2","pSARL_v227d6hw6h","65028df3dcbf9224299692c4","freq","img/green_2bandit_a2.png","70","70","test","1","184","184","9","",""
"null","382935","pSARL_v2","pSARL_v227d6hw6h","65028df3dcbf9224299692c4","freq_resp","img/green_2bandit_a.png","70","70","test","","","","9","",""
"null","383096","pSARL_v2","pSARL_v227d6hw6h","65028df3dcbf9224299692c4","fixation","img/fixation.png","null","","test","","","","","",""
"265","383372","pSARL_v2","pSARL_v227d6hw6h","65028df3dcbf9224299692c4","freq","img/green_2bandit_a2.png","70","70","test","1","185","185","9","",""
"null","383920","pSARL_v2","pSARL_v227d6hw6h","65028df3dcbf9224299692c4","freq_resp","img/green_2bandit_a.png","70","70","test","","","","9","",""
"null","384081","pSARL_v2","pSARL_v227d6hw6h","65028df3dcbf9224299692c4","fixation","img/fixation.png","null","","test","","","","","",""
"326","384419","pSARL_v2","pSARL_v227d6hw6h","65028df3dcbf9224299692c4","freq","img/green_2bandit_a2.png","70","70","test","1","186","186","9","",""
"null","384903","pSARL_v2","pSARL_v227d6hw6h","65028df3dcbf9224299692c4","freq_resp","img/green_2bandit_a.png","70","70","test","","","","9","",""
"null","385065","pSARL_v2","pSARL_v227d6hw6h","65028df3dcbf9224299692c4","fixation","img/fixation.png","null","","test","","","","","",""
"298","385374","pSARL_v2","pSARL_v227d6hw6h","65028df3dcbf9224299692c4","freq","img/green_2bandit_a2.png","70","70","test","1","187","187","9","",""
"null","385888","pSARL_v2","pSARL_v227d6hw6h","65028df3dcbf9224299692c4","freq_resp","img/green_2bandit_a.png","70","70","test","","","","9","",""
"null","386053","pSARL_v2","pSARL_v227d6hw6h","65028df3dcbf9224299692c4","fixation","img/fixation.png","null","","test","","","","","",""
"301","386367","pSARL_v2","pSARL_v227d6hw6h","65028df3dcbf9224299692c4","freq","img/green_2bandit_a2.png","70","70","test","1","188","188","9","",""
"null","386878","pSARL_v2","pSARL_v227d6hw6h","65028df3dcbf9224299692c4","freq_resp","img/green_2bandit_a.png","70","70","test","","","","9","",""
"null","387041","pSARL_v2","pSARL_v227d6hw6h","65028df3dcbf9224299692c4","fixation","img/fixation.png","null","","test","","","","","",""
"461","387510","pSARL_v2","pSARL_v227d6hw6h","65028df3dcbf9224299692c4","infreq","img/orange_2bandit_a2.png","68","68","test","1","189","189","9","",""
"null","387858","pSARL_v2","pSARL_v227d6hw6h","65028df3dcbf9224299692c4","infreq_resp","img/orange_2bandit_a.png","68","68","test","","","","9","",""
"null","388017","pSARL_v2","pSARL_v227d6hw6h","65028df3dcbf9224299692c4","fixation","img/fixation.png","null","","test","","","","","",""
"407","388432","pSARL_v2","pSARL_v227d6hw6h","65028df3dcbf9224299692c4","freq","img/green_2bandit_a2.png","70","70","test","1","190","190","9","",""
"null","388835","pSARL_v2","pSARL_v227d6hw6h","65028df3dcbf9224299692c4","freq_resp","img/green_2bandit_a.png","70","70","test","","","","9","",""
"null","388996","pSARL_v2","pSARL_v227d6hw6h","65028df3dcbf9224299692c4","fixation","img/fixation.png","null","","test","","","","","",""
"394","389399","pSARL_v2","pSARL_v227d6hw6h","65028df3dcbf9224299692c4","freq","img/green_2bandit_a2.png","70","70","test","1","191","191","9","",""
"null","389813","pSARL_v2","pSARL_v227d6hw6h","65028df3dcbf9224299692c4","freq_resp","img/green_2bandit_a.png","70","70","test","","","","9","",""
"null","389975","pSARL_v2","pSARL_v227d6hw6h","65028df3dcbf9224299692c4","fixation","img/fixation.png","null","","test","","","","","",""
"451.0000000000582","390436","pSARL_v2","pSARL_v227d6hw6h","65028df3dcbf9224299692c4","freq","img/green_2bandit_a2.png","70","70","test","1","192","192","9","",""
"null","390794","pSARL_v2","pSARL_v227d6hw6h","65028df3dcbf9224299692c4","freq_resp","img/green_2bandit_a.png","70","70","test","","","","9","",""
"null","390957","pSARL_v2","pSARL_v227d6hw6h","65028df3dcbf9224299692c4","fixation","img/fixation.png","null","","test","","","","","",""
"415","391380","pSARL_v2","pSARL_v227d6hw6h","65028df3dcbf9224299692c4","freq","img/green_2bandit_a2.png","70","70","test","1","193","193","9","",""
"null","391777","pSARL_v2","pSARL_v227d6hw6h","65028df3dcbf9224299692c4","freq_resp","img/green_2bandit_a.png","70","70","test","","","","9","",""
"null","391936","pSARL_v2","pSARL_v227d6hw6h","65028df3dcbf9224299692c4","fixation","img/fixation.png","null","","test","","","","","",""
"401","392349","pSARL_v2","pSARL_v227d6hw6h","65028df3dcbf9224299692c4","freq","img/green_2bandit_a2.png","70","70","test","1","194","194","9","",""
"null","392756","pSARL_v2","pSARL_v227d6hw6h","65028df3dcbf9224299692c4","freq_resp","img/green_2bandit_a.png","70","70","test","","","","9","",""
"null","392920","pSARL_v2","pSARL_v227d6hw6h","65028df3dcbf9224299692c4","fixation","img/fixation.png","null","","test","","","","","",""
"452","393385","pSARL_v2","pSARL_v227d6hw6h","65028df3dcbf9224299692c4","freq","img/green_2bandit_a2.png","70","70","test","1","195","195","9","",""
"null","393744","pSARL_v2","pSARL_v227d6hw6h","65028df3dcbf9224299692c4","freq_resp","img/green_2bandit_a.png","70","70","test","","","","9","",""
"null","393906","pSARL_v2","pSARL_v227d6hw6h","65028df3dcbf9224299692c4","fixation","img/fixation.png","null","","test","","","","","",""
"346","394260","pSARL_v2","pSARL_v227d6hw6h","65028df3dcbf9224299692c4","freq","img/green_2bandit_a2.png","70","70","test","1","196","196","9","",""
"null","394725","pSARL_v2","pSARL_v227d6hw6h","65028df3dcbf9224299692c4","freq_resp","img/green_2bandit_a.png","70","70","test","","","","9","",""
"null","394885","pSARL_v2","pSARL_v227d6hw6h","65028df3dcbf9224299692c4","fixation","img/fixation.png","null","","test","","","","","",""
"378","395271","pSARL_v2","pSARL_v227d6hw6h","65028df3dcbf9224299692c4","freq","img/green_2bandit_a2.png","70","70","test","1","197","197","9","",""
"null","395705","pSARL_v2","pSARL_v227d6hw6h","65028df3dcbf9224299692c4","freq_resp","img/green_2bandit_a.png","70","70","test","","","","9","",""
"null","395864","pSARL_v2","pSARL_v227d6hw6h","65028df3dcbf9224299692c4","fixation","img/fixation.png","null","","test","","","","","",""
"321","396196","pSARL_v2","pSARL_v227d6hw6h","65028df3dcbf9224299692c4","freq","img/green_2bandit_a2.png","70","70","test","1","198","198","9","",""
"null","396688","pSARL_v2","pSARL_v227d6hw6h","65028df3dcbf9224299692c4","freq_resp","img/green_2bandit_a.png","70","70","test","","","","9","",""
"null","396851","pSARL_v2","pSARL_v227d6hw6h","65028df3dcbf9224299692c4","fixation","img/fixation.png","null","","test","","","","","",""
"347","397209","pSARL_v2","pSARL_v227d6hw6h","65028df3dcbf9224299692c4","freq","img/green_2bandit_a2.png","70","70","test","1","199","199","9","",""
"null","397674","pSARL_v2","pSARL_v227d6hw6h","65028df3dcbf9224299692c4","freq_resp","img/green_2bandit_a.png","70","70","test","","","","9","",""
"null","397837","pSARL_v2","pSARL_v227d6hw6h","65028df3dcbf9224299692c4","fixation","img/fixation.png","null","","test","","","","","",""
"350","398198","pSARL_v2","pSARL_v227d6hw6h","65028df3dcbf9224299692c4","reward","img/slot.png","74","","test","","","","","",""
"null","398959","pSARL_v2","pSARL_v227d6hw6h","65028df3dcbf9224299692c4","points","<div class=""verylowPoints""> -3 </div>","null","na","test","","","","9","-3","8"
"355","399324","pSARL_v2","pSARL_v227d6hw6h","65028df3dcbf9224299692c4","freq","img/green_2bandit_a2.png","70","70","test","1","200","200","10","",""
"null","399778","pSARL_v2","pSARL_v227d6hw6h","65028df3dcbf9224299692c4","freq_resp","img/green_2bandit_a.png","70","70","test","","","","10","",""
"null","399937","pSARL_v2","pSARL_v227d6hw6h","65028df3dcbf9224299692c4","fixation","img/fixation.png","null","","test","","","","","",""
"478.9999999999418","400427","pSARL_v2","pSARL_v227d6hw6h","65028df3dcbf9224299692c4","infreq","img/orange_2bandit_a2.png","68","68","test","1","201","201","10","",""
"null","400759","pSARL_v2","pSARL_v227d6hw6h","65028df3dcbf9224299692c4","infreq_resp","img/orange_2bandit_a.png","68","68","test","","","","10","",""
"null","400921","pSARL_v2","pSARL_v227d6hw6h","65028df3dcbf9224299692c4","fixation","img/fixation.png","null","","test","","","","","",""
"485","401415","pSARL_v2","pSARL_v227d6hw6h","65028df3dcbf9224299692c4","infreq","img/orange_2bandit_a2.png","68","68","test","1","202","202","10","",""
"null","401741","pSARL_v2","pSARL_v227d6hw6h","65028df3dcbf9224299692c4","infreq_resp","img/orange_2bandit_a.png","68","68","test","","","","10","",""
"null","401900","pSARL_v2","pSARL_v227d6hw6h","65028df3dcbf9224299692c4","fixation","img/fixation.png","null","","test","","","","","",""
"null","402713","pSARL_v2","pSARL_v227d6hw6h","65028df3dcbf9224299692c4","freq","img/green_2bandit_a2.png","null","70","test","0","203","203","10","",""
"null","402875","pSARL_v2","pSARL_v227d6hw6h","65028df3dcbf9224299692c4","fixation","img/fixation.png","null","","test","","","","","",""
"38.00000000005821","402916","pSARL_v2","pSARL_v227d6hw6h","65028df3dcbf9224299692c4","freq","img/green_2bandit_a2.png","70","70","test","1","204","204","10","",""
"null","403686","pSARL_v2","pSARL_v227d6hw6h","65028df3dcbf9224299692c4","freq_resp","img/green_2bandit_a.png","70","70","test","","","","10","",""
"null","403845","pSARL_v2","pSARL_v227d6hw6h","65028df3dcbf9224299692c4","fixation","img/fixation.png","null","","test","","","","","",""
"396","404253","pSARL_v2","pSARL_v227d6hw6h","65028df3dcbf9224299692c4","freq","img/green_2bandit_a2.png","70","70","test","1","205","205","10","",""
"null","404670","pSARL_v2","pSARL_v227d6hw6h","65028df3dcbf9224299692c4","freq_resp","img/green_2bandit_a.png","70","70","test","","","","10","",""
"null","404832","pSARL_v2","pSARL_v227d6hw6h","65028df3dcbf9224299692c4","fixation","img/fixation.png","null","","test","","","","","",""
"376","405219","pSARL_v2","pSARL_v227d6hw6h","65028df3dcbf9224299692c4","freq","img/green_2bandit_a2.png","70","70","test","1","206","206","10","",""
"null","405654","pSARL_v2","pSARL_v227d6hw6h","65028df3dcbf9224299692c4","freq_resp","img/green_2bandit_a.png","70","70","test","","","","10","",""
"null","405814","pSARL_v2","pSARL_v227d6hw6h","65028df3dcbf9224299692c4","fixation","img/fixation.png","null","","test","","","","","",""
"293","406118","pSARL_v2","pSARL_v227d6hw6h","65028df3dcbf9224299692c4","freq","img/green_2bandit_a2.png","70","70","test","1","207","207","10","",""
"null","406636","pSARL_v2","pSARL_v227d6hw6h","65028df3dcbf9224299692c4","freq_resp","img/green_2bandit_a.png","70","70","test","","","","10","",""
"null","406795","pSARL_v2","pSARL_v227d6hw6h","65028df3dcbf9224299692c4","fixation","img/fixation.png","null","","test","","","","","",""
"303.0000000000582","407107","pSARL_v2","pSARL_v227d6hw6h","65028df3dcbf9224299692c4","freq","img/green_2bandit_a2.png","70","70","test","1","208","208","10","",""
"null","407615","pSARL_v2","pSARL_v227d6hw6h","65028df3dcbf9224299692c4","freq_resp","img/green_2bandit_a.png","70","70","test","","","","10","",""
"null","407778","pSARL_v2","pSARL_v227d6hw6h","65028df3dcbf9224299692c4","fixation","img/fixation.png","null","","test","","","","","",""
"287","408076","pSARL_v2","pSARL_v227d6hw6h","65028df3dcbf9224299692c4","freq","img/green_2bandit_a2.png","70","70","test","1","209","209","10","",""
"null","408601","pSARL_v2","pSARL_v227d6hw6h","65028df3dcbf9224299692c4","freq_resp","img/green_2bandit_a.png","70","70","test","","","","10","",""
"null","408760","pSARL_v2","pSARL_v227d6hw6h","65028df3dcbf9224299692c4","fixation","img/fixation.png","null","","test","","","","","",""
"317","409085","pSARL_v2","pSARL_v227d6hw6h","65028df3dcbf9224299692c4","freq","img/green_2bandit_a2.png","70","70","test","1","210","210","10","",""
"null","409577","pSARL_v2","pSARL_v227d6hw6h","65028df3dcbf9224299692c4","freq_resp","img/green_2bandit_a.png","70","70","test","","","","10","",""
"null","409740","pSARL_v2","pSARL_v227d6hw6h","65028df3dcbf9224299692c4","fixation","img/fixation.png","null","","test","","","","","",""
"532","410283","pSARL_v2","pSARL_v227d6hw6h","65028df3dcbf9224299692c4","freq","img/green_2bandit_a2.png","70","70","test","1","211","211","10","",""
"null","410560","pSARL_v2","pSARL_v227d6hw6h","65028df3dcbf9224299692c4","freq_resp","img/green_2bandit_a.png","70","70","test","","","","10","",""
"null","410718","pSARL_v2","pSARL_v227d6hw6h","65028df3dcbf9224299692c4","fixation","img/fixation.png","null","","test","","","","","",""
"676","411403","pSARL_v2","pSARL_v227d6hw6h","65028df3dcbf9224299692c4","freq","img/green_2bandit_a2.png","70","70","test","1","212","212","10","",""
"null","411538","pSARL_v2","pSARL_v227d6hw6h","65028df3dcbf9224299692c4","freq_resp","img/green_2bandit_a.png","70","70","test","","","","10","",""
"null","411699","pSARL_v2","pSARL_v227d6hw6h","65028df3dcbf9224299692c4","fixation","img/fixation.png","null","","test","","","","","",""
