"rt","time_elapsed","expId","subject","prolificID","trialType","stimulus","key_press","corrresp","phase","corr","trialNum","attentionRunNum","blockNum","points","rlNum"
"6485","6491","pSARL_v2","pSARL_v2gwb9fnno","5bc0ac845a09ea00012e2d30","","","","","","","","","","",""
"","8776","pSARL_v2","pSARL_v2gwb9fnno","5bc0ac845a09ea00012e2d30","fullscreen","","","","","","","","","",""
"39643","48423","pSARL_v2","pSARL_v2gwb9fnno","5bc0ac845a09ea00012e2d30","","","","","","","","","","",""
"null","49235","pSARL_v2","pSARL_v2gwb9fnno","5bc0ac845a09ea00012e2d30","freqPrac","img/green_2bandit_b2.png","null","70","prac","0","","","","",""
"null","50253","pSARL_v2","pSARL_v2gwb9fnno","5bc0ac845a09ea00012e2d30","feedback","img/tooSlow.png","null","na","prac","","","","","",""
"null","50409","pSARL_v2","pSARL_v2gwb9fnno","5bc0ac845a09ea00012e2d30","fixation","img/fixation.png","null","","prac","","","","","",""
"347","50760","pSARL_v2","pSARL_v2gwb9fnno","5bc0ac845a09ea00012e2d30","infreqPrac","img/orange_2bandit_b2.png","68","68","prac","1","","","","",""
"347","51224","pSARL_v2","pSARL_v2gwb9fnno","5bc0ac845a09ea00012e2d30","infreqPrac_resp","img/orange_2bandit_b.png","68","68","prac","","","","","",""
"null","51393","pSARL_v2","pSARL_v2gwb9fnno","5bc0ac845a09ea00012e2d30","fixation","img/fixation.png","null","","prac","","","","","",""
"503","51899","pSARL_v2","pSARL_v2gwb9fnno","5bc0ac845a09ea00012e2d30","freqPrac","img/green_2bandit_b2.png","70","70","prac","1","","","","",""
"503","52210","pSARL_v2","pSARL_v2gwb9fnno","5bc0ac845a09ea00012e2d30","freqPrac_resp","img/green_2bandit_b.png","70","70","prac","","","","","",""
"null","52365","pSARL_v2","pSARL_v2gwb9fnno","5bc0ac845a09ea00012e2d30","fixation","img/fixation.png","null","","prac","","","","","",""
"590","52958","pSARL_v2","pSARL_v2gwb9fnno","5bc0ac845a09ea00012e2d30","infreqPrac","img/orange_2bandit_b2.png","68","68","prac","1","","","","",""
"590","53183","pSARL_v2","pSARL_v2gwb9fnno","5bc0ac845a09ea00012e2d30","infreqPrac_resp","img/orange_2bandit_b.png","68","68","prac","","","","","",""
"null","53337","pSARL_v2","pSARL_v2gwb9fnno","5bc0ac845a09ea00012e2d30","fixation","img/fixation.png","null","","prac","","","","","",""
"481","53822","pSARL_v2","pSARL_v2gwb9fnno","5bc0ac845a09ea00012e2d30","infreqPrac","img/orange_2bandit_b2.png","68","68","prac","1","","","","",""
"481","54153","pSARL_v2","pSARL_v2gwb9fnno","5bc0ac845a09ea00012e2d30","infreqPrac_resp","img/orange_2bandit_b.png","68","68","prac","","","","","",""
"null","54321","pSARL_v2","pSARL_v2gwb9fnno","5bc0ac845a09ea00012e2d30","fixation","img/fixation.png","null","","prac","","","","","",""
"334","54660","pSARL_v2","pSARL_v2gwb9fnno","5bc0ac845a09ea00012e2d30","infreqPrac","img/orange_2bandit_b2.png","68","68","prac","1","","","","",""
"334","55140","pSARL_v2","pSARL_v2gwb9fnno","5bc0ac845a09ea00012e2d30","infreqPrac_resp","img/orange_2bandit_b.png","68","68","prac","","","","","",""
"null","55310","pSARL_v2","pSARL_v2gwb9fnno","5bc0ac845a09ea00012e2d30","fixation","img/fixation.png","null","","prac","","","","","",""
"494","55807","pSARL_v2","pSARL_v2gwb9fnno","5bc0ac845a09ea00012e2d30","freqPrac","img/green_2bandit_b2.png","70","70","prac","1","","","","",""
"494","56126","pSARL_v2","pSARL_v2gwb9fnno","5bc0ac845a09ea00012e2d30","freqPrac_resp","img/green_2bandit_b.png","70","70","prac","","","","","",""
"null","56295","pSARL_v2","pSARL_v2gwb9fnno","5bc0ac845a09ea00012e2d30","fixation","img/fixation.png","null","","prac","","","","","",""
"401","56699","pSARL_v2","pSARL_v2gwb9fnno","5bc0ac845a09ea00012e2d30","infreqPrac","img/orange_2bandit_b2.png","68","68","prac","1","","","","",""
"401","57113","pSARL_v2","pSARL_v2gwb9fnno","5bc0ac845a09ea00012e2d30","infreqPrac_resp","img/orange_2bandit_b.png","68","68","prac","","","","","",""
"null","57267","pSARL_v2","pSARL_v2gwb9fnno","5bc0ac845a09ea00012e2d30","fixation","img/fixation.png","null","","prac","","","","","",""
"366","57637","pSARL_v2","pSARL_v2gwb9fnno","5bc0ac845a09ea00012e2d30","freqPrac","img/green_2bandit_b2.png","68","70","prac","0","","","","",""
"366","58084","pSARL_v2","pSARL_v2gwb9fnno","5bc0ac845a09ea00012e2d30","freqPrac_resp","img/green_2bandit_b.png","68","70","prac","","","","","",""
"null","59087","pSARL_v2","pSARL_v2gwb9fnno","5bc0ac845a09ea00012e2d30","feedback","img/wrongKey.png","null","na","prac","","","","","",""
"null","59242","pSARL_v2","pSARL_v2gwb9fnno","5bc0ac845a09ea00012e2d30","fixation","img/fixation.png","null","","prac","","","","","",""
"null","60058","pSARL_v2","pSARL_v2gwb9fnno","5bc0ac845a09ea00012e2d30","freqPrac","img/green_2bandit_b2.png","null","70","prac","0","","","","",""
"null","61074","pSARL_v2","pSARL_v2gwb9fnno","5bc0ac845a09ea00012e2d30","feedback","img/tooSlow.png","null","na","prac","","","","","",""
"null","61229","pSARL_v2","pSARL_v2gwb9fnno","5bc0ac845a09ea00012e2d30","fixation","img/fixation.png","null","","prac","","","","","",""
"17109","78342","pSARL_v2","pSARL_v2gwb9fnno","5bc0ac845a09ea00012e2d30","","","","","prac","","","","","",""
"513","78860","pSARL_v2","pSARL_v2gwb9fnno","5bc0ac845a09ea00012e2d30","rewardPractice","img/slot.png","74","","prac","","","","","",""
"null","79621","pSARL_v2","pSARL_v2gwb9fnno","5bc0ac845a09ea00012e2d30","feedback","<div class=""veryhighPoints""> +15 </div>","null","na","prac","","","","","",""
"null","79791","pSARL_v2","pSARL_v2gwb9fnno","5bc0ac845a09ea00012e2d30","fixation","img/fixation.png","null","","prac","","","","","",""
"5736","85530","pSARL_v2","pSARL_v2gwb9fnno","5bc0ac845a09ea00012e2d30","","","","","prac","","","","","",""
"null","86339","pSARL_v2","pSARL_v2gwb9fnno","5bc0ac845a09ea00012e2d30","freq","img/green_2bandit_b2.png","null","70","test","0","1","1","1","",""
"null","86508","pSARL_v2","pSARL_v2gwb9fnno","5bc0ac845a09ea00012e2d30","fixation","img/fixation.png","null","","test","","","","","",""
"541","87052","pSARL_v2","pSARL_v2gwb9fnno","5bc0ac845a09ea00012e2d30","infreq","img/orange_2bandit_b2.png","68","68","test","1","2","2","1","",""
"null","87325","pSARL_v2","pSARL_v2gwb9fnno","5bc0ac845a09ea00012e2d30","infreq_resp","img/orange_2bandit_b.png","68","68","test","","","","1","",""
"null","87481","pSARL_v2","pSARL_v2gwb9fnno","5bc0ac845a09ea00012e2d30","fixation","img/fixation.png","null","","test","","","","","",""
"393","87878","pSARL_v2","pSARL_v2gwb9fnno","5bc0ac845a09ea00012e2d30","freq","img/green_2bandit_b2.png","70","70","test","1","3","3","1","",""
"null","88297","pSARL_v2","pSARL_v2gwb9fnno","5bc0ac845a09ea00012e2d30","freq_resp","img/green_2bandit_b.png","70","70","test","","","","1","",""
"null","88451","pSARL_v2","pSARL_v2gwb9fnno","5bc0ac845a09ea00012e2d30","fixation","img/fixation.png","null","","test","","","","","",""
"367","88822","pSARL_v2","pSARL_v2gwb9fnno","5bc0ac845a09ea00012e2d30","freq","img/green_2bandit_b2.png","70","70","test","1","4","4","1","",""
"null","89268","pSARL_v2","pSARL_v2gwb9fnno","5bc0ac845a09ea00012e2d30","freq_resp","img/green_2bandit_b.png","70","70","test","","","","1","",""
"null","89423","pSARL_v2","pSARL_v2gwb9fnno","5bc0ac845a09ea00012e2d30","fixation","img/fixation.png","null","","test","","","","","",""
"298","89724","pSARL_v2","pSARL_v2gwb9fnno","5bc0ac845a09ea00012e2d30","freq","img/green_2bandit_b2.png","70","70","test","1","5","5","1","",""
"null","90240","pSARL_v2","pSARL_v2gwb9fnno","5bc0ac845a09ea00012e2d30","freq_resp","img/green_2bandit_b.png","70","70","test","","","","1","",""
"null","90411","pSARL_v2","pSARL_v2gwb9fnno","5bc0ac845a09ea00012e2d30","fixation","img/fixation.png","null","","test","","","","","",""
"287","90701","pSARL_v2","pSARL_v2gwb9fnno","5bc0ac845a09ea00012e2d30","freq","img/green_2bandit_b2.png","70","70","test","1","6","6","1","",""
"null","91225","pSARL_v2","pSARL_v2gwb9fnno","5bc0ac845a09ea00012e2d30","freq_resp","img/green_2bandit_b.png","70","70","test","","","","1","",""
"null","91379","pSARL_v2","pSARL_v2gwb9fnno","5bc0ac845a09ea00012e2d30","fixation","img/fixation.png","null","","test","","","","","",""
"285","91667","pSARL_v2","pSARL_v2gwb9fnno","5bc0ac845a09ea00012e2d30","freq","img/green_2bandit_b2.png","70","70","test","1","7","7","1","",""
"null","92198","pSARL_v2","pSARL_v2gwb9fnno","5bc0ac845a09ea00012e2d30","freq_resp","img/green_2bandit_b.png","70","70","test","","","","1","",""
"null","92352","pSARL_v2","pSARL_v2gwb9fnno","5bc0ac845a09ea00012e2d30","fixation","img/fixation.png","null","","test","","","","","",""
"283","92639","pSARL_v2","pSARL_v2gwb9fnno","5bc0ac845a09ea00012e2d30","freq","img/green_2bandit_b2.png","70","70","test","1","8","8","1","",""
"null","93169","pSARL_v2","pSARL_v2gwb9fnno","5bc0ac845a09ea00012e2d30","freq_resp","img/green_2bandit_b.png","70","70","test","","","","1","",""
"null","93323","pSARL_v2","pSARL_v2gwb9fnno","5bc0ac845a09ea00012e2d30","fixation","img/fixation.png","null","","test","","","","","",""
"255","93582","pSARL_v2","pSARL_v2gwb9fnno","5bc0ac845a09ea00012e2d30","freq","img/green_2bandit_b2.png","70","70","test","1","9","9","1","",""
"null","94138","pSARL_v2","pSARL_v2gwb9fnno","5bc0ac845a09ea00012e2d30","freq_resp","img/green_2bandit_b.png","70","70","test","","","","1","",""
"null","94308","pSARL_v2","pSARL_v2gwb9fnno","5bc0ac845a09ea00012e2d30","fixation","img/fixation.png","null","","test","","","","","",""
"292","94605","pSARL_v2","pSARL_v2gwb9fnno","5bc0ac845a09ea00012e2d30","freq","img/green_2bandit_b2.png","70","70","test","1","10","10","1","",""
"null","95123","pSARL_v2","pSARL_v2gwb9fnno","5bc0ac845a09ea00012e2d30","freq_resp","img/green_2bandit_b.png","70","70","test","","","","1","",""
"null","95293","pSARL_v2","pSARL_v2gwb9fnno","5bc0ac845a09ea00012e2d30","fixation","img/fixation.png","null","","test","","","","","",""
"463","95759","pSARL_v2","pSARL_v2gwb9fnno","5bc0ac845a09ea00012e2d30","infreq","img/orange_2bandit_b2.png","68","68","test","1","11","11","1","",""
"null","96112","pSARL_v2","pSARL_v2gwb9fnno","5bc0ac845a09ea00012e2d30","infreq_resp","img/orange_2bandit_b.png","68","68","test","","","","1","",""
"null","96267","pSARL_v2","pSARL_v2gwb9fnno","5bc0ac845a09ea00012e2d30","fixation","img/fixation.png","null","","test","","","","","",""
"423","96695","pSARL_v2","pSARL_v2gwb9fnno","5bc0ac845a09ea00012e2d30","freq","img/green_2bandit_b2.png","70","70","test","1","12","12","1","",""
"null","97083","pSARL_v2","pSARL_v2gwb9fnno","5bc0ac845a09ea00012e2d30","freq_resp","img/green_2bandit_b.png","70","70","test","","","","1","",""
"null","97252","pSARL_v2","pSARL_v2gwb9fnno","5bc0ac845a09ea00012e2d30","fixation","img/fixation.png","null","","test","","","","","",""
"311","97567","pSARL_v2","pSARL_v2gwb9fnno","5bc0ac845a09ea00012e2d30","freq","img/green_2bandit_b2.png","70","70","test","1","13","13","1","",""
"null","98069","pSARL_v2","pSARL_v2gwb9fnno","5bc0ac845a09ea00012e2d30","freq_resp","img/green_2bandit_b.png","70","70","test","","","","1","",""
"null","98225","pSARL_v2","pSARL_v2gwb9fnno","5bc0ac845a09ea00012e2d30","fixation","img/fixation.png","null","","test","","","","","",""
"277","98506","pSARL_v2","pSARL_v2gwb9fnno","5bc0ac845a09ea00012e2d30","freq","img/green_2bandit_b2.png","70","70","test","1","14","14","1","",""
"null","99042","pSARL_v2","pSARL_v2gwb9fnno","5bc0ac845a09ea00012e2d30","freq_resp","img/green_2bandit_b.png","70","70","test","","","","1","",""
"null","99197","pSARL_v2","pSARL_v2gwb9fnno","5bc0ac845a09ea00012e2d30","fixation","img/fixation.png","null","","test","","","","","",""
"288","99489","pSARL_v2","pSARL_v2gwb9fnno","5bc0ac845a09ea00012e2d30","freq","img/green_2bandit_b2.png","70","70","test","1","15","15","1","",""
"null","100017","pSARL_v2","pSARL_v2gwb9fnno","5bc0ac845a09ea00012e2d30","freq_resp","img/green_2bandit_b.png","70","70","test","","","","1","",""
"null","100186","pSARL_v2","pSARL_v2gwb9fnno","5bc0ac845a09ea00012e2d30","fixation","img/fixation.png","null","","test","","","","","",""
"255","100445","pSARL_v2","pSARL_v2gwb9fnno","5bc0ac845a09ea00012e2d30","freq","img/green_2bandit_b2.png","70","70","test","1","16","16","1","",""
"null","101005","pSARL_v2","pSARL_v2gwb9fnno","5bc0ac845a09ea00012e2d30","freq_resp","img/green_2bandit_b.png","70","70","test","","","","1","",""
"null","101160","pSARL_v2","pSARL_v2gwb9fnno","5bc0ac845a09ea00012e2d30","fixation","img/fixation.png","null","","test","","","","","",""
"252","101417","pSARL_v2","pSARL_v2gwb9fnno","5bc0ac845a09ea00012e2d30","freq","img/green_2bandit_b2.png","70","70","test","1","17","17","1","",""
"null","101975","pSARL_v2","pSARL_v2gwb9fnno","5bc0ac845a09ea00012e2d30","freq_resp","img/green_2bandit_b.png","70","70","test","","","","1","",""
"null","102130","pSARL_v2","pSARL_v2gwb9fnno","5bc0ac845a09ea00012e2d30","fixation","img/fixation.png","null","","test","","","","","",""
"218","102351","pSARL_v2","pSARL_v2gwb9fnno","5bc0ac845a09ea00012e2d30","freq","img/green_2bandit_b2.png","70","70","test","1","18","18","1","",""
"null","102950","pSARL_v2","pSARL_v2gwb9fnno","5bc0ac845a09ea00012e2d30","freq_resp","img/green_2bandit_b.png","70","70","test","","","","1","",""
"null","103104","pSARL_v2","pSARL_v2gwb9fnno","5bc0ac845a09ea00012e2d30","fixation","img/fixation.png","null","","test","","","","","",""
"267","103374","pSARL_v2","pSARL_v2gwb9fnno","5bc0ac845a09ea00012e2d30","freq","img/green_2bandit_b2.png","70","70","test","1","19","19","1","",""
"null","103920","pSARL_v2","pSARL_v2gwb9fnno","5bc0ac845a09ea00012e2d30","freq_resp","img/green_2bandit_b.png","70","70","test","","","","1","",""
"null","104075","pSARL_v2","pSARL_v2gwb9fnno","5bc0ac845a09ea00012e2d30","fixation","img/fixation.png","null","","test","","","","","",""
"257","104335","pSARL_v2","pSARL_v2gwb9fnno","5bc0ac845a09ea00012e2d30","freq","img/green_2bandit_b2.png","70","70","test","1","20","20","1","",""
"null","104892","pSARL_v2","pSARL_v2gwb9fnno","5bc0ac845a09ea00012e2d30","freq_resp","img/green_2bandit_b.png","70","70","test","","","","1","",""
"null","105046","pSARL_v2","pSARL_v2gwb9fnno","5bc0ac845a09ea00012e2d30","fixation","img/fixation.png","null","","test","","","","","",""
"266","105317","pSARL_v2","pSARL_v2gwb9fnno","5bc0ac845a09ea00012e2d30","freq","img/green_2bandit_b2.png","70","70","test","1","21","21","1","",""
"null","105865","pSARL_v2","pSARL_v2gwb9fnno","5bc0ac845a09ea00012e2d30","freq_resp","img/green_2bandit_b.png","70","70","test","","","","1","",""
"null","106019","pSARL_v2","pSARL_v2gwb9fnno","5bc0ac845a09ea00012e2d30","fixation","img/fixation.png","null","","test","","","","","",""
"239","106262","pSARL_v2","pSARL_v2gwb9fnno","5bc0ac845a09ea00012e2d30","freq","img/green_2bandit_b2.png","70","70","test","1","22","22","1","",""
"null","106835","pSARL_v2","pSARL_v2gwb9fnno","5bc0ac845a09ea00012e2d30","freq_resp","img/green_2bandit_b.png","70","70","test","","","","1","",""
"null","106990","pSARL_v2","pSARL_v2gwb9fnno","5bc0ac845a09ea00012e2d30","fixation","img/fixation.png","null","","test","","","","","",""
"257","107249","pSARL_v2","pSARL_v2gwb9fnno","5bc0ac845a09ea00012e2d30","freq","img/green_2bandit_b2.png","70","70","test","1","23","23","1","",""
"null","107803","pSARL_v2","pSARL_v2gwb9fnno","5bc0ac845a09ea00012e2d30","freq_resp","img/green_2bandit_b.png","70","70","test","","","","1","",""
"null","107958","pSARL_v2","pSARL_v2gwb9fnno","5bc0ac845a09ea00012e2d30","fixation","img/fixation.png","null","","test","","","","","",""
"274","108235","pSARL_v2","pSARL_v2gwb9fnno","5bc0ac845a09ea00012e2d30","freq","img/green_2bandit_b2.png","70","70","test","1","24","24","1","",""
"null","108780","pSARL_v2","pSARL_v2gwb9fnno","5bc0ac845a09ea00012e2d30","freq_resp","img/green_2bandit_b.png","70","70","test","","","","1","",""
"null","108936","pSARL_v2","pSARL_v2gwb9fnno","5bc0ac845a09ea00012e2d30","fixation","img/fixation.png","null","","test","","","","","",""
"208","109147","pSARL_v2","pSARL_v2gwb9fnno","5bc0ac845a09ea00012e2d30","freq","img/green_2bandit_b2.png","70","70","test","1","25","25","1","",""
"null","109755","pSARL_v2","pSARL_v2gwb9fnno","5bc0ac845a09ea00012e2d30","freq_resp","img/green_2bandit_b.png","70","70","test","","","","1","",""
"null","109925","pSARL_v2","pSARL_v2gwb9fnno","5bc0ac845a09ea00012e2d30","fixation","img/fixation.png","null","","test","","","","","",""
"236","110166","pSARL_v2","pSARL_v2gwb9fnno","5bc0ac845a09ea00012e2d30","freq","img/green_2bandit_b2.png","70","70","test","1","26","26","1","",""
"null","110740","pSARL_v2","pSARL_v2gwb9fnno","5bc0ac845a09ea00012e2d30","freq_resp","img/green_2bandit_b.png","70","70","test","","","","1","",""
"null","110894","pSARL_v2","pSARL_v2gwb9fnno","5bc0ac845a09ea00012e2d30","fixation","img/fixation.png","null","","test","","","","","",""
"627","111525","pSARL_v2","pSARL_v2gwb9fnno","5bc0ac845a09ea00012e2d30","reward","img/slot.png","74","","test","","","","","",""
"null","112280","pSARL_v2","pSARL_v2gwb9fnno","5bc0ac845a09ea00012e2d30","points","<div class=""verylowPoints""> -6 </div>","null","na","test","","","","1","-6","0"
"511","112795","pSARL_v2","pSARL_v2gwb9fnno","5bc0ac845a09ea00012e2d30","freq","img/green_2bandit_b2.png","70","70","test","1","27","27","2","",""
"null","113098","pSARL_v2","pSARL_v2gwb9fnno","5bc0ac845a09ea00012e2d30","freq_resp","img/green_2bandit_b.png","70","70","test","","","","2","",""
"null","113253","pSARL_v2","pSARL_v2gwb9fnno","5bc0ac845a09ea00012e2d30","fixation","img/fixation.png","null","","test","","","","","",""
"366","113622","pSARL_v2","pSARL_v2gwb9fnno","5bc0ac845a09ea00012e2d30","freq","img/green_2bandit_b2.png","70","70","test","1","28","28","2","",""
"null","114073","pSARL_v2","pSARL_v2gwb9fnno","5bc0ac845a09ea00012e2d30","freq_resp","img/green_2bandit_b.png","70","70","test","","","","2","",""
"null","114242","pSARL_v2","pSARL_v2gwb9fnno","5bc0ac845a09ea00012e2d30","fixation","img/fixation.png","null","","test","","","","","",""
"544","114789","pSARL_v2","pSARL_v2gwb9fnno","5bc0ac845a09ea00012e2d30","infreq","img/orange_2bandit_b2.png","68","68","test","1","29","29","2","",""
"null","115059","pSARL_v2","pSARL_v2gwb9fnno","5bc0ac845a09ea00012e2d30","infreq_resp","img/orange_2bandit_b.png","68","68","test","","","","2","",""
"null","115213","pSARL_v2","pSARL_v2gwb9fnno","5bc0ac845a09ea00012e2d30","fixation","img/fixation.png","null","","test","","","","","",""
"422","115637","pSARL_v2","pSARL_v2gwb9fnno","5bc0ac845a09ea00012e2d30","freq","img/green_2bandit_b2.png","70","70","test","1","30","30","2","",""
"null","116030","pSARL_v2","pSARL_v2gwb9fnno","5bc0ac845a09ea00012e2d30","freq_resp","img/green_2bandit_b.png","70","70","test","","","","2","",""
"null","116198","pSARL_v2","pSARL_v2gwb9fnno","5bc0ac845a09ea00012e2d30","fixation","img/fixation.png","null","","test","","","","","",""
"440","116643","pSARL_v2","pSARL_v2gwb9fnno","5bc0ac845a09ea00012e2d30","freq","img/green_2bandit_b2.png","70","70","test","1","31","31","2","",""
"null","117014","pSARL_v2","pSARL_v2gwb9fnno","5bc0ac845a09ea00012e2d30","freq_resp","img/green_2bandit_b.png","70","70","test","","","","2","",""
"null","117168","pSARL_v2","pSARL_v2gwb9fnno","5bc0ac845a09ea00012e2d30","fixation","img/fixation.png","null","","test","","","","","",""
"355","117527","pSARL_v2","pSARL_v2gwb9fnno","5bc0ac845a09ea00012e2d30","freq","img/green_2bandit_b2.png","70","70","test","1","32","32","2","",""
"null","117985","pSARL_v2","pSARL_v2gwb9fnno","5bc0ac845a09ea00012e2d30","freq_resp","img/green_2bandit_b.png","70","70","test","","","","2","",""
"null","118154","pSARL_v2","pSARL_v2gwb9fnno","5bc0ac845a09ea00012e2d30","fixation","img/fixation.png","null","","test","","","","","",""
"296","118455","pSARL_v2","pSARL_v2gwb9fnno","5bc0ac845a09ea00012e2d30","freq","img/green_2bandit_b2.png","70","70","test","1","33","33","2","",""
"null","118973","pSARL_v2","pSARL_v2gwb9fnno","5bc0ac845a09ea00012e2d30","freq_resp","img/green_2bandit_b.png","70","70","test","","","","2","",""
"null","119128","pSARL_v2","pSARL_v2gwb9fnno","5bc0ac845a09ea00012e2d30","fixation","img/fixation.png","null","","test","","","","","",""
"263","119395","pSARL_v2","pSARL_v2gwb9fnno","5bc0ac845a09ea00012e2d30","freq","img/green_2bandit_b2.png","70","70","test","1","34","34","2","",""
"null","119946","pSARL_v2","pSARL_v2gwb9fnno","5bc0ac845a09ea00012e2d30","freq_resp","img/green_2bandit_b.png","70","70","test","","","","2","",""
"null","120100","pSARL_v2","pSARL_v2gwb9fnno","5bc0ac845a09ea00012e2d30","fixation","img/fixation.png","null","","test","","","","","",""
"397","120501","pSARL_v2","pSARL_v2gwb9fnno","5bc0ac845a09ea00012e2d30","freq","img/green_2bandit_b2.png","70","70","test","1","35","35","2","",""
"null","120919","pSARL_v2","pSARL_v2gwb9fnno","5bc0ac845a09ea00012e2d30","freq_resp","img/green_2bandit_b.png","70","70","test","","","","2","",""
"null","121087","pSARL_v2","pSARL_v2gwb9fnno","5bc0ac845a09ea00012e2d30","fixation","img/fixation.png","null","","test","","","","","",""
"280","121371","pSARL_v2","pSARL_v2gwb9fnno","5bc0ac845a09ea00012e2d30","freq","img/green_2bandit_b2.png","70","70","test","1","36","36","2","",""
"null","121902","pSARL_v2","pSARL_v2gwb9fnno","5bc0ac845a09ea00012e2d30","freq_resp","img/green_2bandit_b.png","70","70","test","","","","2","",""
"null","122056","pSARL_v2","pSARL_v2gwb9fnno","5bc0ac845a09ea00012e2d30","fixation","img/fixation.png","null","","test","","","","","",""
"293","122353","pSARL_v2","pSARL_v2gwb9fnno","5bc0ac845a09ea00012e2d30","freq","img/green_2bandit_b2.png","70","70","test","1","37","37","2","",""
"null","122873","pSARL_v2","pSARL_v2gwb9fnno","5bc0ac845a09ea00012e2d30","freq_resp","img/green_2bandit_b.png","70","70","test","","","","2","",""
"null","123027","pSARL_v2","pSARL_v2gwb9fnno","5bc0ac845a09ea00012e2d30","fixation","img/fixation.png","null","","test","","","","","",""
"633","123663","pSARL_v2","pSARL_v2gwb9fnno","5bc0ac845a09ea00012e2d30","freq","img/green_2bandit_b2.png","70","70","test","1","38","38","2","",""
"null","123845","pSARL_v2","pSARL_v2gwb9fnno","5bc0ac845a09ea00012e2d30","freq_resp","img/green_2bandit_b.png","70","70","test","","","","2","",""
"null","123999","pSARL_v2","pSARL_v2gwb9fnno","5bc0ac845a09ea00012e2d30","fixation","img/fixation.png","null","","test","","","","","",""
"587","124590","pSARL_v2","pSARL_v2gwb9fnno","5bc0ac845a09ea00012e2d30","infreq","img/orange_2bandit_b2.png","68","68","test","1","39","39","2","",""
"null","124817","pSARL_v2","pSARL_v2gwb9fnno","5bc0ac845a09ea00012e2d30","infreq_resp","img/orange_2bandit_b.png","68","68","test","","","","2","",""
"null","124986","pSARL_v2","pSARL_v2gwb9fnno","5bc0ac845a09ea00012e2d30","fixation","img/fixation.png","null","","test","","","","","",""
"408","125396","pSARL_v2","pSARL_v2gwb9fnno","5bc0ac845a09ea00012e2d30","freq","img/green_2bandit_b2.png","70","70","test","1","40","40","2","",""
"null","125800","pSARL_v2","pSARL_v2gwb9fnno","5bc0ac845a09ea00012e2d30","freq_resp","img/green_2bandit_b.png","70","70","test","","","","2","",""
"null","125955","pSARL_v2","pSARL_v2gwb9fnno","5bc0ac845a09ea00012e2d30","fixation","img/fixation.png","null","","test","","","","","",""
"315","126273","pSARL_v2","pSARL_v2gwb9fnno","5bc0ac845a09ea00012e2d30","freq","img/green_2bandit_b2.png","70","70","test","1","41","41","2","",""
"null","126772","pSARL_v2","pSARL_v2gwb9fnno","5bc0ac845a09ea00012e2d30","freq_resp","img/green_2bandit_b.png","70","70","test","","","","2","",""
"null","126927","pSARL_v2","pSARL_v2gwb9fnno","5bc0ac845a09ea00012e2d30","fixation","img/fixation.png","null","","test","","","","","",""
"266","127197","pSARL_v2","pSARL_v2gwb9fnno","5bc0ac845a09ea00012e2d30","freq","img/green_2bandit_b2.png","70","70","test","1","42","42","2","",""
"null","127746","pSARL_v2","pSARL_v2gwb9fnno","5bc0ac845a09ea00012e2d30","freq_resp","img/green_2bandit_b.png","70","70","test","","","","2","",""
"null","127915","pSARL_v2","pSARL_v2gwb9fnno","5bc0ac845a09ea00012e2d30","fixation","img/fixation.png","null","","test","","","","","",""
"254","128173","pSARL_v2","pSARL_v2gwb9fnno","5bc0ac845a09ea00012e2d30","freq","img/green_2bandit_b2.png","70","70","test","1","43","43","2","",""
"null","128732","pSARL_v2","pSARL_v2gwb9fnno","5bc0ac845a09ea00012e2d30","freq_resp","img/green_2bandit_b.png","70","70","test","","","","2","",""
"null","128886","pSARL_v2","pSARL_v2gwb9fnno","5bc0ac845a09ea00012e2d30","fixation","img/fixation.png","null","","test","","","","","",""
"278","129167","pSARL_v2","pSARL_v2gwb9fnno","5bc0ac845a09ea00012e2d30","freq","img/green_2bandit_b2.png","70","70","test","1","44","44","2","",""
"null","129703","pSARL_v2","pSARL_v2gwb9fnno","5bc0ac845a09ea00012e2d30","freq_resp","img/green_2bandit_b.png","70","70","test","","","","2","",""
"null","129873","pSARL_v2","pSARL_v2gwb9fnno","5bc0ac845a09ea00012e2d30","fixation","img/fixation.png","null","","test","","","","","",""
"255","130131","pSARL_v2","pSARL_v2gwb9fnno","5bc0ac845a09ea00012e2d30","freq","img/green_2bandit_b2.png","70","70","test","1","45","45","2","",""
"null","130688","pSARL_v2","pSARL_v2gwb9fnno","5bc0ac845a09ea00012e2d30","freq_resp","img/green_2bandit_b.png","70","70","test","","","","2","",""
"null","130845","pSARL_v2","pSARL_v2gwb9fnno","5bc0ac845a09ea00012e2d30","fixation","img/fixation.png","null","","test","","","","","",""
"426","131274","pSARL_v2","pSARL_v2gwb9fnno","5bc0ac845a09ea00012e2d30","reward","img/slot.png","74","","test","","","","","",""
"null","132031","pSARL_v2","pSARL_v2gwb9fnno","5bc0ac845a09ea00012e2d30","points","<div class=""verylowPoints""> -11 </div>","null","na","test","","","","2","-11","1"
"571","132605","pSARL_v2","pSARL_v2gwb9fnno","5bc0ac845a09ea00012e2d30","freq","img/green_2bandit_b2.png","70","70","test","1","46","46","3","",""
"null","132847","pSARL_v2","pSARL_v2gwb9fnno","5bc0ac845a09ea00012e2d30","freq_resp","img/green_2bandit_b.png","70","70","test","","","","3","",""
"null","133002","pSARL_v2","pSARL_v2gwb9fnno","5bc0ac845a09ea00012e2d30","fixation","img/fixation.png","null","","test","","","","","",""
"538","133542","pSARL_v2","pSARL_v2gwb9fnno","5bc0ac845a09ea00012e2d30","freq","img/green_2bandit_b2.png","70","70","test","1","47","47","3","",""
"null","133819","pSARL_v2","pSARL_v2gwb9fnno","5bc0ac845a09ea00012e2d30","freq_resp","img/green_2bandit_b.png","70","70","test","","","","3","",""
"null","133975","pSARL_v2","pSARL_v2gwb9fnno","5bc0ac845a09ea00012e2d30","fixation","img/fixation.png","null","","test","","","","","",""
"315","134294","pSARL_v2","pSARL_v2gwb9fnno","5bc0ac845a09ea00012e2d30","freq","img/green_2bandit_b2.png","70","70","test","1","48","48","3","",""
"null","134792","pSARL_v2","pSARL_v2gwb9fnno","5bc0ac845a09ea00012e2d30","freq_resp","img/green_2bandit_b.png","70","70","test","","","","3","",""
"null","134946","pSARL_v2","pSARL_v2gwb9fnno","5bc0ac845a09ea00012e2d30","fixation","img/fixation.png","null","","test","","","","","",""
"316","135265","pSARL_v2","pSARL_v2gwb9fnno","5bc0ac845a09ea00012e2d30","freq","img/green_2bandit_b2.png","70","70","test","1","49","49","3","",""
"null","135766","pSARL_v2","pSARL_v2gwb9fnno","5bc0ac845a09ea00012e2d30","freq_resp","img/green_2bandit_b.png","70","70","test","","","","3","",""
"null","135922","pSARL_v2","pSARL_v2gwb9fnno","5bc0ac845a09ea00012e2d30","fixation","img/fixation.png","null","","test","","","","","",""
"271","136198","pSARL_v2","pSARL_v2gwb9fnno","5bc0ac845a09ea00012e2d30","freq","img/green_2bandit_b2.png","70","70","test","1","50","50","3","",""
"null","136740","pSARL_v2","pSARL_v2gwb9fnno","5bc0ac845a09ea00012e2d30","freq_resp","img/green_2bandit_b.png","70","70","test","","","","3","",""
"null","136895","pSARL_v2","pSARL_v2gwb9fnno","5bc0ac845a09ea00012e2d30","fixation","img/fixation.png","null","","test","","","","","",""
"250","137149","pSARL_v2","pSARL_v2gwb9fnno","5bc0ac845a09ea00012e2d30","freq","img/green_2bandit_b2.png","70","70","test","1","51","51","3","",""
"null","137712","pSARL_v2","pSARL_v2gwb9fnno","5bc0ac845a09ea00012e2d30","freq_resp","img/green_2bandit_b.png","70","70","test","","","","3","",""
"null","137866","pSARL_v2","pSARL_v2gwb9fnno","5bc0ac845a09ea00012e2d30","fixation","img/fixation.png","null","","test","","","","","",""
"267","138136","pSARL_v2","pSARL_v2gwb9fnno","5bc0ac845a09ea00012e2d30","freq","img/green_2bandit_b2.png","70","70","test","1","52","52","3","",""
"null","138682","pSARL_v2","pSARL_v2gwb9fnno","5bc0ac845a09ea00012e2d30","freq_resp","img/green_2bandit_b.png","70","70","test","","","","3","",""
"null","138837","pSARL_v2","pSARL_v2gwb9fnno","5bc0ac845a09ea00012e2d30","fixation","img/fixation.png","null","","test","","","","","",""
"275","139115","pSARL_v2","pSARL_v2gwb9fnno","5bc0ac845a09ea00012e2d30","freq","img/green_2bandit_b2.png","70","70","test","1","53","53","3","",""
"null","139656","pSARL_v2","pSARL_v2gwb9fnno","5bc0ac845a09ea00012e2d30","freq_resp","img/green_2bandit_b.png","70","70","test","","","","3","",""
"null","139810","pSARL_v2","pSARL_v2gwb9fnno","5bc0ac845a09ea00012e2d30","fixation","img/fixation.png","null","","test","","","","","",""
"281","140095","pSARL_v2","pSARL_v2gwb9fnno","5bc0ac845a09ea00012e2d30","freq","img/green_2bandit_b2.png","70","70","test","1","54","54","3","",""
"null","140627","pSARL_v2","pSARL_v2gwb9fnno","5bc0ac845a09ea00012e2d30","freq_resp","img/green_2bandit_b.png","70","70","test","","","","3","",""
"null","140796","pSARL_v2","pSARL_v2gwb9fnno","5bc0ac845a09ea00012e2d30","fixation","img/fixation.png","null","","test","","","","","",""
"219","141019","pSARL_v2","pSARL_v2gwb9fnno","5bc0ac845a09ea00012e2d30","freq","img/green_2bandit_b2.png","70","70","test","1","55","55","3","",""
"null","141610","pSARL_v2","pSARL_v2gwb9fnno","5bc0ac845a09ea00012e2d30","freq_resp","img/green_2bandit_b.png","70","70","test","","","","3","",""
"null","141766","pSARL_v2","pSARL_v2gwb9fnno","5bc0ac845a09ea00012e2d30","fixation","img/fixation.png","null","","test","","","","","",""
"343","142113","pSARL_v2","pSARL_v2gwb9fnno","5bc0ac845a09ea00012e2d30","infreq","img/orange_2bandit_b2.png","68","68","test","1","56","56","3","",""
"null","142583","pSARL_v2","pSARL_v2gwb9fnno","5bc0ac845a09ea00012e2d30","infreq_resp","img/orange_2bandit_b.png","68","68","test","","","","3","",""
"null","142737","pSARL_v2","pSARL_v2gwb9fnno","5bc0ac845a09ea00012e2d30","fixation","img/fixation.png","null","","test","","","","","",""
"300","143042","pSARL_v2","pSARL_v2gwb9fnno","5bc0ac845a09ea00012e2d30","freq","img/green_2bandit_b2.png","70","70","test","1","57","57","3","",""
"null","143553","pSARL_v2","pSARL_v2gwb9fnno","5bc0ac845a09ea00012e2d30","freq_resp","img/green_2bandit_b.png","70","70","test","","","","3","",""
"null","143707","pSARL_v2","pSARL_v2gwb9fnno","5bc0ac845a09ea00012e2d30","fixation","img/fixation.png","null","","test","","","","","",""
"256","143966","pSARL_v2","pSARL_v2gwb9fnno","5bc0ac845a09ea00012e2d30","freq","img/green_2bandit_b2.png","70","70","test","1","58","58","3","",""
"null","144526","pSARL_v2","pSARL_v2gwb9fnno","5bc0ac845a09ea00012e2d30","freq_resp","img/green_2bandit_b.png","70","70","test","","","","3","",""
"null","144681","pSARL_v2","pSARL_v2gwb9fnno","5bc0ac845a09ea00012e2d30","fixation","img/fixation.png","null","","test","","","","","",""
"245","144929","pSARL_v2","pSARL_v2gwb9fnno","5bc0ac845a09ea00012e2d30","freq","img/green_2bandit_b2.png","70","70","test","1","59","59","3","",""
"null","145497","pSARL_v2","pSARL_v2gwb9fnno","5bc0ac845a09ea00012e2d30","freq_resp","img/green_2bandit_b.png","70","70","test","","","","3","",""
"null","145666","pSARL_v2","pSARL_v2gwb9fnno","5bc0ac845a09ea00012e2d30","fixation","img/fixation.png","null","","test","","","","","",""
"245","145914","pSARL_v2","pSARL_v2gwb9fnno","5bc0ac845a09ea00012e2d30","freq","img/green_2bandit_b2.png","70","70","test","1","60","60","3","",""
"null","146487","pSARL_v2","pSARL_v2gwb9fnno","5bc0ac845a09ea00012e2d30","freq_resp","img/green_2bandit_b.png","70","70","test","","","","3","",""
"null","146642","pSARL_v2","pSARL_v2gwb9fnno","5bc0ac845a09ea00012e2d30","fixation","img/fixation.png","null","","test","","","","","",""
"726","147372","pSARL_v2","pSARL_v2gwb9fnno","5bc0ac845a09ea00012e2d30","infreq","img/orange_2bandit_b2.png","68","68","test","1","61","61","3","",""
"null","147458","pSARL_v2","pSARL_v2gwb9fnno","5bc0ac845a09ea00012e2d30","infreq_resp","img/orange_2bandit_b.png","68","68","test","","","","3","",""
"null","147612","pSARL_v2","pSARL_v2gwb9fnno","5bc0ac845a09ea00012e2d30","fixation","img/fixation.png","null","","test","","","","","",""
"510","148127","pSARL_v2","pSARL_v2gwb9fnno","5bc0ac845a09ea00012e2d30","freq","img/green_2bandit_b2.png","70","70","test","1","62","62","3","",""
"null","148429","pSARL_v2","pSARL_v2gwb9fnno","5bc0ac845a09ea00012e2d30","freq_resp","img/green_2bandit_b.png","70","70","test","","","","3","",""
"null","148584","pSARL_v2","pSARL_v2gwb9fnno","5bc0ac845a09ea00012e2d30","fixation","img/fixation.png","null","","test","","","","","",""
"667","149256","pSARL_v2","pSARL_v2gwb9fnno","5bc0ac845a09ea00012e2d30","freq","img/green_2bandit_b2.png","68","70","test","0","63","63","3","",""
"null","149403","pSARL_v2","pSARL_v2gwb9fnno","5bc0ac845a09ea00012e2d30","freq_resp","img/green_2bandit_b.png","68","70","test","","","","3","",""
"null","149559","pSARL_v2","pSARL_v2gwb9fnno","5bc0ac845a09ea00012e2d30","fixation","img/fixation.png","null","","test","","","","","",""
"745","150308","pSARL_v2","pSARL_v2gwb9fnno","5bc0ac845a09ea00012e2d30","freq","img/green_2bandit_b2.png","70","70","test","1","64","64","3","",""
"null","150375","pSARL_v2","pSARL_v2gwb9fnno","5bc0ac845a09ea00012e2d30","freq_resp","img/green_2bandit_b.png","70","70","test","","","","3","",""
"null","150529","pSARL_v2","pSARL_v2gwb9fnno","5bc0ac845a09ea00012e2d30","fixation","img/fixation.png","null","","test","","","","","",""
"429","150961","pSARL_v2","pSARL_v2gwb9fnno","5bc0ac845a09ea00012e2d30","freq","img/green_2bandit_b2.png","70","70","test","1","65","65","3","",""
"null","151346","pSARL_v2","pSARL_v2gwb9fnno","5bc0ac845a09ea00012e2d30","freq_resp","img/green_2bandit_b.png","70","70","test","","","","3","",""
"null","151501","pSARL_v2","pSARL_v2gwb9fnno","5bc0ac845a09ea00012e2d30","fixation","img/fixation.png","null","","test","","","","","",""
"401","151906","pSARL_v2","pSARL_v2gwb9fnno","5bc0ac845a09ea00012e2d30","freq","img/green_2bandit_b2.png","70","70","test","1","66","66","3","",""
"null","152318","pSARL_v2","pSARL_v2gwb9fnno","5bc0ac845a09ea00012e2d30","freq_resp","img/green_2bandit_b.png","70","70","test","","","","3","",""
"null","152473","pSARL_v2","pSARL_v2gwb9fnno","5bc0ac845a09ea00012e2d30","fixation","img/fixation.png","null","","test","","","","","",""
"326","152803","pSARL_v2","pSARL_v2gwb9fnno","5bc0ac845a09ea00012e2d30","freq","img/green_2bandit_b2.png","70","70","test","1","67","67","3","",""
"null","153290","pSARL_v2","pSARL_v2gwb9fnno","5bc0ac845a09ea00012e2d30","freq_resp","img/green_2bandit_b.png","70","70","test","","","","3","",""
"null","153445","pSARL_v2","pSARL_v2gwb9fnno","5bc0ac845a09ea00012e2d30","fixation","img/fixation.png","null","","test","","","","","",""
"256","153705","pSARL_v2","pSARL_v2gwb9fnno","5bc0ac845a09ea00012e2d30","freq","img/green_2bandit_b2.png","70","70","test","1","68","68","3","",""
"null","154262","pSARL_v2","pSARL_v2gwb9fnno","5bc0ac845a09ea00012e2d30","freq_resp","img/green_2bandit_b.png","70","70","test","","","","3","",""
"null","154415","pSARL_v2","pSARL_v2gwb9fnno","5bc0ac845a09ea00012e2d30","fixation","img/fixation.png","null","","test","","","","","",""
"419","154838","pSARL_v2","pSARL_v2gwb9fnno","5bc0ac845a09ea00012e2d30","infreq","img/orange_2bandit_b2.png","68","68","test","1","69","69","3","",""
"null","155234","pSARL_v2","pSARL_v2gwb9fnno","5bc0ac845a09ea00012e2d30","infreq_resp","img/orange_2bandit_b.png","68","68","test","","","","3","",""
"null","155403","pSARL_v2","pSARL_v2gwb9fnno","5bc0ac845a09ea00012e2d30","fixation","img/fixation.png","null","","test","","","","","",""
"358","155765","pSARL_v2","pSARL_v2gwb9fnno","5bc0ac845a09ea00012e2d30","freq","img/green_2bandit_b2.png","70","70","test","1","70","70","3","",""
"null","156220","pSARL_v2","pSARL_v2gwb9fnno","5bc0ac845a09ea00012e2d30","freq_resp","img/green_2bandit_b.png","70","70","test","","","","3","",""
"null","156388","pSARL_v2","pSARL_v2gwb9fnno","5bc0ac845a09ea00012e2d30","fixation","img/fixation.png","null","","test","","","","","",""
"460","156851","pSARL_v2","pSARL_v2gwb9fnno","5bc0ac845a09ea00012e2d30","reward","img/slot.png","74","","test","","","","","",""
"null","157606","pSARL_v2","pSARL_v2gwb9fnno","5bc0ac845a09ea00012e2d30","points","<div class=""verylowPoints""> -7 </div>","null","na","test","","","","3","-7","2"
"629","158239","pSARL_v2","pSARL_v2gwb9fnno","5bc0ac845a09ea00012e2d30","freq","img/green_2bandit_b2.png","70","70","test","1","71","71","4","",""
"null","158422","pSARL_v2","pSARL_v2gwb9fnno","5bc0ac845a09ea00012e2d30","freq_resp","img/green_2bandit_b.png","70","70","test","","","","4","",""
"null","158591","pSARL_v2","pSARL_v2gwb9fnno","5bc0ac845a09ea00012e2d30","fixation","img/fixation.png","null","","test","","","","","",""
"527","159122","pSARL_v2","pSARL_v2gwb9fnno","5bc0ac845a09ea00012e2d30","freq","img/green_2bandit_b2.png","70","70","test","1","72","72","4","",""
"null","159411","pSARL_v2","pSARL_v2gwb9fnno","5bc0ac845a09ea00012e2d30","freq_resp","img/green_2bandit_b.png","70","70","test","","","","4","",""
"null","159579","pSARL_v2","pSARL_v2gwb9fnno","5bc0ac845a09ea00012e2d30","fixation","img/fixation.png","null","","test","","","","","",""
"300","159882","pSARL_v2","pSARL_v2gwb9fnno","5bc0ac845a09ea00012e2d30","freq","img/green_2bandit_b2.png","70","70","test","1","73","73","4","",""
"null","160394","pSARL_v2","pSARL_v2gwb9fnno","5bc0ac845a09ea00012e2d30","freq_resp","img/green_2bandit_b.png","70","70","test","","","","4","",""
"null","160549","pSARL_v2","pSARL_v2gwb9fnno","5bc0ac845a09ea00012e2d30","fixation","img/fixation.png","null","","test","","","","","",""
"286","160840","pSARL_v2","pSARL_v2gwb9fnno","5bc0ac845a09ea00012e2d30","freq","img/green_2bandit_b2.png","70","70","test","1","74","74","4","",""
"null","161366","pSARL_v2","pSARL_v2gwb9fnno","5bc0ac845a09ea00012e2d30","freq_resp","img/green_2bandit_b.png","70","70","test","","","","4","",""
"null","161521","pSARL_v2","pSARL_v2gwb9fnno","5bc0ac845a09ea00012e2d30","fixation","img/fixation.png","null","","test","","","","","",""
"246","161771","pSARL_v2","pSARL_v2gwb9fnno","5bc0ac845a09ea00012e2d30","freq","img/green_2bandit_b2.png","70","70","test","1","75","75","4","",""
"null","162336","pSARL_v2","pSARL_v2gwb9fnno","5bc0ac845a09ea00012e2d30","freq_resp","img/green_2bandit_b.png","70","70","test","","","","4","",""
"null","162490","pSARL_v2","pSARL_v2gwb9fnno","5bc0ac845a09ea00012e2d30","fixation","img/fixation.png","null","","test","","","","","",""
"306","162800","pSARL_v2","pSARL_v2gwb9fnno","5bc0ac845a09ea00012e2d30","freq","img/green_2bandit_b2.png","70","70","test","1","76","76","4","",""
"null","163310","pSARL_v2","pSARL_v2gwb9fnno","5bc0ac845a09ea00012e2d30","freq_resp","img/green_2bandit_b.png","70","70","test","","","","4","",""
"null","163464","pSARL_v2","pSARL_v2gwb9fnno","5bc0ac845a09ea00012e2d30","fixation","img/fixation.png","null","","test","","","","","",""
"283","163749","pSARL_v2","pSARL_v2gwb9fnno","5bc0ac845a09ea00012e2d30","freq","img/green_2bandit_b2.png","70","70","test","1","77","77","4","",""
"null","164284","pSARL_v2","pSARL_v2gwb9fnno","5bc0ac845a09ea00012e2d30","freq_resp","img/green_2bandit_b.png","70","70","test","","","","4","",""
"null","164438","pSARL_v2","pSARL_v2gwb9fnno","5bc0ac845a09ea00012e2d30","fixation","img/fixation.png","null","","test","","","","","",""
"493","164936","pSARL_v2","pSARL_v2gwb9fnno","5bc0ac845a09ea00012e2d30","infreq","img/orange_2bandit_b2.png","68","68","test","1","78","78","4","",""
"null","165259","pSARL_v2","pSARL_v2gwb9fnno","5bc0ac845a09ea00012e2d30","infreq_resp","img/orange_2bandit_b.png","68","68","test","","","","4","",""
"null","165413","pSARL_v2","pSARL_v2gwb9fnno","5bc0ac845a09ea00012e2d30","fixation","img/fixation.png","null","","test","","","","","",""
"436","165852","pSARL_v2","pSARL_v2gwb9fnno","5bc0ac845a09ea00012e2d30","freq","img/green_2bandit_b2.png","70","70","test","1","79","79","4","",""
"null","166230","pSARL_v2","pSARL_v2gwb9fnno","5bc0ac845a09ea00012e2d30","freq_resp","img/green_2bandit_b.png","70","70","test","","","","4","",""
"null","166385","pSARL_v2","pSARL_v2gwb9fnno","5bc0ac845a09ea00012e2d30","fixation","img/fixation.png","null","","test","","","","","",""
"480","166869","pSARL_v2","pSARL_v2gwb9fnno","5bc0ac845a09ea00012e2d30","infreq","img/orange_2bandit_b2.png","68","68","test","1","80","80","4","",""
"null","167199","pSARL_v2","pSARL_v2gwb9fnno","5bc0ac845a09ea00012e2d30","infreq_resp","img/orange_2bandit_b.png","68","68","test","","","","4","",""
"null","167354","pSARL_v2","pSARL_v2gwb9fnno","5bc0ac845a09ea00012e2d30","fixation","img/fixation.png","null","","test","","","","","",""
"301","167659","pSARL_v2","pSARL_v2gwb9fnno","5bc0ac845a09ea00012e2d30","freq","img/green_2bandit_b2.png","70","70","test","1","81","81","4","",""
"null","168174","pSARL_v2","pSARL_v2gwb9fnno","5bc0ac845a09ea00012e2d30","freq_resp","img/green_2bandit_b.png","70","70","test","","","","4","",""
"null","168328","pSARL_v2","pSARL_v2gwb9fnno","5bc0ac845a09ea00012e2d30","fixation","img/fixation.png","null","","test","","","","","",""
"250","168582","pSARL_v2","pSARL_v2gwb9fnno","5bc0ac845a09ea00012e2d30","freq","img/green_2bandit_b2.png","70","70","test","1","82","82","4","",""
"null","169145","pSARL_v2","pSARL_v2gwb9fnno","5bc0ac845a09ea00012e2d30","freq_resp","img/green_2bandit_b.png","70","70","test","","","","4","",""
"null","169299","pSARL_v2","pSARL_v2gwb9fnno","5bc0ac845a09ea00012e2d30","fixation","img/fixation.png","null","","test","","","","","",""
"260","169561","pSARL_v2","pSARL_v2gwb9fnno","5bc0ac845a09ea00012e2d30","freq","img/green_2bandit_b2.png","70","70","test","1","83","83","4","",""
"null","170118","pSARL_v2","pSARL_v2gwb9fnno","5bc0ac845a09ea00012e2d30","freq_resp","img/green_2bandit_b.png","70","70","test","","","","4","",""
"null","170273","pSARL_v2","pSARL_v2gwb9fnno","5bc0ac845a09ea00012e2d30","fixation","img/fixation.png","null","","test","","","","","",""
"290","170567","pSARL_v2","pSARL_v2gwb9fnno","5bc0ac845a09ea00012e2d30","freq","img/green_2bandit_b2.png","70","70","test","1","84","84","4","",""
"null","171089","pSARL_v2","pSARL_v2gwb9fnno","5bc0ac845a09ea00012e2d30","freq_resp","img/green_2bandit_b.png","70","70","test","","","","4","",""
"null","171243","pSARL_v2","pSARL_v2gwb9fnno","5bc0ac845a09ea00012e2d30","fixation","img/fixation.png","null","","test","","","","","",""
"287","171534","pSARL_v2","pSARL_v2gwb9fnno","5bc0ac845a09ea00012e2d30","freq","img/green_2bandit_b2.png","70","70","test","1","85","85","4","",""
"null","172060","pSARL_v2","pSARL_v2gwb9fnno","5bc0ac845a09ea00012e2d30","freq_resp","img/green_2bandit_b.png","70","70","test","","","","4","",""
"null","172215","pSARL_v2","pSARL_v2gwb9fnno","5bc0ac845a09ea00012e2d30","fixation","img/fixation.png","null","","test","","","","","",""
"273","172492","pSARL_v2","pSARL_v2gwb9fnno","5bc0ac845a09ea00012e2d30","freq","img/green_2bandit_b2.png","70","70","test","1","86","86","4","",""
"null","173031","pSARL_v2","pSARL_v2gwb9fnno","5bc0ac845a09ea00012e2d30","freq_resp","img/green_2bandit_b.png","70","70","test","","","","4","",""
"null","173185","pSARL_v2","pSARL_v2gwb9fnno","5bc0ac845a09ea00012e2d30","fixation","img/fixation.png","null","","test","","","","","",""
"277","173466","pSARL_v2","pSARL_v2gwb9fnno","5bc0ac845a09ea00012e2d30","freq","img/green_2bandit_b2.png","70","70","test","1","87","87","4","",""
"null","174005","pSARL_v2","pSARL_v2gwb9fnno","5bc0ac845a09ea00012e2d30","freq_resp","img/green_2bandit_b.png","70","70","test","","","","4","",""
"null","174159","pSARL_v2","pSARL_v2gwb9fnno","5bc0ac845a09ea00012e2d30","fixation","img/fixation.png","null","","test","","","","","",""
"249","174410","pSARL_v2","pSARL_v2gwb9fnno","5bc0ac845a09ea00012e2d30","freq","img/green_2bandit_b2.png","70","70","test","1","88","88","4","",""
"null","174975","pSARL_v2","pSARL_v2gwb9fnno","5bc0ac845a09ea00012e2d30","freq_resp","img/green_2bandit_b.png","70","70","test","","","","4","",""
"null","175131","pSARL_v2","pSARL_v2gwb9fnno","5bc0ac845a09ea00012e2d30","fixation","img/fixation.png","null","","test","","","","","",""
"247","175382","pSARL_v2","pSARL_v2gwb9fnno","5bc0ac845a09ea00012e2d30","freq","img/green_2bandit_b2.png","70","70","test","1","89","89","4","",""
"null","175947","pSARL_v2","pSARL_v2gwb9fnno","5bc0ac845a09ea00012e2d30","freq_resp","img/green_2bandit_b.png","70","70","test","","","","4","",""
"null","176101","pSARL_v2","pSARL_v2gwb9fnno","5bc0ac845a09ea00012e2d30","fixation","img/fixation.png","null","","test","","","","","",""
"498","176602","pSARL_v2","pSARL_v2gwb9fnno","5bc0ac845a09ea00012e2d30","reward","img/slot.png","74","","test","","","","","",""
"null","177366","pSARL_v2","pSARL_v2gwb9fnno","5bc0ac845a09ea00012e2d30","points","<div class=""verylowPoints""> -3 </div>","null","na","test","","","","4","-3","3"
"794","178165","pSARL_v2","pSARL_v2gwb9fnno","5bc0ac845a09ea00012e2d30","freq","img/green_2bandit_b2.png","70","70","test","1","90","90","5","",""
"null","178175","pSARL_v2","pSARL_v2gwb9fnno","5bc0ac845a09ea00012e2d30","freq_resp","img/green_2bandit_b.png","70","70","test","","","","5","",""
"null","178336","pSARL_v2","pSARL_v2gwb9fnno","5bc0ac845a09ea00012e2d30","fixation","img/fixation.png","null","","test","","","","","",""
"548","178887","pSARL_v2","pSARL_v2gwb9fnno","5bc0ac845a09ea00012e2d30","freq","img/green_2bandit_b2.png","70","70","test","1","91","91","5","",""
"null","179155","pSARL_v2","pSARL_v2gwb9fnno","5bc0ac845a09ea00012e2d30","freq_resp","img/green_2bandit_b.png","70","70","test","","","","5","",""
"null","179324","pSARL_v2","pSARL_v2gwb9fnno","5bc0ac845a09ea00012e2d30","fixation","img/fixation.png","null","","test","","","","","",""
"369","179698","pSARL_v2","pSARL_v2gwb9fnno","5bc0ac845a09ea00012e2d30","freq","img/green_2bandit_b2.png","70","70","test","1","92","92","5","",""
"null","180141","pSARL_v2","pSARL_v2gwb9fnno","5bc0ac845a09ea00012e2d30","freq_resp","img/green_2bandit_b.png","70","70","test","","","","5","",""
"null","180310","pSARL_v2","pSARL_v2gwb9fnno","5bc0ac845a09ea00012e2d30","fixation","img/fixation.png","null","","test","","","","","",""
"417","180732","pSARL_v2","pSARL_v2gwb9fnno","5bc0ac845a09ea00012e2d30","infreq","img/orange_2bandit_b2.png","68","68","test","1","93","93","5","",""
"null","181128","pSARL_v2","pSARL_v2gwb9fnno","5bc0ac845a09ea00012e2d30","infreq_resp","img/orange_2bandit_b.png","68","68","test","","","","5","",""
"null","181282","pSARL_v2","pSARL_v2gwb9fnno","5bc0ac845a09ea00012e2d30","fixation","img/fixation.png","null","","test","","","","","",""
"384","181671","pSARL_v2","pSARL_v2gwb9fnno","5bc0ac845a09ea00012e2d30","freq","img/green_2bandit_b2.png","70","70","test","1","94","94","5","",""
"null","182099","pSARL_v2","pSARL_v2gwb9fnno","5bc0ac845a09ea00012e2d30","freq_resp","img/green_2bandit_b.png","70","70","test","","","","5","",""
"null","182267","pSARL_v2","pSARL_v2gwb9fnno","5bc0ac845a09ea00012e2d30","fixation","img/fixation.png","null","","test","","","","","",""
"303","182574","pSARL_v2","pSARL_v2gwb9fnno","5bc0ac845a09ea00012e2d30","freq","img/green_2bandit_b2.png","70","70","test","1","95","95","5","",""
"null","183087","pSARL_v2","pSARL_v2gwb9fnno","5bc0ac845a09ea00012e2d30","freq_resp","img/green_2bandit_b.png","70","70","test","","","","5","",""
"null","183241","pSARL_v2","pSARL_v2gwb9fnno","5bc0ac845a09ea00012e2d30","fixation","img/fixation.png","null","","test","","","","","",""
"263","183508","pSARL_v2","pSARL_v2gwb9fnno","5bc0ac845a09ea00012e2d30","freq","img/green_2bandit_b2.png","70","70","test","1","96","96","5","",""
"null","184058","pSARL_v2","pSARL_v2gwb9fnno","5bc0ac845a09ea00012e2d30","freq_resp","img/green_2bandit_b.png","70","70","test","","","","5","",""
"null","184227","pSARL_v2","pSARL_v2gwb9fnno","5bc0ac845a09ea00012e2d30","fixation","img/fixation.png","null","","test","","","","","",""
"254","184485","pSARL_v2","pSARL_v2gwb9fnno","5bc0ac845a09ea00012e2d30","freq","img/green_2bandit_b2.png","70","70","test","1","97","97","5","",""
"null","185044","pSARL_v2","pSARL_v2gwb9fnno","5bc0ac845a09ea00012e2d30","freq_resp","img/green_2bandit_b.png","70","70","test","","","","5","",""
"null","185199","pSARL_v2","pSARL_v2gwb9fnno","5bc0ac845a09ea00012e2d30","fixation","img/fixation.png","null","","test","","","","","",""
"283","185486","pSARL_v2","pSARL_v2gwb9fnno","5bc0ac845a09ea00012e2d30","freq","img/green_2bandit_b2.png","70","70","test","1","98","98","5","",""
"null","186017","pSARL_v2","pSARL_v2gwb9fnno","5bc0ac845a09ea00012e2d30","freq_resp","img/green_2bandit_b.png","70","70","test","","","","5","",""
"null","186185","pSARL_v2","pSARL_v2gwb9fnno","5bc0ac845a09ea00012e2d30","fixation","img/fixation.png","null","","test","","","","","",""
"251","186439","pSARL_v2","pSARL_v2gwb9fnno","5bc0ac845a09ea00012e2d30","freq","img/green_2bandit_b2.png","70","70","test","1","99","99","5","",""
"null","187002","pSARL_v2","pSARL_v2gwb9fnno","5bc0ac845a09ea00012e2d30","freq_resp","img/green_2bandit_b.png","70","70","test","","","","5","",""
"null","187171","pSARL_v2","pSARL_v2gwb9fnno","5bc0ac845a09ea00012e2d30","fixation","img/fixation.png","null","","test","","","","","",""
"253","187428","pSARL_v2","pSARL_v2gwb9fnno","5bc0ac845a09ea00012e2d30","freq","img/green_2bandit_b2.png","70","70","test","1","100","100","5","",""
"null","187989","pSARL_v2","pSARL_v2gwb9fnno","5bc0ac845a09ea00012e2d30","freq_resp","img/green_2bandit_b.png","70","70","test","","","","5","",""
"null","188143","pSARL_v2","pSARL_v2gwb9fnno","5bc0ac845a09ea00012e2d30","fixation","img/fixation.png","null","","test","","","","","",""
"231","188379","pSARL_v2","pSARL_v2gwb9fnno","5bc0ac845a09ea00012e2d30","freq","img/green_2bandit_b2.png","70","70","test","1","101","101","5","",""
"null","188960","pSARL_v2","pSARL_v2gwb9fnno","5bc0ac845a09ea00012e2d30","freq_resp","img/green_2bandit_b.png","70","70","test","","","","5","",""
"null","189114","pSARL_v2","pSARL_v2gwb9fnno","5bc0ac845a09ea00012e2d30","fixation","img/fixation.png","null","","test","","","","","",""
"262","189381","pSARL_v2","pSARL_v2gwb9fnno","5bc0ac845a09ea00012e2d30","freq","img/green_2bandit_b2.png","70","70","test","1","102","102","5","",""
"null","189932","pSARL_v2","pSARL_v2gwb9fnno","5bc0ac845a09ea00012e2d30","freq_resp","img/green_2bandit_b.png","70","70","test","","","","5","",""
"null","190102","pSARL_v2","pSARL_v2gwb9fnno","5bc0ac845a09ea00012e2d30","fixation","img/fixation.png","null","","test","","","","","",""
"265","190372","pSARL_v2","pSARL_v2gwb9fnno","5bc0ac845a09ea00012e2d30","freq","img/green_2bandit_b2.png","70","70","test","1","103","103","5","",""
"null","190918","pSARL_v2","pSARL_v2gwb9fnno","5bc0ac845a09ea00012e2d30","freq_resp","img/green_2bandit_b.png","70","70","test","","","","5","",""
"null","191073","pSARL_v2","pSARL_v2gwb9fnno","5bc0ac845a09ea00012e2d30","fixation","img/fixation.png","null","","test","","","","","",""
"251","191327","pSARL_v2","pSARL_v2gwb9fnno","5bc0ac845a09ea00012e2d30","freq","img/green_2bandit_b2.png","70","70","test","1","104","104","5","",""
"null","191888","pSARL_v2","pSARL_v2gwb9fnno","5bc0ac845a09ea00012e2d30","freq_resp","img/green_2bandit_b.png","70","70","test","","","","5","",""
"null","192042","pSARL_v2","pSARL_v2gwb9fnno","5bc0ac845a09ea00012e2d30","fixation","img/fixation.png","null","","test","","","","","",""
"258","192304","pSARL_v2","pSARL_v2gwb9fnno","5bc0ac845a09ea00012e2d30","freq","img/green_2bandit_b2.png","70","70","test","1","105","105","5","",""
"null","192856","pSARL_v2","pSARL_v2gwb9fnno","5bc0ac845a09ea00012e2d30","freq_resp","img/green_2bandit_b.png","70","70","test","","","","5","",""
"null","193010","pSARL_v2","pSARL_v2gwb9fnno","5bc0ac845a09ea00012e2d30","fixation","img/fixation.png","null","","test","","","","","",""
"240","193254","pSARL_v2","pSARL_v2gwb9fnno","5bc0ac845a09ea00012e2d30","freq","img/green_2bandit_b2.png","70","70","test","1","106","106","5","",""
"null","193830","pSARL_v2","pSARL_v2gwb9fnno","5bc0ac845a09ea00012e2d30","freq_resp","img/green_2bandit_b.png","70","70","test","","","","5","",""
"null","193985","pSARL_v2","pSARL_v2gwb9fnno","5bc0ac845a09ea00012e2d30","fixation","img/fixation.png","null","","test","","","","","",""
"231","194220","pSARL_v2","pSARL_v2gwb9fnno","5bc0ac845a09ea00012e2d30","freq","img/green_2bandit_b2.png","70","70","test","1","107","107","5","",""
"null","194805","pSARL_v2","pSARL_v2gwb9fnno","5bc0ac845a09ea00012e2d30","freq_resp","img/green_2bandit_b.png","70","70","test","","","","5","",""
"null","194960","pSARL_v2","pSARL_v2gwb9fnno","5bc0ac845a09ea00012e2d30","fixation","img/fixation.png","null","","test","","","","","",""
"328","195292","pSARL_v2","pSARL_v2gwb9fnno","5bc0ac845a09ea00012e2d30","freq","img/green_2bandit_b2.png","70","70","test","1","108","108","5","",""
"null","195778","pSARL_v2","pSARL_v2gwb9fnno","5bc0ac845a09ea00012e2d30","freq_resp","img/green_2bandit_b.png","70","70","test","","","","5","",""
"null","195947","pSARL_v2","pSARL_v2gwb9fnno","5bc0ac845a09ea00012e2d30","fixation","img/fixation.png","null","","test","","","","","",""
"427","196378","pSARL_v2","pSARL_v2gwb9fnno","5bc0ac845a09ea00012e2d30","infreq","img/orange_2bandit_b2.png","68","68","test","1","109","109","5","",""
"null","196766","pSARL_v2","pSARL_v2gwb9fnno","5bc0ac845a09ea00012e2d30","infreq_resp","img/orange_2bandit_b.png","68","68","test","","","","5","",""
"null","196921","pSARL_v2","pSARL_v2gwb9fnno","5bc0ac845a09ea00012e2d30","fixation","img/fixation.png","null","","test","","","","","",""
"364","197287","pSARL_v2","pSARL_v2gwb9fnno","5bc0ac845a09ea00012e2d30","freq","img/green_2bandit_b2.png","70","70","test","1","110","110","5","",""
"null","197738","pSARL_v2","pSARL_v2gwb9fnno","5bc0ac845a09ea00012e2d30","freq_resp","img/green_2bandit_b.png","70","70","test","","","","5","",""
"null","197893","pSARL_v2","pSARL_v2gwb9fnno","5bc0ac845a09ea00012e2d30","fixation","img/fixation.png","null","","test","","","","","",""
"329","198225","pSARL_v2","pSARL_v2gwb9fnno","5bc0ac845a09ea00012e2d30","freq","img/green_2bandit_b2.png","70","70","test","1","111","111","5","",""
"null","198711","pSARL_v2","pSARL_v2gwb9fnno","5bc0ac845a09ea00012e2d30","freq_resp","img/green_2bandit_b.png","70","70","test","","","","5","",""
"null","198865","pSARL_v2","pSARL_v2gwb9fnno","5bc0ac845a09ea00012e2d30","fixation","img/fixation.png","null","","test","","","","","",""
"266","199136","pSARL_v2","pSARL_v2gwb9fnno","5bc0ac845a09ea00012e2d30","freq","img/green_2bandit_b2.png","70","70","test","1","112","112","5","",""
"null","199683","pSARL_v2","pSARL_v2gwb9fnno","5bc0ac845a09ea00012e2d30","freq_resp","img/green_2bandit_b.png","70","70","test","","","","5","",""
"null","199838","pSARL_v2","pSARL_v2gwb9fnno","5bc0ac845a09ea00012e2d30","fixation","img/fixation.png","null","","test","","","","","",""
"264","200107","pSARL_v2","pSARL_v2gwb9fnno","5bc0ac845a09ea00012e2d30","freq","img/green_2bandit_b2.png","70","70","test","1","113","113","5","",""
"null","200657","pSARL_v2","pSARL_v2gwb9fnno","5bc0ac845a09ea00012e2d30","freq_resp","img/green_2bandit_b.png","70","70","test","","","","5","",""
"null","200811","pSARL_v2","pSARL_v2gwb9fnno","5bc0ac845a09ea00012e2d30","fixation","img/fixation.png","null","","test","","","","","",""
"224","201039","pSARL_v2","pSARL_v2gwb9fnno","5bc0ac845a09ea00012e2d30","freq","img/green_2bandit_b2.png","70","70","test","1","114","114","5","",""
"null","201628","pSARL_v2","pSARL_v2gwb9fnno","5bc0ac845a09ea00012e2d30","freq_resp","img/green_2bandit_b.png","70","70","test","","","","5","",""
"null","201782","pSARL_v2","pSARL_v2gwb9fnno","5bc0ac845a09ea00012e2d30","fixation","img/fixation.png","null","","test","","","","","",""
"257","202043","pSARL_v2","pSARL_v2gwb9fnno","5bc0ac845a09ea00012e2d30","freq","img/green_2bandit_b2.png","70","70","test","1","115","115","5","",""
"null","202599","pSARL_v2","pSARL_v2gwb9fnno","5bc0ac845a09ea00012e2d30","freq_resp","img/green_2bandit_b.png","70","70","test","","","","5","",""
"null","202754","pSARL_v2","pSARL_v2gwb9fnno","5bc0ac845a09ea00012e2d30","fixation","img/fixation.png","null","","test","","","","","",""
"412","203170","pSARL_v2","pSARL_v2gwb9fnno","5bc0ac845a09ea00012e2d30","reward","img/slot.png","74","","test","","","","","",""
"null","203927","pSARL_v2","pSARL_v2gwb9fnno","5bc0ac845a09ea00012e2d30","points","<div class=""veryhighPoints""> +1 </div>","null","na","test","","","","5","1","4"
"639","204569","pSARL_v2","pSARL_v2gwb9fnno","5bc0ac845a09ea00012e2d30","freq","img/green_2bandit_b2.png","70","70","test","1","116","116","6","",""
"null","204744","pSARL_v2","pSARL_v2gwb9fnno","5bc0ac845a09ea00012e2d30","freq_resp","img/green_2bandit_b.png","70","70","test","","","","6","",""
"null","204900","pSARL_v2","pSARL_v2gwb9fnno","5bc0ac845a09ea00012e2d30","fixation","img/fixation.png","null","","test","","","","","",""
"521","205425","pSARL_v2","pSARL_v2gwb9fnno","5bc0ac845a09ea00012e2d30","freq","img/green_2bandit_b2.png","70","70","test","1","117","117","6","",""
"null","205714","pSARL_v2","pSARL_v2gwb9fnno","5bc0ac845a09ea00012e2d30","freq_resp","img/green_2bandit_b.png","70","70","test","","","","6","",""
"null","205868","pSARL_v2","pSARL_v2gwb9fnno","5bc0ac845a09ea00012e2d30","fixation","img/fixation.png","null","","test","","","","","",""
"304","206176","pSARL_v2","pSARL_v2gwb9fnno","5bc0ac845a09ea00012e2d30","freq","img/green_2bandit_b2.png","70","70","test","1","118","118","6","",""
"null","206686","pSARL_v2","pSARL_v2gwb9fnno","5bc0ac845a09ea00012e2d30","freq_resp","img/green_2bandit_b.png","70","70","test","","","","6","",""
"null","206842","pSARL_v2","pSARL_v2gwb9fnno","5bc0ac845a09ea00012e2d30","fixation","img/fixation.png","null","","test","","","","","",""
"414","207259","pSARL_v2","pSARL_v2gwb9fnno","5bc0ac845a09ea00012e2d30","infreq","img/orange_2bandit_b2.png","68","68","test","1","119","119","6","",""
"null","207661","pSARL_v2","pSARL_v2gwb9fnno","5bc0ac845a09ea00012e2d30","infreq_resp","img/orange_2bandit_b.png","68","68","test","","","","6","",""
"null","207816","pSARL_v2","pSARL_v2gwb9fnno","5bc0ac845a09ea00012e2d30","fixation","img/fixation.png","null","","test","","","","","",""
"411","208231","pSARL_v2","pSARL_v2gwb9fnno","5bc0ac845a09ea00012e2d30","freq","img/green_2bandit_b2.png","70","70","test","1","120","120","6","",""
"null","208632","pSARL_v2","pSARL_v2gwb9fnno","5bc0ac845a09ea00012e2d30","freq_resp","img/green_2bandit_b.png","70","70","test","","","","6","",""
"null","208786","pSARL_v2","pSARL_v2gwb9fnno","5bc0ac845a09ea00012e2d30","fixation","img/fixation.png","null","","test","","","","","",""
"326","209116","pSARL_v2","pSARL_v2gwb9fnno","5bc0ac845a09ea00012e2d30","freq","img/green_2bandit_b2.png","70","70","test","1","121","121","6","",""
"null","209607","pSARL_v2","pSARL_v2gwb9fnno","5bc0ac845a09ea00012e2d30","freq_resp","img/green_2bandit_b.png","70","70","test","","","","6","",""
"null","209776","pSARL_v2","pSARL_v2gwb9fnno","5bc0ac845a09ea00012e2d30","fixation","img/fixation.png","null","","test","","","","","",""
"244","210024","pSARL_v2","pSARL_v2gwb9fnno","5bc0ac845a09ea00012e2d30","freq","img/green_2bandit_b2.png","70","70","test","1","122","122","6","",""
"null","210592","pSARL_v2","pSARL_v2gwb9fnno","5bc0ac845a09ea00012e2d30","freq_resp","img/green_2bandit_b.png","70","70","test","","","","6","",""
"null","210745","pSARL_v2","pSARL_v2gwb9fnno","5bc0ac845a09ea00012e2d30","fixation","img/fixation.png","null","","test","","","","","",""
"249","211000","pSARL_v2","pSARL_v2gwb9fnno","5bc0ac845a09ea00012e2d30","freq","img/green_2bandit_b2.png","70","70","test","1","123","123","6","",""
"null","211563","pSARL_v2","pSARL_v2gwb9fnno","5bc0ac845a09ea00012e2d30","freq_resp","img/green_2bandit_b.png","70","70","test","","","","6","",""
"null","211731","pSARL_v2","pSARL_v2gwb9fnno","5bc0ac845a09ea00012e2d30","fixation","img/fixation.png","null","","test","","","","","",""
"236","211971","pSARL_v2","pSARL_v2gwb9fnno","5bc0ac845a09ea00012e2d30","freq","img/green_2bandit_b2.png","70","70","test","1","124","124","6","",""
"null","212550","pSARL_v2","pSARL_v2gwb9fnno","5bc0ac845a09ea00012e2d30","freq_resp","img/green_2bandit_b.png","70","70","test","","","","6","",""
"null","212704","pSARL_v2","pSARL_v2gwb9fnno","5bc0ac845a09ea00012e2d30","fixation","img/fixation.png","null","","test","","","","","",""
"226","212934","pSARL_v2","pSARL_v2gwb9fnno","5bc0ac845a09ea00012e2d30","freq","img/green_2bandit_b2.png","70","70","test","1","125","125","6","",""
"null","213523","pSARL_v2","pSARL_v2gwb9fnno","5bc0ac845a09ea00012e2d30","freq_resp","img/green_2bandit_b.png","70","70","test","","","","6","",""
"null","213678","pSARL_v2","pSARL_v2gwb9fnno","5bc0ac845a09ea00012e2d30","fixation","img/fixation.png","null","","test","","","","","",""
"222","213905","pSARL_v2","pSARL_v2gwb9fnno","5bc0ac845a09ea00012e2d30","freq","img/green_2bandit_b2.png","70","70","test","1","126","126","6","",""
"null","214494","pSARL_v2","pSARL_v2gwb9fnno","5bc0ac845a09ea00012e2d30","freq_resp","img/green_2bandit_b.png","70","70","test","","","","6","",""
"null","214663","pSARL_v2","pSARL_v2gwb9fnno","5bc0ac845a09ea00012e2d30","fixation","img/fixation.png","null","","test","","","","","",""
"233","214899","pSARL_v2","pSARL_v2gwb9fnno","5bc0ac845a09ea00012e2d30","freq","img/green_2bandit_b2.png","70","70","test","1","127","127","6","",""
"null","215482","pSARL_v2","pSARL_v2gwb9fnno","5bc0ac845a09ea00012e2d30","freq_resp","img/green_2bandit_b.png","70","70","test","","","","6","",""
"null","215651","pSARL_v2","pSARL_v2gwb9fnno","5bc0ac845a09ea00012e2d30","fixation","img/fixation.png","null","","test","","","","","",""
"367","216022","pSARL_v2","pSARL_v2gwb9fnno","5bc0ac845a09ea00012e2d30","infreq","img/orange_2bandit_b2.png","68","68","test","1","128","128","6","",""
"null","216469","pSARL_v2","pSARL_v2gwb9fnno","5bc0ac845a09ea00012e2d30","infreq_resp","img/orange_2bandit_b.png","68","68","test","","","","6","",""
"null","216623","pSARL_v2","pSARL_v2gwb9fnno","5bc0ac845a09ea00012e2d30","fixation","img/fixation.png","null","","test","","","","","",""
"472","217099","pSARL_v2","pSARL_v2gwb9fnno","5bc0ac845a09ea00012e2d30","freq","img/green_2bandit_b2.png","70","70","test","1","129","129","6","",""
"null","217441","pSARL_v2","pSARL_v2gwb9fnno","5bc0ac845a09ea00012e2d30","freq_resp","img/green_2bandit_b.png","70","70","test","","","","6","",""
"null","217596","pSARL_v2","pSARL_v2gwb9fnno","5bc0ac845a09ea00012e2d30","fixation","img/fixation.png","null","","test","","","","","",""
"359","217958","pSARL_v2","pSARL_v2gwb9fnno","5bc0ac845a09ea00012e2d30","freq","img/green_2bandit_b2.png","70","70","test","1","130","130","6","",""
"null","218414","pSARL_v2","pSARL_v2gwb9fnno","5bc0ac845a09ea00012e2d30","freq_resp","img/green_2bandit_b.png","70","70","test","","","","6","",""
"null","218569","pSARL_v2","pSARL_v2gwb9fnno","5bc0ac845a09ea00012e2d30","fixation","img/fixation.png","null","","test","","","","","",""
"232","218805","pSARL_v2","pSARL_v2gwb9fnno","5bc0ac845a09ea00012e2d30","freq","img/green_2bandit_b2.png","70","70","test","1","131","131","6","",""
"null","219388","pSARL_v2","pSARL_v2gwb9fnno","5bc0ac845a09ea00012e2d30","freq_resp","img/green_2bandit_b.png","70","70","test","","","","6","",""
"null","219542","pSARL_v2","pSARL_v2gwb9fnno","5bc0ac845a09ea00012e2d30","fixation","img/fixation.png","null","","test","","","","","",""
"258","219803","pSARL_v2","pSARL_v2gwb9fnno","5bc0ac845a09ea00012e2d30","freq","img/green_2bandit_b2.png","70","70","test","1","132","132","6","",""
"null","220361","pSARL_v2","pSARL_v2gwb9fnno","5bc0ac845a09ea00012e2d30","freq_resp","img/green_2bandit_b.png","70","70","test","","","","6","",""
"null","220530","pSARL_v2","pSARL_v2gwb9fnno","5bc0ac845a09ea00012e2d30","fixation","img/fixation.png","null","","test","","","","","",""
"230","220765","pSARL_v2","pSARL_v2gwb9fnno","5bc0ac845a09ea00012e2d30","freq","img/green_2bandit_b2.png","70","70","test","1","133","133","6","",""
"null","221347","pSARL_v2","pSARL_v2gwb9fnno","5bc0ac845a09ea00012e2d30","freq_resp","img/green_2bandit_b.png","70","70","test","","","","6","",""
"null","221502","pSARL_v2","pSARL_v2gwb9fnno","5bc0ac845a09ea00012e2d30","fixation","img/fixation.png","null","","test","","","","","",""
"223","221729","pSARL_v2","pSARL_v2gwb9fnno","5bc0ac845a09ea00012e2d30","freq","img/green_2bandit_b2.png","70","70","test","1","134","134","6","",""
"null","222319","pSARL_v2","pSARL_v2gwb9fnno","5bc0ac845a09ea00012e2d30","freq_resp","img/green_2bandit_b.png","70","70","test","","","","6","",""
"null","222489","pSARL_v2","pSARL_v2gwb9fnno","5bc0ac845a09ea00012e2d30","fixation","img/fixation.png","null","","test","","","","","",""
"258","222752","pSARL_v2","pSARL_v2gwb9fnno","5bc0ac845a09ea00012e2d30","freq","img/green_2bandit_b2.png","70","70","test","1","135","135","6","",""
"null","223305","pSARL_v2","pSARL_v2gwb9fnno","5bc0ac845a09ea00012e2d30","freq_resp","img/green_2bandit_b.png","70","70","test","","","","6","",""
"null","223461","pSARL_v2","pSARL_v2gwb9fnno","5bc0ac845a09ea00012e2d30","fixation","img/fixation.png","null","","test","","","","","",""
"488","223953","pSARL_v2","pSARL_v2gwb9fnno","5bc0ac845a09ea00012e2d30","reward","img/slot.png","74","","test","","","","","",""
"null","224712","pSARL_v2","pSARL_v2gwb9fnno","5bc0ac845a09ea00012e2d30","points","<div class=""verylowPoints""> -7 </div>","null","na","test","","","","6","-7","5"
"393","225107","pSARL_v2","pSARL_v2gwb9fnno","5bc0ac845a09ea00012e2d30","freq","img/green_2bandit_b2.png","70","70","test","1","136","136","7","",""
"null","225529","pSARL_v2","pSARL_v2gwb9fnno","5bc0ac845a09ea00012e2d30","freq_resp","img/green_2bandit_b.png","70","70","test","","","","7","",""
"null","225698","pSARL_v2","pSARL_v2gwb9fnno","5bc0ac845a09ea00012e2d30","fixation","img/fixation.png","null","","test","","","","","",""
"451","226154","pSARL_v2","pSARL_v2gwb9fnno","5bc0ac845a09ea00012e2d30","freq","img/green_2bandit_b2.png","70","70","test","1","137","137","7","",""
"null","226519","pSARL_v2","pSARL_v2gwb9fnno","5bc0ac845a09ea00012e2d30","freq_resp","img/green_2bandit_b.png","70","70","test","","","","7","",""
"null","226675","pSARL_v2","pSARL_v2gwb9fnno","5bc0ac845a09ea00012e2d30","fixation","img/fixation.png","null","","test","","","","","",""
"530","227210","pSARL_v2","pSARL_v2gwb9fnno","5bc0ac845a09ea00012e2d30","freq","img/green_2bandit_b2.png","70","70","test","1","138","138","7","",""
"null","227492","pSARL_v2","pSARL_v2gwb9fnno","5bc0ac845a09ea00012e2d30","freq_resp","img/green_2bandit_b.png","70","70","test","","","","7","",""
"null","227647","pSARL_v2","pSARL_v2gwb9fnno","5bc0ac845a09ea00012e2d30","fixation","img/fixation.png","null","","test","","","","","",""
"261","227912","pSARL_v2","pSARL_v2gwb9fnno","5bc0ac845a09ea00012e2d30","freq","img/green_2bandit_b2.png","70","70","test","1","139","139","7","",""
"null","228463","pSARL_v2","pSARL_v2gwb9fnno","5bc0ac845a09ea00012e2d30","freq_resp","img/green_2bandit_b.png","70","70","test","","","","7","",""
"null","228619","pSARL_v2","pSARL_v2gwb9fnno","5bc0ac845a09ea00012e2d30","fixation","img/fixation.png","null","","test","","","","","",""
"264","228887","pSARL_v2","pSARL_v2gwb9fnno","5bc0ac845a09ea00012e2d30","freq","img/green_2bandit_b2.png","70","70","test","1","140","140","7","",""
"null","229435","pSARL_v2","pSARL_v2gwb9fnno","5bc0ac845a09ea00012e2d30","freq_resp","img/green_2bandit_b.png","70","70","test","","","","7","",""
"null","229589","pSARL_v2","pSARL_v2gwb9fnno","5bc0ac845a09ea00012e2d30","fixation","img/fixation.png","null","","test","","","","","",""
"250","229843","pSARL_v2","pSARL_v2gwb9fnno","5bc0ac845a09ea00012e2d30","freq","img/green_2bandit_b2.png","70","70","test","1","141","141","7","",""
"null","230406","pSARL_v2","pSARL_v2gwb9fnno","5bc0ac845a09ea00012e2d30","freq_resp","img/green_2bandit_b.png","70","70","test","","","","7","",""
"null","230575","pSARL_v2","pSARL_v2gwb9fnno","5bc0ac845a09ea00012e2d30","fixation","img/fixation.png","null","","test","","","","","",""
"238","230815","pSARL_v2","pSARL_v2gwb9fnno","5bc0ac845a09ea00012e2d30","freq","img/green_2bandit_b2.png","70","70","test","1","142","142","7","",""
"null","231395","pSARL_v2","pSARL_v2gwb9fnno","5bc0ac845a09ea00012e2d30","freq_resp","img/green_2bandit_b.png","70","70","test","","","","7","",""
"null","231549","pSARL_v2","pSARL_v2gwb9fnno","5bc0ac845a09ea00012e2d30","fixation","img/fixation.png","null","","test","","","","","",""
"241","231794","pSARL_v2","pSARL_v2gwb9fnno","5bc0ac845a09ea00012e2d30","freq","img/green_2bandit_b2.png","70","70","test","1","143","143","7","",""
"null","232367","pSARL_v2","pSARL_v2gwb9fnno","5bc0ac845a09ea00012e2d30","freq_resp","img/green_2bandit_b.png","70","70","test","","","","7","",""
"null","232535","pSARL_v2","pSARL_v2gwb9fnno","5bc0ac845a09ea00012e2d30","fixation","img/fixation.png","null","","test","","","","","",""
"243","232782","pSARL_v2","pSARL_v2gwb9fnno","5bc0ac845a09ea00012e2d30","freq","img/green_2bandit_b2.png","70","70","test","1","144","144","7","",""
"null","233353","pSARL_v2","pSARL_v2gwb9fnno","5bc0ac845a09ea00012e2d30","freq_resp","img/green_2bandit_b.png","70","70","test","","","","7","",""
"null","233507","pSARL_v2","pSARL_v2gwb9fnno","5bc0ac845a09ea00012e2d30","fixation","img/fixation.png","null","","test","","","","","",""
"234","233745","pSARL_v2","pSARL_v2gwb9fnno","5bc0ac845a09ea00012e2d30","freq","img/green_2bandit_b2.png","70","70","test","1","145","145","7","",""
"null","234326","pSARL_v2","pSARL_v2gwb9fnno","5bc0ac845a09ea00012e2d30","freq_resp","img/green_2bandit_b.png","70","70","test","","","","7","",""
"null","234495","pSARL_v2","pSARL_v2gwb9fnno","5bc0ac845a09ea00012e2d30","fixation","img/fixation.png","null","","test","","","","","",""
"244","234743","pSARL_v2","pSARL_v2gwb9fnno","5bc0ac845a09ea00012e2d30","freq","img/green_2bandit_b2.png","70","70","test","1","146","146","7","",""
"null","235313","pSARL_v2","pSARL_v2gwb9fnno","5bc0ac845a09ea00012e2d30","freq_resp","img/green_2bandit_b.png","70","70","test","","","","7","",""
"null","235482","pSARL_v2","pSARL_v2gwb9fnno","5bc0ac845a09ea00012e2d30","fixation","img/fixation.png","null","","test","","","","","",""
"150","235635","pSARL_v2","pSARL_v2gwb9fnno","5bc0ac845a09ea00012e2d30","freq","img/green_2bandit_b2.png","70","70","test","1","147","147","7","",""
"null","236300","pSARL_v2","pSARL_v2gwb9fnno","5bc0ac845a09ea00012e2d30","freq_resp","img/green_2bandit_b.png","70","70","test","","","","7","",""
"null","236454","pSARL_v2","pSARL_v2gwb9fnno","5bc0ac845a09ea00012e2d30","fixation","img/fixation.png","null","","test","","","","","",""
"216","236674","pSARL_v2","pSARL_v2gwb9fnno","5bc0ac845a09ea00012e2d30","freq","img/green_2bandit_b2.png","70","70","test","1","148","148","7","",""
"null","237272","pSARL_v2","pSARL_v2gwb9fnno","5bc0ac845a09ea00012e2d30","freq_resp","img/green_2bandit_b.png","70","70","test","","","","7","",""
"null","237427","pSARL_v2","pSARL_v2gwb9fnno","5bc0ac845a09ea00012e2d30","fixation","img/fixation.png","null","","test","","","","","",""
"236","237668","pSARL_v2","pSARL_v2gwb9fnno","5bc0ac845a09ea00012e2d30","freq","img/green_2bandit_b2.png","70","70","test","1","149","149","7","",""
"null","238245","pSARL_v2","pSARL_v2gwb9fnno","5bc0ac845a09ea00012e2d30","freq_resp","img/green_2bandit_b.png","70","70","test","","","","7","",""
"null","238399","pSARL_v2","pSARL_v2gwb9fnno","5bc0ac845a09ea00012e2d30","fixation","img/fixation.png","null","","test","","","","","",""
"395","238798","pSARL_v2","pSARL_v2gwb9fnno","5bc0ac845a09ea00012e2d30","infreq","img/orange_2bandit_b2.png","68","68","test","1","150","150","7","",""
"null","239219","pSARL_v2","pSARL_v2gwb9fnno","5bc0ac845a09ea00012e2d30","infreq_resp","img/orange_2bandit_b.png","68","68","test","","","","7","",""
"null","239373","pSARL_v2","pSARL_v2gwb9fnno","5bc0ac845a09ea00012e2d30","fixation","img/fixation.png","null","","test","","","","","",""
"376","239752","pSARL_v2","pSARL_v2gwb9fnno","5bc0ac845a09ea00012e2d30","freq","img/green_2bandit_b2.png","70","70","test","1","151","151","7","",""
"null","240190","pSARL_v2","pSARL_v2gwb9fnno","5bc0ac845a09ea00012e2d30","freq_resp","img/green_2bandit_b.png","70","70","test","","","","7","",""
"null","240344","pSARL_v2","pSARL_v2gwb9fnno","5bc0ac845a09ea00012e2d30","fixation","img/fixation.png","null","","test","","","","","",""
"308","240657","pSARL_v2","pSARL_v2gwb9fnno","5bc0ac845a09ea00012e2d30","freq","img/green_2bandit_b2.png","70","70","test","1","152","152","7","",""
"null","241163","pSARL_v2","pSARL_v2gwb9fnno","5bc0ac845a09ea00012e2d30","freq_resp","img/green_2bandit_b.png","70","70","test","","","","7","",""
"null","241332","pSARL_v2","pSARL_v2gwb9fnno","5bc0ac845a09ea00012e2d30","fixation","img/fixation.png","null","","test","","","","","",""
"272","241607","pSARL_v2","pSARL_v2gwb9fnno","5bc0ac845a09ea00012e2d30","freq","img/green_2bandit_b2.png","70","70","test","1","153","153","7","",""
"null","242147","pSARL_v2","pSARL_v2gwb9fnno","5bc0ac845a09ea00012e2d30","freq_resp","img/green_2bandit_b.png","70","70","test","","","","7","",""
"null","242301","pSARL_v2","pSARL_v2gwb9fnno","5bc0ac845a09ea00012e2d30","fixation","img/fixation.png","null","","test","","","","","",""
"283","242589","pSARL_v2","pSARL_v2gwb9fnno","5bc0ac845a09ea00012e2d30","freq","img/green_2bandit_b2.png","70","70","test","1","154","154","7","",""
"null","243119","pSARL_v2","pSARL_v2gwb9fnno","5bc0ac845a09ea00012e2d30","freq_resp","img/green_2bandit_b.png","70","70","test","","","","7","",""
"null","243274","pSARL_v2","pSARL_v2gwb9fnno","5bc0ac845a09ea00012e2d30","fixation","img/fixation.png","null","","test","","","","","",""
"304","243581","pSARL_v2","pSARL_v2gwb9fnno","5bc0ac845a09ea00012e2d30","freq","img/green_2bandit_b2.png","70","70","test","1","155","155","7","",""
"null","244090","pSARL_v2","pSARL_v2gwb9fnno","5bc0ac845a09ea00012e2d30","freq_resp","img/green_2bandit_b.png","70","70","test","","","","7","",""
"null","244244","pSARL_v2","pSARL_v2gwb9fnno","5bc0ac845a09ea00012e2d30","fixation","img/fixation.png","null","","test","","","","","",""
"282","244530","pSARL_v2","pSARL_v2gwb9fnno","5bc0ac845a09ea00012e2d30","freq","img/green_2bandit_b2.png","70","70","test","1","156","156","7","",""
"null","245061","pSARL_v2","pSARL_v2gwb9fnno","5bc0ac845a09ea00012e2d30","freq_resp","img/green_2bandit_b.png","70","70","test","","","","7","",""
"null","245230","pSARL_v2","pSARL_v2gwb9fnno","5bc0ac845a09ea00012e2d30","fixation","img/fixation.png","null","","test","","","","","",""
"401","245635","pSARL_v2","pSARL_v2gwb9fnno","5bc0ac845a09ea00012e2d30","infreq","img/orange_2bandit_b2.png","68","68","test","1","157","157","7","",""
"null","246048","pSARL_v2","pSARL_v2gwb9fnno","5bc0ac845a09ea00012e2d30","infreq_resp","img/orange_2bandit_b.png","68","68","test","","","","7","",""
"null","246203","pSARL_v2","pSARL_v2gwb9fnno","5bc0ac845a09ea00012e2d30","fixation","img/fixation.png","null","","test","","","","","",""
"313","246520","pSARL_v2","pSARL_v2gwb9fnno","5bc0ac845a09ea00012e2d30","freq","img/green_2bandit_b2.png","70","70","test","1","158","158","7","",""
"null","247018","pSARL_v2","pSARL_v2gwb9fnno","5bc0ac845a09ea00012e2d30","freq_resp","img/green_2bandit_b.png","70","70","test","","","","7","",""
"null","247173","pSARL_v2","pSARL_v2gwb9fnno","5bc0ac845a09ea00012e2d30","fixation","img/fixation.png","null","","test","","","","","",""
"277","247453","pSARL_v2","pSARL_v2gwb9fnno","5bc0ac845a09ea00012e2d30","freq","img/green_2bandit_b2.png","70","70","test","1","159","159","7","",""
"null","247990","pSARL_v2","pSARL_v2gwb9fnno","5bc0ac845a09ea00012e2d30","freq_resp","img/green_2bandit_b.png","70","70","test","","","","7","",""
"null","248144","pSARL_v2","pSARL_v2gwb9fnno","5bc0ac845a09ea00012e2d30","fixation","img/fixation.png","null","","test","","","","","",""
"420","248567","pSARL_v2","pSARL_v2gwb9fnno","5bc0ac845a09ea00012e2d30","reward","img/slot.png","74","","test","","","","","",""
"null","249332","pSARL_v2","pSARL_v2gwb9fnno","5bc0ac845a09ea00012e2d30","points","<div class=""verylowPoints""> -6 </div>","null","na","test","","","","7","-6","6"
"333","249669","pSARL_v2","pSARL_v2gwb9fnno","5bc0ac845a09ea00012e2d30","freq","img/green_2bandit_b2.png","70","70","test","1","160","160","8","",""
"null","250148","pSARL_v2","pSARL_v2gwb9fnno","5bc0ac845a09ea00012e2d30","freq_resp","img/green_2bandit_b.png","70","70","test","","","","8","",""
"null","250302","pSARL_v2","pSARL_v2gwb9fnno","5bc0ac845a09ea00012e2d30","fixation","img/fixation.png","null","","test","","","","","",""
"309","250613","pSARL_v2","pSARL_v2gwb9fnno","5bc0ac845a09ea00012e2d30","freq","img/green_2bandit_b2.png","70","70","test","1","161","161","8","",""
"null","251122","pSARL_v2","pSARL_v2gwb9fnno","5bc0ac845a09ea00012e2d30","freq_resp","img/green_2bandit_b.png","70","70","test","","","","8","",""
"null","251293","pSARL_v2","pSARL_v2gwb9fnno","5bc0ac845a09ea00012e2d30","fixation","img/fixation.png","null","","test","","","","","",""
"413","251708","pSARL_v2","pSARL_v2gwb9fnno","5bc0ac845a09ea00012e2d30","infreq","img/orange_2bandit_b2.png","68","68","test","1","162","162","8","",""
"null","252108","pSARL_v2","pSARL_v2gwb9fnno","5bc0ac845a09ea00012e2d30","infreq_resp","img/orange_2bandit_b.png","68","68","test","","","","8","",""
"null","252263","pSARL_v2","pSARL_v2gwb9fnno","5bc0ac845a09ea00012e2d30","fixation","img/fixation.png","null","","test","","","","","",""
"299","252566","pSARL_v2","pSARL_v2gwb9fnno","5bc0ac845a09ea00012e2d30","freq","img/green_2bandit_b2.png","70","70","test","1","163","163","8","",""
"null","253082","pSARL_v2","pSARL_v2gwb9fnno","5bc0ac845a09ea00012e2d30","freq_resp","img/green_2bandit_b.png","70","70","test","","","","8","",""
"null","253251","pSARL_v2","pSARL_v2gwb9fnno","5bc0ac845a09ea00012e2d30","fixation","img/fixation.png","null","","test","","","","","",""
"374","253628","pSARL_v2","pSARL_v2gwb9fnno","5bc0ac845a09ea00012e2d30","freq","img/green_2bandit_b2.png","70","70","test","1","164","164","8","",""
"null","254068","pSARL_v2","pSARL_v2gwb9fnno","5bc0ac845a09ea00012e2d30","freq_resp","img/green_2bandit_b.png","70","70","test","","","","8","",""
"null","254225","pSARL_v2","pSARL_v2gwb9fnno","5bc0ac845a09ea00012e2d30","fixation","img/fixation.png","null","","test","","","","","",""
"287","254516","pSARL_v2","pSARL_v2gwb9fnno","5bc0ac845a09ea00012e2d30","freq","img/green_2bandit_b2.png","70","70","test","1","165","165","8","",""
"null","255041","pSARL_v2","pSARL_v2gwb9fnno","5bc0ac845a09ea00012e2d30","freq_resp","img/green_2bandit_b.png","70","70","test","","","","8","",""
"null","255211","pSARL_v2","pSARL_v2gwb9fnno","5bc0ac845a09ea00012e2d30","fixation","img/fixation.png","null","","test","","","","","",""
"275","255490","pSARL_v2","pSARL_v2gwb9fnno","5bc0ac845a09ea00012e2d30","freq","img/green_2bandit_b2.png","70","70","test","1","166","166","8","",""
"null","256026","pSARL_v2","pSARL_v2gwb9fnno","5bc0ac845a09ea00012e2d30","freq_resp","img/green_2bandit_b.png","70","70","test","","","","8","",""
"null","256195","pSARL_v2","pSARL_v2gwb9fnno","5bc0ac845a09ea00012e2d30","fixation","img/fixation.png","null","","test","","","","","",""
"384","256582","pSARL_v2","pSARL_v2gwb9fnno","5bc0ac845a09ea00012e2d30","infreq","img/orange_2bandit_b2.png","68","68","test","1","167","167","8","",""
"null","257012","pSARL_v2","pSARL_v2gwb9fnno","5bc0ac845a09ea00012e2d30","infreq_resp","img/orange_2bandit_b.png","68","68","test","","","","8","",""
"null","257167","pSARL_v2","pSARL_v2gwb9fnno","5bc0ac845a09ea00012e2d30","fixation","img/fixation.png","null","","test","","","","","",""
"408","257579","pSARL_v2","pSARL_v2gwb9fnno","5bc0ac845a09ea00012e2d30","infreq","img/orange_2bandit_b2.png","68","68","test","1","168","168","8","",""
"null","257983","pSARL_v2","pSARL_v2gwb9fnno","5bc0ac845a09ea00012e2d30","infreq_resp","img/orange_2bandit_b.png","68","68","test","","","","8","",""
"null","258153","pSARL_v2","pSARL_v2gwb9fnno","5bc0ac845a09ea00012e2d30","fixation","img/fixation.png","null","","test","","","","","",""
"319","258475","pSARL_v2","pSARL_v2gwb9fnno","5bc0ac845a09ea00012e2d30","freq","img/green_2bandit_b2.png","70","70","test","1","169","169","8","",""
"null","258971","pSARL_v2","pSARL_v2gwb9fnno","5bc0ac845a09ea00012e2d30","freq_resp","img/green_2bandit_b.png","70","70","test","","","","8","",""
"null","259142","pSARL_v2","pSARL_v2gwb9fnno","5bc0ac845a09ea00012e2d30","fixation","img/fixation.png","null","","test","","","","","",""
"311","259458","pSARL_v2","pSARL_v2gwb9fnno","5bc0ac845a09ea00012e2d30","freq","img/green_2bandit_b2.png","70","70","test","1","170","170","8","",""
"null","259958","pSARL_v2","pSARL_v2gwb9fnno","5bc0ac845a09ea00012e2d30","freq_resp","img/green_2bandit_b.png","70","70","test","","","","8","",""
"null","260113","pSARL_v2","pSARL_v2gwb9fnno","5bc0ac845a09ea00012e2d30","fixation","img/fixation.png","null","","test","","","","","",""
"312","260428","pSARL_v2","pSARL_v2gwb9fnno","5bc0ac845a09ea00012e2d30","freq","img/green_2bandit_b2.png","70","70","test","1","171","171","8","",""
"null","260930","pSARL_v2","pSARL_v2gwb9fnno","5bc0ac845a09ea00012e2d30","freq_resp","img/green_2bandit_b.png","70","70","test","","","","8","",""
"null","261084","pSARL_v2","pSARL_v2gwb9fnno","5bc0ac845a09ea00012e2d30","fixation","img/fixation.png","null","","test","","","","","",""
"292","261381","pSARL_v2","pSARL_v2gwb9fnno","5bc0ac845a09ea00012e2d30","freq","img/green_2bandit_b2.png","70","70","test","1","172","172","8","",""
"null","261903","pSARL_v2","pSARL_v2gwb9fnno","5bc0ac845a09ea00012e2d30","freq_resp","img/green_2bandit_b.png","70","70","test","","","","8","",""
"null","262057","pSARL_v2","pSARL_v2gwb9fnno","5bc0ac845a09ea00012e2d30","fixation","img/fixation.png","null","","test","","","","","",""
"276","262336","pSARL_v2","pSARL_v2gwb9fnno","5bc0ac845a09ea00012e2d30","freq","img/green_2bandit_b2.png","70","70","test","1","173","173","8","",""
"null","262873","pSARL_v2","pSARL_v2gwb9fnno","5bc0ac845a09ea00012e2d30","freq_resp","img/green_2bandit_b.png","70","70","test","","","","8","",""
"null","263042","pSARL_v2","pSARL_v2gwb9fnno","5bc0ac845a09ea00012e2d30","fixation","img/fixation.png","null","","test","","","","","",""
"252","263298","pSARL_v2","pSARL_v2gwb9fnno","5bc0ac845a09ea00012e2d30","freq","img/green_2bandit_b2.png","70","70","test","1","174","174","8","",""
"null","263862","pSARL_v2","pSARL_v2gwb9fnno","5bc0ac845a09ea00012e2d30","freq_resp","img/green_2bandit_b.png","70","70","test","","","","8","",""
"null","264016","pSARL_v2","pSARL_v2gwb9fnno","5bc0ac845a09ea00012e2d30","fixation","img/fixation.png","null","","test","","","","","",""
"254","264272","pSARL_v2","pSARL_v2gwb9fnno","5bc0ac845a09ea00012e2d30","freq","img/green_2bandit_b2.png","70","70","test","1","175","175","8","",""
"null","264833","pSARL_v2","pSARL_v2gwb9fnno","5bc0ac845a09ea00012e2d30","freq_resp","img/green_2bandit_b.png","70","70","test","","","","8","",""
"null","265001","pSARL_v2","pSARL_v2gwb9fnno","5bc0ac845a09ea00012e2d30","fixation","img/fixation.png","null","","test","","","","","",""
"232","265237","pSARL_v2","pSARL_v2gwb9fnno","5bc0ac845a09ea00012e2d30","freq","img/green_2bandit_b2.png","70","70","test","1","176","176","8","",""
"null","265819","pSARL_v2","pSARL_v2gwb9fnno","5bc0ac845a09ea00012e2d30","freq_resp","img/green_2bandit_b.png","70","70","test","","","","8","",""
"null","265974","pSARL_v2","pSARL_v2gwb9fnno","5bc0ac845a09ea00012e2d30","fixation","img/fixation.png","null","","test","","","","","",""
"265","266243","pSARL_v2","pSARL_v2gwb9fnno","5bc0ac845a09ea00012e2d30","freq","img/green_2bandit_b2.png","70","70","test","1","177","177","8","",""
"null","266792","pSARL_v2","pSARL_v2gwb9fnno","5bc0ac845a09ea00012e2d30","freq_resp","img/green_2bandit_b.png","70","70","test","","","","8","",""
"null","266946","pSARL_v2","pSARL_v2gwb9fnno","5bc0ac845a09ea00012e2d30","fixation","img/fixation.png","null","","test","","","","","",""
"267","267217","pSARL_v2","pSARL_v2gwb9fnno","5bc0ac845a09ea00012e2d30","freq","img/green_2bandit_b2.png","70","70","test","1","178","178","8","",""
"null","267764","pSARL_v2","pSARL_v2gwb9fnno","5bc0ac845a09ea00012e2d30","freq_resp","img/green_2bandit_b.png","70","70","test","","","","8","",""
"null","267919","pSARL_v2","pSARL_v2gwb9fnno","5bc0ac845a09ea00012e2d30","fixation","img/fixation.png","null","","test","","","","","",""
"285","268208","pSARL_v2","pSARL_v2gwb9fnno","5bc0ac845a09ea00012e2d30","freq","img/green_2bandit_b2.png","70","70","test","1","179","179","8","",""
"null","268735","pSARL_v2","pSARL_v2gwb9fnno","5bc0ac845a09ea00012e2d30","freq_resp","img/green_2bandit_b.png","70","70","test","","","","8","",""
"null","268889","pSARL_v2","pSARL_v2gwb9fnno","5bc0ac845a09ea00012e2d30","fixation","img/fixation.png","null","","test","","","","","",""
"270","269162","pSARL_v2","pSARL_v2gwb9fnno","5bc0ac845a09ea00012e2d30","freq","img/green_2bandit_b2.png","70","70","test","1","180","180","8","",""
"null","269707","pSARL_v2","pSARL_v2gwb9fnno","5bc0ac845a09ea00012e2d30","freq_resp","img/green_2bandit_b.png","70","70","test","","","","8","",""
"null","269876","pSARL_v2","pSARL_v2gwb9fnno","5bc0ac845a09ea00012e2d30","fixation","img/fixation.png","null","","test","","","","","",""
"238","270117","pSARL_v2","pSARL_v2gwb9fnno","5bc0ac845a09ea00012e2d30","freq","img/green_2bandit_b2.png","70","70","test","1","181","181","8","",""
"null","270694","pSARL_v2","pSARL_v2gwb9fnno","5bc0ac845a09ea00012e2d30","freq_resp","img/green_2bandit_b.png","70","70","test","","","","8","",""
"null","270848","pSARL_v2","pSARL_v2gwb9fnno","5bc0ac845a09ea00012e2d30","fixation","img/fixation.png","null","","test","","","","","",""
"227","271079","pSARL_v2","pSARL_v2gwb9fnno","5bc0ac845a09ea00012e2d30","freq","img/green_2bandit_b2.png","70","70","test","1","182","182","8","",""
"null","271667","pSARL_v2","pSARL_v2gwb9fnno","5bc0ac845a09ea00012e2d30","freq_resp","img/green_2bandit_b.png","70","70","test","","","","8","",""
"null","271822","pSARL_v2","pSARL_v2gwb9fnno","5bc0ac845a09ea00012e2d30","fixation","img/fixation.png","null","","test","","","","","",""
"578","272405","pSARL_v2","pSARL_v2gwb9fnno","5bc0ac845a09ea00012e2d30","reward","img/slot.png","74","","test","","","","","",""
"null","273165","pSARL_v2","pSARL_v2gwb9fnno","5bc0ac845a09ea00012e2d30","points","<div class=""verylowPoints""> -4 </div>","null","na","test","","","","8","-4","7"
"495","273665","pSARL_v2","pSARL_v2gwb9fnno","5bc0ac845a09ea00012e2d30","freq","img/green_2bandit_b2.png","70","70","test","1","183","183","9","",""
"null","273982","pSARL_v2","pSARL_v2gwb9fnno","5bc0ac845a09ea00012e2d30","freq_resp","img/green_2bandit_b.png","70","70","test","","","","9","",""
"null","274152","pSARL_v2","pSARL_v2gwb9fnno","5bc0ac845a09ea00012e2d30","fixation","img/fixation.png","null","","test","","","","","",""
"248","274404","pSARL_v2","pSARL_v2gwb9fnno","5bc0ac845a09ea00012e2d30","freq","img/green_2bandit_b2.png","70","70","test","1","184","184","9","",""
"null","274969","pSARL_v2","pSARL_v2gwb9fnno","5bc0ac845a09ea00012e2d30","freq_resp","img/green_2bandit_b.png","70","70","test","","","","9","",""
"null","275138","pSARL_v2","pSARL_v2gwb9fnno","5bc0ac845a09ea00012e2d30","fixation","img/fixation.png","null","","test","","","","","",""
"217","275359","pSARL_v2","pSARL_v2gwb9fnno","5bc0ac845a09ea00012e2d30","freq","img/green_2bandit_b2.png","70","70","test","1","185","185","9","",""
"null","275956","pSARL_v2","pSARL_v2gwb9fnno","5bc0ac845a09ea00012e2d30","freq_resp","img/green_2bandit_b.png","70","70","test","","","","9","",""
"null","276125","pSARL_v2","pSARL_v2gwb9fnno","5bc0ac845a09ea00012e2d30","fixation","img/fixation.png","null","","test","","","","","",""
"250","276379","pSARL_v2","pSARL_v2gwb9fnno","5bc0ac845a09ea00012e2d30","freq","img/green_2bandit_b2.png","70","70","test","1","186","186","9","",""
"null","276942","pSARL_v2","pSARL_v2gwb9fnno","5bc0ac845a09ea00012e2d30","freq_resp","img/green_2bandit_b.png","70","70","test","","","","9","",""
"null","277096","pSARL_v2","pSARL_v2gwb9fnno","5bc0ac845a09ea00012e2d30","fixation","img/fixation.png","null","","test","","","","","",""
"238","277338","pSARL_v2","pSARL_v2gwb9fnno","5bc0ac845a09ea00012e2d30","freq","img/green_2bandit_b2.png","70","70","test","1","187","187","9","",""
"null","277914","pSARL_v2","pSARL_v2gwb9fnno","5bc0ac845a09ea00012e2d30","freq_resp","img/green_2bandit_b.png","70","70","test","","","","9","",""
"null","278084","pSARL_v2","pSARL_v2gwb9fnno","5bc0ac845a09ea00012e2d30","fixation","img/fixation.png","null","","test","","","","","",""
"402","278490","pSARL_v2","pSARL_v2gwb9fnno","5bc0ac845a09ea00012e2d30","infreq","img/orange_2bandit_b2.png","68","68","test","1","188","188","9","",""
"null","278902","pSARL_v2","pSARL_v2gwb9fnno","5bc0ac845a09ea00012e2d30","infreq_resp","img/orange_2bandit_b.png","68","68","test","","","","9","",""
"null","279057","pSARL_v2","pSARL_v2gwb9fnno","5bc0ac845a09ea00012e2d30","fixation","img/fixation.png","null","","test","","","","","",""
"327","279387","pSARL_v2","pSARL_v2gwb9fnno","5bc0ac845a09ea00012e2d30","freq","img/green_2bandit_b2.png","70","70","test","1","189","189","9","",""
"null","279875","pSARL_v2","pSARL_v2gwb9fnno","5bc0ac845a09ea00012e2d30","freq_resp","img/green_2bandit_b.png","70","70","test","","","","9","",""
"null","280044","pSARL_v2","pSARL_v2gwb9fnno","5bc0ac845a09ea00012e2d30","fixation","img/fixation.png","null","","test","","","","","",""
"254","280302","pSARL_v2","pSARL_v2gwb9fnno","5bc0ac845a09ea00012e2d30","freq","img/green_2bandit_b2.png","70","70","test","1","190","190","9","",""
"null","280862","pSARL_v2","pSARL_v2gwb9fnno","5bc0ac845a09ea00012e2d30","freq_resp","img/green_2bandit_b.png","70","70","test","","","","9","",""
"null","281018","pSARL_v2","pSARL_v2gwb9fnno","5bc0ac845a09ea00012e2d30","fixation","img/fixation.png","null","","test","","","","","",""
"256","281276","pSARL_v2","pSARL_v2gwb9fnno","5bc0ac845a09ea00012e2d30","freq","img/green_2bandit_b2.png","70","70","test","1","191","191","9","",""
"null","281833","pSARL_v2","pSARL_v2gwb9fnno","5bc0ac845a09ea00012e2d30","freq_resp","img/green_2bandit_b.png","70","70","test","","","","9","",""
"null","281989","pSARL_v2","pSARL_v2gwb9fnno","5bc0ac845a09ea00012e2d30","fixation","img/fixation.png","null","","test","","","","","",""
"238","282231","pSARL_v2","pSARL_v2gwb9fnno","5bc0ac845a09ea00012e2d30","freq","img/green_2bandit_b2.png","70","70","test","1","192","192","9","",""
"null","282802","pSARL_v2","pSARL_v2gwb9fnno","5bc0ac845a09ea00012e2d30","freq_resp","img/green_2bandit_b.png","70","70","test","","","","9","",""
"null","282955","pSARL_v2","pSARL_v2gwb9fnno","5bc0ac845a09ea00012e2d30","fixation","img/fixation.png","null","","test","","","","","",""
"217","283177","pSARL_v2","pSARL_v2gwb9fnno","5bc0ac845a09ea00012e2d30","freq","img/green_2bandit_b2.png","70","70","test","1","193","193","9","",""
"null","283775","pSARL_v2","pSARL_v2gwb9fnno","5bc0ac845a09ea00012e2d30","freq_resp","img/green_2bandit_b.png","70","70","test","","","","9","",""
"null","283930","pSARL_v2","pSARL_v2gwb9fnno","5bc0ac845a09ea00012e2d30","fixation","img/fixation.png","null","","test","","","","","",""
"236","284171","pSARL_v2","pSARL_v2gwb9fnno","5bc0ac845a09ea00012e2d30","freq","img/green_2bandit_b2.png","70","70","test","1","194","194","9","",""
"null","284749","pSARL_v2","pSARL_v2gwb9fnno","5bc0ac845a09ea00012e2d30","freq_resp","img/green_2bandit_b.png","70","70","test","","","","9","",""
"null","284904","pSARL_v2","pSARL_v2gwb9fnno","5bc0ac845a09ea00012e2d30","fixation","img/fixation.png","null","","test","","","","","",""
"221","285130","pSARL_v2","pSARL_v2gwb9fnno","5bc0ac845a09ea00012e2d30","freq","img/green_2bandit_b2.png","70","70","test","1","195","195","9","",""
"null","285714","pSARL_v2","pSARL_v2gwb9fnno","5bc0ac845a09ea00012e2d30","freq_resp","img/green_2bandit_b.png","70","70","test","","","","9","",""
"null","285869","pSARL_v2","pSARL_v2gwb9fnno","5bc0ac845a09ea00012e2d30","fixation","img/fixation.png","null","","test","","","","","",""
"227","286100","pSARL_v2","pSARL_v2gwb9fnno","5bc0ac845a09ea00012e2d30","freq","img/green_2bandit_b2.png","70","70","test","1","196","196","9","",""
"null","286686","pSARL_v2","pSARL_v2gwb9fnno","5bc0ac845a09ea00012e2d30","freq_resp","img/green_2bandit_b.png","70","70","test","","","","9","",""
"null","286840","pSARL_v2","pSARL_v2gwb9fnno","5bc0ac845a09ea00012e2d30","fixation","img/fixation.png","null","","test","","","","","",""
"219","287061","pSARL_v2","pSARL_v2gwb9fnno","5bc0ac845a09ea00012e2d30","freq","img/green_2bandit_b2.png","70","70","test","1","197","197","9","",""
"null","287660","pSARL_v2","pSARL_v2gwb9fnno","5bc0ac845a09ea00012e2d30","freq_resp","img/green_2bandit_b.png","70","70","test","","","","9","",""
"null","287814","pSARL_v2","pSARL_v2gwb9fnno","5bc0ac845a09ea00012e2d30","fixation","img/fixation.png","null","","test","","","","","",""
"233","288051","pSARL_v2","pSARL_v2gwb9fnno","5bc0ac845a09ea00012e2d30","freq","img/green_2bandit_b2.png","70","70","test","1","198","198","9","",""
"null","288631","pSARL_v2","pSARL_v2gwb9fnno","5bc0ac845a09ea00012e2d30","freq_resp","img/green_2bandit_b.png","70","70","test","","","","9","",""
"null","288799","pSARL_v2","pSARL_v2gwb9fnno","5bc0ac845a09ea00012e2d30","fixation","img/fixation.png","null","","test","","","","","",""
"375","289178","pSARL_v2","pSARL_v2gwb9fnno","5bc0ac845a09ea00012e2d30","infreq","img/orange_2bandit_b2.png","68","68","test","1","199","199","9","",""
"null","289614","pSARL_v2","pSARL_v2gwb9fnno","5bc0ac845a09ea00012e2d30","infreq_resp","img/orange_2bandit_b.png","68","68","test","","","","9","",""
"null","289770","pSARL_v2","pSARL_v2gwb9fnno","5bc0ac845a09ea00012e2d30","fixation","img/fixation.png","null","","test","","","","","",""
"370","290144","pSARL_v2","pSARL_v2gwb9fnno","5bc0ac845a09ea00012e2d30","freq","img/green_2bandit_b2.png","70","70","test","1","200","200","9","",""
"null","290588","pSARL_v2","pSARL_v2gwb9fnno","5bc0ac845a09ea00012e2d30","freq_resp","img/green_2bandit_b.png","70","70","test","","","","9","",""
"null","290758","pSARL_v2","pSARL_v2gwb9fnno","5bc0ac845a09ea00012e2d30","fixation","img/fixation.png","null","","test","","","","","",""
"238","291000","pSARL_v2","pSARL_v2gwb9fnno","5bc0ac845a09ea00012e2d30","freq","img/green_2bandit_b2.png","70","70","test","1","201","201","9","",""
"null","291574","pSARL_v2","pSARL_v2gwb9fnno","5bc0ac845a09ea00012e2d30","freq_resp","img/green_2bandit_b.png","70","70","test","","","","9","",""
"null","291743","pSARL_v2","pSARL_v2gwb9fnno","5bc0ac845a09ea00012e2d30","fixation","img/fixation.png","null","","test","","","","","",""
"235","291982","pSARL_v2","pSARL_v2gwb9fnno","5bc0ac845a09ea00012e2d30","freq","img/green_2bandit_b2.png","70","70","test","1","202","202","9","",""
"null","292563","pSARL_v2","pSARL_v2gwb9fnno","5bc0ac845a09ea00012e2d30","freq_resp","img/green_2bandit_b.png","70","70","test","","","","9","",""
"null","292717","pSARL_v2","pSARL_v2gwb9fnno","5bc0ac845a09ea00012e2d30","fixation","img/fixation.png","null","","test","","","","","",""
"450","293170","pSARL_v2","pSARL_v2gwb9fnno","5bc0ac845a09ea00012e2d30","reward","img/slot.png","74","","test","","","","","",""
"null","293937","pSARL_v2","pSARL_v2gwb9fnno","5bc0ac845a09ea00012e2d30","points","<div class=""verylowPoints""> -3 </div>","null","na","test","","","","9","-3","8"
"430","294371","pSARL_v2","pSARL_v2gwb9fnno","5bc0ac845a09ea00012e2d30","freq","img/green_2bandit_b2.png","70","70","test","1","203","203","10","",""
"null","294755","pSARL_v2","pSARL_v2gwb9fnno","5bc0ac845a09ea00012e2d30","freq_resp","img/green_2bandit_b.png","70","70","test","","","","10","",""
"null","294911","pSARL_v2","pSARL_v2gwb9fnno","5bc0ac845a09ea00012e2d30","fixation","img/fixation.png","null","","test","","","","","",""
"250","295166","pSARL_v2","pSARL_v2gwb9fnno","5bc0ac845a09ea00012e2d30","freq","img/green_2bandit_b2.png","70","70","test","1","204","204","10","",""
"null","295728","pSARL_v2","pSARL_v2gwb9fnno","5bc0ac845a09ea00012e2d30","freq_resp","img/green_2bandit_b.png","70","70","test","","","","10","",""
"null","295882","pSARL_v2","pSARL_v2gwb9fnno","5bc0ac845a09ea00012e2d30","fixation","img/fixation.png","null","","test","","","","","",""
"266","296153","pSARL_v2","pSARL_v2gwb9fnno","5bc0ac845a09ea00012e2d30","freq","img/green_2bandit_b2.png","70","70","test","1","205","205","10","",""
"null","296699","pSARL_v2","pSARL_v2gwb9fnno","5bc0ac845a09ea00012e2d30","freq_resp","img/green_2bandit_b.png","70","70","test","","","","10","",""
"null","296854","pSARL_v2","pSARL_v2gwb9fnno","5bc0ac845a09ea00012e2d30","fixation","img/fixation.png","null","","test","","","","","",""
"372","297229","pSARL_v2","pSARL_v2gwb9fnno","5bc0ac845a09ea00012e2d30","infreq","img/orange_2bandit_b2.png","68","68","test","1","206","206","10","",""
"null","297670","pSARL_v2","pSARL_v2gwb9fnno","5bc0ac845a09ea00012e2d30","infreq_resp","img/orange_2bandit_b.png","68","68","test","","","","10","",""
"null","297825","pSARL_v2","pSARL_v2gwb9fnno","5bc0ac845a09ea00012e2d30","fixation","img/fixation.png","null","","test","","","","","",""
"447","298277","pSARL_v2","pSARL_v2gwb9fnno","5bc0ac845a09ea00012e2d30","freq","img/green_2bandit_b2.png","70","70","test","1","207","207","10","",""
"null","298645","pSARL_v2","pSARL_v2gwb9fnno","5bc0ac845a09ea00012e2d30","freq_resp","img/green_2bandit_b.png","70","70","test","","","","10","",""
"null","298799","pSARL_v2","pSARL_v2gwb9fnno","5bc0ac845a09ea00012e2d30","fixation","img/fixation.png","null","","test","","","","","",""
"318","299121","pSARL_v2","pSARL_v2gwb9fnno","5bc0ac845a09ea00012e2d30","freq","img/green_2bandit_b2.png","70","70","test","1","208","208","10","",""
"null","299617","pSARL_v2","pSARL_v2gwb9fnno","5bc0ac845a09ea00012e2d30","freq_resp","img/green_2bandit_b.png","70","70","test","","","","10","",""
"null","299772","pSARL_v2","pSARL_v2gwb9fnno","5bc0ac845a09ea00012e2d30","fixation","img/fixation.png","null","","test","","","","","",""
"242","300018","pSARL_v2","pSARL_v2gwb9fnno","5bc0ac845a09ea00012e2d30","freq","img/green_2bandit_b2.png","70","70","test","1","209","209","10","",""
"null","300591","pSARL_v2","pSARL_v2gwb9fnno","5bc0ac845a09ea00012e2d30","freq_resp","img/green_2bandit_b.png","70","70","test","","","","10","",""
"null","300746","pSARL_v2","pSARL_v2gwb9fnno","5bc0ac845a09ea00012e2d30","fixation","img/fixation.png","null","","test","","","","","",""
"258","301008","pSARL_v2","pSARL_v2gwb9fnno","5bc0ac845a09ea00012e2d30","freq","img/green_2bandit_b2.png","70","70","test","1","210","210","10","",""
"null","301561","pSARL_v2","pSARL_v2gwb9fnno","5bc0ac845a09ea00012e2d30","freq_resp","img/green_2bandit_b.png","70","70","test","","","","10","",""
"null","301715","pSARL_v2","pSARL_v2gwb9fnno","5bc0ac845a09ea00012e2d30","fixation","img/fixation.png","null","","test","","","","","",""
"229","301949","pSARL_v2","pSARL_v2gwb9fnno","5bc0ac845a09ea00012e2d30","freq","img/green_2bandit_b2.png","70","70","test","1","211","211","10","",""
"null","302531","pSARL_v2","pSARL_v2gwb9fnno","5bc0ac845a09ea00012e2d30","freq_resp","img/green_2bandit_b.png","70","70","test","","","","10","",""
"null","302685","pSARL_v2","pSARL_v2gwb9fnno","5bc0ac845a09ea00012e2d30","fixation","img/fixation.png","null","","test","","","","","",""
"234","302923","pSARL_v2","pSARL_v2gwb9fnno","5bc0ac845a09ea00012e2d30","freq","img/green_2bandit_b2.png","70","70","test","1","212","212","10","",""
"null","303503","pSARL_v2","pSARL_v2gwb9fnno","5bc0ac845a09ea00012e2d30","freq_resp","img/green_2bandit_b.png","70","70","test","","","","10","",""
"null","303671","pSARL_v2","pSARL_v2gwb9fnno","5bc0ac845a09ea00012e2d30","fixation","img/fixation.png","null","","test","","","","","",""
