"rt","time_elapsed","expId","subject","prolificID","trialType","stimulus","key_press","corrresp","phase","corr","trialNum","attentionRunNum","blockNum","points","rlNum"
"569303.399999857","569307","pSARL_v2","pSARL_v29savow7s","574dc90512d86b000f833ab0","","","","","","","","","","",""
"","572083","pSARL_v2","pSARL_v29savow7s","574dc90512d86b000f833ab0","fullscreen","","","","","","","","","",""
"1151340.5","1723427","pSARL_v2","pSARL_v29savow7s","574dc90512d86b000f833ab0","","","","","","","","","","",""
"694.8999998569489","1724127","pSARL_v2","pSARL_v29savow7s","574dc90512d86b000f833ab0","freqPrac","img/green_2bandit_a2.png","70","70","prac","1","","","","",""
"694.8999998569489","1724239","pSARL_v2","pSARL_v29savow7s","574dc90512d86b000f833ab0","freqPrac_resp","img/green_2bandit_a.png","70","70","prac","","","","","",""
"null","1724393","pSARL_v2","pSARL_v29savow7s","574dc90512d86b000f833ab0","fixation","img/fixation.png","null","","prac","","","","","",""
"777.6000001430511","1725174","pSARL_v2","pSARL_v29savow7s","574dc90512d86b000f833ab0","infreqPrac","img/orange_2bandit_a2.png","68","68","prac","1","","","","",""
"777.6000001430511","1725200","pSARL_v2","pSARL_v29savow7s","574dc90512d86b000f833ab0","infreqPrac_resp","img/orange_2bandit_a.png","68","68","prac","","","","","",""
"null","1725354","pSARL_v2","pSARL_v29savow7s","574dc90512d86b000f833ab0","fixation","img/fixation.png","null","","prac","","","","","",""
"416.59999990463257","1725774","pSARL_v2","pSARL_v29savow7s","574dc90512d86b000f833ab0","freqPrac","img/green_2bandit_a2.png","70","70","prac","1","","","","",""
"416.59999990463257","1726161","pSARL_v2","pSARL_v29savow7s","574dc90512d86b000f833ab0","freqPrac_resp","img/green_2bandit_a.png","70","70","prac","","","","","",""
"null","1726314","pSARL_v2","pSARL_v29savow7s","574dc90512d86b000f833ab0","fixation","img/fixation.png","null","","prac","","","","","",""
"null","1727118","pSARL_v2","pSARL_v29savow7s","574dc90512d86b000f833ab0","infreqPrac","img/orange_2bandit_a2.png","null","68","prac","0","","","","",""
"null","1728122","pSARL_v2","pSARL_v29savow7s","574dc90512d86b000f833ab0","feedback","img/tooSlow.png","null","na","prac","","","","","",""
"null","1728284","pSARL_v2","pSARL_v29savow7s","574dc90512d86b000f833ab0","fixation","img/fixation.png","null","","prac","","","","","",""
"510.89999985694885","1728798","pSARL_v2","pSARL_v29savow7s","574dc90512d86b000f833ab0","infreqPrac","img/orange_2bandit_a2.png","68","68","prac","1","","","","",""
"510.89999985694885","1729090","pSARL_v2","pSARL_v29savow7s","574dc90512d86b000f833ab0","infreqPrac_resp","img/orange_2bandit_a.png","68","68","prac","","","","","",""
"null","1729244","pSARL_v2","pSARL_v29savow7s","574dc90512d86b000f833ab0","fixation","img/fixation.png","null","","prac","","","","","",""
"447.2999999523163","1729694","pSARL_v2","pSARL_v29savow7s","574dc90512d86b000f833ab0","infreqPrac","img/orange_2bandit_a2.png","68","68","prac","1","","","","",""
"447.2999999523163","1730050","pSARL_v2","pSARL_v29savow7s","574dc90512d86b000f833ab0","infreqPrac_resp","img/orange_2bandit_a.png","68","68","prac","","","","","",""
"null","1730203","pSARL_v2","pSARL_v29savow7s","574dc90512d86b000f833ab0","fixation","img/fixation.png","null","","prac","","","","","",""
"415.89999985694885","1730622","pSARL_v2","pSARL_v29savow7s","574dc90512d86b000f833ab0","freqPrac","img/green_2bandit_a2.png","70","70","prac","1","","","","",""
"415.89999985694885","1731009","pSARL_v2","pSARL_v29savow7s","574dc90512d86b000f833ab0","freqPrac_resp","img/green_2bandit_a.png","70","70","prac","","","","","",""
"null","1731163","pSARL_v2","pSARL_v29savow7s","574dc90512d86b000f833ab0","fixation","img/fixation.png","null","","prac","","","","","",""
"440.10000014305115","1731606","pSARL_v2","pSARL_v29savow7s","574dc90512d86b000f833ab0","infreqPrac","img/orange_2bandit_a2.png","68","68","prac","1","","","","",""
"440.10000014305115","1731968","pSARL_v2","pSARL_v29savow7s","574dc90512d86b000f833ab0","infreqPrac_resp","img/orange_2bandit_a.png","68","68","prac","","","","","",""
"null","1732122","pSARL_v2","pSARL_v29savow7s","574dc90512d86b000f833ab0","fixation","img/fixation.png","null","","prac","","","","","",""
"416.90000009536743","1732542","pSARL_v2","pSARL_v29savow7s","574dc90512d86b000f833ab0","freqPrac","img/green_2bandit_a2.png","70","70","prac","1","","","","",""
"416.90000009536743","1732929","pSARL_v2","pSARL_v29savow7s","574dc90512d86b000f833ab0","freqPrac_resp","img/green_2bandit_a.png","70","70","prac","","","","","",""
"null","1733082","pSARL_v2","pSARL_v29savow7s","574dc90512d86b000f833ab0","fixation","img/fixation.png","null","","prac","","","","","",""
"440.7999999523163","1733526","pSARL_v2","pSARL_v29savow7s","574dc90512d86b000f833ab0","freqPrac","img/green_2bandit_a2.png","70","70","prac","1","","","","",""
"440.7999999523163","1733889","pSARL_v2","pSARL_v29savow7s","574dc90512d86b000f833ab0","freqPrac_resp","img/green_2bandit_a.png","70","70","prac","","","","","",""
"null","1734042","pSARL_v2","pSARL_v29savow7s","574dc90512d86b000f833ab0","fixation","img/fixation.png","null","","prac","","","","","",""
"55489","1789534","pSARL_v2","pSARL_v29savow7s","574dc90512d86b000f833ab0","","","","","prac","","","","","",""
"892.4000000953674","1790430","pSARL_v2","pSARL_v29savow7s","574dc90512d86b000f833ab0","rewardPractice","img/slot.png","74","","prac","","","","","",""
"null","1791183","pSARL_v2","pSARL_v29savow7s","574dc90512d86b000f833ab0","feedback","<div class=""veryhighPoints""> +15 </div>","null","na","prac","","","","","",""
"null","1791337","pSARL_v2","pSARL_v29savow7s","574dc90512d86b000f833ab0","fixation","img/fixation.png","null","","prac","","","","","",""
"2394.899999856949","1793734","pSARL_v2","pSARL_v29savow7s","574dc90512d86b000f833ab0","","","","","prac","","","","","",""
"468.7000000476837","1794206","pSARL_v2","pSARL_v29savow7s","574dc90512d86b000f833ab0","freq","img/green_2bandit_a2.png","70","70","test","1","1","1","1","",""
"null","1794541","pSARL_v2","pSARL_v29savow7s","574dc90512d86b000f833ab0","freq_resp","img/green_2bandit_a.png","70","70","test","","","","1","",""
"null","1794694","pSARL_v2","pSARL_v29savow7s","574dc90512d86b000f833ab0","fixation","img/fixation.png","null","","test","","","","","",""
"445.2999999523163","1795142","pSARL_v2","pSARL_v29savow7s","574dc90512d86b000f833ab0","infreq","img/orange_2bandit_a2.png","68","68","test","1","2","2","1","",""
"null","1795500","pSARL_v2","pSARL_v29savow7s","574dc90512d86b000f833ab0","infreq_resp","img/orange_2bandit_a.png","68","68","test","","","","1","",""
"null","1795655","pSARL_v2","pSARL_v29savow7s","574dc90512d86b000f833ab0","fixation","img/fixation.png","null","","test","","","","","",""
"492.60000014305115","1796150","pSARL_v2","pSARL_v29savow7s","574dc90512d86b000f833ab0","freq","img/green_2bandit_a2.png","70","70","test","1","3","3","1","",""
"null","1796461","pSARL_v2","pSARL_v29savow7s","574dc90512d86b000f833ab0","freq_resp","img/green_2bandit_a.png","70","70","test","","","","1","",""
"null","1796615","pSARL_v2","pSARL_v29savow7s","574dc90512d86b000f833ab0","fixation","img/fixation.png","null","","test","","","","","",""
"380","1796998","pSARL_v2","pSARL_v29savow7s","574dc90512d86b000f833ab0","freq","img/green_2bandit_a2.png","70","70","test","1","4","4","1","",""
"null","1797422","pSARL_v2","pSARL_v29savow7s","574dc90512d86b000f833ab0","freq_resp","img/green_2bandit_a.png","70","70","test","","","","1","",""
"null","1797576","pSARL_v2","pSARL_v29savow7s","574dc90512d86b000f833ab0","fixation","img/fixation.png","null","","test","","","","","",""
"339.2999999523163","1797918","pSARL_v2","pSARL_v29savow7s","574dc90512d86b000f833ab0","freq","img/green_2bandit_a2.png","70","70","test","1","5","5","1","",""
"null","1798382","pSARL_v2","pSARL_v29savow7s","574dc90512d86b000f833ab0","freq_resp","img/green_2bandit_a.png","70","70","test","","","","1","",""
"null","1798535","pSARL_v2","pSARL_v29savow7s","574dc90512d86b000f833ab0","fixation","img/fixation.png","null","","test","","","","","",""
"427.2000000476837","1798966","pSARL_v2","pSARL_v29savow7s","574dc90512d86b000f833ab0","freq","img/green_2bandit_a2.png","70","70","test","1","6","6","1","",""
"null","1799341","pSARL_v2","pSARL_v29savow7s","574dc90512d86b000f833ab0","freq_resp","img/green_2bandit_a.png","70","70","test","","","","1","",""
"null","1799495","pSARL_v2","pSARL_v29savow7s","574dc90512d86b000f833ab0","fixation","img/fixation.png","null","","test","","","","","",""
"396.09999990463257","1799894","pSARL_v2","pSARL_v29savow7s","574dc90512d86b000f833ab0","freq","img/green_2bandit_a2.png","70","70","test","1","7","7","1","",""
"null","1800301","pSARL_v2","pSARL_v29savow7s","574dc90512d86b000f833ab0","freq_resp","img/green_2bandit_a.png","70","70","test","","","","1","",""
"null","1800455","pSARL_v2","pSARL_v29savow7s","574dc90512d86b000f833ab0","fixation","img/fixation.png","null","","test","","","","","",""
"348.2999999523163","1800806","pSARL_v2","pSARL_v29savow7s","574dc90512d86b000f833ab0","freq","img/green_2bandit_a2.png","70","70","test","1","8","8","1","",""
"null","1801261","pSARL_v2","pSARL_v29savow7s","574dc90512d86b000f833ab0","freq_resp","img/green_2bandit_a.png","70","70","test","","","","1","",""
"null","1801415","pSARL_v2","pSARL_v29savow7s","574dc90512d86b000f833ab0","fixation","img/fixation.png","null","","test","","","","","",""
"412","1801830","pSARL_v2","pSARL_v29savow7s","574dc90512d86b000f833ab0","freq","img/green_2bandit_a2.png","70","70","test","1","9","9","1","",""
"null","1802222","pSARL_v2","pSARL_v29savow7s","574dc90512d86b000f833ab0","freq_resp","img/green_2bandit_a.png","70","70","test","","","","1","",""
"null","1802375","pSARL_v2","pSARL_v29savow7s","574dc90512d86b000f833ab0","fixation","img/fixation.png","null","","test","","","","","",""
"315.7999999523163","1802694","pSARL_v2","pSARL_v29savow7s","574dc90512d86b000f833ab0","freq","img/green_2bandit_a2.png","70","70","test","1","10","10","1","",""
"null","1803182","pSARL_v2","pSARL_v29savow7s","574dc90512d86b000f833ab0","freq_resp","img/green_2bandit_a.png","70","70","test","","","","1","",""
"null","1803335","pSARL_v2","pSARL_v29savow7s","574dc90512d86b000f833ab0","fixation","img/fixation.png","null","","test","","","","","",""
"403.7000000476837","1803742","pSARL_v2","pSARL_v29savow7s","574dc90512d86b000f833ab0","infreq","img/orange_2bandit_a2.png","68","68","test","1","11","11","1","",""
"null","1804144","pSARL_v2","pSARL_v29savow7s","574dc90512d86b000f833ab0","infreq_resp","img/orange_2bandit_a.png","68","68","test","","","","1","",""
"null","1804300","pSARL_v2","pSARL_v29savow7s","574dc90512d86b000f833ab0","fixation","img/fixation.png","null","","test","","","","","",""
"423.5","1804727","pSARL_v2","pSARL_v29savow7s","574dc90512d86b000f833ab0","freq","img/green_2bandit_a2.png","70","70","test","1","12","12","1","",""
"null","1805107","pSARL_v2","pSARL_v29savow7s","574dc90512d86b000f833ab0","freq_resp","img/green_2bandit_a.png","70","70","test","","","","1","",""
"null","1805260","pSARL_v2","pSARL_v29savow7s","574dc90512d86b000f833ab0","fixation","img/fixation.png","null","","test","","","","","",""
"407","1805670","pSARL_v2","pSARL_v29savow7s","574dc90512d86b000f833ab0","freq","img/green_2bandit_a2.png","70","70","test","1","13","13","1","",""
"null","1806067","pSARL_v2","pSARL_v29savow7s","574dc90512d86b000f833ab0","freq_resp","img/green_2bandit_a.png","70","70","test","","","","1","",""
"null","1806227","pSARL_v2","pSARL_v29savow7s","574dc90512d86b000f833ab0","fixation","img/fixation.png","null","","test","","","","","",""
"343.80000019073486","1806574","pSARL_v2","pSARL_v29savow7s","574dc90512d86b000f833ab0","freq","img/green_2bandit_a2.png","70","70","test","1","14","14","1","",""
"null","1807034","pSARL_v2","pSARL_v29savow7s","574dc90512d86b000f833ab0","freq_resp","img/green_2bandit_a.png","70","70","test","","","","1","",""
"null","1807187","pSARL_v2","pSARL_v29savow7s","574dc90512d86b000f833ab0","fixation","img/fixation.png","null","","test","","","","","",""
"311.90000009536743","1807502","pSARL_v2","pSARL_v29savow7s","574dc90512d86b000f833ab0","freq","img/green_2bandit_a2.png","70","70","test","1","15","15","1","",""
"null","1807994","pSARL_v2","pSARL_v29savow7s","574dc90512d86b000f833ab0","freq_resp","img/green_2bandit_a.png","70","70","test","","","","1","",""
"null","1808147","pSARL_v2","pSARL_v29savow7s","574dc90512d86b000f833ab0","fixation","img/fixation.png","null","","test","","","","","",""
"271.5","1808422","pSARL_v2","pSARL_v29savow7s","574dc90512d86b000f833ab0","freq","img/green_2bandit_a2.png","70","70","test","1","16","16","1","",""
"null","1808953","pSARL_v2","pSARL_v29savow7s","574dc90512d86b000f833ab0","freq_resp","img/green_2bandit_a.png","70","70","test","","","","1","",""
"null","1809106","pSARL_v2","pSARL_v29savow7s","574dc90512d86b000f833ab0","fixation","img/fixation.png","null","","test","","","","","",""
"296.7999999523163","1809406","pSARL_v2","pSARL_v29savow7s","574dc90512d86b000f833ab0","freq","img/green_2bandit_a2.png","70","70","test","1","17","17","1","",""
"null","1809914","pSARL_v2","pSARL_v29savow7s","574dc90512d86b000f833ab0","freq_resp","img/green_2bandit_a.png","70","70","test","","","","1","",""
"null","1810068","pSARL_v2","pSARL_v29savow7s","574dc90512d86b000f833ab0","fixation","img/fixation.png","null","","test","","","","","",""
"335.10000014305115","1810406","pSARL_v2","pSARL_v29savow7s","574dc90512d86b000f833ab0","freq","img/green_2bandit_a2.png","70","70","test","1","18","18","1","",""
"null","1810874","pSARL_v2","pSARL_v29savow7s","574dc90512d86b000f833ab0","freq_resp","img/green_2bandit_a.png","70","70","test","","","","1","",""
"null","1811028","pSARL_v2","pSARL_v29savow7s","574dc90512d86b000f833ab0","fixation","img/fixation.png","null","","test","","","","","",""
"351.5","1811382","pSARL_v2","pSARL_v29savow7s","574dc90512d86b000f833ab0","freq","img/green_2bandit_a2.png","70","70","test","1","19","19","1","",""
"null","1811834","pSARL_v2","pSARL_v29savow7s","574dc90512d86b000f833ab0","freq_resp","img/green_2bandit_a.png","70","70","test","","","","1","",""
"null","1811988","pSARL_v2","pSARL_v29savow7s","574dc90512d86b000f833ab0","fixation","img/fixation.png","null","","test","","","","","",""
"310.59999990463257","1812302","pSARL_v2","pSARL_v29savow7s","574dc90512d86b000f833ab0","freq","img/green_2bandit_a2.png","70","70","test","1","20","20","1","",""
"null","1812794","pSARL_v2","pSARL_v29savow7s","574dc90512d86b000f833ab0","freq_resp","img/green_2bandit_a.png","70","70","test","","","","1","",""
"null","1812949","pSARL_v2","pSARL_v29savow7s","574dc90512d86b000f833ab0","fixation","img/fixation.png","null","","test","","","","","",""
"293.59999990463257","1813246","pSARL_v2","pSARL_v29savow7s","574dc90512d86b000f833ab0","freq","img/green_2bandit_a2.png","70","70","test","1","21","21","1","",""
"null","1813755","pSARL_v2","pSARL_v29savow7s","574dc90512d86b000f833ab0","freq_resp","img/green_2bandit_a.png","70","70","test","","","","1","",""
"null","1813909","pSARL_v2","pSARL_v29savow7s","574dc90512d86b000f833ab0","fixation","img/fixation.png","null","","test","","","","","",""
"286.2000000476837","1814198","pSARL_v2","pSARL_v29savow7s","574dc90512d86b000f833ab0","freq","img/green_2bandit_a2.png","70","70","test","1","22","22","1","",""
"null","1814714","pSARL_v2","pSARL_v29savow7s","574dc90512d86b000f833ab0","freq_resp","img/green_2bandit_a.png","70","70","test","","","","1","",""
"null","1814868","pSARL_v2","pSARL_v29savow7s","574dc90512d86b000f833ab0","fixation","img/fixation.png","null","","test","","","","","",""
"318.59999990463257","1815192","pSARL_v2","pSARL_v29savow7s","574dc90512d86b000f833ab0","freq","img/green_2bandit_a2.png","70","70","test","1","23","23","1","",""
"null","1815677","pSARL_v2","pSARL_v29savow7s","574dc90512d86b000f833ab0","freq_resp","img/green_2bandit_a.png","70","70","test","","","","1","",""
"null","1815830","pSARL_v2","pSARL_v29savow7s","574dc90512d86b000f833ab0","fixation","img/fixation.png","null","","test","","","","","",""
"301.2000000476837","1816135","pSARL_v2","pSARL_v29savow7s","574dc90512d86b000f833ab0","freq","img/green_2bandit_a2.png","70","70","test","1","24","24","1","",""
"null","1816637","pSARL_v2","pSARL_v29savow7s","574dc90512d86b000f833ab0","freq_resp","img/green_2bandit_a.png","70","70","test","","","","1","",""
"null","1816790","pSARL_v2","pSARL_v29savow7s","574dc90512d86b000f833ab0","fixation","img/fixation.png","null","","test","","","","","",""
"300.5","1817093","pSARL_v2","pSARL_v29savow7s","574dc90512d86b000f833ab0","freq","img/green_2bandit_a2.png","70","70","test","1","25","25","1","",""
"null","1817605","pSARL_v2","pSARL_v29savow7s","574dc90512d86b000f833ab0","freq_resp","img/green_2bandit_a.png","70","70","test","","","","1","",""
"null","1817759","pSARL_v2","pSARL_v29savow7s","574dc90512d86b000f833ab0","fixation","img/fixation.png","null","","test","","","","","",""
"305.40000009536743","1818067","pSARL_v2","pSARL_v29savow7s","574dc90512d86b000f833ab0","freq","img/green_2bandit_a2.png","70","70","test","1","26","26","1","",""
"null","1818565","pSARL_v2","pSARL_v29savow7s","574dc90512d86b000f833ab0","freq_resp","img/green_2bandit_a.png","70","70","test","","","","1","",""
"null","1818719","pSARL_v2","pSARL_v29savow7s","574dc90512d86b000f833ab0","fixation","img/fixation.png","null","","test","","","","","",""
"555.9000000953674","1819278","pSARL_v2","pSARL_v29savow7s","574dc90512d86b000f833ab0","reward","img/slot.png","74","","test","","","","","",""
"null","1820033","pSARL_v2","pSARL_v29savow7s","574dc90512d86b000f833ab0","points","<div class=""verylowPoints""> -6 </div>","null","na","test","","","","1","-6","0"
"386","1820422","pSARL_v2","pSARL_v29savow7s","574dc90512d86b000f833ab0","freq","img/green_2bandit_a2.png","70","70","test","1","27","27","2","",""
"null","1820849","pSARL_v2","pSARL_v29savow7s","574dc90512d86b000f833ab0","freq_resp","img/green_2bandit_a.png","70","70","test","","","","2","",""
"null","1821002","pSARL_v2","pSARL_v29savow7s","574dc90512d86b000f833ab0","fixation","img/fixation.png","null","","test","","","","","",""
"289.10000014305115","1821294","pSARL_v2","pSARL_v29savow7s","574dc90512d86b000f833ab0","freq","img/green_2bandit_a2.png","70","70","test","1","28","28","2","",""
"null","1821814","pSARL_v2","pSARL_v29savow7s","574dc90512d86b000f833ab0","freq_resp","img/green_2bandit_a.png","70","70","test","","","","2","",""
"null","1821967","pSARL_v2","pSARL_v29savow7s","574dc90512d86b000f833ab0","fixation","img/fixation.png","null","","test","","","","","",""
"603.4000000953674","1822574","pSARL_v2","pSARL_v29savow7s","574dc90512d86b000f833ab0","infreq","img/orange_2bandit_a2.png","68","68","test","1","29","29","2","",""
"null","1822778","pSARL_v2","pSARL_v29savow7s","574dc90512d86b000f833ab0","infreq_resp","img/orange_2bandit_a.png","68","68","test","","","","2","",""
"null","1822934","pSARL_v2","pSARL_v29savow7s","574dc90512d86b000f833ab0","fixation","img/fixation.png","null","","test","","","","","",""
"420.90000009536743","1823358","pSARL_v2","pSARL_v29savow7s","574dc90512d86b000f833ab0","freq","img/green_2bandit_a2.png","70","70","test","1","30","30","2","",""
"null","1823740","pSARL_v2","pSARL_v29savow7s","574dc90512d86b000f833ab0","freq_resp","img/green_2bandit_a.png","70","70","test","","","","2","",""
"null","1823894","pSARL_v2","pSARL_v29savow7s","574dc90512d86b000f833ab0","fixation","img/fixation.png","null","","test","","","","","",""
"332.5","1824230","pSARL_v2","pSARL_v29savow7s","574dc90512d86b000f833ab0","freq","img/green_2bandit_a2.png","70","70","test","1","31","31","2","",""
"null","1824701","pSARL_v2","pSARL_v29savow7s","574dc90512d86b000f833ab0","freq_resp","img/green_2bandit_a.png","70","70","test","","","","2","",""
"null","1824855","pSARL_v2","pSARL_v29savow7s","574dc90512d86b000f833ab0","fixation","img/fixation.png","null","","test","","","","","",""
"315.90000009536743","1825174","pSARL_v2","pSARL_v29savow7s","574dc90512d86b000f833ab0","freq","img/green_2bandit_a2.png","70","70","test","1","32","32","2","",""
"null","1825661","pSARL_v2","pSARL_v29savow7s","574dc90512d86b000f833ab0","freq_resp","img/green_2bandit_a.png","70","70","test","","","","2","",""
"null","1825814","pSARL_v2","pSARL_v29savow7s","574dc90512d86b000f833ab0","fixation","img/fixation.png","null","","test","","","","","",""
"204.70000004768372","1826022","pSARL_v2","pSARL_v29savow7s","574dc90512d86b000f833ab0","freq","img/green_2bandit_a2.png","70","70","test","1","33","33","2","",""
"null","1826622","pSARL_v2","pSARL_v29savow7s","574dc90512d86b000f833ab0","freq_resp","img/green_2bandit_a.png","70","70","test","","","","2","",""
"null","1826775","pSARL_v2","pSARL_v29savow7s","574dc90512d86b000f833ab0","fixation","img/fixation.png","null","","test","","","","","",""
"307.90000009536743","1827086","pSARL_v2","pSARL_v29savow7s","574dc90512d86b000f833ab0","freq","img/green_2bandit_a2.png","70","70","test","1","34","34","2","",""
"null","1827583","pSARL_v2","pSARL_v29savow7s","574dc90512d86b000f833ab0","freq_resp","img/green_2bandit_a.png","70","70","test","","","","2","",""
"null","1827737","pSARL_v2","pSARL_v29savow7s","574dc90512d86b000f833ab0","fixation","img/fixation.png","null","","test","","","","","",""
"306.2000000476837","1828046","pSARL_v2","pSARL_v29savow7s","574dc90512d86b000f833ab0","freq","img/green_2bandit_a2.png","70","70","test","1","35","35","2","",""
"null","1828541","pSARL_v2","pSARL_v29savow7s","574dc90512d86b000f833ab0","freq_resp","img/green_2bandit_a.png","70","70","test","","","","2","",""
"null","1828696","pSARL_v2","pSARL_v29savow7s","574dc90512d86b000f833ab0","fixation","img/fixation.png","null","","test","","","","","",""
"299.69999980926514","1828999","pSARL_v2","pSARL_v29savow7s","574dc90512d86b000f833ab0","freq","img/green_2bandit_a2.png","70","70","test","1","36","36","2","",""
"null","1829510","pSARL_v2","pSARL_v29savow7s","574dc90512d86b000f833ab0","freq_resp","img/green_2bandit_a.png","70","70","test","","","","2","",""
"null","1829666","pSARL_v2","pSARL_v29savow7s","574dc90512d86b000f833ab0","fixation","img/fixation.png","null","","test","","","","","",""
"320.7000000476837","1829990","pSARL_v2","pSARL_v29savow7s","574dc90512d86b000f833ab0","freq","img/green_2bandit_a2.png","70","70","test","1","37","37","2","",""
"null","1830472","pSARL_v2","pSARL_v29savow7s","574dc90512d86b000f833ab0","freq_resp","img/green_2bandit_a.png","70","70","test","","","","2","",""
"null","1830626","pSARL_v2","pSARL_v29savow7s","574dc90512d86b000f833ab0","fixation","img/fixation.png","null","","test","","","","","",""
"288.7000000476837","1830918","pSARL_v2","pSARL_v29savow7s","574dc90512d86b000f833ab0","freq","img/green_2bandit_a2.png","70","70","test","1","38","38","2","",""
"null","1831434","pSARL_v2","pSARL_v29savow7s","574dc90512d86b000f833ab0","freq_resp","img/green_2bandit_a.png","70","70","test","","","","2","",""
"null","1831589","pSARL_v2","pSARL_v29savow7s","574dc90512d86b000f833ab0","fixation","img/fixation.png","null","","test","","","","","",""
"262.2000000476837","1831854","pSARL_v2","pSARL_v29savow7s","574dc90512d86b000f833ab0","infreq","img/orange_2bandit_a2.png","70","68","test","0","39","39","2","",""
"null","1832395","pSARL_v2","pSARL_v29savow7s","574dc90512d86b000f833ab0","infreq_resp","img/orange_2bandit_a.png","70","68","test","","","","2","",""
"null","1832549","pSARL_v2","pSARL_v29savow7s","574dc90512d86b000f833ab0","fixation","img/fixation.png","null","","test","","","","","",""
"517.2999999523163","1833070","pSARL_v2","pSARL_v29savow7s","574dc90512d86b000f833ab0","freq","img/green_2bandit_a2.png","70","70","test","1","40","40","2","",""
"null","1833356","pSARL_v2","pSARL_v29savow7s","574dc90512d86b000f833ab0","freq_resp","img/green_2bandit_a.png","70","70","test","","","","2","",""
"null","1833509","pSARL_v2","pSARL_v29savow7s","574dc90512d86b000f833ab0","fixation","img/fixation.png","null","","test","","","","","",""
"398","1833910","pSARL_v2","pSARL_v29savow7s","574dc90512d86b000f833ab0","freq","img/green_2bandit_a2.png","70","70","test","1","41","41","2","",""
"null","1834318","pSARL_v2","pSARL_v29savow7s","574dc90512d86b000f833ab0","freq_resp","img/green_2bandit_a.png","70","70","test","","","","2","",""
"null","1834474","pSARL_v2","pSARL_v29savow7s","574dc90512d86b000f833ab0","fixation","img/fixation.png","null","","test","","","","","",""
"304.7999999523163","1834784","pSARL_v2","pSARL_v29savow7s","574dc90512d86b000f833ab0","freq","img/green_2bandit_a2.png","70","70","test","1","42","42","2","",""
"null","1835284","pSARL_v2","pSARL_v29savow7s","574dc90512d86b000f833ab0","freq_resp","img/green_2bandit_a.png","70","70","test","","","","2","",""
"null","1835439","pSARL_v2","pSARL_v29savow7s","574dc90512d86b000f833ab0","fixation","img/fixation.png","null","","test","","","","","",""
"276","1835718","pSARL_v2","pSARL_v29savow7s","574dc90512d86b000f833ab0","freq","img/green_2bandit_a2.png","70","70","test","1","43","43","2","",""
"null","1836260","pSARL_v2","pSARL_v29savow7s","574dc90512d86b000f833ab0","freq_resp","img/green_2bandit_a.png","70","70","test","","","","2","",""
"null","1836413","pSARL_v2","pSARL_v29savow7s","574dc90512d86b000f833ab0","fixation","img/fixation.png","null","","test","","","","","",""
"325.7000000476837","1836743","pSARL_v2","pSARL_v29savow7s","574dc90512d86b000f833ab0","freq","img/green_2bandit_a2.png","70","70","test","1","44","44","2","",""
"null","1837221","pSARL_v2","pSARL_v29savow7s","574dc90512d86b000f833ab0","freq_resp","img/green_2bandit_a.png","70","70","test","","","","2","",""
"null","1837375","pSARL_v2","pSARL_v29savow7s","574dc90512d86b000f833ab0","fixation","img/fixation.png","null","","test","","","","","",""
"308.2999999523163","1837687","pSARL_v2","pSARL_v29savow7s","574dc90512d86b000f833ab0","freq","img/green_2bandit_a2.png","70","70","test","1","45","45","2","",""
"null","1838182","pSARL_v2","pSARL_v29savow7s","574dc90512d86b000f833ab0","freq_resp","img/green_2bandit_a.png","70","70","test","","","","2","",""
"null","1838335","pSARL_v2","pSARL_v29savow7s","574dc90512d86b000f833ab0","fixation","img/fixation.png","null","","test","","","","","",""
"619.5999999046326","1838958","pSARL_v2","pSARL_v29savow7s","574dc90512d86b000f833ab0","reward","img/slot.png","74","","test","","","","","",""
"null","1839712","pSARL_v2","pSARL_v29savow7s","574dc90512d86b000f833ab0","points","<div class=""verylowPoints""> -11 </div>","null","na","test","","","","2","-11","1"
"474.5","1840190","pSARL_v2","pSARL_v29savow7s","574dc90512d86b000f833ab0","freq","img/green_2bandit_a2.png","70","70","test","1","46","46","3","",""
"null","1840519","pSARL_v2","pSARL_v29savow7s","574dc90512d86b000f833ab0","freq_resp","img/green_2bandit_a.png","70","70","test","","","","3","",""
"null","1840673","pSARL_v2","pSARL_v29savow7s","574dc90512d86b000f833ab0","fixation","img/fixation.png","null","","test","","","","","",""
"385.2000000476837","1841062","pSARL_v2","pSARL_v29savow7s","574dc90512d86b000f833ab0","freq","img/green_2bandit_a2.png","70","70","test","1","47","47","3","",""
"null","1841479","pSARL_v2","pSARL_v29savow7s","574dc90512d86b000f833ab0","freq_resp","img/green_2bandit_a.png","70","70","test","","","","3","",""
"null","1841632","pSARL_v2","pSARL_v29savow7s","574dc90512d86b000f833ab0","fixation","img/fixation.png","null","","test","","","","","",""
"386.7999999523163","1842022","pSARL_v2","pSARL_v29savow7s","574dc90512d86b000f833ab0","freq","img/green_2bandit_a2.png","70","70","test","1","48","48","3","",""
"null","1842439","pSARL_v2","pSARL_v29savow7s","574dc90512d86b000f833ab0","freq_resp","img/green_2bandit_a.png","70","70","test","","","","3","",""
"null","1842592","pSARL_v2","pSARL_v29savow7s","574dc90512d86b000f833ab0","fixation","img/fixation.png","null","","test","","","","","",""
"339","1842934","pSARL_v2","pSARL_v29savow7s","574dc90512d86b000f833ab0","freq","img/green_2bandit_a2.png","70","70","test","1","49","49","3","",""
"null","1843399","pSARL_v2","pSARL_v29savow7s","574dc90512d86b000f833ab0","freq_resp","img/green_2bandit_a.png","70","70","test","","","","3","",""
"null","1843553","pSARL_v2","pSARL_v29savow7s","574dc90512d86b000f833ab0","fixation","img/fixation.png","null","","test","","","","","",""
"338.2000000476837","1843894","pSARL_v2","pSARL_v29savow7s","574dc90512d86b000f833ab0","freq","img/green_2bandit_a2.png","70","70","test","1","50","50","3","",""
"null","1844359","pSARL_v2","pSARL_v29savow7s","574dc90512d86b000f833ab0","freq_resp","img/green_2bandit_a.png","70","70","test","","","","3","",""
"null","1844512","pSARL_v2","pSARL_v29savow7s","574dc90512d86b000f833ab0","fixation","img/fixation.png","null","","test","","","","","",""
"290.7000000476837","1844806","pSARL_v2","pSARL_v29savow7s","574dc90512d86b000f833ab0","freq","img/green_2bandit_a2.png","70","70","test","1","51","51","3","",""
"null","1845319","pSARL_v2","pSARL_v29savow7s","574dc90512d86b000f833ab0","freq_resp","img/green_2bandit_a.png","70","70","test","","","","3","",""
"null","1845473","pSARL_v2","pSARL_v29savow7s","574dc90512d86b000f833ab0","fixation","img/fixation.png","null","","test","","","","","",""
"362.2999999523163","1845838","pSARL_v2","pSARL_v29savow7s","574dc90512d86b000f833ab0","freq","img/green_2bandit_a2.png","70","70","test","1","52","52","3","",""
"null","1846279","pSARL_v2","pSARL_v29savow7s","574dc90512d86b000f833ab0","freq_resp","img/green_2bandit_a.png","70","70","test","","","","3","",""
"null","1846433","pSARL_v2","pSARL_v29savow7s","574dc90512d86b000f833ab0","fixation","img/fixation.png","null","","test","","","","","",""
"313.80000019073486","1846749","pSARL_v2","pSARL_v29savow7s","574dc90512d86b000f833ab0","freq","img/green_2bandit_a2.png","70","70","test","1","53","53","3","",""
"null","1847239","pSARL_v2","pSARL_v29savow7s","574dc90512d86b000f833ab0","freq_resp","img/green_2bandit_a.png","70","70","test","","","","3","",""
"null","1847392","pSARL_v2","pSARL_v29savow7s","574dc90512d86b000f833ab0","fixation","img/fixation.png","null","","test","","","","","",""
"362.40000009536743","1847758","pSARL_v2","pSARL_v29savow7s","574dc90512d86b000f833ab0","freq","img/green_2bandit_a2.png","70","70","test","1","54","54","3","",""
"null","1848199","pSARL_v2","pSARL_v29savow7s","574dc90512d86b000f833ab0","freq_resp","img/green_2bandit_a.png","70","70","test","","","","3","",""
"null","1848351","pSARL_v2","pSARL_v29savow7s","574dc90512d86b000f833ab0","fixation","img/fixation.png","null","","test","","","","","",""
"331.40000009536743","1848686","pSARL_v2","pSARL_v29savow7s","574dc90512d86b000f833ab0","freq","img/green_2bandit_a2.png","70","70","test","1","55","55","3","",""
"null","1849158","pSARL_v2","pSARL_v29savow7s","574dc90512d86b000f833ab0","freq_resp","img/green_2bandit_a.png","70","70","test","","","","3","",""
"null","1849311","pSARL_v2","pSARL_v29savow7s","574dc90512d86b000f833ab0","fixation","img/fixation.png","null","","test","","","","","",""
"491.39999985694885","1849806","pSARL_v2","pSARL_v29savow7s","574dc90512d86b000f833ab0","infreq","img/orange_2bandit_a2.png","68","68","test","1","56","56","3","",""
"null","1850119","pSARL_v2","pSARL_v29savow7s","574dc90512d86b000f833ab0","infreq_resp","img/orange_2bandit_a.png","68","68","test","","","","3","",""
"null","1850272","pSARL_v2","pSARL_v29savow7s","574dc90512d86b000f833ab0","fixation","img/fixation.png","null","","test","","","","","",""
"410.60000014305115","1850687","pSARL_v2","pSARL_v29savow7s","574dc90512d86b000f833ab0","freq","img/green_2bandit_a2.png","70","70","test","1","57","57","3","",""
"null","1851079","pSARL_v2","pSARL_v29savow7s","574dc90512d86b000f833ab0","freq_resp","img/green_2bandit_a.png","70","70","test","","","","3","",""
"null","1851234","pSARL_v2","pSARL_v29savow7s","574dc90512d86b000f833ab0","fixation","img/fixation.png","null","","test","","","","","",""
"369.2999999523163","1851605","pSARL_v2","pSARL_v29savow7s","574dc90512d86b000f833ab0","freq","img/green_2bandit_a2.png","70","70","test","1","58","58","3","",""
"null","1852040","pSARL_v2","pSARL_v29savow7s","574dc90512d86b000f833ab0","freq_resp","img/green_2bandit_a.png","70","70","test","","","","3","",""
"null","1852193","pSARL_v2","pSARL_v29savow7s","574dc90512d86b000f833ab0","fixation","img/fixation.png","null","","test","","","","","",""
"337.30000019073486","1852534","pSARL_v2","pSARL_v29savow7s","574dc90512d86b000f833ab0","freq","img/green_2bandit_a2.png","70","70","test","1","59","59","3","",""
"null","1853001","pSARL_v2","pSARL_v29savow7s","574dc90512d86b000f833ab0","freq_resp","img/green_2bandit_a.png","70","70","test","","","","3","",""
"null","1853155","pSARL_v2","pSARL_v29savow7s","574dc90512d86b000f833ab0","fixation","img/fixation.png","null","","test","","","","","",""
"344.19999980926514","1853502","pSARL_v2","pSARL_v29savow7s","574dc90512d86b000f833ab0","freq","img/green_2bandit_a2.png","70","70","test","1","60","60","3","",""
"null","1853960","pSARL_v2","pSARL_v29savow7s","574dc90512d86b000f833ab0","freq_resp","img/green_2bandit_a.png","70","70","test","","","","3","",""
"null","1854113","pSARL_v2","pSARL_v29savow7s","574dc90512d86b000f833ab0","fixation","img/fixation.png","null","","test","","","","","",""
"433.5","1854550","pSARL_v2","pSARL_v29savow7s","574dc90512d86b000f833ab0","infreq","img/orange_2bandit_a2.png","68","68","test","1","61","61","3","",""
"null","1854919","pSARL_v2","pSARL_v29savow7s","574dc90512d86b000f833ab0","infreq_resp","img/orange_2bandit_a.png","68","68","test","","","","3","",""
"null","1855074","pSARL_v2","pSARL_v29savow7s","574dc90512d86b000f833ab0","fixation","img/fixation.png","null","","test","","","","","",""
"465.09999990463257","1855542","pSARL_v2","pSARL_v29savow7s","574dc90512d86b000f833ab0","freq","img/green_2bandit_a2.png","70","70","test","1","62","62","3","",""
"null","1855879","pSARL_v2","pSARL_v29savow7s","574dc90512d86b000f833ab0","freq_resp","img/green_2bandit_a.png","70","70","test","","","","3","",""
"null","1856033","pSARL_v2","pSARL_v29savow7s","574dc90512d86b000f833ab0","fixation","img/fixation.png","null","","test","","","","","",""
"361.7999999523163","1856398","pSARL_v2","pSARL_v29savow7s","574dc90512d86b000f833ab0","freq","img/green_2bandit_a2.png","70","70","test","1","63","63","3","",""
"null","1856840","pSARL_v2","pSARL_v29savow7s","574dc90512d86b000f833ab0","freq_resp","img/green_2bandit_a.png","70","70","test","","","","3","",""
"null","1856993","pSARL_v2","pSARL_v29savow7s","574dc90512d86b000f833ab0","fixation","img/fixation.png","null","","test","","","","","",""
"354.2000000476837","1857350","pSARL_v2","pSARL_v29savow7s","574dc90512d86b000f833ab0","freq","img/green_2bandit_a2.png","70","70","test","1","64","64","3","",""
"null","1857798","pSARL_v2","pSARL_v29savow7s","574dc90512d86b000f833ab0","freq_resp","img/green_2bandit_a.png","70","70","test","","","","3","",""
"null","1857951","pSARL_v2","pSARL_v29savow7s","574dc90512d86b000f833ab0","fixation","img/fixation.png","null","","test","","","","","",""
"326","1858281","pSARL_v2","pSARL_v29savow7s","574dc90512d86b000f833ab0","freq","img/green_2bandit_a2.png","70","70","test","1","65","65","3","",""
"null","1858759","pSARL_v2","pSARL_v29savow7s","574dc90512d86b000f833ab0","freq_resp","img/green_2bandit_a.png","70","70","test","","","","3","",""
"null","1858914","pSARL_v2","pSARL_v29savow7s","574dc90512d86b000f833ab0","fixation","img/fixation.png","null","","test","","","","","",""
"305.2000000476837","1859222","pSARL_v2","pSARL_v29savow7s","574dc90512d86b000f833ab0","freq","img/green_2bandit_a2.png","70","70","test","1","66","66","3","",""
"null","1859719","pSARL_v2","pSARL_v29savow7s","574dc90512d86b000f833ab0","freq_resp","img/green_2bandit_a.png","70","70","test","","","","3","",""
"null","1859873","pSARL_v2","pSARL_v29savow7s","574dc90512d86b000f833ab0","fixation","img/fixation.png","null","","test","","","","","",""
"314.10000014305115","1860190","pSARL_v2","pSARL_v29savow7s","574dc90512d86b000f833ab0","freq","img/green_2bandit_a2.png","70","70","test","1","67","67","3","",""
"null","1860678","pSARL_v2","pSARL_v29savow7s","574dc90512d86b000f833ab0","freq_resp","img/green_2bandit_a.png","70","70","test","","","","3","",""
"null","1860832","pSARL_v2","pSARL_v29savow7s","574dc90512d86b000f833ab0","fixation","img/fixation.png","null","","test","","","","","",""
"267.2000000476837","1861102","pSARL_v2","pSARL_v29savow7s","574dc90512d86b000f833ab0","freq","img/green_2bandit_a2.png","70","70","test","1","68","68","3","",""
"null","1861639","pSARL_v2","pSARL_v29savow7s","574dc90512d86b000f833ab0","freq_resp","img/green_2bandit_a.png","70","70","test","","","","3","",""
"null","1861800","pSARL_v2","pSARL_v29savow7s","574dc90512d86b000f833ab0","fixation","img/fixation.png","null","","test","","","","","",""
"514.5","1862318","pSARL_v2","pSARL_v29savow7s","574dc90512d86b000f833ab0","infreq","img/orange_2bandit_a2.png","68","68","test","1","69","69","3","",""
"null","1862607","pSARL_v2","pSARL_v29savow7s","574dc90512d86b000f833ab0","infreq_resp","img/orange_2bandit_a.png","68","68","test","","","","3","",""
"null","1862761","pSARL_v2","pSARL_v29savow7s","574dc90512d86b000f833ab0","fixation","img/fixation.png","null","","test","","","","","",""
"297.59999990463257","1863062","pSARL_v2","pSARL_v29savow7s","574dc90512d86b000f833ab0","freq","img/green_2bandit_a2.png","70","70","test","1","70","70","3","",""
"null","1863567","pSARL_v2","pSARL_v29savow7s","574dc90512d86b000f833ab0","freq_resp","img/green_2bandit_a.png","70","70","test","","","","3","",""
"null","1863722","pSARL_v2","pSARL_v29savow7s","574dc90512d86b000f833ab0","fixation","img/fixation.png","null","","test","","","","","",""
"513.1000001430511","1864241","pSARL_v2","pSARL_v29savow7s","574dc90512d86b000f833ab0","reward","img/slot.png","74","","test","","","","","",""
"null","1864996","pSARL_v2","pSARL_v29savow7s","574dc90512d86b000f833ab0","points","<div class=""verylowPoints""> -7 </div>","null","na","test","","","","3","-7","2"
"350.59999990463257","1865350","pSARL_v2","pSARL_v29savow7s","574dc90512d86b000f833ab0","freq","img/green_2bandit_a2.png","70","70","test","1","71","71","4","",""
"null","1865802","pSARL_v2","pSARL_v29savow7s","574dc90512d86b000f833ab0","freq_resp","img/green_2bandit_a.png","70","70","test","","","","4","",""
"null","1865955","pSARL_v2","pSARL_v29savow7s","574dc90512d86b000f833ab0","fixation","img/fixation.png","null","","test","","","","","",""
"271.7000000476837","1866230","pSARL_v2","pSARL_v29savow7s","574dc90512d86b000f833ab0","freq","img/green_2bandit_a2.png","70","70","test","1","72","72","4","",""
"null","1866763","pSARL_v2","pSARL_v29savow7s","574dc90512d86b000f833ab0","freq_resp","img/green_2bandit_a.png","70","70","test","","","","4","",""
"null","1866917","pSARL_v2","pSARL_v29savow7s","574dc90512d86b000f833ab0","fixation","img/fixation.png","null","","test","","","","","",""
"350.60000014305115","1867271","pSARL_v2","pSARL_v29savow7s","574dc90512d86b000f833ab0","freq","img/green_2bandit_a2.png","70","70","test","1","73","73","4","",""
"null","1867732","pSARL_v2","pSARL_v29savow7s","574dc90512d86b000f833ab0","freq_resp","img/green_2bandit_a.png","70","70","test","","","","4","",""
"null","1867889","pSARL_v2","pSARL_v29savow7s","574dc90512d86b000f833ab0","fixation","img/fixation.png","null","","test","","","","","",""
"330.2000000476837","1868222","pSARL_v2","pSARL_v29savow7s","574dc90512d86b000f833ab0","freq","img/green_2bandit_a2.png","70","70","test","1","74","74","4","",""
"null","1868696","pSARL_v2","pSARL_v29savow7s","574dc90512d86b000f833ab0","freq_resp","img/green_2bandit_a.png","70","70","test","","","","4","",""
"null","1868850","pSARL_v2","pSARL_v29savow7s","574dc90512d86b000f833ab0","fixation","img/fixation.png","null","","test","","","","","",""
"305.10000014305115","1869158","pSARL_v2","pSARL_v29savow7s","574dc90512d86b000f833ab0","freq","img/green_2bandit_a2.png","70","70","test","1","75","75","4","",""
"null","1869656","pSARL_v2","pSARL_v29savow7s","574dc90512d86b000f833ab0","freq_resp","img/green_2bandit_a.png","70","70","test","","","","4","",""
"null","1869810","pSARL_v2","pSARL_v29savow7s","574dc90512d86b000f833ab0","fixation","img/fixation.png","null","","test","","","","","",""
"320.2000000476837","1870136","pSARL_v2","pSARL_v29savow7s","574dc90512d86b000f833ab0","freq","img/green_2bandit_a2.png","70","70","test","1","76","76","4","",""
"null","1870619","pSARL_v2","pSARL_v29savow7s","574dc90512d86b000f833ab0","freq_resp","img/green_2bandit_a.png","70","70","test","","","","4","",""
"null","1870773","pSARL_v2","pSARL_v29savow7s","574dc90512d86b000f833ab0","fixation","img/fixation.png","null","","test","","","","","",""
"326.2999999523163","1871102","pSARL_v2","pSARL_v29savow7s","574dc90512d86b000f833ab0","freq","img/green_2bandit_a2.png","70","70","test","1","77","77","4","",""
"null","1871579","pSARL_v2","pSARL_v29savow7s","574dc90512d86b000f833ab0","freq_resp","img/green_2bandit_a.png","70","70","test","","","","4","",""
"null","1871735","pSARL_v2","pSARL_v29savow7s","574dc90512d86b000f833ab0","fixation","img/fixation.png","null","","test","","","","","",""
"467.5","1872206","pSARL_v2","pSARL_v29savow7s","574dc90512d86b000f833ab0","infreq","img/orange_2bandit_a2.png","68","68","test","1","78","78","4","",""
"null","1872541","pSARL_v2","pSARL_v29savow7s","574dc90512d86b000f833ab0","infreq_resp","img/orange_2bandit_a.png","68","68","test","","","","4","",""
"null","1872696","pSARL_v2","pSARL_v29savow7s","574dc90512d86b000f833ab0","fixation","img/fixation.png","null","","test","","","","","",""
"315.5","1873014","pSARL_v2","pSARL_v29savow7s","574dc90512d86b000f833ab0","freq","img/green_2bandit_a2.png","70","70","test","1","79","79","4","",""
"null","1873502","pSARL_v2","pSARL_v29savow7s","574dc90512d86b000f833ab0","freq_resp","img/green_2bandit_a.png","70","70","test","","","","4","",""
"null","1873657","pSARL_v2","pSARL_v29savow7s","574dc90512d86b000f833ab0","fixation","img/fixation.png","null","","test","","","","","",""
"490.19999980926514","1874150","pSARL_v2","pSARL_v29savow7s","574dc90512d86b000f833ab0","infreq","img/orange_2bandit_a2.png","68","68","test","1","80","80","4","",""
"null","1874476","pSARL_v2","pSARL_v29savow7s","574dc90512d86b000f833ab0","infreq_resp","img/orange_2bandit_a.png","68","68","test","","","","4","",""
"null","1874631","pSARL_v2","pSARL_v29savow7s","574dc90512d86b000f833ab0","fixation","img/fixation.png","null","","test","","","","","",""
"388.09999990463257","1875022","pSARL_v2","pSARL_v29savow7s","574dc90512d86b000f833ab0","freq","img/green_2bandit_a2.png","70","70","test","1","81","81","4","",""
"null","1875437","pSARL_v2","pSARL_v29savow7s","574dc90512d86b000f833ab0","freq_resp","img/green_2bandit_a.png","70","70","test","","","","4","",""
"null","1875591","pSARL_v2","pSARL_v29savow7s","574dc90512d86b000f833ab0","fixation","img/fixation.png","null","","test","","","","","",""
"379.5","1875974","pSARL_v2","pSARL_v29savow7s","574dc90512d86b000f833ab0","freq","img/green_2bandit_a2.png","70","70","test","1","82","82","4","",""
"null","1876398","pSARL_v2","pSARL_v29savow7s","574dc90512d86b000f833ab0","freq_resp","img/green_2bandit_a.png","70","70","test","","","","4","",""
"null","1876551","pSARL_v2","pSARL_v29savow7s","574dc90512d86b000f833ab0","fixation","img/fixation.png","null","","test","","","","","",""
"699.6000001430511","1877255","pSARL_v2","pSARL_v29savow7s","574dc90512d86b000f833ab0","freq","img/green_2bandit_a2.png","70","70","test","1","83","83","4","",""
"null","1877359","pSARL_v2","pSARL_v29savow7s","574dc90512d86b000f833ab0","freq_resp","img/green_2bandit_a.png","70","70","test","","","","4","",""
"null","1877513","pSARL_v2","pSARL_v29savow7s","574dc90512d86b000f833ab0","fixation","img/fixation.png","null","","test","","","","","",""
"330.2000000476837","1877847","pSARL_v2","pSARL_v29savow7s","574dc90512d86b000f833ab0","freq","img/green_2bandit_a2.png","70","70","test","1","84","84","4","",""
"null","1878322","pSARL_v2","pSARL_v29savow7s","574dc90512d86b000f833ab0","freq_resp","img/green_2bandit_a.png","70","70","test","","","","4","",""
"null","1878479","pSARL_v2","pSARL_v29savow7s","574dc90512d86b000f833ab0","fixation","img/fixation.png","null","","test","","","","","",""
"339.40000009536743","1878822","pSARL_v2","pSARL_v29savow7s","574dc90512d86b000f833ab0","freq","img/green_2bandit_a2.png","70","70","test","1","85","85","4","",""
"null","1879288","pSARL_v2","pSARL_v29savow7s","574dc90512d86b000f833ab0","freq_resp","img/green_2bandit_a.png","70","70","test","","","","4","",""
"null","1879442","pSARL_v2","pSARL_v29savow7s","574dc90512d86b000f833ab0","fixation","img/fixation.png","null","","test","","","","","",""
"328.5","1879773","pSARL_v2","pSARL_v29savow7s","574dc90512d86b000f833ab0","freq","img/green_2bandit_a2.png","70","70","test","1","86","86","4","",""
"null","1880247","pSARL_v2","pSARL_v29savow7s","574dc90512d86b000f833ab0","freq_resp","img/green_2bandit_a.png","70","70","test","","","","4","",""
"null","1880412","pSARL_v2","pSARL_v29savow7s","574dc90512d86b000f833ab0","fixation","img/fixation.png","null","","test","","","","","",""
"310.5","1880726","pSARL_v2","pSARL_v29savow7s","574dc90512d86b000f833ab0","freq","img/green_2bandit_a2.png","70","70","test","1","87","87","4","",""
"null","1881219","pSARL_v2","pSARL_v29savow7s","574dc90512d86b000f833ab0","freq_resp","img/green_2bandit_a.png","70","70","test","","","","4","",""
"null","1881374","pSARL_v2","pSARL_v29savow7s","574dc90512d86b000f833ab0","fixation","img/fixation.png","null","","test","","","","","",""
"324.2999999523163","1881702","pSARL_v2","pSARL_v29savow7s","574dc90512d86b000f833ab0","freq","img/green_2bandit_a2.png","70","70","test","1","88","88","4","",""
"null","1882181","pSARL_v2","pSARL_v29savow7s","574dc90512d86b000f833ab0","freq_resp","img/green_2bandit_a.png","70","70","test","","","","4","",""
"null","1882334","pSARL_v2","pSARL_v29savow7s","574dc90512d86b000f833ab0","fixation","img/fixation.png","null","","test","","","","","",""
"284.7999999523163","1882622","pSARL_v2","pSARL_v29savow7s","574dc90512d86b000f833ab0","freq","img/green_2bandit_a2.png","70","70","test","1","89","89","4","",""
"null","1883142","pSARL_v2","pSARL_v29savow7s","574dc90512d86b000f833ab0","freq_resp","img/green_2bandit_a.png","70","70","test","","","","4","",""
"null","1883295","pSARL_v2","pSARL_v29savow7s","574dc90512d86b000f833ab0","fixation","img/fixation.png","null","","test","","","","","",""
"651.7000000476837","1883950","pSARL_v2","pSARL_v29savow7s","574dc90512d86b000f833ab0","reward","img/slot.png","74","","test","","","","","",""
"null","1884702","pSARL_v2","pSARL_v29savow7s","574dc90512d86b000f833ab0","points","<div class=""verylowPoints""> -3 </div>","null","na","test","","","","4","-3","3"
"404.69999980926514","1885110","pSARL_v2","pSARL_v29savow7s","574dc90512d86b000f833ab0","freq","img/green_2bandit_a2.png","70","70","test","1","90","90","5","",""
"null","1885510","pSARL_v2","pSARL_v29savow7s","574dc90512d86b000f833ab0","freq_resp","img/green_2bandit_a.png","70","70","test","","","","5","",""
"null","1885664","pSARL_v2","pSARL_v29savow7s","574dc90512d86b000f833ab0","fixation","img/fixation.png","null","","test","","","","","",""
"346.39999985694885","1886014","pSARL_v2","pSARL_v29savow7s","574dc90512d86b000f833ab0","freq","img/green_2bandit_a2.png","70","70","test","1","91","91","5","",""
"null","1886470","pSARL_v2","pSARL_v29savow7s","574dc90512d86b000f833ab0","freq_resp","img/green_2bandit_a.png","70","70","test","","","","5","",""
"null","1886623","pSARL_v2","pSARL_v29savow7s","574dc90512d86b000f833ab0","fixation","img/fixation.png","null","","test","","","","","",""
"307.5","1886933","pSARL_v2","pSARL_v29savow7s","574dc90512d86b000f833ab0","freq","img/green_2bandit_a2.png","70","70","test","1","92","92","5","",""
"null","1887430","pSARL_v2","pSARL_v29savow7s","574dc90512d86b000f833ab0","freq_resp","img/green_2bandit_a.png","70","70","test","","","","5","",""
"null","1887585","pSARL_v2","pSARL_v29savow7s","574dc90512d86b000f833ab0","fixation","img/fixation.png","null","","test","","","","","",""
"473.89999985694885","1888062","pSARL_v2","pSARL_v29savow7s","574dc90512d86b000f833ab0","infreq","img/orange_2bandit_a2.png","68","68","test","1","93","93","5","",""
"null","1888392","pSARL_v2","pSARL_v29savow7s","574dc90512d86b000f833ab0","infreq_resp","img/orange_2bandit_a.png","68","68","test","","","","5","",""
"null","1888545","pSARL_v2","pSARL_v29savow7s","574dc90512d86b000f833ab0","fixation","img/fixation.png","null","","test","","","","","",""
"329.7000000476837","1888878","pSARL_v2","pSARL_v29savow7s","574dc90512d86b000f833ab0","freq","img/green_2bandit_a2.png","70","70","test","1","94","94","5","",""
"null","1889351","pSARL_v2","pSARL_v29savow7s","574dc90512d86b000f833ab0","freq_resp","img/green_2bandit_a.png","70","70","test","","","","5","",""
"null","1889504","pSARL_v2","pSARL_v29savow7s","574dc90512d86b000f833ab0","fixation","img/fixation.png","null","","test","","","","","",""
"306.10000014305115","1889813","pSARL_v2","pSARL_v29savow7s","574dc90512d86b000f833ab0","freq","img/green_2bandit_a2.png","70","70","test","1","95","95","5","",""
"null","1890310","pSARL_v2","pSARL_v29savow7s","574dc90512d86b000f833ab0","freq_resp","img/green_2bandit_a.png","70","70","test","","","","5","",""
"null","1890465","pSARL_v2","pSARL_v29savow7s","574dc90512d86b000f833ab0","fixation","img/fixation.png","null","","test","","","","","",""
"321.2999999523163","1890790","pSARL_v2","pSARL_v29savow7s","574dc90512d86b000f833ab0","freq","img/green_2bandit_a2.png","70","70","test","1","96","96","5","",""
"null","1891272","pSARL_v2","pSARL_v29savow7s","574dc90512d86b000f833ab0","freq_resp","img/green_2bandit_a.png","70","70","test","","","","5","",""
"null","1891426","pSARL_v2","pSARL_v29savow7s","574dc90512d86b000f833ab0","fixation","img/fixation.png","null","","test","","","","","",""
"305.2000000476837","1891733","pSARL_v2","pSARL_v29savow7s","574dc90512d86b000f833ab0","freq","img/green_2bandit_a2.png","70","70","test","1","97","97","5","",""
"null","1892230","pSARL_v2","pSARL_v29savow7s","574dc90512d86b000f833ab0","freq_resp","img/green_2bandit_a.png","70","70","test","","","","5","",""
"null","1892383","pSARL_v2","pSARL_v29savow7s","574dc90512d86b000f833ab0","fixation","img/fixation.png","null","","test","","","","","",""
"331.89999985694885","1892718","pSARL_v2","pSARL_v29savow7s","574dc90512d86b000f833ab0","freq","img/green_2bandit_a2.png","70","70","test","1","98","98","5","",""
"null","1893190","pSARL_v2","pSARL_v29savow7s","574dc90512d86b000f833ab0","freq_resp","img/green_2bandit_a.png","70","70","test","","","","5","",""
"null","1893344","pSARL_v2","pSARL_v29savow7s","574dc90512d86b000f833ab0","fixation","img/fixation.png","null","","test","","","","","",""
"283.2000000476837","1893630","pSARL_v2","pSARL_v29savow7s","574dc90512d86b000f833ab0","freq","img/green_2bandit_a2.png","70","70","test","1","99","99","5","",""
"null","1894167","pSARL_v2","pSARL_v29savow7s","574dc90512d86b000f833ab0","freq_resp","img/green_2bandit_a.png","70","70","test","","","","5","",""
"null","1894322","pSARL_v2","pSARL_v29savow7s","574dc90512d86b000f833ab0","fixation","img/fixation.png","null","","test","","","","","",""
"264.09999990463257","1894591","pSARL_v2","pSARL_v29savow7s","574dc90512d86b000f833ab0","freq","img/green_2bandit_a2.png","70","70","test","1","100","100","5","",""
"null","1895132","pSARL_v2","pSARL_v29savow7s","574dc90512d86b000f833ab0","freq_resp","img/green_2bandit_a.png","70","70","test","","","","5","",""
"null","1895285","pSARL_v2","pSARL_v29savow7s","574dc90512d86b000f833ab0","fixation","img/fixation.png","null","","test","","","","","",""
"261.2999999523163","1895550","pSARL_v2","pSARL_v29savow7s","574dc90512d86b000f833ab0","freq","img/green_2bandit_a2.png","70","70","test","1","101","101","5","",""
"null","1896096","pSARL_v2","pSARL_v29savow7s","574dc90512d86b000f833ab0","freq_resp","img/green_2bandit_a.png","70","70","test","","","","5","",""
"null","1896250","pSARL_v2","pSARL_v29savow7s","574dc90512d86b000f833ab0","fixation","img/fixation.png","null","","test","","","","","",""
"232.5","1896486","pSARL_v2","pSARL_v29savow7s","574dc90512d86b000f833ab0","freq","img/green_2bandit_a2.png","70","70","test","1","102","102","5","",""
"null","1897056","pSARL_v2","pSARL_v29savow7s","574dc90512d86b000f833ab0","freq_resp","img/green_2bandit_a.png","70","70","test","","","","5","",""
"null","1897209","pSARL_v2","pSARL_v29savow7s","574dc90512d86b000f833ab0","fixation","img/fixation.png","null","","test","","","","","",""
"481.40000009536743","1897694","pSARL_v2","pSARL_v29savow7s","574dc90512d86b000f833ab0","freq","img/green_2bandit_a2.png","70","70","test","1","103","103","5","",""
"null","1898015","pSARL_v2","pSARL_v29savow7s","574dc90512d86b000f833ab0","freq_resp","img/green_2bandit_a.png","70","70","test","","","","5","",""
"null","1898182","pSARL_v2","pSARL_v29savow7s","574dc90512d86b000f833ab0","fixation","img/fixation.png","null","","test","","","","","",""
"316.69999980926514","1898502","pSARL_v2","pSARL_v29savow7s","574dc90512d86b000f833ab0","freq","img/green_2bandit_a2.png","70","70","test","1","104","104","5","",""
"null","1898988","pSARL_v2","pSARL_v29savow7s","574dc90512d86b000f833ab0","freq_resp","img/green_2bandit_a.png","70","70","test","","","","5","",""
"null","1899143","pSARL_v2","pSARL_v29savow7s","574dc90512d86b000f833ab0","fixation","img/fixation.png","null","","test","","","","","",""
"308.10000014305115","1899454","pSARL_v2","pSARL_v29savow7s","574dc90512d86b000f833ab0","freq","img/green_2bandit_a2.png","70","70","test","1","105","105","5","",""
"null","1899949","pSARL_v2","pSARL_v29savow7s","574dc90512d86b000f833ab0","freq_resp","img/green_2bandit_a.png","70","70","test","","","","5","",""
"null","1900104","pSARL_v2","pSARL_v29savow7s","574dc90512d86b000f833ab0","fixation","img/fixation.png","null","","test","","","","","",""
"315.5","1900424","pSARL_v2","pSARL_v29savow7s","574dc90512d86b000f833ab0","freq","img/green_2bandit_a2.png","70","70","test","1","106","106","5","",""
"null","1900914","pSARL_v2","pSARL_v29savow7s","574dc90512d86b000f833ab0","freq_resp","img/green_2bandit_a.png","70","70","test","","","","5","",""
"null","1901070","pSARL_v2","pSARL_v29savow7s","574dc90512d86b000f833ab0","fixation","img/fixation.png","null","","test","","","","","",""
"173","1901246","pSARL_v2","pSARL_v29savow7s","574dc90512d86b000f833ab0","freq","img/green_2bandit_a2.png","70","70","test","1","107","107","5","",""
"null","1901876","pSARL_v2","pSARL_v29savow7s","574dc90512d86b000f833ab0","freq_resp","img/green_2bandit_a.png","70","70","test","","","","5","",""
"null","1902031","pSARL_v2","pSARL_v29savow7s","574dc90512d86b000f833ab0","fixation","img/fixation.png","null","","test","","","","","",""
"228","1902262","pSARL_v2","pSARL_v29savow7s","574dc90512d86b000f833ab0","freq","img/green_2bandit_a2.png","70","70","test","1","108","108","5","",""
"null","1902838","pSARL_v2","pSARL_v29savow7s","574dc90512d86b000f833ab0","freq_resp","img/green_2bandit_a.png","70","70","test","","","","5","",""
"null","1902992","pSARL_v2","pSARL_v29savow7s","574dc90512d86b000f833ab0","fixation","img/fixation.png","null","","test","","","","","",""
"139.29999995231628","1903134","pSARL_v2","pSARL_v29savow7s","574dc90512d86b000f833ab0","infreq","img/orange_2bandit_a2.png","70","68","test","0","109","109","5","",""
"null","1903798","pSARL_v2","pSARL_v29savow7s","574dc90512d86b000f833ab0","infreq_resp","img/orange_2bandit_a.png","70","68","test","","","","5","",""
"null","1903952","pSARL_v2","pSARL_v29savow7s","574dc90512d86b000f833ab0","fixation","img/fixation.png","null","","test","","","","","",""
"418.90000009536743","1904374","pSARL_v2","pSARL_v29savow7s","574dc90512d86b000f833ab0","freq","img/green_2bandit_a2.png","70","70","test","1","110","110","5","",""
"null","1904759","pSARL_v2","pSARL_v29savow7s","574dc90512d86b000f833ab0","freq_resp","img/green_2bandit_a.png","70","70","test","","","","5","",""
"null","1904913","pSARL_v2","pSARL_v29savow7s","574dc90512d86b000f833ab0","fixation","img/fixation.png","null","","test","","","","","",""
"289.40000009536743","1905205","pSARL_v2","pSARL_v29savow7s","574dc90512d86b000f833ab0","freq","img/green_2bandit_a2.png","70","70","test","1","111","111","5","",""
"null","1905719","pSARL_v2","pSARL_v29savow7s","574dc90512d86b000f833ab0","freq_resp","img/green_2bandit_a.png","70","70","test","","","","5","",""
"null","1905872","pSARL_v2","pSARL_v29savow7s","574dc90512d86b000f833ab0","fixation","img/fixation.png","null","","test","","","","","",""
"354.60000014305115","1906229","pSARL_v2","pSARL_v29savow7s","574dc90512d86b000f833ab0","freq","img/green_2bandit_a2.png","70","70","test","1","112","112","5","",""
"null","1906678","pSARL_v2","pSARL_v29savow7s","574dc90512d86b000f833ab0","freq_resp","img/green_2bandit_a.png","70","70","test","","","","5","",""
"null","1906832","pSARL_v2","pSARL_v29savow7s","574dc90512d86b000f833ab0","fixation","img/fixation.png","null","","test","","","","","",""
"362.5","1907197","pSARL_v2","pSARL_v29savow7s","574dc90512d86b000f833ab0","freq","img/green_2bandit_a2.png","70","70","test","1","113","113","5","",""
"null","1907638","pSARL_v2","pSARL_v29savow7s","574dc90512d86b000f833ab0","freq_resp","img/green_2bandit_a.png","70","70","test","","","","5","",""
"null","1907791","pSARL_v2","pSARL_v29savow7s","574dc90512d86b000f833ab0","fixation","img/fixation.png","null","","test","","","","","",""
"379.2999999523163","1908174","pSARL_v2","pSARL_v29savow7s","574dc90512d86b000f833ab0","freq","img/green_2bandit_a2.png","70","70","test","1","114","114","5","",""
"null","1908598","pSARL_v2","pSARL_v29savow7s","574dc90512d86b000f833ab0","freq_resp","img/green_2bandit_a.png","70","70","test","","","","5","",""
"null","1908751","pSARL_v2","pSARL_v29savow7s","574dc90512d86b000f833ab0","fixation","img/fixation.png","null","","test","","","","","",""
"348","1909102","pSARL_v2","pSARL_v29savow7s","574dc90512d86b000f833ab0","freq","img/green_2bandit_a2.png","70","70","test","1","115","115","5","",""
"null","1909557","pSARL_v2","pSARL_v29savow7s","574dc90512d86b000f833ab0","freq_resp","img/green_2bandit_a.png","70","70","test","","","","5","",""
"null","1909711","pSARL_v2","pSARL_v29savow7s","574dc90512d86b000f833ab0","fixation","img/fixation.png","null","","test","","","","","",""
"539.3999998569489","1910254","pSARL_v2","pSARL_v29savow7s","574dc90512d86b000f833ab0","reward","img/slot.png","74","","test","","","","","",""
"null","1911009","pSARL_v2","pSARL_v29savow7s","574dc90512d86b000f833ab0","points","<div class=""veryhighPoints""> +1 </div>","null","na","test","","","","5","1","4"
"522","1911534","pSARL_v2","pSARL_v29savow7s","574dc90512d86b000f833ab0","freq","img/green_2bandit_a2.png","70","70","test","1","116","116","6","",""
"null","1911815","pSARL_v2","pSARL_v29savow7s","574dc90512d86b000f833ab0","freq_resp","img/green_2bandit_a.png","70","70","test","","","","6","",""
"null","1911969","pSARL_v2","pSARL_v29savow7s","574dc90512d86b000f833ab0","fixation","img/fixation.png","null","","test","","","","","",""
"273.69999980926514","1912246","pSARL_v2","pSARL_v29savow7s","574dc90512d86b000f833ab0","freq","img/green_2bandit_a2.png","70","70","test","1","117","117","6","",""
"null","1912775","pSARL_v2","pSARL_v29savow7s","574dc90512d86b000f833ab0","freq_resp","img/green_2bandit_a.png","70","70","test","","","","6","",""
"null","1912929","pSARL_v2","pSARL_v29savow7s","574dc90512d86b000f833ab0","fixation","img/fixation.png","null","","test","","","","","",""
"473.69999980926514","1913406","pSARL_v2","pSARL_v29savow7s","574dc90512d86b000f833ab0","freq","img/green_2bandit_a2.png","70","70","test","1","118","118","6","",""
"null","1913736","pSARL_v2","pSARL_v29savow7s","574dc90512d86b000f833ab0","freq_resp","img/green_2bandit_a.png","70","70","test","","","","6","",""
"null","1913890","pSARL_v2","pSARL_v29savow7s","574dc90512d86b000f833ab0","fixation","img/fixation.png","null","","test","","","","","",""
"464.5","1914358","pSARL_v2","pSARL_v29savow7s","574dc90512d86b000f833ab0","infreq","img/orange_2bandit_a2.png","68","68","test","1","119","119","6","",""
"null","1914696","pSARL_v2","pSARL_v29savow7s","574dc90512d86b000f833ab0","infreq_resp","img/orange_2bandit_a.png","68","68","test","","","","6","",""
"null","1914863","pSARL_v2","pSARL_v29savow7s","574dc90512d86b000f833ab0","fixation","img/fixation.png","null","","test","","","","","",""
"380","1915246","pSARL_v2","pSARL_v29savow7s","574dc90512d86b000f833ab0","freq","img/green_2bandit_a2.png","70","70","test","1","120","120","6","",""
"null","1915670","pSARL_v2","pSARL_v29savow7s","574dc90512d86b000f833ab0","freq_resp","img/green_2bandit_a.png","70","70","test","","","","6","",""
"null","1915825","pSARL_v2","pSARL_v29savow7s","574dc90512d86b000f833ab0","fixation","img/fixation.png","null","","test","","","","","",""
"457.5","1916286","pSARL_v2","pSARL_v29savow7s","574dc90512d86b000f833ab0","freq","img/green_2bandit_a2.png","70","70","test","1","121","121","6","",""
"null","1916632","pSARL_v2","pSARL_v29savow7s","574dc90512d86b000f833ab0","freq_resp","img/green_2bandit_a.png","70","70","test","","","","6","",""
"null","1916785","pSARL_v2","pSARL_v29savow7s","574dc90512d86b000f833ab0","fixation","img/fixation.png","null","","test","","","","","",""
"417.39999985694885","1917208","pSARL_v2","pSARL_v29savow7s","574dc90512d86b000f833ab0","freq","img/green_2bandit_a2.png","70","70","test","1","122","122","6","",""
"null","1917594","pSARL_v2","pSARL_v29savow7s","574dc90512d86b000f833ab0","freq_resp","img/green_2bandit_a.png","70","70","test","","","","6","",""
"null","1917747","pSARL_v2","pSARL_v29savow7s","574dc90512d86b000f833ab0","fixation","img/fixation.png","null","","test","","","","","",""
"383.40000009536743","1918134","pSARL_v2","pSARL_v29savow7s","574dc90512d86b000f833ab0","freq","img/green_2bandit_a2.png","70","70","test","1","123","123","6","",""
"null","1918565","pSARL_v2","pSARL_v29savow7s","574dc90512d86b000f833ab0","freq_resp","img/green_2bandit_a.png","70","70","test","","","","6","",""
"null","1918721","pSARL_v2","pSARL_v29savow7s","574dc90512d86b000f833ab0","fixation","img/fixation.png","null","","test","","","","","",""
"345.90000009536743","1919070","pSARL_v2","pSARL_v29savow7s","574dc90512d86b000f833ab0","freq","img/green_2bandit_a2.png","70","70","test","1","124","124","6","",""
"null","1919528","pSARL_v2","pSARL_v29savow7s","574dc90512d86b000f833ab0","freq_resp","img/green_2bandit_a.png","70","70","test","","","","6","",""
"null","1919682","pSARL_v2","pSARL_v29savow7s","574dc90512d86b000f833ab0","fixation","img/fixation.png","null","","test","","","","","",""
"312.7999999523163","1919998","pSARL_v2","pSARL_v29savow7s","574dc90512d86b000f833ab0","freq","img/green_2bandit_a2.png","70","70","test","1","125","125","6","",""
"null","1920489","pSARL_v2","pSARL_v29savow7s","574dc90512d86b000f833ab0","freq_resp","img/green_2bandit_a.png","70","70","test","","","","6","",""
"null","1920643","pSARL_v2","pSARL_v29savow7s","574dc90512d86b000f833ab0","fixation","img/fixation.png","null","","test","","","","","",""
"336.2999999523163","1920982","pSARL_v2","pSARL_v29savow7s","574dc90512d86b000f833ab0","freq","img/green_2bandit_a2.png","70","70","test","1","126","126","6","",""
"null","1921449","pSARL_v2","pSARL_v29savow7s","574dc90512d86b000f833ab0","freq_resp","img/green_2bandit_a.png","70","70","test","","","","6","",""
"null","1921604","pSARL_v2","pSARL_v29savow7s","574dc90512d86b000f833ab0","fixation","img/fixation.png","null","","test","","","","","",""
"334.5","1921942","pSARL_v2","pSARL_v29savow7s","574dc90512d86b000f833ab0","freq","img/green_2bandit_a2.png","70","70","test","1","127","127","6","",""
"null","1922410","pSARL_v2","pSARL_v29savow7s","574dc90512d86b000f833ab0","freq_resp","img/green_2bandit_a.png","70","70","test","","","","6","",""
"null","1922565","pSARL_v2","pSARL_v29savow7s","574dc90512d86b000f833ab0","fixation","img/fixation.png","null","","test","","","","","",""
"493.19999980926514","1923062","pSARL_v2","pSARL_v29savow7s","574dc90512d86b000f833ab0","infreq","img/orange_2bandit_a2.png","68","68","test","1","128","128","6","",""
"null","1923371","pSARL_v2","pSARL_v29savow7s","574dc90512d86b000f833ab0","infreq_resp","img/orange_2bandit_a.png","68","68","test","","","","6","",""
"null","1923525","pSARL_v2","pSARL_v29savow7s","574dc90512d86b000f833ab0","fixation","img/fixation.png","null","","test","","","","","",""
"376","1923905","pSARL_v2","pSARL_v29savow7s","574dc90512d86b000f833ab0","freq","img/green_2bandit_a2.png","70","70","test","1","129","129","6","",""
"null","1924334","pSARL_v2","pSARL_v29savow7s","574dc90512d86b000f833ab0","freq_resp","img/green_2bandit_a.png","70","70","test","","","","6","",""
"null","1924490","pSARL_v2","pSARL_v29savow7s","574dc90512d86b000f833ab0","fixation","img/fixation.png","null","","test","","","","","",""
"355.2000000476837","1924852","pSARL_v2","pSARL_v29savow7s","574dc90512d86b000f833ab0","freq","img/green_2bandit_a2.png","70","70","test","1","130","130","6","",""
"null","1925299","pSARL_v2","pSARL_v29savow7s","574dc90512d86b000f833ab0","freq_resp","img/green_2bandit_a.png","70","70","test","","","","6","",""
"null","1925453","pSARL_v2","pSARL_v29savow7s","574dc90512d86b000f833ab0","fixation","img/fixation.png","null","","test","","","","","",""
"366.09999990463257","1925824","pSARL_v2","pSARL_v29savow7s","574dc90512d86b000f833ab0","freq","img/green_2bandit_a2.png","70","70","test","1","131","131","6","",""
"null","1926261","pSARL_v2","pSARL_v29savow7s","574dc90512d86b000f833ab0","freq_resp","img/green_2bandit_a.png","70","70","test","","","","6","",""
"null","1926415","pSARL_v2","pSARL_v29savow7s","574dc90512d86b000f833ab0","fixation","img/fixation.png","null","","test","","","","","",""
"347.7999999523163","1926766","pSARL_v2","pSARL_v29savow7s","574dc90512d86b000f833ab0","freq","img/green_2bandit_a2.png","70","70","test","1","132","132","6","",""
"null","1927221","pSARL_v2","pSARL_v29savow7s","574dc90512d86b000f833ab0","freq_resp","img/green_2bandit_a.png","70","70","test","","","","6","",""
"null","1927375","pSARL_v2","pSARL_v29savow7s","574dc90512d86b000f833ab0","fixation","img/fixation.png","null","","test","","","","","",""
"339.7000000476837","1927717","pSARL_v2","pSARL_v29savow7s","574dc90512d86b000f833ab0","freq","img/green_2bandit_a2.png","70","70","test","1","133","133","6","",""
"null","1928182","pSARL_v2","pSARL_v29savow7s","574dc90512d86b000f833ab0","freq_resp","img/green_2bandit_a.png","70","70","test","","","","6","",""
"null","1928336","pSARL_v2","pSARL_v29savow7s","574dc90512d86b000f833ab0","fixation","img/fixation.png","null","","test","","","","","",""
"339.09999990463257","1928678","pSARL_v2","pSARL_v29savow7s","574dc90512d86b000f833ab0","freq","img/green_2bandit_a2.png","70","70","test","1","134","134","6","",""
"null","1929142","pSARL_v2","pSARL_v29savow7s","574dc90512d86b000f833ab0","freq_resp","img/green_2bandit_a.png","70","70","test","","","","6","",""
"null","1929296","pSARL_v2","pSARL_v29savow7s","574dc90512d86b000f833ab0","fixation","img/fixation.png","null","","test","","","","","",""
"330.90000009536743","1929630","pSARL_v2","pSARL_v29savow7s","574dc90512d86b000f833ab0","freq","img/green_2bandit_a2.png","70","70","test","1","135","135","6","",""
"null","1930102","pSARL_v2","pSARL_v29savow7s","574dc90512d86b000f833ab0","freq_resp","img/green_2bandit_a.png","70","70","test","","","","6","",""
"null","1930256","pSARL_v2","pSARL_v29savow7s","574dc90512d86b000f833ab0","fixation","img/fixation.png","null","","test","","","","","",""
"642.5999999046326","1930902","pSARL_v2","pSARL_v29savow7s","574dc90512d86b000f833ab0","reward","img/slot.png","74","","test","","","","","",""
"null","1931655","pSARL_v2","pSARL_v29savow7s","574dc90512d86b000f833ab0","points","<div class=""verylowPoints""> -7 </div>","null","na","test","","","","6","-7","5"
"387.39999985694885","1932046","pSARL_v2","pSARL_v29savow7s","574dc90512d86b000f833ab0","freq","img/green_2bandit_a2.png","70","70","test","1","136","136","7","",""
"null","1932461","pSARL_v2","pSARL_v29savow7s","574dc90512d86b000f833ab0","freq_resp","img/green_2bandit_a.png","70","70","test","","","","7","",""
"null","1932615","pSARL_v2","pSARL_v29savow7s","574dc90512d86b000f833ab0","fixation","img/fixation.png","null","","test","","","","","",""
"355.09999990463257","1932973","pSARL_v2","pSARL_v29savow7s","574dc90512d86b000f833ab0","freq","img/green_2bandit_a2.png","70","70","test","1","137","137","7","",""
"null","1933421","pSARL_v2","pSARL_v29savow7s","574dc90512d86b000f833ab0","freq_resp","img/green_2bandit_a.png","70","70","test","","","","7","",""
"null","1933574","pSARL_v2","pSARL_v29savow7s","574dc90512d86b000f833ab0","fixation","img/fixation.png","null","","test","","","","","",""
"341.2000000476837","1933918","pSARL_v2","pSARL_v29savow7s","574dc90512d86b000f833ab0","freq","img/green_2bandit_a2.png","70","70","test","1","138","138","7","",""
"null","1934380","pSARL_v2","pSARL_v29savow7s","574dc90512d86b000f833ab0","freq_resp","img/green_2bandit_a.png","70","70","test","","","","7","",""
"null","1934534","pSARL_v2","pSARL_v29savow7s","574dc90512d86b000f833ab0","fixation","img/fixation.png","null","","test","","","","","",""
"324.7999999523163","1934862","pSARL_v2","pSARL_v29savow7s","574dc90512d86b000f833ab0","freq","img/green_2bandit_a2.png","70","70","test","1","139","139","7","",""
"null","1935340","pSARL_v2","pSARL_v29savow7s","574dc90512d86b000f833ab0","freq_resp","img/green_2bandit_a.png","70","70","test","","","","7","",""
"null","1935494","pSARL_v2","pSARL_v29savow7s","574dc90512d86b000f833ab0","fixation","img/fixation.png","null","","test","","","","","",""
"356.7999999523163","1935854","pSARL_v2","pSARL_v29savow7s","574dc90512d86b000f833ab0","freq","img/green_2bandit_a2.png","70","70","test","1","140","140","7","",""
"null","1936301","pSARL_v2","pSARL_v29savow7s","574dc90512d86b000f833ab0","freq_resp","img/green_2bandit_a.png","70","70","test","","","","7","",""
"null","1936454","pSARL_v2","pSARL_v29savow7s","574dc90512d86b000f833ab0","fixation","img/fixation.png","null","","test","","","","","",""
"372.60000014305115","1936829","pSARL_v2","pSARL_v29savow7s","574dc90512d86b000f833ab0","freq","img/green_2bandit_a2.png","70","70","test","1","141","141","7","",""
"null","1937262","pSARL_v2","pSARL_v29savow7s","574dc90512d86b000f833ab0","freq_resp","img/green_2bandit_a.png","70","70","test","","","","7","",""
"null","1937416","pSARL_v2","pSARL_v29savow7s","574dc90512d86b000f833ab0","fixation","img/fixation.png","null","","test","","","","","",""
"338.60000014305115","1937758","pSARL_v2","pSARL_v29savow7s","574dc90512d86b000f833ab0","freq","img/green_2bandit_a2.png","70","70","test","1","142","142","7","",""
"null","1938222","pSARL_v2","pSARL_v29savow7s","574dc90512d86b000f833ab0","freq_resp","img/green_2bandit_a.png","70","70","test","","","","7","",""
"null","1938376","pSARL_v2","pSARL_v29savow7s","574dc90512d86b000f833ab0","fixation","img/fixation.png","null","","test","","","","","",""
"315.7000000476837","1938694","pSARL_v2","pSARL_v29savow7s","574dc90512d86b000f833ab0","freq","img/green_2bandit_a2.png","70","70","test","1","143","143","7","",""
"null","1939183","pSARL_v2","pSARL_v29savow7s","574dc90512d86b000f833ab0","freq_resp","img/green_2bandit_a.png","70","70","test","","","","7","",""
"null","1939336","pSARL_v2","pSARL_v29savow7s","574dc90512d86b000f833ab0","fixation","img/fixation.png","null","","test","","","","","",""
"386.7999999523163","1939726","pSARL_v2","pSARL_v29savow7s","574dc90512d86b000f833ab0","freq","img/green_2bandit_a2.png","70","70","test","1","144","144","7","",""
"null","1940142","pSARL_v2","pSARL_v29savow7s","574dc90512d86b000f833ab0","freq_resp","img/green_2bandit_a.png","70","70","test","","","","7","",""
"null","1940296","pSARL_v2","pSARL_v29savow7s","574dc90512d86b000f833ab0","fixation","img/fixation.png","null","","test","","","","","",""
"370.7999999523163","1940669","pSARL_v2","pSARL_v29savow7s","574dc90512d86b000f833ab0","freq","img/green_2bandit_a2.png","70","70","test","1","145","145","7","",""
"null","1941102","pSARL_v2","pSARL_v29savow7s","574dc90512d86b000f833ab0","freq_resp","img/green_2bandit_a.png","70","70","test","","","","7","",""
"null","1941256","pSARL_v2","pSARL_v29savow7s","574dc90512d86b000f833ab0","fixation","img/fixation.png","null","","test","","","","","",""
"330.7000000476837","1941589","pSARL_v2","pSARL_v29savow7s","574dc90512d86b000f833ab0","freq","img/green_2bandit_a2.png","70","70","test","1","146","146","7","",""
"null","1942063","pSARL_v2","pSARL_v29savow7s","574dc90512d86b000f833ab0","freq_resp","img/green_2bandit_a.png","70","70","test","","","","7","",""
"null","1942217","pSARL_v2","pSARL_v29savow7s","574dc90512d86b000f833ab0","fixation","img/fixation.png","null","","test","","","","","",""
"345.69999980926514","1942566","pSARL_v2","pSARL_v29savow7s","574dc90512d86b000f833ab0","freq","img/green_2bandit_a2.png","70","70","test","1","147","147","7","",""
"null","1943024","pSARL_v2","pSARL_v29savow7s","574dc90512d86b000f833ab0","freq_resp","img/green_2bandit_a.png","70","70","test","","","","7","",""
"null","1943179","pSARL_v2","pSARL_v29savow7s","574dc90512d86b000f833ab0","fixation","img/fixation.png","null","","test","","","","","",""
"360.09999990463257","1943542","pSARL_v2","pSARL_v29savow7s","574dc90512d86b000f833ab0","freq","img/green_2bandit_a2.png","70","70","test","1","148","148","7","",""
"null","1943996","pSARL_v2","pSARL_v29savow7s","574dc90512d86b000f833ab0","freq_resp","img/green_2bandit_a.png","70","70","test","","","","7","",""
"null","1944153","pSARL_v2","pSARL_v29savow7s","574dc90512d86b000f833ab0","fixation","img/fixation.png","null","","test","","","","","",""
"394.2999999523163","1944550","pSARL_v2","pSARL_v29savow7s","574dc90512d86b000f833ab0","freq","img/green_2bandit_a2.png","70","70","test","1","149","149","7","",""
"null","1944959","pSARL_v2","pSARL_v29savow7s","574dc90512d86b000f833ab0","freq_resp","img/green_2bandit_a.png","70","70","test","","","","7","",""
"null","1945113","pSARL_v2","pSARL_v29savow7s","574dc90512d86b000f833ab0","fixation","img/fixation.png","null","","test","","","","","",""
"578.2999999523163","1945696","pSARL_v2","pSARL_v29savow7s","574dc90512d86b000f833ab0","infreq","img/orange_2bandit_a2.png","68","68","test","1","150","150","7","",""
"null","1945921","pSARL_v2","pSARL_v29savow7s","574dc90512d86b000f833ab0","infreq_resp","img/orange_2bandit_a.png","68","68","test","","","","7","",""
"null","1946075","pSARL_v2","pSARL_v29savow7s","574dc90512d86b000f833ab0","fixation","img/fixation.png","null","","test","","","","","",""
"479.5","1946558","pSARL_v2","pSARL_v29savow7s","574dc90512d86b000f833ab0","freq","img/green_2bandit_a2.png","70","70","test","1","151","151","7","",""
"null","1946882","pSARL_v2","pSARL_v29savow7s","574dc90512d86b000f833ab0","freq_resp","img/green_2bandit_a.png","70","70","test","","","","7","",""
"null","1947037","pSARL_v2","pSARL_v29savow7s","574dc90512d86b000f833ab0","fixation","img/fixation.png","null","","test","","","","","",""
"381.40000009536743","1947421","pSARL_v2","pSARL_v29savow7s","574dc90512d86b000f833ab0","freq","img/green_2bandit_a2.png","70","70","test","1","152","152","7","",""
"null","1947854","pSARL_v2","pSARL_v29savow7s","574dc90512d86b000f833ab0","freq_resp","img/green_2bandit_a.png","70","70","test","","","","7","",""
"null","1948007","pSARL_v2","pSARL_v29savow7s","574dc90512d86b000f833ab0","fixation","img/fixation.png","null","","test","","","","","",""
"315.7000000476837","1948326","pSARL_v2","pSARL_v29savow7s","574dc90512d86b000f833ab0","freq","img/green_2bandit_a2.png","70","70","test","1","153","153","7","",""
"null","1948814","pSARL_v2","pSARL_v29savow7s","574dc90512d86b000f833ab0","freq_resp","img/green_2bandit_a.png","70","70","test","","","","7","",""
"null","1948969","pSARL_v2","pSARL_v29savow7s","574dc90512d86b000f833ab0","fixation","img/fixation.png","null","","test","","","","","",""
"353.89999985694885","1949326","pSARL_v2","pSARL_v29savow7s","574dc90512d86b000f833ab0","freq","img/green_2bandit_a2.png","70","70","test","1","154","154","7","",""
"null","1949775","pSARL_v2","pSARL_v29savow7s","574dc90512d86b000f833ab0","freq_resp","img/green_2bandit_a.png","70","70","test","","","","7","",""
"null","1949928","pSARL_v2","pSARL_v29savow7s","574dc90512d86b000f833ab0","fixation","img/fixation.png","null","","test","","","","","",""
"266.5","1950198","pSARL_v2","pSARL_v29savow7s","574dc90512d86b000f833ab0","freq","img/green_2bandit_a2.png","70","70","test","1","155","155","7","",""
"null","1950736","pSARL_v2","pSARL_v29savow7s","574dc90512d86b000f833ab0","freq_resp","img/green_2bandit_a.png","70","70","test","","","","7","",""
"null","1950889","pSARL_v2","pSARL_v29savow7s","574dc90512d86b000f833ab0","fixation","img/fixation.png","null","","test","","","","","",""
"241.59999990463257","1951135","pSARL_v2","pSARL_v29savow7s","574dc90512d86b000f833ab0","freq","img/green_2bandit_a2.png","70","70","test","1","156","156","7","",""
"null","1951696","pSARL_v2","pSARL_v29savow7s","574dc90512d86b000f833ab0","freq_resp","img/green_2bandit_a.png","70","70","test","","","","7","",""
"null","1951852","pSARL_v2","pSARL_v29savow7s","574dc90512d86b000f833ab0","fixation","img/fixation.png","null","","test","","","","","",""
"471","1952326","pSARL_v2","pSARL_v29savow7s","574dc90512d86b000f833ab0","infreq","img/orange_2bandit_a2.png","68","68","test","1","157","157","7","",""
"null","1952659","pSARL_v2","pSARL_v29savow7s","574dc90512d86b000f833ab0","infreq_resp","img/orange_2bandit_a.png","68","68","test","","","","7","",""
"null","1952812","pSARL_v2","pSARL_v29savow7s","574dc90512d86b000f833ab0","fixation","img/fixation.png","null","","test","","","","","",""
"431","1953246","pSARL_v2","pSARL_v29savow7s","574dc90512d86b000f833ab0","freq","img/green_2bandit_a2.png","70","70","test","1","158","158","7","",""
"null","1953619","pSARL_v2","pSARL_v29savow7s","574dc90512d86b000f833ab0","freq_resp","img/green_2bandit_a.png","70","70","test","","","","7","",""
"null","1953772","pSARL_v2","pSARL_v29savow7s","574dc90512d86b000f833ab0","fixation","img/fixation.png","null","","test","","","","","",""
"462.7000000476837","1954239","pSARL_v2","pSARL_v29savow7s","574dc90512d86b000f833ab0","freq","img/green_2bandit_a2.png","70","70","test","1","159","159","7","",""
"null","1954583","pSARL_v2","pSARL_v29savow7s","574dc90512d86b000f833ab0","freq_resp","img/green_2bandit_a.png","70","70","test","","","","7","",""
"null","1954740","pSARL_v2","pSARL_v29savow7s","574dc90512d86b000f833ab0","fixation","img/fixation.png","null","","test","","","","","",""
"535.1999998092651","1955279","pSARL_v2","pSARL_v29savow7s","574dc90512d86b000f833ab0","reward","img/slot.png","74","","test","","","","","",""
"null","1956036","pSARL_v2","pSARL_v29savow7s","574dc90512d86b000f833ab0","points","<div class=""verylowPoints""> -6 </div>","null","na","test","","","","7","-6","6"
"423.09999990463257","1956462","pSARL_v2","pSARL_v29savow7s","574dc90512d86b000f833ab0","freq","img/green_2bandit_a2.png","70","70","test","1","160","160","8","",""
"null","1956842","pSARL_v2","pSARL_v29savow7s","574dc90512d86b000f833ab0","freq_resp","img/green_2bandit_a.png","70","70","test","","","","8","",""
"null","1956995","pSARL_v2","pSARL_v29savow7s","574dc90512d86b000f833ab0","fixation","img/fixation.png","null","","test","","","","","",""
"327.7000000476837","1957327","pSARL_v2","pSARL_v29savow7s","574dc90512d86b000f833ab0","freq","img/green_2bandit_a2.png","70","70","test","1","161","161","8","",""
"null","1957803","pSARL_v2","pSARL_v29savow7s","574dc90512d86b000f833ab0","freq_resp","img/green_2bandit_a.png","70","70","test","","","","8","",""
"null","1957957","pSARL_v2","pSARL_v29savow7s","574dc90512d86b000f833ab0","fixation","img/fixation.png","null","","test","","","","","",""
"477.7000000476837","1958437","pSARL_v2","pSARL_v29savow7s","574dc90512d86b000f833ab0","infreq","img/orange_2bandit_a2.png","68","68","test","1","162","162","8","",""
"null","1958763","pSARL_v2","pSARL_v29savow7s","574dc90512d86b000f833ab0","infreq_resp","img/orange_2bandit_a.png","68","68","test","","","","8","",""
"null","1958916","pSARL_v2","pSARL_v29savow7s","574dc90512d86b000f833ab0","fixation","img/fixation.png","null","","test","","","","","",""
"478.40000009536743","1959398","pSARL_v2","pSARL_v29savow7s","574dc90512d86b000f833ab0","freq","img/green_2bandit_a2.png","70","70","test","1","163","163","8","",""
"null","1959733","pSARL_v2","pSARL_v29savow7s","574dc90512d86b000f833ab0","freq_resp","img/green_2bandit_a.png","70","70","test","","","","8","",""
"null","1959889","pSARL_v2","pSARL_v29savow7s","574dc90512d86b000f833ab0","fixation","img/fixation.png","null","","test","","","","","",""
"441.5","1960334","pSARL_v2","pSARL_v29savow7s","574dc90512d86b000f833ab0","freq","img/green_2bandit_a2.png","70","70","test","1","164","164","8","",""
"null","1960695","pSARL_v2","pSARL_v29savow7s","574dc90512d86b000f833ab0","freq_resp","img/green_2bandit_a.png","70","70","test","","","","8","",""
"null","1960849","pSARL_v2","pSARL_v29savow7s","574dc90512d86b000f833ab0","fixation","img/fixation.png","null","","test","","","","","",""
"338","1961191","pSARL_v2","pSARL_v29savow7s","574dc90512d86b000f833ab0","freq","img/green_2bandit_a2.png","70","70","test","1","165","165","8","",""
"null","1961656","pSARL_v2","pSARL_v29savow7s","574dc90512d86b000f833ab0","freq_resp","img/green_2bandit_a.png","70","70","test","","","","8","",""
"null","1961809","pSARL_v2","pSARL_v29savow7s","574dc90512d86b000f833ab0","fixation","img/fixation.png","null","","test","","","","","",""
"337.2999999523163","1962150","pSARL_v2","pSARL_v29savow7s","574dc90512d86b000f833ab0","freq","img/green_2bandit_a2.png","70","70","test","1","166","166","8","",""
"null","1962616","pSARL_v2","pSARL_v29savow7s","574dc90512d86b000f833ab0","freq_resp","img/green_2bandit_a.png","70","70","test","","","","8","",""
"null","1962770","pSARL_v2","pSARL_v29savow7s","574dc90512d86b000f833ab0","fixation","img/fixation.png","null","","test","","","","","",""
"448.7999999523163","1963222","pSARL_v2","pSARL_v29savow7s","574dc90512d86b000f833ab0","infreq","img/orange_2bandit_a2.png","68","68","test","1","167","167","8","",""
"null","1963576","pSARL_v2","pSARL_v29savow7s","574dc90512d86b000f833ab0","infreq_resp","img/orange_2bandit_a.png","68","68","test","","","","8","",""
"null","1963730","pSARL_v2","pSARL_v29savow7s","574dc90512d86b000f833ab0","fixation","img/fixation.png","null","","test","","","","","",""
"456.7999999523163","1964189","pSARL_v2","pSARL_v29savow7s","574dc90512d86b000f833ab0","infreq","img/orange_2bandit_a2.png","68","68","test","1","168","168","8","",""
"null","1964536","pSARL_v2","pSARL_v29savow7s","574dc90512d86b000f833ab0","infreq_resp","img/orange_2bandit_a.png","68","68","test","","","","8","",""
"null","1964689","pSARL_v2","pSARL_v29savow7s","574dc90512d86b000f833ab0","fixation","img/fixation.png","null","","test","","","","","",""
"497.5","1965190","pSARL_v2","pSARL_v29savow7s","574dc90512d86b000f833ab0","freq","img/green_2bandit_a2.png","70","70","test","1","169","169","8","",""
"null","1965496","pSARL_v2","pSARL_v29savow7s","574dc90512d86b000f833ab0","freq_resp","img/green_2bandit_a.png","70","70","test","","","","8","",""
"null","1965649","pSARL_v2","pSARL_v29savow7s","574dc90512d86b000f833ab0","fixation","img/fixation.png","null","","test","","","","","",""
"353.89999985694885","1966006","pSARL_v2","pSARL_v29savow7s","574dc90512d86b000f833ab0","freq","img/green_2bandit_a2.png","70","70","test","1","170","170","8","",""
"null","1966457","pSARL_v2","pSARL_v29savow7s","574dc90512d86b000f833ab0","freq_resp","img/green_2bandit_a.png","70","70","test","","","","8","",""
"null","1966612","pSARL_v2","pSARL_v29savow7s","574dc90512d86b000f833ab0","fixation","img/fixation.png","null","","test","","","","","",""
"366.59999990463257","1966982","pSARL_v2","pSARL_v29savow7s","574dc90512d86b000f833ab0","freq","img/green_2bandit_a2.png","70","70","test","1","171","171","8","",""
"null","1967419","pSARL_v2","pSARL_v29savow7s","574dc90512d86b000f833ab0","freq_resp","img/green_2bandit_a.png","70","70","test","","","","8","",""
"null","1967575","pSARL_v2","pSARL_v29savow7s","574dc90512d86b000f833ab0","fixation","img/fixation.png","null","","test","","","","","",""
"51.200000047683716","1967630","pSARL_v2","pSARL_v29savow7s","574dc90512d86b000f833ab0","freq","img/green_2bandit_a2.png","70","70","test","1","172","172","8","",""
"null","1968383","pSARL_v2","pSARL_v29savow7s","574dc90512d86b000f833ab0","freq_resp","img/green_2bandit_a.png","70","70","test","","","","8","",""
"null","1968561","pSARL_v2","pSARL_v29savow7s","574dc90512d86b000f833ab0","fixation","img/fixation.png","null","","test","","","","","",""
"361.59999990463257","1968926","pSARL_v2","pSARL_v29savow7s","574dc90512d86b000f833ab0","freq","img/green_2bandit_a2.png","70","70","test","1","173","173","8","",""
"null","1969367","pSARL_v2","pSARL_v29savow7s","574dc90512d86b000f833ab0","freq_resp","img/green_2bandit_a.png","70","70","test","","","","8","",""
"null","1969522","pSARL_v2","pSARL_v29savow7s","574dc90512d86b000f833ab0","fixation","img/fixation.png","null","","test","","","","","",""
"353.10000014305115","1969878","pSARL_v2","pSARL_v29savow7s","574dc90512d86b000f833ab0","freq","img/green_2bandit_a2.png","70","70","test","1","174","174","8","",""
"null","1970327","pSARL_v2","pSARL_v29savow7s","574dc90512d86b000f833ab0","freq_resp","img/green_2bandit_a.png","70","70","test","","","","8","",""
"null","1970481","pSARL_v2","pSARL_v29savow7s","574dc90512d86b000f833ab0","fixation","img/fixation.png","null","","test","","","","","",""
"313.7999999523163","1970798","pSARL_v2","pSARL_v29savow7s","574dc90512d86b000f833ab0","freq","img/green_2bandit_a2.png","70","70","test","1","175","175","8","",""
"null","1971287","pSARL_v2","pSARL_v29savow7s","574dc90512d86b000f833ab0","freq_resp","img/green_2bandit_a.png","70","70","test","","","","8","",""
"null","1971448","pSARL_v2","pSARL_v29savow7s","574dc90512d86b000f833ab0","fixation","img/fixation.png","null","","test","","","","","",""
"330.40000009536743","1971782","pSARL_v2","pSARL_v29savow7s","574dc90512d86b000f833ab0","freq","img/green_2bandit_a2.png","70","70","test","1","176","176","8","",""
"null","1972254","pSARL_v2","pSARL_v29savow7s","574dc90512d86b000f833ab0","freq_resp","img/green_2bandit_a.png","70","70","test","","","","8","",""
"null","1972408","pSARL_v2","pSARL_v29savow7s","574dc90512d86b000f833ab0","fixation","img/fixation.png","null","","test","","","","","",""
"306.7999999523163","1972718","pSARL_v2","pSARL_v29savow7s","574dc90512d86b000f833ab0","freq","img/green_2bandit_a2.png","70","70","test","1","177","177","8","",""
"null","1973214","pSARL_v2","pSARL_v29savow7s","574dc90512d86b000f833ab0","freq_resp","img/green_2bandit_a.png","70","70","test","","","","8","",""
"null","1973369","pSARL_v2","pSARL_v29savow7s","574dc90512d86b000f833ab0","fixation","img/fixation.png","null","","test","","","","","",""
"409.7999999523163","1973781","pSARL_v2","pSARL_v29savow7s","574dc90512d86b000f833ab0","freq","img/green_2bandit_a2.png","70","70","test","1","178","178","8","",""
"null","1974175","pSARL_v2","pSARL_v29savow7s","574dc90512d86b000f833ab0","freq_resp","img/green_2bandit_a.png","70","70","test","","","","8","",""
"null","1974329","pSARL_v2","pSARL_v29savow7s","574dc90512d86b000f833ab0","fixation","img/fixation.png","null","","test","","","","","",""
"329.7999999523163","1974661","pSARL_v2","pSARL_v29savow7s","574dc90512d86b000f833ab0","freq","img/green_2bandit_a2.png","70","70","test","1","179","179","8","",""
"null","1975134","pSARL_v2","pSARL_v29savow7s","574dc90512d86b000f833ab0","freq_resp","img/green_2bandit_a.png","70","70","test","","","","8","",""
"null","1975287","pSARL_v2","pSARL_v29savow7s","574dc90512d86b000f833ab0","fixation","img/fixation.png","null","","test","","","","","",""
"339.09999990463257","1975629","pSARL_v2","pSARL_v29savow7s","574dc90512d86b000f833ab0","freq","img/green_2bandit_a2.png","70","70","test","1","180","180","8","",""
"null","1976094","pSARL_v2","pSARL_v29savow7s","574dc90512d86b000f833ab0","freq_resp","img/green_2bandit_a.png","70","70","test","","","","8","",""
"null","1976248","pSARL_v2","pSARL_v29savow7s","574dc90512d86b000f833ab0","fixation","img/fixation.png","null","","test","","","","","",""
"298.7999999523163","1976549","pSARL_v2","pSARL_v29savow7s","574dc90512d86b000f833ab0","freq","img/green_2bandit_a2.png","70","70","test","1","181","181","8","",""
"null","1977054","pSARL_v2","pSARL_v29savow7s","574dc90512d86b000f833ab0","freq_resp","img/green_2bandit_a.png","70","70","test","","","","8","",""
"null","1977208","pSARL_v2","pSARL_v29savow7s","574dc90512d86b000f833ab0","fixation","img/fixation.png","null","","test","","","","","",""
"435.40000009536743","1977648","pSARL_v2","pSARL_v29savow7s","574dc90512d86b000f833ab0","freq","img/green_2bandit_a2.png","70","70","test","1","182","182","8","",""
"null","1978016","pSARL_v2","pSARL_v29savow7s","574dc90512d86b000f833ab0","freq_resp","img/green_2bandit_a.png","70","70","test","","","","8","",""
"null","1978170","pSARL_v2","pSARL_v29savow7s","574dc90512d86b000f833ab0","fixation","img/fixation.png","null","","test","","","","","",""
"537","1978709","pSARL_v2","pSARL_v29savow7s","574dc90512d86b000f833ab0","reward","img/slot.png","74","","test","","","","","",""
"null","1979463","pSARL_v2","pSARL_v29savow7s","574dc90512d86b000f833ab0","points","<div class=""verylowPoints""> -4 </div>","null","na","test","","","","8","-4","7"
"500.10000014305115","1979966","pSARL_v2","pSARL_v29savow7s","574dc90512d86b000f833ab0","freq","img/green_2bandit_a2.png","70","70","test","1","183","183","9","",""
"null","1980268","pSARL_v2","pSARL_v29savow7s","574dc90512d86b000f833ab0","freq_resp","img/green_2bandit_a.png","70","70","test","","","","9","",""
"null","1980422","pSARL_v2","pSARL_v29savow7s","574dc90512d86b000f833ab0","fixation","img/fixation.png","null","","test","","","","","",""
"340.7999999523163","1980766","pSARL_v2","pSARL_v29savow7s","574dc90512d86b000f833ab0","freq","img/green_2bandit_a2.png","70","70","test","1","184","184","9","",""
"null","1981231","pSARL_v2","pSARL_v29savow7s","574dc90512d86b000f833ab0","freq_resp","img/green_2bandit_a.png","70","70","test","","","","9","",""
"null","1981385","pSARL_v2","pSARL_v29savow7s","574dc90512d86b000f833ab0","fixation","img/fixation.png","null","","test","","","","","",""
"314","1981701","pSARL_v2","pSARL_v29savow7s","574dc90512d86b000f833ab0","freq","img/green_2bandit_a2.png","70","70","test","1","185","185","9","",""
"null","1982197","pSARL_v2","pSARL_v29savow7s","574dc90512d86b000f833ab0","freq_resp","img/green_2bandit_a.png","70","70","test","","","","9","",""
"null","1982350","pSARL_v2","pSARL_v29savow7s","574dc90512d86b000f833ab0","fixation","img/fixation.png","null","","test","","","","","",""
"300.09999990463257","1982654","pSARL_v2","pSARL_v29savow7s","574dc90512d86b000f833ab0","freq","img/green_2bandit_a2.png","70","70","test","1","186","186","9","",""
"null","1983158","pSARL_v2","pSARL_v29savow7s","574dc90512d86b000f833ab0","freq_resp","img/green_2bandit_a.png","70","70","test","","","","9","",""
"null","1983311","pSARL_v2","pSARL_v29savow7s","574dc90512d86b000f833ab0","fixation","img/fixation.png","null","","test","","","","","",""
"299.7999999523163","1983614","pSARL_v2","pSARL_v29savow7s","574dc90512d86b000f833ab0","freq","img/green_2bandit_a2.png","70","70","test","1","187","187","9","",""
"null","1984123","pSARL_v2","pSARL_v29savow7s","574dc90512d86b000f833ab0","freq_resp","img/green_2bandit_a.png","70","70","test","","","","9","",""
"null","1984278","pSARL_v2","pSARL_v29savow7s","574dc90512d86b000f833ab0","fixation","img/fixation.png","null","","test","","","","","",""
"292","1984578","pSARL_v2","pSARL_v29savow7s","574dc90512d86b000f833ab0","infreq","img/orange_2bandit_a2.png","70","68","test","0","188","188","9","",""
"null","1985090","pSARL_v2","pSARL_v29savow7s","574dc90512d86b000f833ab0","infreq_resp","img/orange_2bandit_a.png","70","68","test","","","","9","",""
"null","1985244","pSARL_v2","pSARL_v29savow7s","574dc90512d86b000f833ab0","fixation","img/fixation.png","null","","test","","","","","",""
"334.2999999523163","1985582","pSARL_v2","pSARL_v29savow7s","574dc90512d86b000f833ab0","freq","img/green_2bandit_a2.png","70","70","test","1","189","189","9","",""
"null","1986051","pSARL_v2","pSARL_v29savow7s","574dc90512d86b000f833ab0","freq_resp","img/green_2bandit_a.png","70","70","test","","","","9","",""
"null","1986205","pSARL_v2","pSARL_v29savow7s","574dc90512d86b000f833ab0","fixation","img/fixation.png","null","","test","","","","","",""
"430.10000014305115","1986638","pSARL_v2","pSARL_v29savow7s","574dc90512d86b000f833ab0","freq","img/green_2bandit_a2.png","70","70","test","1","190","190","9","",""
"null","1987010","pSARL_v2","pSARL_v29savow7s","574dc90512d86b000f833ab0","freq_resp","img/green_2bandit_a.png","70","70","test","","","","9","",""
"null","1987164","pSARL_v2","pSARL_v29savow7s","574dc90512d86b000f833ab0","fixation","img/fixation.png","null","","test","","","","","",""
"349.09999990463257","1987518","pSARL_v2","pSARL_v29savow7s","574dc90512d86b000f833ab0","freq","img/green_2bandit_a2.png","70","70","test","1","191","191","9","",""
"null","1987972","pSARL_v2","pSARL_v29savow7s","574dc90512d86b000f833ab0","freq_resp","img/green_2bandit_a.png","70","70","test","","","","9","",""
"null","1988125","pSARL_v2","pSARL_v29savow7s","574dc90512d86b000f833ab0","fixation","img/fixation.png","null","","test","","","","","",""
"485.2999999523163","1988614","pSARL_v2","pSARL_v29savow7s","574dc90512d86b000f833ab0","freq","img/green_2bandit_a2.png","70","70","test","1","192","192","9","",""
"null","1988931","pSARL_v2","pSARL_v29savow7s","574dc90512d86b000f833ab0","freq_resp","img/green_2bandit_a.png","70","70","test","","","","9","",""
"null","1989084","pSARL_v2","pSARL_v29savow7s","574dc90512d86b000f833ab0","fixation","img/fixation.png","null","","test","","","","","",""
"534.0999999046326","1989622","pSARL_v2","pSARL_v29savow7s","574dc90512d86b000f833ab0","freq","img/green_2bandit_a2.png","70","70","test","1","193","193","9","",""
"null","1989890","pSARL_v2","pSARL_v29savow7s","574dc90512d86b000f833ab0","freq_resp","img/green_2bandit_a.png","70","70","test","","","","9","",""
"null","1990045","pSARL_v2","pSARL_v29savow7s","574dc90512d86b000f833ab0","fixation","img/fixation.png","null","","test","","","","","",""
"621.0999999046326","1990669","pSARL_v2","pSARL_v29savow7s","574dc90512d86b000f833ab0","freq","img/green_2bandit_a2.png","70","70","test","1","194","194","9","",""
"null","1990851","pSARL_v2","pSARL_v29savow7s","574dc90512d86b000f833ab0","freq_resp","img/green_2bandit_a.png","70","70","test","","","","9","",""
"null","1991006","pSARL_v2","pSARL_v29savow7s","574dc90512d86b000f833ab0","fixation","img/fixation.png","null","","test","","","","","",""
"629","1991638","pSARL_v2","pSARL_v29savow7s","574dc90512d86b000f833ab0","freq","img/green_2bandit_a2.png","70","70","test","1","195","195","9","",""
"null","1991812","pSARL_v2","pSARL_v29savow7s","574dc90512d86b000f833ab0","freq_resp","img/green_2bandit_a.png","70","70","test","","","","9","",""
"null","1991966","pSARL_v2","pSARL_v29savow7s","574dc90512d86b000f833ab0","fixation","img/fixation.png","null","","test","","","","","",""
"604.5","1992574","pSARL_v2","pSARL_v29savow7s","574dc90512d86b000f833ab0","freq","img/green_2bandit_a2.png","70","70","test","1","196","196","9","",""
"null","1992788","pSARL_v2","pSARL_v29savow7s","574dc90512d86b000f833ab0","freq_resp","img/green_2bandit_a.png","70","70","test","","","","9","",""
"null","1992941","pSARL_v2","pSARL_v29savow7s","574dc90512d86b000f833ab0","fixation","img/fixation.png","null","","test","","","","","",""
"589.5","1993534","pSARL_v2","pSARL_v29savow7s","574dc90512d86b000f833ab0","freq","img/green_2bandit_a2.png","70","70","test","1","197","197","9","",""
"null","1993747","pSARL_v2","pSARL_v29savow7s","574dc90512d86b000f833ab0","freq_resp","img/green_2bandit_a.png","70","70","test","","","","9","",""
"null","1993901","pSARL_v2","pSARL_v29savow7s","574dc90512d86b000f833ab0","fixation","img/fixation.png","null","","test","","","","","",""
"597.2000000476837","1994503","pSARL_v2","pSARL_v29savow7s","574dc90512d86b000f833ab0","freq","img/green_2bandit_a2.png","70","70","test","1","198","198","9","",""
"null","1994712","pSARL_v2","pSARL_v29savow7s","574dc90512d86b000f833ab0","freq_resp","img/green_2bandit_a.png","70","70","test","","","","9","",""
"null","1994867","pSARL_v2","pSARL_v29savow7s","574dc90512d86b000f833ab0","fixation","img/fixation.png","null","","test","","","","","",""
"495.69999980926514","1995366","pSARL_v2","pSARL_v29savow7s","574dc90512d86b000f833ab0","infreq","img/orange_2bandit_a2.png","68","68","test","1","199","199","9","",""
"null","1995673","pSARL_v2","pSARL_v29savow7s","574dc90512d86b000f833ab0","infreq_resp","img/orange_2bandit_a.png","68","68","test","","","","9","",""
"null","1995828","pSARL_v2","pSARL_v29savow7s","574dc90512d86b000f833ab0","fixation","img/fixation.png","null","","test","","","","","",""
"438.59999990463257","1996269","pSARL_v2","pSARL_v29savow7s","574dc90512d86b000f833ab0","freq","img/green_2bandit_a2.png","70","70","test","1","200","200","9","",""
"null","1996635","pSARL_v2","pSARL_v29savow7s","574dc90512d86b000f833ab0","freq_resp","img/green_2bandit_a.png","70","70","test","","","","9","",""
"null","1996794","pSARL_v2","pSARL_v29savow7s","574dc90512d86b000f833ab0","fixation","img/fixation.png","null","","test","","","","","",""
"320.40000009536743","1997118","pSARL_v2","pSARL_v29savow7s","574dc90512d86b000f833ab0","freq","img/green_2bandit_a2.png","70","70","test","1","201","201","9","",""
"null","1997601","pSARL_v2","pSARL_v29savow7s","574dc90512d86b000f833ab0","freq_resp","img/green_2bandit_a.png","70","70","test","","","","9","",""
"null","1997755","pSARL_v2","pSARL_v29savow7s","574dc90512d86b000f833ab0","fixation","img/fixation.png","null","","test","","","","","",""
"391.39999985694885","1998150","pSARL_v2","pSARL_v29savow7s","574dc90512d86b000f833ab0","freq","img/green_2bandit_a2.png","70","70","test","1","202","202","9","",""
"null","1998562","pSARL_v2","pSARL_v29savow7s","574dc90512d86b000f833ab0","freq_resp","img/green_2bandit_a.png","70","70","test","","","","9","",""
"null","1998716","pSARL_v2","pSARL_v29savow7s","574dc90512d86b000f833ab0","fixation","img/fixation.png","null","","test","","","","","",""
"574.5","1999293","pSARL_v2","pSARL_v29savow7s","574dc90512d86b000f833ab0","reward","img/slot.png","74","","test","","","","","",""
"null","2000048","pSARL_v2","pSARL_v29savow7s","574dc90512d86b000f833ab0","points","<div class=""verylowPoints""> -3 </div>","null","na","test","","","","9","-3","8"
"466.5","2000518","pSARL_v2","pSARL_v29savow7s","574dc90512d86b000f833ab0","freq","img/green_2bandit_a2.png","70","70","test","1","203","203","10","",""
"null","2000855","pSARL_v2","pSARL_v29savow7s","574dc90512d86b000f833ab0","freq_resp","img/green_2bandit_a.png","70","70","test","","","","10","",""
"null","2001010","pSARL_v2","pSARL_v29savow7s","574dc90512d86b000f833ab0","fixation","img/fixation.png","null","","test","","","","","",""
"376.90000009536743","2001390","pSARL_v2","pSARL_v29savow7s","574dc90512d86b000f833ab0","freq","img/green_2bandit_a2.png","70","70","test","1","204","204","10","",""
"null","2001817","pSARL_v2","pSARL_v29savow7s","574dc90512d86b000f833ab0","freq_resp","img/green_2bandit_a.png","70","70","test","","","","10","",""
