"rt","time_elapsed","expId","subject","prolificID","trialType","stimulus","key_press","corrresp","phase","corr","trialNum","attentionRunNum","blockNum","points","rlNum"
"1841076.4000000954","1841083","pSARL_v2","pSARL_v24rzu966z","56fc8248b5648e000fac9980","","","","","","","","","","",""
"","1848551","pSARL_v2","pSARL_v24rzu966z","56fc8248b5648e000fac9980","fullscreen","","","","","","","","","",""
"184994.7999997139","2033551","pSARL_v2","pSARL_v24rzu966z","56fc8248b5648e000fac9980","","","","","","","","","","",""
"null","2034372","pSARL_v2","pSARL_v24rzu966z","56fc8248b5648e000fac9980","freqPrac","img/orange_2bandit_a2.png","null","70","prac","0","","","","",""
"null","2035378","pSARL_v2","pSARL_v24rzu966z","56fc8248b5648e000fac9980","feedback","img/tooSlow.png","null","na","prac","","","","","",""
"null","2035539","pSARL_v2","pSARL_v24rzu966z","56fc8248b5648e000fac9980","fixation","img/fixation.png","null","","prac","","","","","",""
"403.40000009536743","2035948","pSARL_v2","pSARL_v24rzu966z","56fc8248b5648e000fac9980","infreqPrac","img/green_2bandit_a2.png","68","68","prac","1","","","","",""
"403.40000009536743","2036350","pSARL_v2","pSARL_v24rzu966z","56fc8248b5648e000fac9980","infreqPrac_resp","img/green_2bandit_a.png","68","68","prac","","","","","",""
"null","2036517","pSARL_v2","pSARL_v24rzu966z","56fc8248b5648e000fac9980","fixation","img/fixation.png","null","","prac","","","","","",""
"83.80000019073486","2036606","pSARL_v2","pSARL_v24rzu966z","56fc8248b5648e000fac9980","freqPrac","img/orange_2bandit_a2.png","68","70","prac","0","","","","",""
"83.80000019073486","2037332","pSARL_v2","pSARL_v24rzu966z","56fc8248b5648e000fac9980","freqPrac_resp","img/orange_2bandit_a.png","68","70","prac","","","","","",""
"null","2038345","pSARL_v2","pSARL_v24rzu966z","56fc8248b5648e000fac9980","feedback","img/wrongKey.png","null","na","prac","","","","","",""
"null","2038515","pSARL_v2","pSARL_v24rzu966z","56fc8248b5648e000fac9980","fixation","img/fixation.png","null","","prac","","","","","",""
"521.9000000953674","2039043","pSARL_v2","pSARL_v24rzu966z","56fc8248b5648e000fac9980","infreqPrac","img/green_2bandit_a2.png","68","68","prac","1","","","","",""
"521.9000000953674","2039334","pSARL_v2","pSARL_v24rzu966z","56fc8248b5648e000fac9980","infreqPrac_resp","img/green_2bandit_a.png","68","68","prac","","","","","",""
"null","2039504","pSARL_v2","pSARL_v24rzu966z","56fc8248b5648e000fac9980","fixation","img/fixation.png","null","","prac","","","","","",""
"500.5","2040010","pSARL_v2","pSARL_v24rzu966z","56fc8248b5648e000fac9980","infreqPrac","img/green_2bandit_a2.png","68","68","prac","1","","","","",""
"500.5","2040328","pSARL_v2","pSARL_v24rzu966z","56fc8248b5648e000fac9980","infreqPrac_resp","img/green_2bandit_a.png","68","68","prac","","","","","",""
"null","2040497","pSARL_v2","pSARL_v24rzu966z","56fc8248b5648e000fac9980","fixation","img/fixation.png","null","","prac","","","","","",""
"391.19999980926514","2040893","pSARL_v2","pSARL_v24rzu966z","56fc8248b5648e000fac9980","infreqPrac","img/green_2bandit_a2.png","68","68","prac","1","","","","",""
"391.19999980926514","2041320","pSARL_v2","pSARL_v24rzu966z","56fc8248b5648e000fac9980","infreqPrac_resp","img/green_2bandit_a.png","68","68","prac","","","","","",""
"null","2041475","pSARL_v2","pSARL_v24rzu966z","56fc8248b5648e000fac9980","fixation","img/fixation.png","null","","prac","","","","","",""
"382.90000009536743","2041864","pSARL_v2","pSARL_v24rzu966z","56fc8248b5648e000fac9980","freqPrac","img/orange_2bandit_a2.png","70","70","prac","1","","","","",""
"382.90000009536743","2042294","pSARL_v2","pSARL_v24rzu966z","56fc8248b5648e000fac9980","freqPrac_resp","img/orange_2bandit_a.png","70","70","prac","","","","","",""
"null","2042464","pSARL_v2","pSARL_v24rzu966z","56fc8248b5648e000fac9980","fixation","img/fixation.png","null","","prac","","","","","",""
"508.6000003814697","2042978","pSARL_v2","pSARL_v24rzu966z","56fc8248b5648e000fac9980","infreqPrac","img/green_2bandit_a2.png","68","68","prac","1","","","","",""
"508.6000003814697","2043284","pSARL_v2","pSARL_v24rzu966z","56fc8248b5648e000fac9980","infreqPrac_resp","img/green_2bandit_a.png","68","68","prac","","","","","",""
"null","2043455","pSARL_v2","pSARL_v24rzu966z","56fc8248b5648e000fac9980","fixation","img/fixation.png","null","","prac","","","","","",""
"465.69999980926514","2043925","pSARL_v2","pSARL_v24rzu966z","56fc8248b5648e000fac9980","freqPrac","img/orange_2bandit_a2.png","70","70","prac","1","","","","",""
"465.69999980926514","2044277","pSARL_v2","pSARL_v24rzu966z","56fc8248b5648e000fac9980","freqPrac_resp","img/orange_2bandit_a.png","70","70","prac","","","","","",""
"null","2044433","pSARL_v2","pSARL_v24rzu966z","56fc8248b5648e000fac9980","fixation","img/fixation.png","null","","prac","","","","","",""
"373.59999990463257","2044811","pSARL_v2","pSARL_v24rzu966z","56fc8248b5648e000fac9980","freqPrac","img/orange_2bandit_a2.png","70","70","prac","1","","","","",""
"373.59999990463257","2045254","pSARL_v2","pSARL_v24rzu966z","56fc8248b5648e000fac9980","freqPrac_resp","img/orange_2bandit_a.png","70","70","prac","","","","","",""
"null","2045429","pSARL_v2","pSARL_v24rzu966z","56fc8248b5648e000fac9980","fixation","img/fixation.png","null","","prac","","","","","",""
"24668.199999809265","2070102","pSARL_v2","pSARL_v24rzu966z","56fc8248b5648e000fac9980","","","","","prac","","","","","",""
"845.0999999046326","2070953","pSARL_v2","pSARL_v24rzu966z","56fc8248b5648e000fac9980","rewardPractice","img/slot.png","74","","prac","","","","","",""
"null","2071713","pSARL_v2","pSARL_v24rzu966z","56fc8248b5648e000fac9980","feedback","<div class=""veryhighPoints""> +15 </div>","null","na","prac","","","","","",""
"null","2071882","pSARL_v2","pSARL_v24rzu966z","56fc8248b5648e000fac9980","fixation","img/fixation.png","null","","prac","","","","","",""
"17097.099999904633","2088984","pSARL_v2","pSARL_v24rzu966z","56fc8248b5648e000fac9980","","","","","prac","","","","","",""
"421.30000019073486","2089411","pSARL_v2","pSARL_v24rzu966z","56fc8248b5648e000fac9980","freq","img/orange_2bandit_a2.png","70","70","test","1","1","1","1","",""
"null","2089797","pSARL_v2","pSARL_v24rzu966z","56fc8248b5648e000fac9980","freq_resp","img/orange_2bandit_a.png","70","70","test","","","","1","",""
"null","2089968","pSARL_v2","pSARL_v24rzu966z","56fc8248b5648e000fac9980","fixation","img/fixation.png","null","","test","","","","","",""
"443.40000009536743","2090417","pSARL_v2","pSARL_v24rzu966z","56fc8248b5648e000fac9980","infreq","img/green_2bandit_a2.png","68","68","test","1","2","2","1","",""
"null","2090793","pSARL_v2","pSARL_v24rzu966z","56fc8248b5648e000fac9980","infreq_resp","img/green_2bandit_a.png","68","68","test","","","","1","",""
"null","2090963","pSARL_v2","pSARL_v24rzu966z","56fc8248b5648e000fac9980","fixation","img/fixation.png","null","","test","","","","","",""
"374.3999996185303","2091342","pSARL_v2","pSARL_v24rzu966z","56fc8248b5648e000fac9980","freq","img/orange_2bandit_a2.png","70","70","test","1","3","3","1","",""
"null","2091775","pSARL_v2","pSARL_v24rzu966z","56fc8248b5648e000fac9980","freq_resp","img/orange_2bandit_a.png","70","70","test","","","","1","",""
"null","2091944","pSARL_v2","pSARL_v24rzu966z","56fc8248b5648e000fac9980","fixation","img/fixation.png","null","","test","","","","","",""
"338.30000019073486","2092287","pSARL_v2","pSARL_v24rzu966z","56fc8248b5648e000fac9980","freq","img/orange_2bandit_a2.png","70","70","test","1","4","4","1","",""
"null","2092764","pSARL_v2","pSARL_v24rzu966z","56fc8248b5648e000fac9980","freq_resp","img/orange_2bandit_a.png","70","70","test","","","","1","",""
"null","2092919","pSARL_v2","pSARL_v24rzu966z","56fc8248b5648e000fac9980","fixation","img/fixation.png","null","","test","","","","","",""
"317.5","2093243","pSARL_v2","pSARL_v24rzu966z","56fc8248b5648e000fac9980","freq","img/orange_2bandit_a2.png","70","70","test","1","5","5","1","",""
"null","2093745","pSARL_v2","pSARL_v24rzu966z","56fc8248b5648e000fac9980","freq_resp","img/orange_2bandit_a.png","70","70","test","","","","1","",""
"null","2093914","pSARL_v2","pSARL_v24rzu966z","56fc8248b5648e000fac9980","fixation","img/fixation.png","null","","test","","","","","",""
"296.90000009536743","2094216","pSARL_v2","pSARL_v24rzu966z","56fc8248b5648e000fac9980","freq","img/orange_2bandit_a2.png","70","70","test","1","6","6","1","",""
"null","2094738","pSARL_v2","pSARL_v24rzu966z","56fc8248b5648e000fac9980","freq_resp","img/orange_2bandit_a.png","70","70","test","","","","1","",""
"null","2094908","pSARL_v2","pSARL_v24rzu966z","56fc8248b5648e000fac9980","fixation","img/fixation.png","null","","test","","","","","",""
"284.1000003814697","2095197","pSARL_v2","pSARL_v24rzu966z","56fc8248b5648e000fac9980","freq","img/orange_2bandit_a2.png","70","70","test","1","7","7","1","",""
"null","2095732","pSARL_v2","pSARL_v24rzu966z","56fc8248b5648e000fac9980","freq_resp","img/orange_2bandit_a.png","70","70","test","","","","1","",""
"null","2095903","pSARL_v2","pSARL_v24rzu966z","56fc8248b5648e000fac9980","fixation","img/fixation.png","null","","test","","","","","",""
"272.5","2096180","pSARL_v2","pSARL_v24rzu966z","56fc8248b5648e000fac9980","freq","img/orange_2bandit_a2.png","70","70","test","1","8","8","1","",""
"null","2096713","pSARL_v2","pSARL_v24rzu966z","56fc8248b5648e000fac9980","freq_resp","img/orange_2bandit_a.png","70","70","test","","","","1","",""
"null","2096884","pSARL_v2","pSARL_v24rzu966z","56fc8248b5648e000fac9980","fixation","img/fixation.png","null","","test","","","","","",""
"257.5","2097147","pSARL_v2","pSARL_v24rzu966z","56fc8248b5648e000fac9980","freq","img/orange_2bandit_a2.png","70","70","test","1","9","9","1","",""
"null","2097696","pSARL_v2","pSARL_v24rzu966z","56fc8248b5648e000fac9980","freq_resp","img/orange_2bandit_a.png","70","70","test","","","","1","",""
"null","2097855","pSARL_v2","pSARL_v24rzu966z","56fc8248b5648e000fac9980","fixation","img/fixation.png","null","","test","","","","","",""
"263.30000019073486","2098123","pSARL_v2","pSARL_v24rzu966z","56fc8248b5648e000fac9980","freq","img/orange_2bandit_a2.png","70","70","test","1","10","10","1","",""
"null","2098680","pSARL_v2","pSARL_v24rzu966z","56fc8248b5648e000fac9980","freq_resp","img/orange_2bandit_a.png","70","70","test","","","","1","",""
"null","2098852","pSARL_v2","pSARL_v24rzu966z","56fc8248b5648e000fac9980","fixation","img/fixation.png","null","","test","","","","","",""
"357.7999997138977","2099215","pSARL_v2","pSARL_v24rzu966z","56fc8248b5648e000fac9980","infreq","img/green_2bandit_a2.png","68","68","test","1","11","11","1","",""
"null","2099670","pSARL_v2","pSARL_v24rzu966z","56fc8248b5648e000fac9980","infreq_resp","img/green_2bandit_a.png","68","68","test","","","","1","",""
"null","2099839","pSARL_v2","pSARL_v24rzu966z","56fc8248b5648e000fac9980","fixation","img/fixation.png","null","","test","","","","","",""
"326.5","2100171","pSARL_v2","pSARL_v24rzu966z","56fc8248b5648e000fac9980","freq","img/orange_2bandit_a2.png","68","70","test","0","12","12","1","",""
"null","2100655","pSARL_v2","pSARL_v24rzu966z","56fc8248b5648e000fac9980","freq_resp","img/orange_2bandit_a.png","68","70","test","","","","1","",""
"null","2100825","pSARL_v2","pSARL_v24rzu966z","56fc8248b5648e000fac9980","fixation","img/fixation.png","null","","test","","","","","",""
"446.40000009536743","2101277","pSARL_v2","pSARL_v24rzu966z","56fc8248b5648e000fac9980","freq","img/orange_2bandit_a2.png","70","70","test","1","13","13","1","",""
"null","2101642","pSARL_v2","pSARL_v24rzu966z","56fc8248b5648e000fac9980","freq_resp","img/orange_2bandit_a.png","70","70","test","","","","1","",""
"null","2101812","pSARL_v2","pSARL_v24rzu966z","56fc8248b5648e000fac9980","fixation","img/fixation.png","null","","test","","","","","",""
"314.6000003814697","2102132","pSARL_v2","pSARL_v24rzu966z","56fc8248b5648e000fac9980","freq","img/orange_2bandit_a2.png","70","70","test","1","14","14","1","",""
"null","2102628","pSARL_v2","pSARL_v24rzu966z","56fc8248b5648e000fac9980","freq_resp","img/orange_2bandit_a.png","70","70","test","","","","1","",""
"null","2102784","pSARL_v2","pSARL_v24rzu966z","56fc8248b5648e000fac9980","fixation","img/fixation.png","null","","test","","","","","",""
"329.69999980926514","2103119","pSARL_v2","pSARL_v24rzu966z","56fc8248b5648e000fac9980","freq","img/orange_2bandit_a2.png","70","70","test","1","15","15","1","",""
"null","2103606","pSARL_v2","pSARL_v24rzu966z","56fc8248b5648e000fac9980","freq_resp","img/orange_2bandit_a.png","70","70","test","","","","1","",""
"null","2103776","pSARL_v2","pSARL_v24rzu966z","56fc8248b5648e000fac9980","fixation","img/fixation.png","null","","test","","","","","",""
"266.80000019073486","2104048","pSARL_v2","pSARL_v24rzu966z","56fc8248b5648e000fac9980","freq","img/orange_2bandit_a2.png","70","70","test","1","16","16","1","",""
"null","2104594","pSARL_v2","pSARL_v24rzu966z","56fc8248b5648e000fac9980","freq_resp","img/orange_2bandit_a.png","70","70","test","","","","1","",""
"null","2104762","pSARL_v2","pSARL_v24rzu966z","56fc8248b5648e000fac9980","fixation","img/fixation.png","null","","test","","","","","",""
"274.5","2105042","pSARL_v2","pSARL_v24rzu966z","56fc8248b5648e000fac9980","freq","img/orange_2bandit_a2.png","70","70","test","1","17","17","1","",""
"null","2105581","pSARL_v2","pSARL_v24rzu966z","56fc8248b5648e000fac9980","freq_resp","img/orange_2bandit_a.png","70","70","test","","","","1","",""
"null","2105751","pSARL_v2","pSARL_v24rzu966z","56fc8248b5648e000fac9980","fixation","img/fixation.png","null","","test","","","","","",""
"255","2106012","pSARL_v2","pSARL_v24rzu966z","56fc8248b5648e000fac9980","freq","img/orange_2bandit_a2.png","70","70","test","1","18","18","1","",""
"null","2106576","pSARL_v2","pSARL_v24rzu966z","56fc8248b5648e000fac9980","freq_resp","img/orange_2bandit_a.png","70","70","test","","","","1","",""
"null","2106745","pSARL_v2","pSARL_v24rzu966z","56fc8248b5648e000fac9980","fixation","img/fixation.png","null","","test","","","","","",""
"228.40000009536743","2106979","pSARL_v2","pSARL_v24rzu966z","56fc8248b5648e000fac9980","freq","img/orange_2bandit_a2.png","70","70","test","1","19","19","1","",""
"null","2107567","pSARL_v2","pSARL_v24rzu966z","56fc8248b5648e000fac9980","freq_resp","img/orange_2bandit_a.png","70","70","test","","","","1","",""
"null","2107736","pSARL_v2","pSARL_v24rzu966z","56fc8248b5648e000fac9980","fixation","img/fixation.png","null","","test","","","","","",""
"264","2108006","pSARL_v2","pSARL_v24rzu966z","56fc8248b5648e000fac9980","freq","img/orange_2bandit_a2.png","70","70","test","1","20","20","1","",""
"null","2108558","pSARL_v2","pSARL_v24rzu966z","56fc8248b5648e000fac9980","freq_resp","img/orange_2bandit_a.png","70","70","test","","","","1","",""
"null","2108714","pSARL_v2","pSARL_v24rzu966z","56fc8248b5648e000fac9980","fixation","img/fixation.png","null","","test","","","","","",""
"259.69999980926514","2108979","pSARL_v2","pSARL_v24rzu966z","56fc8248b5648e000fac9980","freq","img/orange_2bandit_a2.png","70","70","test","1","21","21","1","",""
"null","2109534","pSARL_v2","pSARL_v24rzu966z","56fc8248b5648e000fac9980","freq_resp","img/orange_2bandit_a.png","70","70","test","","","","1","",""
"null","2109690","pSARL_v2","pSARL_v24rzu966z","56fc8248b5648e000fac9980","fixation","img/fixation.png","null","","test","","","","","",""
"240.09999990463257","2109936","pSARL_v2","pSARL_v24rzu966z","56fc8248b5648e000fac9980","freq","img/orange_2bandit_a2.png","70","70","test","1","22","22","1","",""
"null","2110510","pSARL_v2","pSARL_v24rzu966z","56fc8248b5648e000fac9980","freq_resp","img/orange_2bandit_a.png","70","70","test","","","","1","",""
"null","2110681","pSARL_v2","pSARL_v24rzu966z","56fc8248b5648e000fac9980","fixation","img/fixation.png","null","","test","","","","","",""
"227.80000019073486","2110914","pSARL_v2","pSARL_v24rzu966z","56fc8248b5648e000fac9980","freq","img/orange_2bandit_a2.png","70","70","test","1","23","23","1","",""
"null","2111502","pSARL_v2","pSARL_v24rzu966z","56fc8248b5648e000fac9980","freq_resp","img/orange_2bandit_a.png","70","70","test","","","","1","",""
"null","2111672","pSARL_v2","pSARL_v24rzu966z","56fc8248b5648e000fac9980","fixation","img/fixation.png","null","","test","","","","","",""
"244.40000009536743","2111922","pSARL_v2","pSARL_v24rzu966z","56fc8248b5648e000fac9980","freq","img/orange_2bandit_a2.png","70","70","test","1","24","24","1","",""
"null","2112495","pSARL_v2","pSARL_v24rzu966z","56fc8248b5648e000fac9980","freq_resp","img/orange_2bandit_a.png","70","70","test","","","","1","",""
"null","2112664","pSARL_v2","pSARL_v24rzu966z","56fc8248b5648e000fac9980","fixation","img/fixation.png","null","","test","","","","","",""
"268.90000009536743","2112938","pSARL_v2","pSARL_v24rzu966z","56fc8248b5648e000fac9980","freq","img/orange_2bandit_a2.png","70","70","test","1","25","25","1","",""
"null","2113489","pSARL_v2","pSARL_v24rzu966z","56fc8248b5648e000fac9980","freq_resp","img/orange_2bandit_a.png","70","70","test","","","","1","",""
"null","2113645","pSARL_v2","pSARL_v24rzu966z","56fc8248b5648e000fac9980","fixation","img/fixation.png","null","","test","","","","","",""
"308.40000009536743","2113959","pSARL_v2","pSARL_v24rzu966z","56fc8248b5648e000fac9980","freq","img/orange_2bandit_a2.png","70","70","test","1","26","26","1","",""
"null","2114464","pSARL_v2","pSARL_v24rzu966z","56fc8248b5648e000fac9980","freq_resp","img/orange_2bandit_a.png","70","70","test","","","","1","",""
"null","2114621","pSARL_v2","pSARL_v24rzu966z","56fc8248b5648e000fac9980","fixation","img/fixation.png","null","","test","","","","","",""
"712.4000000953674","2115339","pSARL_v2","pSARL_v24rzu966z","56fc8248b5648e000fac9980","reward","img/slot.png","74","","test","","","","","",""
"null","2116096","pSARL_v2","pSARL_v24rzu966z","56fc8248b5648e000fac9980","points","<div class=""verylowPoints""> -6 </div>","null","na","test","","","","1","-6","0"
"782.9000000953674","2116884","pSARL_v2","pSARL_v24rzu966z","56fc8248b5648e000fac9980","freq","img/orange_2bandit_a2.png","70","70","test","1","27","27","2","",""
"null","2116906","pSARL_v2","pSARL_v24rzu966z","56fc8248b5648e000fac9980","freq_resp","img/orange_2bandit_a.png","70","70","test","","","","2","",""
"null","2117069","pSARL_v2","pSARL_v24rzu966z","56fc8248b5648e000fac9980","fixation","img/fixation.png","null","","test","","","","","",""
"544.4000000953674","2117619","pSARL_v2","pSARL_v24rzu966z","56fc8248b5648e000fac9980","freq","img/orange_2bandit_a2.png","70","70","test","1","28","28","2","",""
"null","2117887","pSARL_v2","pSARL_v24rzu966z","56fc8248b5648e000fac9980","freq_resp","img/orange_2bandit_a.png","70","70","test","","","","2","",""
"null","2118057","pSARL_v2","pSARL_v24rzu966z","56fc8248b5648e000fac9980","fixation","img/fixation.png","null","","test","","","","","",""
"676.9000000953674","2118739","pSARL_v2","pSARL_v24rzu966z","56fc8248b5648e000fac9980","infreq","img/green_2bandit_a2.png","68","68","test","1","29","29","2","",""
"null","2118875","pSARL_v2","pSARL_v24rzu966z","56fc8248b5648e000fac9980","infreq_resp","img/green_2bandit_a.png","68","68","test","","","","2","",""
"null","2119032","pSARL_v2","pSARL_v24rzu966z","56fc8248b5648e000fac9980","fixation","img/fixation.png","null","","test","","","","","",""
"476.09999990463257","2119513","pSARL_v2","pSARL_v24rzu966z","56fc8248b5648e000fac9980","freq","img/orange_2bandit_a2.png","70","70","test","1","30","30","2","",""
"null","2119849","pSARL_v2","pSARL_v24rzu966z","56fc8248b5648e000fac9980","freq_resp","img/orange_2bandit_a.png","70","70","test","","","","2","",""
"null","2120020","pSARL_v2","pSARL_v24rzu966z","56fc8248b5648e000fac9980","fixation","img/fixation.png","null","","test","","","","","",""
"473.8999996185303","2120499","pSARL_v2","pSARL_v24rzu966z","56fc8248b5648e000fac9980","freq","img/orange_2bandit_a2.png","70","70","test","1","31","31","2","",""
"null","2120841","pSARL_v2","pSARL_v24rzu966z","56fc8248b5648e000fac9980","freq_resp","img/orange_2bandit_a.png","70","70","test","","","","2","",""
"null","2121011","pSARL_v2","pSARL_v24rzu966z","56fc8248b5648e000fac9980","fixation","img/fixation.png","null","","test","","","","","",""
"338.19999980926514","2121355","pSARL_v2","pSARL_v24rzu966z","56fc8248b5648e000fac9980","freq","img/orange_2bandit_a2.png","70","70","test","1","32","32","2","",""
"null","2121831","pSARL_v2","pSARL_v24rzu966z","56fc8248b5648e000fac9980","freq_resp","img/orange_2bandit_a.png","70","70","test","","","","2","",""
"null","2122003","pSARL_v2","pSARL_v24rzu966z","56fc8248b5648e000fac9980","fixation","img/fixation.png","null","","test","","","","","",""
"404.7999997138977","2122413","pSARL_v2","pSARL_v24rzu966z","56fc8248b5648e000fac9980","freq","img/orange_2bandit_a2.png","70","70","test","1","33","33","2","",""
"null","2122827","pSARL_v2","pSARL_v24rzu966z","56fc8248b5648e000fac9980","freq_resp","img/orange_2bandit_a.png","70","70","test","","","","2","",""
"null","2122983","pSARL_v2","pSARL_v24rzu966z","56fc8248b5648e000fac9980","fixation","img/fixation.png","null","","test","","","","","",""
"375.80000019073486","2123364","pSARL_v2","pSARL_v24rzu966z","56fc8248b5648e000fac9980","freq","img/orange_2bandit_a2.png","70","70","test","1","34","34","2","",""
"null","2123804","pSARL_v2","pSARL_v24rzu966z","56fc8248b5648e000fac9980","freq_resp","img/orange_2bandit_a.png","70","70","test","","","","2","",""
"null","2123975","pSARL_v2","pSARL_v24rzu966z","56fc8248b5648e000fac9980","fixation","img/fixation.png","null","","test","","","","","",""
"311.2999997138977","2124291","pSARL_v2","pSARL_v24rzu966z","56fc8248b5648e000fac9980","freq","img/orange_2bandit_a2.png","70","70","test","1","35","35","2","",""
"null","2124797","pSARL_v2","pSARL_v24rzu966z","56fc8248b5648e000fac9980","freq_resp","img/orange_2bandit_a.png","70","70","test","","","","2","",""
"null","2124968","pSARL_v2","pSARL_v24rzu966z","56fc8248b5648e000fac9980","fixation","img/fixation.png","null","","test","","","","","",""
"272.59999990463257","2125246","pSARL_v2","pSARL_v24rzu966z","56fc8248b5648e000fac9980","freq","img/orange_2bandit_a2.png","70","70","test","1","36","36","2","",""
"null","2125792","pSARL_v2","pSARL_v24rzu966z","56fc8248b5648e000fac9980","freq_resp","img/orange_2bandit_a.png","70","70","test","","","","2","",""
"null","2125962","pSARL_v2","pSARL_v24rzu966z","56fc8248b5648e000fac9980","fixation","img/fixation.png","null","","test","","","","","",""
"261.2999997138977","2126229","pSARL_v2","pSARL_v24rzu966z","56fc8248b5648e000fac9980","freq","img/orange_2bandit_a2.png","70","70","test","1","37","37","2","",""
"null","2126785","pSARL_v2","pSARL_v24rzu966z","56fc8248b5648e000fac9980","freq_resp","img/orange_2bandit_a.png","70","70","test","","","","2","",""
"null","2126953","pSARL_v2","pSARL_v24rzu966z","56fc8248b5648e000fac9980","fixation","img/fixation.png","null","","test","","","","","",""
"250.2999997138977","2127209","pSARL_v2","pSARL_v24rzu966z","56fc8248b5648e000fac9980","freq","img/orange_2bandit_a2.png","70","70","test","1","38","38","2","",""
"null","2127775","pSARL_v2","pSARL_v24rzu966z","56fc8248b5648e000fac9980","freq_resp","img/orange_2bandit_a.png","70","70","test","","","","2","",""
"null","2127944","pSARL_v2","pSARL_v24rzu966z","56fc8248b5648e000fac9980","fixation","img/fixation.png","null","","test","","","","","",""
"482.90000009536743","2128432","pSARL_v2","pSARL_v24rzu966z","56fc8248b5648e000fac9980","infreq","img/green_2bandit_a2.png","68","68","test","1","39","39","2","",""
"null","2128764","pSARL_v2","pSARL_v24rzu966z","56fc8248b5648e000fac9980","infreq_resp","img/green_2bandit_a.png","68","68","test","","","","2","",""
"null","2128934","pSARL_v2","pSARL_v24rzu966z","56fc8248b5648e000fac9980","fixation","img/fixation.png","null","","test","","","","","",""
"351.59999990463257","2129291","pSARL_v2","pSARL_v24rzu966z","56fc8248b5648e000fac9980","freq","img/orange_2bandit_a2.png","70","70","test","1","40","40","2","",""
"null","2129753","pSARL_v2","pSARL_v24rzu966z","56fc8248b5648e000fac9980","freq_resp","img/orange_2bandit_a.png","70","70","test","","","","2","",""
"null","2129923","pSARL_v2","pSARL_v24rzu966z","56fc8248b5648e000fac9980","fixation","img/fixation.png","null","","test","","","","","",""
"320","2130248","pSARL_v2","pSARL_v24rzu966z","56fc8248b5648e000fac9980","freq","img/orange_2bandit_a2.png","70","70","test","1","41","41","2","",""
"null","2130743","pSARL_v2","pSARL_v24rzu966z","56fc8248b5648e000fac9980","freq_resp","img/orange_2bandit_a.png","70","70","test","","","","2","",""
"null","2130913","pSARL_v2","pSARL_v24rzu966z","56fc8248b5648e000fac9980","fixation","img/fixation.png","null","","test","","","","","",""
"251.80000019073486","2131170","pSARL_v2","pSARL_v24rzu966z","56fc8248b5648e000fac9980","freq","img/orange_2bandit_a2.png","70","70","test","1","42","42","2","",""
"null","2131729","pSARL_v2","pSARL_v24rzu966z","56fc8248b5648e000fac9980","freq_resp","img/orange_2bandit_a.png","70","70","test","","","","2","",""
"null","2131900","pSARL_v2","pSARL_v24rzu966z","56fc8248b5648e000fac9980","fixation","img/fixation.png","null","","test","","","","","",""
"270.7000002861023","2132176","pSARL_v2","pSARL_v24rzu966z","56fc8248b5648e000fac9980","freq","img/orange_2bandit_a2.png","70","70","test","1","43","43","2","",""
"null","2132716","pSARL_v2","pSARL_v24rzu966z","56fc8248b5648e000fac9980","freq_resp","img/orange_2bandit_a.png","70","70","test","","","","2","",""
"null","2132886","pSARL_v2","pSARL_v24rzu966z","56fc8248b5648e000fac9980","fixation","img/fixation.png","null","","test","","","","","",""
"326.2000002861023","2133217","pSARL_v2","pSARL_v24rzu966z","56fc8248b5648e000fac9980","freq","img/orange_2bandit_a2.png","70","70","test","1","44","44","2","",""
"null","2133707","pSARL_v2","pSARL_v24rzu966z","56fc8248b5648e000fac9980","freq_resp","img/orange_2bandit_a.png","70","70","test","","","","2","",""
"null","2133875","pSARL_v2","pSARL_v24rzu966z","56fc8248b5648e000fac9980","fixation","img/fixation.png","null","","test","","","","","",""
"258.2000002861023","2134139","pSARL_v2","pSARL_v24rzu966z","56fc8248b5648e000fac9980","freq","img/orange_2bandit_a2.png","70","70","test","1","45","45","2","",""
"null","2134698","pSARL_v2","pSARL_v24rzu966z","56fc8248b5648e000fac9980","freq_resp","img/orange_2bandit_a.png","70","70","test","","","","2","",""
"null","2134867","pSARL_v2","pSARL_v24rzu966z","56fc8248b5648e000fac9980","fixation","img/fixation.png","null","","test","","","","","",""
"553.5","2135426","pSARL_v2","pSARL_v24rzu966z","56fc8248b5648e000fac9980","reward","img/slot.png","74","","test","","","","","",""
"null","2136195","pSARL_v2","pSARL_v24rzu966z","56fc8248b5648e000fac9980","points","<div class=""verylowPoints""> -11 </div>","null","na","test","","","","2","-11","1"
"667.8000001907349","2136868","pSARL_v2","pSARL_v24rzu966z","56fc8248b5648e000fac9980","freq","img/orange_2bandit_a2.png","70","70","test","1","46","46","3","",""
"null","2137014","pSARL_v2","pSARL_v24rzu966z","56fc8248b5648e000fac9980","freq_resp","img/orange_2bandit_a.png","70","70","test","","","","3","",""
"null","2137184","pSARL_v2","pSARL_v24rzu966z","56fc8248b5648e000fac9980","fixation","img/fixation.png","null","","test","","","","","",""
"535.5","2137725","pSARL_v2","pSARL_v24rzu966z","56fc8248b5648e000fac9980","freq","img/orange_2bandit_a2.png","70","70","test","1","47","47","3","",""
"null","2138003","pSARL_v2","pSARL_v24rzu966z","56fc8248b5648e000fac9980","freq_resp","img/orange_2bandit_a.png","70","70","test","","","","3","",""
"null","2138172","pSARL_v2","pSARL_v24rzu966z","56fc8248b5648e000fac9980","fixation","img/fixation.png","null","","test","","","","","",""
"445.69999980926514","2138623","pSARL_v2","pSARL_v24rzu966z","56fc8248b5648e000fac9980","freq","img/orange_2bandit_a2.png","70","70","test","1","48","48","3","",""
"null","2138994","pSARL_v2","pSARL_v24rzu966z","56fc8248b5648e000fac9980","freq_resp","img/orange_2bandit_a.png","70","70","test","","","","3","",""
"null","2139163","pSARL_v2","pSARL_v24rzu966z","56fc8248b5648e000fac9980","fixation","img/fixation.png","null","","test","","","","","",""
"253.2000002861023","2139421","pSARL_v2","pSARL_v24rzu966z","56fc8248b5648e000fac9980","freq","img/orange_2bandit_a2.png","70","70","test","1","49","49","3","",""
"null","2139983","pSARL_v2","pSARL_v24rzu966z","56fc8248b5648e000fac9980","freq_resp","img/orange_2bandit_a.png","70","70","test","","","","3","",""
"null","2140139","pSARL_v2","pSARL_v24rzu966z","56fc8248b5648e000fac9980","fixation","img/fixation.png","null","","test","","","","","",""
"311","2140455","pSARL_v2","pSARL_v24rzu966z","56fc8248b5648e000fac9980","freq","img/orange_2bandit_a2.png","70","70","test","1","50","50","3","",""
"null","2140960","pSARL_v2","pSARL_v24rzu966z","56fc8248b5648e000fac9980","freq_resp","img/orange_2bandit_a.png","70","70","test","","","","3","",""
"null","2141131","pSARL_v2","pSARL_v24rzu966z","56fc8248b5648e000fac9980","fixation","img/fixation.png","null","","test","","","","","",""
"286.19999980926514","2141422","pSARL_v2","pSARL_v24rzu966z","56fc8248b5648e000fac9980","freq","img/orange_2bandit_a2.png","70","70","test","1","51","51","3","",""
"null","2141954","pSARL_v2","pSARL_v24rzu966z","56fc8248b5648e000fac9980","freq_resp","img/orange_2bandit_a.png","70","70","test","","","","3","",""
"null","2142124","pSARL_v2","pSARL_v24rzu966z","56fc8248b5648e000fac9980","fixation","img/fixation.png","null","","test","","","","","",""
"264.90000009536743","2142394","pSARL_v2","pSARL_v24rzu966z","56fc8248b5648e000fac9980","freq","img/orange_2bandit_a2.png","70","70","test","1","52","52","3","",""
"null","2142949","pSARL_v2","pSARL_v24rzu966z","56fc8248b5648e000fac9980","freq_resp","img/orange_2bandit_a.png","70","70","test","","","","3","",""
"null","2143105","pSARL_v2","pSARL_v24rzu966z","56fc8248b5648e000fac9980","fixation","img/fixation.png","null","","test","","","","","",""
"261","2143371","pSARL_v2","pSARL_v24rzu966z","56fc8248b5648e000fac9980","freq","img/orange_2bandit_a2.png","70","70","test","1","53","53","3","",""
"null","2143925","pSARL_v2","pSARL_v24rzu966z","56fc8248b5648e000fac9980","freq_resp","img/orange_2bandit_a.png","70","70","test","","","","3","",""
"null","2144094","pSARL_v2","pSARL_v24rzu966z","56fc8248b5648e000fac9980","fixation","img/fixation.png","null","","test","","","","","",""
"106.2999997138977","2144206","pSARL_v2","pSARL_v24rzu966z","56fc8248b5648e000fac9980","freq","img/orange_2bandit_a2.png","70","70","test","1","54","54","3","",""
"null","2144918","pSARL_v2","pSARL_v24rzu966z","56fc8248b5648e000fac9980","freq_resp","img/orange_2bandit_a.png","70","70","test","","","","3","",""
"null","2145087","pSARL_v2","pSARL_v24rzu966z","56fc8248b5648e000fac9980","fixation","img/fixation.png","null","","test","","","","","",""
"253","2145345","pSARL_v2","pSARL_v24rzu966z","56fc8248b5648e000fac9980","freq","img/orange_2bandit_a2.png","70","70","test","1","55","55","3","",""
"null","2145910","pSARL_v2","pSARL_v24rzu966z","56fc8248b5648e000fac9980","freq_resp","img/orange_2bandit_a.png","70","70","test","","","","3","",""
"null","2146079","pSARL_v2","pSARL_v24rzu966z","56fc8248b5648e000fac9980","fixation","img/fixation.png","null","","test","","","","","",""
"464.40000009536743","2146549","pSARL_v2","pSARL_v24rzu966z","56fc8248b5648e000fac9980","infreq","img/green_2bandit_a2.png","68","68","test","1","56","56","3","",""
"null","2146901","pSARL_v2","pSARL_v24rzu966z","56fc8248b5648e000fac9980","infreq_resp","img/green_2bandit_a.png","68","68","test","","","","3","",""
"null","2147071","pSARL_v2","pSARL_v24rzu966z","56fc8248b5648e000fac9980","fixation","img/fixation.png","null","","test","","","","","",""
"382.09999990463257","2147458","pSARL_v2","pSARL_v24rzu966z","56fc8248b5648e000fac9980","freq","img/orange_2bandit_a2.png","70","70","test","1","57","57","3","",""
"null","2147889","pSARL_v2","pSARL_v24rzu966z","56fc8248b5648e000fac9980","freq_resp","img/orange_2bandit_a.png","70","70","test","","","","3","",""
"null","2148057","pSARL_v2","pSARL_v24rzu966z","56fc8248b5648e000fac9980","fixation","img/fixation.png","null","","test","","","","","",""
"280.7000002861023","2148343","pSARL_v2","pSARL_v24rzu966z","56fc8248b5648e000fac9980","freq","img/orange_2bandit_a2.png","70","70","test","1","58","58","3","",""
"null","2148881","pSARL_v2","pSARL_v24rzu966z","56fc8248b5648e000fac9980","freq_resp","img/orange_2bandit_a.png","70","70","test","","","","3","",""
"null","2149050","pSARL_v2","pSARL_v24rzu966z","56fc8248b5648e000fac9980","fixation","img/fixation.png","null","","test","","","","","",""
"247.69999980926514","2149303","pSARL_v2","pSARL_v24rzu966z","56fc8248b5648e000fac9980","freq","img/orange_2bandit_a2.png","70","70","test","1","59","59","3","",""
"null","2149873","pSARL_v2","pSARL_v24rzu966z","56fc8248b5648e000fac9980","freq_resp","img/orange_2bandit_a.png","70","70","test","","","","3","",""
"null","2150043","pSARL_v2","pSARL_v24rzu966z","56fc8248b5648e000fac9980","fixation","img/fixation.png","null","","test","","","","","",""
"152.2000002861023","2150201","pSARL_v2","pSARL_v24rzu966z","56fc8248b5648e000fac9980","freq","img/orange_2bandit_a2.png","70","70","test","1","60","60","3","",""
"null","2150864","pSARL_v2","pSARL_v24rzu966z","56fc8248b5648e000fac9980","freq_resp","img/orange_2bandit_a.png","70","70","test","","","","3","",""
"null","2151034","pSARL_v2","pSARL_v24rzu966z","56fc8248b5648e000fac9980","fixation","img/fixation.png","null","","test","","","","","",""
"410.80000019073486","2151450","pSARL_v2","pSARL_v24rzu966z","56fc8248b5648e000fac9980","infreq","img/green_2bandit_a2.png","68","68","test","1","61","61","3","",""
"null","2151855","pSARL_v2","pSARL_v24rzu966z","56fc8248b5648e000fac9980","infreq_resp","img/green_2bandit_a.png","68","68","test","","","","3","",""
"null","2152012","pSARL_v2","pSARL_v24rzu966z","56fc8248b5648e000fac9980","fixation","img/fixation.png","null","","test","","","","","",""
"468.30000019073486","2152486","pSARL_v2","pSARL_v24rzu966z","56fc8248b5648e000fac9980","freq","img/orange_2bandit_a2.png","70","70","test","1","62","62","3","",""
"null","2152835","pSARL_v2","pSARL_v24rzu966z","56fc8248b5648e000fac9980","freq_resp","img/orange_2bandit_a.png","70","70","test","","","","3","",""
"null","2153004","pSARL_v2","pSARL_v24rzu966z","56fc8248b5648e000fac9980","fixation","img/fixation.png","null","","test","","","","","",""
"361.5","2153371","pSARL_v2","pSARL_v24rzu966z","56fc8248b5648e000fac9980","freq","img/orange_2bandit_a2.png","70","70","test","1","63","63","3","",""
"null","2153826","pSARL_v2","pSARL_v24rzu966z","56fc8248b5648e000fac9980","freq_resp","img/orange_2bandit_a.png","70","70","test","","","","3","",""
"null","2153982","pSARL_v2","pSARL_v24rzu966z","56fc8248b5648e000fac9980","fixation","img/fixation.png","null","","test","","","","","",""
"333.5","2154321","pSARL_v2","pSARL_v24rzu966z","56fc8248b5648e000fac9980","freq","img/orange_2bandit_a2.png","70","70","test","1","64","64","3","",""
"null","2154806","pSARL_v2","pSARL_v24rzu966z","56fc8248b5648e000fac9980","freq_resp","img/orange_2bandit_a.png","70","70","test","","","","3","",""
"null","2154975","pSARL_v2","pSARL_v24rzu966z","56fc8248b5648e000fac9980","fixation","img/fixation.png","null","","test","","","","","",""
"218","2155198","pSARL_v2","pSARL_v24rzu966z","56fc8248b5648e000fac9980","freq","img/orange_2bandit_a2.png","70","70","test","1","65","65","3","",""
"null","2155793","pSARL_v2","pSARL_v24rzu966z","56fc8248b5648e000fac9980","freq_resp","img/orange_2bandit_a.png","70","70","test","","","","3","",""
"null","2155964","pSARL_v2","pSARL_v24rzu966z","56fc8248b5648e000fac9980","fixation","img/fixation.png","null","","test","","","","","",""
"236.2000002861023","2156205","pSARL_v2","pSARL_v24rzu966z","56fc8248b5648e000fac9980","freq","img/orange_2bandit_a2.png","70","70","test","1","66","66","3","",""
"null","2156788","pSARL_v2","pSARL_v24rzu966z","56fc8248b5648e000fac9980","freq_resp","img/orange_2bandit_a.png","70","70","test","","","","3","",""
"null","2156957","pSARL_v2","pSARL_v24rzu966z","56fc8248b5648e000fac9980","fixation","img/fixation.png","null","","test","","","","","",""
"240.2000002861023","2157203","pSARL_v2","pSARL_v24rzu966z","56fc8248b5648e000fac9980","freq","img/orange_2bandit_a2.png","70","70","test","1","67","67","3","",""
"null","2157777","pSARL_v2","pSARL_v24rzu966z","56fc8248b5648e000fac9980","freq_resp","img/orange_2bandit_a.png","70","70","test","","","","3","",""
"null","2157948","pSARL_v2","pSARL_v24rzu966z","56fc8248b5648e000fac9980","fixation","img/fixation.png","null","","test","","","","","",""
"92","2158045","pSARL_v2","pSARL_v24rzu966z","56fc8248b5648e000fac9980","freq","img/orange_2bandit_a2.png","70","70","test","1","68","68","3","",""
"null","2158770","pSARL_v2","pSARL_v24rzu966z","56fc8248b5648e000fac9980","freq_resp","img/orange_2bandit_a.png","70","70","test","","","","3","",""
"null","2158938","pSARL_v2","pSARL_v24rzu966z","56fc8248b5648e000fac9980","fixation","img/fixation.png","null","","test","","","","","",""
"281.09999990463257","2159224","pSARL_v2","pSARL_v24rzu966z","56fc8248b5648e000fac9980","infreq","img/green_2bandit_a2.png","70","68","test","0","69","69","3","",""
"null","2159758","pSARL_v2","pSARL_v24rzu966z","56fc8248b5648e000fac9980","infreq_resp","img/green_2bandit_a.png","70","68","test","","","","3","",""
"null","2159916","pSARL_v2","pSARL_v24rzu966z","56fc8248b5648e000fac9980","fixation","img/fixation.png","null","","test","","","","","",""
"418.19999980926514","2160339","pSARL_v2","pSARL_v24rzu966z","56fc8248b5648e000fac9980","freq","img/orange_2bandit_a2.png","70","70","test","1","70","70","3","",""
"null","2160739","pSARL_v2","pSARL_v24rzu966z","56fc8248b5648e000fac9980","freq_resp","img/orange_2bandit_a.png","70","70","test","","","","3","",""
"null","2160908","pSARL_v2","pSARL_v24rzu966z","56fc8248b5648e000fac9980","fixation","img/fixation.png","null","","test","","","","","",""
"595.6000003814697","2161509","pSARL_v2","pSARL_v24rzu966z","56fc8248b5648e000fac9980","reward","img/slot.png","74","","test","","","","","",""
"null","2162277","pSARL_v2","pSARL_v24rzu966z","56fc8248b5648e000fac9980","points","<div class=""verylowPoints""> -7 </div>","null","na","test","","","","3","-7","2"
"531.8000001907349","2162814","pSARL_v2","pSARL_v24rzu966z","56fc8248b5648e000fac9980","freq","img/orange_2bandit_a2.png","70","70","test","1","71","71","4","",""
"null","2163099","pSARL_v2","pSARL_v24rzu966z","56fc8248b5648e000fac9980","freq_resp","img/orange_2bandit_a.png","70","70","test","","","","4","",""
"null","2163269","pSARL_v2","pSARL_v24rzu966z","56fc8248b5648e000fac9980","fixation","img/fixation.png","null","","test","","","","","",""
"279.59999990463257","2163554","pSARL_v2","pSARL_v24rzu966z","56fc8248b5648e000fac9980","freq","img/orange_2bandit_a2.png","70","70","test","1","72","72","4","",""
"null","2164092","pSARL_v2","pSARL_v24rzu966z","56fc8248b5648e000fac9980","freq_resp","img/orange_2bandit_a.png","70","70","test","","","","4","",""
"null","2164260","pSARL_v2","pSARL_v24rzu966z","56fc8248b5648e000fac9980","fixation","img/fixation.png","null","","test","","","","","",""
"272.19999980926514","2164538","pSARL_v2","pSARL_v24rzu966z","56fc8248b5648e000fac9980","freq","img/orange_2bandit_a2.png","70","70","test","1","73","73","4","",""
"null","2165079","pSARL_v2","pSARL_v24rzu966z","56fc8248b5648e000fac9980","freq_resp","img/orange_2bandit_a.png","70","70","test","","","","4","",""
"null","2165247","pSARL_v2","pSARL_v24rzu966z","56fc8248b5648e000fac9980","fixation","img/fixation.png","null","","test","","","","","",""
"256.1000003814697","2165508","pSARL_v2","pSARL_v24rzu966z","56fc8248b5648e000fac9980","freq","img/orange_2bandit_a2.png","70","70","test","1","74","74","4","",""
"null","2166070","pSARL_v2","pSARL_v24rzu966z","56fc8248b5648e000fac9980","freq_resp","img/orange_2bandit_a.png","70","70","test","","","","4","",""
"null","2166240","pSARL_v2","pSARL_v24rzu966z","56fc8248b5648e000fac9980","fixation","img/fixation.png","null","","test","","","","","",""
"113.09999990463257","2166358","pSARL_v2","pSARL_v24rzu966z","56fc8248b5648e000fac9980","freq","img/orange_2bandit_a2.png","70","70","test","1","75","75","4","",""
"null","2167062","pSARL_v2","pSARL_v24rzu966z","56fc8248b5648e000fac9980","freq_resp","img/orange_2bandit_a.png","70","70","test","","","","4","",""
"null","2167232","pSARL_v2","pSARL_v24rzu966z","56fc8248b5648e000fac9980","fixation","img/fixation.png","null","","test","","","","","",""
"256.09999990463257","2167493","pSARL_v2","pSARL_v24rzu966z","56fc8248b5648e000fac9980","freq","img/orange_2bandit_a2.png","70","70","test","1","76","76","4","",""
"null","2168057","pSARL_v2","pSARL_v24rzu966z","56fc8248b5648e000fac9980","freq_resp","img/orange_2bandit_a.png","70","70","test","","","","4","",""
"null","2168215","pSARL_v2","pSARL_v24rzu966z","56fc8248b5648e000fac9980","fixation","img/fixation.png","null","","test","","","","","",""
"251.09999990463257","2168471","pSARL_v2","pSARL_v24rzu966z","56fc8248b5648e000fac9980","freq","img/orange_2bandit_a2.png","70","70","test","1","77","77","4","",""
"null","2169035","pSARL_v2","pSARL_v24rzu966z","56fc8248b5648e000fac9980","freq_resp","img/orange_2bandit_a.png","70","70","test","","","","4","",""
"null","2169192","pSARL_v2","pSARL_v24rzu966z","56fc8248b5648e000fac9980","fixation","img/fixation.png","null","","test","","","","","",""
"267.80000019073486","2169465","pSARL_v2","pSARL_v24rzu966z","56fc8248b5648e000fac9980","infreq","img/green_2bandit_a2.png","70","68","test","0","78","78","4","",""
"null","2170011","pSARL_v2","pSARL_v24rzu966z","56fc8248b5648e000fac9980","infreq_resp","img/green_2bandit_a.png","70","68","test","","","","4","",""
"null","2170181","pSARL_v2","pSARL_v24rzu966z","56fc8248b5648e000fac9980","fixation","img/fixation.png","null","","test","","","","","",""
"392.59999990463257","2170579","pSARL_v2","pSARL_v24rzu966z","56fc8248b5648e000fac9980","freq","img/orange_2bandit_a2.png","70","70","test","1","79","79","4","",""
"null","2171003","pSARL_v2","pSARL_v24rzu966z","56fc8248b5648e000fac9980","freq_resp","img/orange_2bandit_a.png","70","70","test","","","","4","",""
"null","2171159","pSARL_v2","pSARL_v24rzu966z","56fc8248b5648e000fac9980","fixation","img/fixation.png","null","","test","","","","","",""
"409.5","2171574","pSARL_v2","pSARL_v24rzu966z","56fc8248b5648e000fac9980","infreq","img/green_2bandit_a2.png","68","68","test","1","80","80","4","",""
"null","2171977","pSARL_v2","pSARL_v24rzu966z","56fc8248b5648e000fac9980","infreq_resp","img/green_2bandit_a.png","68","68","test","","","","4","",""
"null","2172148","pSARL_v2","pSARL_v24rzu966z","56fc8248b5648e000fac9980","fixation","img/fixation.png","null","","test","","","","","",""
"453.40000009536743","2172607","pSARL_v2","pSARL_v24rzu966z","56fc8248b5648e000fac9980","freq","img/orange_2bandit_a2.png","70","70","test","1","81","81","4","",""
"null","2172973","pSARL_v2","pSARL_v24rzu966z","56fc8248b5648e000fac9980","freq_resp","img/orange_2bandit_a.png","70","70","test","","","","4","",""
"null","2173130","pSARL_v2","pSARL_v24rzu966z","56fc8248b5648e000fac9980","fixation","img/fixation.png","null","","test","","","","","",""
"367.90000009536743","2173503","pSARL_v2","pSARL_v24rzu966z","56fc8248b5648e000fac9980","freq","img/orange_2bandit_a2.png","70","70","test","1","82","82","4","",""
"null","2173949","pSARL_v2","pSARL_v24rzu966z","56fc8248b5648e000fac9980","freq_resp","img/orange_2bandit_a.png","70","70","test","","","","4","",""
"null","2174119","pSARL_v2","pSARL_v24rzu966z","56fc8248b5648e000fac9980","fixation","img/fixation.png","null","","test","","","","","",""
"301.1000003814697","2174425","pSARL_v2","pSARL_v24rzu966z","56fc8248b5648e000fac9980","freq","img/orange_2bandit_a2.png","70","70","test","1","83","83","4","",""
"null","2174936","pSARL_v2","pSARL_v24rzu966z","56fc8248b5648e000fac9980","freq_resp","img/orange_2bandit_a.png","70","70","test","","","","4","",""
"null","2175091","pSARL_v2","pSARL_v24rzu966z","56fc8248b5648e000fac9980","fixation","img/fixation.png","null","","test","","","","","",""
"326.69999980926514","2175423","pSARL_v2","pSARL_v24rzu966z","56fc8248b5648e000fac9980","freq","img/orange_2bandit_a2.png","70","70","test","1","84","84","4","",""
"null","2175911","pSARL_v2","pSARL_v24rzu966z","56fc8248b5648e000fac9980","freq_resp","img/orange_2bandit_a.png","70","70","test","","","","4","",""
"null","2176067","pSARL_v2","pSARL_v24rzu966z","56fc8248b5648e000fac9980","fixation","img/fixation.png","null","","test","","","","","",""
"320.90000009536743","2176393","pSARL_v2","pSARL_v24rzu966z","56fc8248b5648e000fac9980","freq","img/orange_2bandit_a2.png","70","70","test","1","85","85","4","",""
"null","2176886","pSARL_v2","pSARL_v24rzu966z","56fc8248b5648e000fac9980","freq_resp","img/orange_2bandit_a.png","70","70","test","","","","4","",""
"null","2177055","pSARL_v2","pSARL_v24rzu966z","56fc8248b5648e000fac9980","fixation","img/fixation.png","null","","test","","","","","",""
"272.7999997138977","2177333","pSARL_v2","pSARL_v24rzu966z","56fc8248b5648e000fac9980","freq","img/orange_2bandit_a2.png","70","70","test","1","86","86","4","",""
"null","2177876","pSARL_v2","pSARL_v24rzu966z","56fc8248b5648e000fac9980","freq_resp","img/orange_2bandit_a.png","70","70","test","","","","4","",""
"null","2178046","pSARL_v2","pSARL_v24rzu966z","56fc8248b5648e000fac9980","fixation","img/fixation.png","null","","test","","","","","",""
"265.19999980926514","2178316","pSARL_v2","pSARL_v24rzu966z","56fc8248b5648e000fac9980","freq","img/orange_2bandit_a2.png","70","70","test","1","87","87","4","",""
"null","2178870","pSARL_v2","pSARL_v24rzu966z","56fc8248b5648e000fac9980","freq_resp","img/orange_2bandit_a.png","70","70","test","","","","4","",""
"null","2179025","pSARL_v2","pSARL_v24rzu966z","56fc8248b5648e000fac9980","fixation","img/fixation.png","null","","test","","","","","",""
"318.69999980926514","2179349","pSARL_v2","pSARL_v24rzu966z","56fc8248b5648e000fac9980","freq","img/orange_2bandit_a2.png","70","70","test","1","88","88","4","",""
"null","2179841","pSARL_v2","pSARL_v24rzu966z","56fc8248b5648e000fac9980","freq_resp","img/orange_2bandit_a.png","70","70","test","","","","4","",""
"null","2180008","pSARL_v2","pSARL_v24rzu966z","56fc8248b5648e000fac9980","fixation","img/fixation.png","null","","test","","","","","",""
"314.3999996185303","2180328","pSARL_v2","pSARL_v24rzu966z","56fc8248b5648e000fac9980","freq","img/orange_2bandit_a2.png","70","70","test","1","89","89","4","",""
"null","2180826","pSARL_v2","pSARL_v24rzu966z","56fc8248b5648e000fac9980","freq_resp","img/orange_2bandit_a.png","70","70","test","","","","4","",""
"null","2180997","pSARL_v2","pSARL_v24rzu966z","56fc8248b5648e000fac9980","fixation","img/fixation.png","null","","test","","","","","",""
"471.09999990463257","2181473","pSARL_v2","pSARL_v24rzu966z","56fc8248b5648e000fac9980","reward","img/slot.png","74","","test","","","","","",""
"null","2182241","pSARL_v2","pSARL_v24rzu966z","56fc8248b5648e000fac9980","points","<div class=""verylowPoints""> -3 </div>","null","na","test","","","","4","-3","3"
"673.1000003814697","2182919","pSARL_v2","pSARL_v24rzu966z","56fc8248b5648e000fac9980","freq","img/orange_2bandit_a2.png","70","70","test","1","90","90","5","",""
"null","2183064","pSARL_v2","pSARL_v24rzu966z","56fc8248b5648e000fac9980","freq_resp","img/orange_2bandit_a.png","70","70","test","","","","5","",""
"null","2183220","pSARL_v2","pSARL_v24rzu966z","56fc8248b5648e000fac9980","fixation","img/fixation.png","null","","test","","","","","",""
"592.8000001907349","2183818","pSARL_v2","pSARL_v24rzu966z","56fc8248b5648e000fac9980","freq","img/orange_2bandit_a2.png","70","70","test","1","91","91","5","",""
"null","2184045","pSARL_v2","pSARL_v24rzu966z","56fc8248b5648e000fac9980","freq_resp","img/orange_2bandit_a.png","70","70","test","","","","5","",""
"null","2184216","pSARL_v2","pSARL_v24rzu966z","56fc8248b5648e000fac9980","fixation","img/fixation.png","null","","test","","","","","",""
"515.2000002861023","2184737","pSARL_v2","pSARL_v24rzu966z","56fc8248b5648e000fac9980","freq","img/orange_2bandit_a2.png","70","70","test","1","92","92","5","",""
"null","2185036","pSARL_v2","pSARL_v24rzu966z","56fc8248b5648e000fac9980","freq_resp","img/orange_2bandit_a.png","70","70","test","","","","5","",""
"null","2185206","pSARL_v2","pSARL_v24rzu966z","56fc8248b5648e000fac9980","fixation","img/fixation.png","null","","test","","","","","",""
"464.8999996185303","2185676","pSARL_v2","pSARL_v24rzu966z","56fc8248b5648e000fac9980","infreq","img/green_2bandit_a2.png","68","68","test","1","93","93","5","",""
"null","2186032","pSARL_v2","pSARL_v24rzu966z","56fc8248b5648e000fac9980","infreq_resp","img/green_2bandit_a.png","68","68","test","","","","5","",""
"null","2186200","pSARL_v2","pSARL_v24rzu966z","56fc8248b5648e000fac9980","fixation","img/fixation.png","null","","test","","","","","",""
"393.80000019073486","2186599","pSARL_v2","pSARL_v24rzu966z","56fc8248b5648e000fac9980","freq","img/orange_2bandit_a2.png","70","70","test","1","94","94","5","",""
"null","2187020","pSARL_v2","pSARL_v24rzu966z","56fc8248b5648e000fac9980","freq_resp","img/orange_2bandit_a.png","70","70","test","","","","5","",""
"null","2187176","pSARL_v2","pSARL_v24rzu966z","56fc8248b5648e000fac9980","fixation","img/fixation.png","null","","test","","","","","",""
"226.69999980926514","2187408","pSARL_v2","pSARL_v24rzu966z","56fc8248b5648e000fac9980","freq","img/orange_2bandit_a2.png","70","70","test","1","95","95","5","",""
"null","2187999","pSARL_v2","pSARL_v24rzu966z","56fc8248b5648e000fac9980","freq_resp","img/orange_2bandit_a.png","70","70","test","","","","5","",""
"null","2188168","pSARL_v2","pSARL_v24rzu966z","56fc8248b5648e000fac9980","fixation","img/fixation.png","null","","test","","","","","",""
"137.2999997138977","2188311","pSARL_v2","pSARL_v24rzu966z","56fc8248b5648e000fac9980","freq","img/orange_2bandit_a2.png","70","70","test","1","96","96","5","",""
"null","2188991","pSARL_v2","pSARL_v24rzu966z","56fc8248b5648e000fac9980","freq_resp","img/orange_2bandit_a.png","70","70","test","","","","5","",""
"null","2189147","pSARL_v2","pSARL_v24rzu966z","56fc8248b5648e000fac9980","fixation","img/fixation.png","null","","test","","","","","",""
"261.30000019073486","2189413","pSARL_v2","pSARL_v24rzu966z","56fc8248b5648e000fac9980","freq","img/orange_2bandit_a2.png","70","70","test","1","97","97","5","",""
"null","2189967","pSARL_v2","pSARL_v24rzu966z","56fc8248b5648e000fac9980","freq_resp","img/orange_2bandit_a.png","70","70","test","","","","5","",""
"null","2190137","pSARL_v2","pSARL_v24rzu966z","56fc8248b5648e000fac9980","fixation","img/fixation.png","null","","test","","","","","",""
"227.69999980926514","2190371","pSARL_v2","pSARL_v24rzu966z","56fc8248b5648e000fac9980","freq","img/orange_2bandit_a2.png","70","70","test","1","98","98","5","",""
"null","2190957","pSARL_v2","pSARL_v24rzu966z","56fc8248b5648e000fac9980","freq_resp","img/orange_2bandit_a.png","70","70","test","","","","5","",""
"null","2191128","pSARL_v2","pSARL_v24rzu966z","56fc8248b5648e000fac9980","fixation","img/fixation.png","null","","test","","","","","",""
"287.19999980926514","2191420","pSARL_v2","pSARL_v24rzu966z","56fc8248b5648e000fac9980","freq","img/orange_2bandit_a2.png","70","70","test","1","99","99","5","",""
"null","2191950","pSARL_v2","pSARL_v24rzu966z","56fc8248b5648e000fac9980","freq_resp","img/orange_2bandit_a.png","70","70","test","","","","5","",""
"null","2192118","pSARL_v2","pSARL_v24rzu966z","56fc8248b5648e000fac9980","fixation","img/fixation.png","null","","test","","","","","",""
"272.90000009536743","2192397","pSARL_v2","pSARL_v24rzu966z","56fc8248b5648e000fac9980","freq","img/orange_2bandit_a2.png","70","70","test","1","100","100","5","",""
"null","2192939","pSARL_v2","pSARL_v24rzu966z","56fc8248b5648e000fac9980","freq_resp","img/orange_2bandit_a.png","70","70","test","","","","5","",""
"null","2193109","pSARL_v2","pSARL_v24rzu966z","56fc8248b5648e000fac9980","fixation","img/fixation.png","null","","test","","","","","",""
"270.09999990463257","2193385","pSARL_v2","pSARL_v24rzu966z","56fc8248b5648e000fac9980","freq","img/orange_2bandit_a2.png","70","70","test","1","101","101","5","",""
"null","2193925","pSARL_v2","pSARL_v24rzu966z","56fc8248b5648e000fac9980","freq_resp","img/orange_2bandit_a.png","70","70","test","","","","5","",""
"null","2194097","pSARL_v2","pSARL_v24rzu966z","56fc8248b5648e000fac9980","fixation","img/fixation.png","null","","test","","","","","",""
"270.7999997138977","2194373","pSARL_v2","pSARL_v24rzu966z","56fc8248b5648e000fac9980","freq","img/orange_2bandit_a2.png","70","70","test","1","102","102","5","",""
"null","2194918","pSARL_v2","pSARL_v24rzu966z","56fc8248b5648e000fac9980","freq_resp","img/orange_2bandit_a.png","70","70","test","","","","5","",""
"null","2195089","pSARL_v2","pSARL_v24rzu966z","56fc8248b5648e000fac9980","fixation","img/fixation.png","null","","test","","","","","",""
"292.8999996185303","2195387","pSARL_v2","pSARL_v24rzu966z","56fc8248b5648e000fac9980","freq","img/orange_2bandit_a2.png","70","70","test","1","103","103","5","",""
"null","2195910","pSARL_v2","pSARL_v24rzu966z","56fc8248b5648e000fac9980","freq_resp","img/orange_2bandit_a.png","70","70","test","","","","5","",""
"null","2196079","pSARL_v2","pSARL_v24rzu966z","56fc8248b5648e000fac9980","fixation","img/fixation.png","null","","test","","","","","",""
"297","2196382","pSARL_v2","pSARL_v24rzu966z","56fc8248b5648e000fac9980","freq","img/orange_2bandit_a2.png","70","70","test","1","104","104","5","",""
"null","2196900","pSARL_v2","pSARL_v24rzu966z","56fc8248b5648e000fac9980","freq_resp","img/orange_2bandit_a.png","70","70","test","","","","5","",""
"null","2197069","pSARL_v2","pSARL_v24rzu966z","56fc8248b5648e000fac9980","fixation","img/fixation.png","null","","test","","","","","",""
"264.09999990463257","2197338","pSARL_v2","pSARL_v24rzu966z","56fc8248b5648e000fac9980","freq","img/orange_2bandit_a2.png","70","70","test","1","105","105","5","",""
"null","2197891","pSARL_v2","pSARL_v24rzu966z","56fc8248b5648e000fac9980","freq_resp","img/orange_2bandit_a.png","70","70","test","","","","5","",""
"null","2198060","pSARL_v2","pSARL_v24rzu966z","56fc8248b5648e000fac9980","fixation","img/fixation.png","null","","test","","","","","",""
"321.09999990463257","2198386","pSARL_v2","pSARL_v24rzu966z","56fc8248b5648e000fac9980","freq","img/orange_2bandit_a2.png","70","70","test","1","106","106","5","",""
"null","2198879","pSARL_v2","pSARL_v24rzu966z","56fc8248b5648e000fac9980","freq_resp","img/orange_2bandit_a.png","70","70","test","","","","5","",""
"null","2199037","pSARL_v2","pSARL_v24rzu966z","56fc8248b5648e000fac9980","fixation","img/fixation.png","null","","test","","","","","",""
"326.2000002861023","2199369","pSARL_v2","pSARL_v24rzu966z","56fc8248b5648e000fac9980","freq","img/orange_2bandit_a2.png","70","70","test","1","107","107","5","",""
"null","2199858","pSARL_v2","pSARL_v24rzu966z","56fc8248b5648e000fac9980","freq_resp","img/orange_2bandit_a.png","70","70","test","","","","5","",""
"null","2200028","pSARL_v2","pSARL_v24rzu966z","56fc8248b5648e000fac9980","fixation","img/fixation.png","null","","test","","","","","",""
"335.40000009536743","2200369","pSARL_v2","pSARL_v24rzu966z","56fc8248b5648e000fac9980","freq","img/orange_2bandit_a2.png","70","70","test","1","108","108","5","",""
"null","2200851","pSARL_v2","pSARL_v24rzu966z","56fc8248b5648e000fac9980","freq_resp","img/orange_2bandit_a.png","70","70","test","","","","5","",""
"null","2201022","pSARL_v2","pSARL_v24rzu966z","56fc8248b5648e000fac9980","fixation","img/fixation.png","null","","test","","","","","",""
"471.19999980926514","2201499","pSARL_v2","pSARL_v24rzu966z","56fc8248b5648e000fac9980","infreq","img/green_2bandit_a2.png","68","68","test","1","109","109","5","",""
"null","2201839","pSARL_v2","pSARL_v24rzu966z","56fc8248b5648e000fac9980","infreq_resp","img/green_2bandit_a.png","68","68","test","","","","5","",""
"null","2201996","pSARL_v2","pSARL_v24rzu966z","56fc8248b5648e000fac9980","fixation","img/fixation.png","null","","test","","","","","",""
"372.5","2202373","pSARL_v2","pSARL_v24rzu966z","56fc8248b5648e000fac9980","freq","img/orange_2bandit_a2.png","70","70","test","1","110","110","5","",""
"null","2202816","pSARL_v2","pSARL_v24rzu966z","56fc8248b5648e000fac9980","freq_resp","img/orange_2bandit_a.png","70","70","test","","","","5","",""
"null","2202972","pSARL_v2","pSARL_v24rzu966z","56fc8248b5648e000fac9980","fixation","img/fixation.png","null","","test","","","","","",""
"331.19999980926514","2203309","pSARL_v2","pSARL_v24rzu966z","56fc8248b5648e000fac9980","freq","img/orange_2bandit_a2.png","70","70","test","1","111","111","5","",""
"null","2203795","pSARL_v2","pSARL_v24rzu966z","56fc8248b5648e000fac9980","freq_resp","img/orange_2bandit_a.png","70","70","test","","","","5","",""
"null","2203965","pSARL_v2","pSARL_v24rzu966z","56fc8248b5648e000fac9980","fixation","img/fixation.png","null","","test","","","","","",""
"278.90000009536743","2204249","pSARL_v2","pSARL_v24rzu966z","56fc8248b5648e000fac9980","freq","img/orange_2bandit_a2.png","70","70","test","1","112","112","5","",""
"null","2204784","pSARL_v2","pSARL_v24rzu966z","56fc8248b5648e000fac9980","freq_resp","img/orange_2bandit_a.png","70","70","test","","","","5","",""
"null","2204940","pSARL_v2","pSARL_v24rzu966z","56fc8248b5648e000fac9980","fixation","img/fixation.png","null","","test","","","","","",""
"287.2999997138977","2205233","pSARL_v2","pSARL_v24rzu966z","56fc8248b5648e000fac9980","freq","img/orange_2bandit_a2.png","70","70","test","1","113","113","5","",""
"null","2205764","pSARL_v2","pSARL_v24rzu966z","56fc8248b5648e000fac9980","freq_resp","img/orange_2bandit_a.png","70","70","test","","","","5","",""
"null","2205933","pSARL_v2","pSARL_v24rzu966z","56fc8248b5648e000fac9980","fixation","img/fixation.png","null","","test","","","","","",""
"291.59999990463257","2206230","pSARL_v2","pSARL_v24rzu966z","56fc8248b5648e000fac9980","freq","img/orange_2bandit_a2.png","70","70","test","1","114","114","5","",""
"null","2206755","pSARL_v2","pSARL_v24rzu966z","56fc8248b5648e000fac9980","freq_resp","img/orange_2bandit_a.png","70","70","test","","","","5","",""
"null","2206923","pSARL_v2","pSARL_v24rzu966z","56fc8248b5648e000fac9980","fixation","img/fixation.png","null","","test","","","","","",""
"282.59999990463257","2207210","pSARL_v2","pSARL_v24rzu966z","56fc8248b5648e000fac9980","freq","img/orange_2bandit_a2.png","70","70","test","1","115","115","5","",""
"null","2207741","pSARL_v2","pSARL_v24rzu966z","56fc8248b5648e000fac9980","freq_resp","img/orange_2bandit_a.png","70","70","test","","","","5","",""
"null","2207897","pSARL_v2","pSARL_v24rzu966z","56fc8248b5648e000fac9980","fixation","img/fixation.png","null","","test","","","","","",""
"432.7999997138977","2208335","pSARL_v2","pSARL_v24rzu966z","56fc8248b5648e000fac9980","reward","img/slot.png","74","","test","","","","","",""
"null","2209102","pSARL_v2","pSARL_v24rzu966z","56fc8248b5648e000fac9980","points","<div class=""veryhighPoints""> +1 </div>","null","na","test","","","","5","1","4"
"524.7000002861023","2209632","pSARL_v2","pSARL_v24rzu966z","56fc8248b5648e000fac9980","freq","img/orange_2bandit_a2.png","70","70","test","1","116","116","6","",""
"null","2209917","pSARL_v2","pSARL_v24rzu966z","56fc8248b5648e000fac9980","freq_resp","img/orange_2bandit_a.png","70","70","test","","","","6","",""
"null","2210077","pSARL_v2","pSARL_v24rzu966z","56fc8248b5648e000fac9980","fixation","img/fixation.png","null","","test","","","","","",""
"275.2999997138977","2210357","pSARL_v2","pSARL_v24rzu966z","56fc8248b5648e000fac9980","freq","img/orange_2bandit_a2.png","70","70","test","1","117","117","6","",""
"null","2210902","pSARL_v2","pSARL_v24rzu966z","56fc8248b5648e000fac9980","freq_resp","img/orange_2bandit_a.png","70","70","test","","","","6","",""
"null","2211060","pSARL_v2","pSARL_v24rzu966z","56fc8248b5648e000fac9980","fixation","img/fixation.png","null","","test","","","","","",""
"265.5","2211330","pSARL_v2","pSARL_v24rzu966z","56fc8248b5648e000fac9980","freq","img/orange_2bandit_a2.png","70","70","test","1","118","118","6","",""
"null","2211875","pSARL_v2","pSARL_v24rzu966z","56fc8248b5648e000fac9980","freq_resp","img/orange_2bandit_a.png","70","70","test","","","","6","",""
"null","2212045","pSARL_v2","pSARL_v24rzu966z","56fc8248b5648e000fac9980","fixation","img/fixation.png","null","","test","","","","","",""
"302.40000009536743","2212353","pSARL_v2","pSARL_v24rzu966z","56fc8248b5648e000fac9980","infreq","img/green_2bandit_a2.png","70","68","test","0","119","119","6","",""
"null","2212863","pSARL_v2","pSARL_v24rzu966z","56fc8248b5648e000fac9980","infreq_resp","img/green_2bandit_a.png","70","68","test","","","","6","",""
"null","2213019","pSARL_v2","pSARL_v24rzu966z","56fc8248b5648e000fac9980","fixation","img/fixation.png","null","","test","","","","","",""
"401.2999997138977","2213425","pSARL_v2","pSARL_v24rzu966z","56fc8248b5648e000fac9980","freq","img/orange_2bandit_a2.png","70","70","test","1","120","120","6","",""
"null","2213840","pSARL_v2","pSARL_v24rzu966z","56fc8248b5648e000fac9980","freq_resp","img/orange_2bandit_a.png","70","70","test","","","","6","",""
"null","2214010","pSARL_v2","pSARL_v24rzu966z","56fc8248b5648e000fac9980","fixation","img/fixation.png","null","","test","","","","","",""
"279.09999990463257","2214295","pSARL_v2","pSARL_v24rzu966z","56fc8248b5648e000fac9980","freq","img/orange_2bandit_a2.png","70","70","test","1","121","121","6","",""
"null","2214836","pSARL_v2","pSARL_v24rzu966z","56fc8248b5648e000fac9980","freq_resp","img/orange_2bandit_a.png","70","70","test","","","","6","",""
"null","2215006","pSARL_v2","pSARL_v24rzu966z","56fc8248b5648e000fac9980","fixation","img/fixation.png","null","","test","","","","","",""
"255.5","2215266","pSARL_v2","pSARL_v24rzu966z","56fc8248b5648e000fac9980","freq","img/orange_2bandit_a2.png","70","70","test","1","122","122","6","",""
"null","2215824","pSARL_v2","pSARL_v24rzu966z","56fc8248b5648e000fac9980","freq_resp","img/orange_2bandit_a.png","70","70","test","","","","6","",""
"null","2215993","pSARL_v2","pSARL_v24rzu966z","56fc8248b5648e000fac9980","fixation","img/fixation.png","null","","test","","","","","",""
"243","2216241","pSARL_v2","pSARL_v24rzu966z","56fc8248b5648e000fac9980","freq","img/orange_2bandit_a2.png","70","70","test","1","123","123","6","",""
"null","2216816","pSARL_v2","pSARL_v24rzu966z","56fc8248b5648e000fac9980","freq_resp","img/orange_2bandit_a.png","70","70","test","","","","6","",""
"null","2216987","pSARL_v2","pSARL_v24rzu966z","56fc8248b5648e000fac9980","fixation","img/fixation.png","null","","test","","","","","",""
"283.2999997138977","2217275","pSARL_v2","pSARL_v24rzu966z","56fc8248b5648e000fac9980","freq","img/orange_2bandit_a2.png","70","70","test","1","124","124","6","",""
"null","2217806","pSARL_v2","pSARL_v24rzu966z","56fc8248b5648e000fac9980","freq_resp","img/orange_2bandit_a.png","70","70","test","","","","6","",""
"null","2217976","pSARL_v2","pSARL_v24rzu966z","56fc8248b5648e000fac9980","fixation","img/fixation.png","null","","test","","","","","",""
"267.19999980926514","2218248","pSARL_v2","pSARL_v24rzu966z","56fc8248b5648e000fac9980","freq","img/orange_2bandit_a2.png","70","70","test","1","125","125","6","",""
"null","2218792","pSARL_v2","pSARL_v24rzu966z","56fc8248b5648e000fac9980","freq_resp","img/orange_2bandit_a.png","70","70","test","","","","6","",""
"null","2218952","pSARL_v2","pSARL_v24rzu966z","56fc8248b5648e000fac9980","fixation","img/fixation.png","null","","test","","","","","",""
"240.5","2219198","pSARL_v2","pSARL_v24rzu966z","56fc8248b5648e000fac9980","freq","img/orange_2bandit_a2.png","70","70","test","1","126","126","6","",""
"null","2219774","pSARL_v2","pSARL_v24rzu966z","56fc8248b5648e000fac9980","freq_resp","img/orange_2bandit_a.png","70","70","test","","","","6","",""
"null","2219943","pSARL_v2","pSARL_v24rzu966z","56fc8248b5648e000fac9980","fixation","img/fixation.png","null","","test","","","","","",""
"241.7999997138977","2220191","pSARL_v2","pSARL_v24rzu966z","56fc8248b5648e000fac9980","freq","img/orange_2bandit_a2.png","70","70","test","1","127","127","6","",""
"null","2220768","pSARL_v2","pSARL_v24rzu966z","56fc8248b5648e000fac9980","freq_resp","img/orange_2bandit_a.png","70","70","test","","","","6","",""
"null","2220925","pSARL_v2","pSARL_v24rzu966z","56fc8248b5648e000fac9980","fixation","img/fixation.png","null","","test","","","","","",""
"548.7999997138977","2221480","pSARL_v2","pSARL_v24rzu966z","56fc8248b5648e000fac9980","infreq","img/green_2bandit_a2.png","68","68","test","1","128","128","6","",""
"null","2221747","pSARL_v2","pSARL_v24rzu966z","56fc8248b5648e000fac9980","infreq_resp","img/green_2bandit_a.png","68","68","test","","","","6","",""
"null","2221917","pSARL_v2","pSARL_v24rzu966z","56fc8248b5648e000fac9980","fixation","img/fixation.png","null","","test","","","","","",""
"410.1000003814697","2222333","pSARL_v2","pSARL_v24rzu966z","56fc8248b5648e000fac9980","freq","img/orange_2bandit_a2.png","70","70","test","1","129","129","6","",""
"null","2222738","pSARL_v2","pSARL_v24rzu966z","56fc8248b5648e000fac9980","freq_resp","img/orange_2bandit_a.png","70","70","test","","","","6","",""
"null","2222910","pSARL_v2","pSARL_v24rzu966z","56fc8248b5648e000fac9980","fixation","img/fixation.png","null","","test","","","","","",""
"441.40000009536743","2223356","pSARL_v2","pSARL_v24rzu966z","56fc8248b5648e000fac9980","freq","img/orange_2bandit_a2.png","70","70","test","1","130","130","6","",""
"null","2223728","pSARL_v2","pSARL_v24rzu966z","56fc8248b5648e000fac9980","freq_resp","img/orange_2bandit_a.png","70","70","test","","","","6","",""
"null","2223898","pSARL_v2","pSARL_v24rzu966z","56fc8248b5648e000fac9980","fixation","img/fixation.png","null","","test","","","","","",""
"327","2224230","pSARL_v2","pSARL_v24rzu966z","56fc8248b5648e000fac9980","freq","img/orange_2bandit_a2.png","70","70","test","1","131","131","6","",""
"null","2224720","pSARL_v2","pSARL_v24rzu966z","56fc8248b5648e000fac9980","freq_resp","img/orange_2bandit_a.png","70","70","test","","","","6","",""
"null","2224891","pSARL_v2","pSARL_v24rzu966z","56fc8248b5648e000fac9980","fixation","img/fixation.png","null","","test","","","","","",""
"241.90000009536743","2225139","pSARL_v2","pSARL_v24rzu966z","56fc8248b5648e000fac9980","freq","img/orange_2bandit_a2.png","70","70","test","1","132","132","6","",""
"null","2225713","pSARL_v2","pSARL_v24rzu966z","56fc8248b5648e000fac9980","freq_resp","img/orange_2bandit_a.png","70","70","test","","","","6","",""
"null","2225870","pSARL_v2","pSARL_v24rzu966z","56fc8248b5648e000fac9980","fixation","img/fixation.png","null","","test","","","","","",""
"218.7999997138977","2226095","pSARL_v2","pSARL_v24rzu966z","56fc8248b5648e000fac9980","freq","img/orange_2bandit_a2.png","70","70","test","1","133","133","6","",""
"null","2226688","pSARL_v2","pSARL_v24rzu966z","56fc8248b5648e000fac9980","freq_resp","img/orange_2bandit_a.png","70","70","test","","","","6","",""
"null","2226859","pSARL_v2","pSARL_v24rzu966z","56fc8248b5648e000fac9980","fixation","img/fixation.png","null","","test","","","","","",""
"270.7000002861023","2227134","pSARL_v2","pSARL_v24rzu966z","56fc8248b5648e000fac9980","freq","img/orange_2bandit_a2.png","70","70","test","1","134","134","6","",""
"null","2227680","pSARL_v2","pSARL_v24rzu966z","56fc8248b5648e000fac9980","freq_resp","img/orange_2bandit_a.png","70","70","test","","","","6","",""
"null","2227849","pSARL_v2","pSARL_v24rzu966z","56fc8248b5648e000fac9980","fixation","img/fixation.png","null","","test","","","","","",""
"261.6000003814697","2228116","pSARL_v2","pSARL_v24rzu966z","56fc8248b5648e000fac9980","freq","img/orange_2bandit_a2.png","70","70","test","1","135","135","6","",""
"null","2228669","pSARL_v2","pSARL_v24rzu966z","56fc8248b5648e000fac9980","freq_resp","img/orange_2bandit_a.png","70","70","test","","","","6","",""
"null","2228838","pSARL_v2","pSARL_v24rzu966z","56fc8248b5648e000fac9980","fixation","img/fixation.png","null","","test","","","","","",""
"607.9000000953674","2229451","pSARL_v2","pSARL_v24rzu966z","56fc8248b5648e000fac9980","reward","img/slot.png","74","","test","","","","","",""
"null","2230215","pSARL_v2","pSARL_v24rzu966z","56fc8248b5648e000fac9980","points","<div class=""verylowPoints""> -7 </div>","null","na","test","","","","6","-7","5"
"499.6000003814697","2230720","pSARL_v2","pSARL_v24rzu966z","56fc8248b5648e000fac9980","freq","img/orange_2bandit_a2.png","70","70","test","1","136","136","7","",""
"null","2231031","pSARL_v2","pSARL_v24rzu966z","56fc8248b5648e000fac9980","freq_resp","img/orange_2bandit_a.png","70","70","test","","","","7","",""
"null","2231202","pSARL_v2","pSARL_v24rzu966z","56fc8248b5648e000fac9980","fixation","img/fixation.png","null","","test","","","","","",""
"368.2999997138977","2231575","pSARL_v2","pSARL_v24rzu966z","56fc8248b5648e000fac9980","freq","img/orange_2bandit_a2.png","70","70","test","1","137","137","7","",""
"null","2232024","pSARL_v2","pSARL_v24rzu966z","56fc8248b5648e000fac9980","freq_resp","img/orange_2bandit_a.png","70","70","test","","","","7","",""
"null","2232195","pSARL_v2","pSARL_v24rzu966z","56fc8248b5648e000fac9980","fixation","img/fixation.png","null","","test","","","","","",""
"289","2232489","pSARL_v2","pSARL_v24rzu966z","56fc8248b5648e000fac9980","freq","img/orange_2bandit_a2.png","70","70","test","1","138","138","7","",""
"null","2233011","pSARL_v2","pSARL_v24rzu966z","56fc8248b5648e000fac9980","freq_resp","img/orange_2bandit_a.png","70","70","test","","","","7","",""
"null","2233181","pSARL_v2","pSARL_v24rzu966z","56fc8248b5648e000fac9980","fixation","img/fixation.png","null","","test","","","","","",""
"252.40000009536743","2233438","pSARL_v2","pSARL_v24rzu966z","56fc8248b5648e000fac9980","freq","img/orange_2bandit_a2.png","70","70","test","1","139","139","7","",""
"null","2233999","pSARL_v2","pSARL_v24rzu966z","56fc8248b5648e000fac9980","freq_resp","img/orange_2bandit_a.png","70","70","test","","","","7","",""
"null","2234155","pSARL_v2","pSARL_v24rzu966z","56fc8248b5648e000fac9980","fixation","img/fixation.png","null","","test","","","","","",""
"256.5","2234417","pSARL_v2","pSARL_v24rzu966z","56fc8248b5648e000fac9980","freq","img/orange_2bandit_a2.png","70","70","test","1","140","140","7","",""
"null","2234976","pSARL_v2","pSARL_v24rzu966z","56fc8248b5648e000fac9980","freq_resp","img/orange_2bandit_a.png","70","70","test","","","","7","",""
"null","2235146","pSARL_v2","pSARL_v24rzu966z","56fc8248b5648e000fac9980","fixation","img/fixation.png","null","","test","","","","","",""
"254.19999980926514","2235405","pSARL_v2","pSARL_v24rzu966z","56fc8248b5648e000fac9980","freq","img/orange_2bandit_a2.png","70","70","test","1","141","141","7","",""
"null","2235969","pSARL_v2","pSARL_v24rzu966z","56fc8248b5648e000fac9980","freq_resp","img/orange_2bandit_a.png","70","70","test","","","","7","",""
"null","2236140","pSARL_v2","pSARL_v24rzu966z","56fc8248b5648e000fac9980","fixation","img/fixation.png","null","","test","","","","","",""
"260.2999997138977","2236406","pSARL_v2","pSARL_v24rzu966z","56fc8248b5648e000fac9980","freq","img/orange_2bandit_a2.png","70","70","test","1","142","142","7","",""
"null","2236961","pSARL_v2","pSARL_v24rzu966z","56fc8248b5648e000fac9980","freq_resp","img/orange_2bandit_a.png","70","70","test","","","","7","",""
"null","2237131","pSARL_v2","pSARL_v24rzu966z","56fc8248b5648e000fac9980","fixation","img/fixation.png","null","","test","","","","","",""
"227.2000002861023","2237364","pSARL_v2","pSARL_v24rzu966z","56fc8248b5648e000fac9980","freq","img/orange_2bandit_a2.png","70","70","test","1","143","143","7","",""
"null","2237952","pSARL_v2","pSARL_v24rzu966z","56fc8248b5648e000fac9980","freq_resp","img/orange_2bandit_a.png","70","70","test","","","","7","",""
"null","2238122","pSARL_v2","pSARL_v24rzu966z","56fc8248b5648e000fac9980","fixation","img/fixation.png","null","","test","","","","","",""
"268.19999980926514","2238396","pSARL_v2","pSARL_v24rzu966z","56fc8248b5648e000fac9980","freq","img/orange_2bandit_a2.png","70","70","test","1","144","144","7","",""
"null","2238947","pSARL_v2","pSARL_v24rzu966z","56fc8248b5648e000fac9980","freq_resp","img/orange_2bandit_a.png","70","70","test","","","","7","",""
"null","2239117","pSARL_v2","pSARL_v24rzu966z","56fc8248b5648e000fac9980","fixation","img/fixation.png","null","","test","","","","","",""
"369","2239491","pSARL_v2","pSARL_v24rzu966z","56fc8248b5648e000fac9980","freq","img/orange_2bandit_a2.png","70","70","test","1","145","145","7","",""
"null","2239937","pSARL_v2","pSARL_v24rzu966z","56fc8248b5648e000fac9980","freq_resp","img/orange_2bandit_a.png","70","70","test","","","","7","",""
"null","2240092","pSARL_v2","pSARL_v24rzu966z","56fc8248b5648e000fac9980","fixation","img/fixation.png","null","","test","","","","","",""
"336.8999996185303","2240435","pSARL_v2","pSARL_v24rzu966z","56fc8248b5648e000fac9980","freq","img/orange_2bandit_a2.png","70","70","test","1","146","146","7","",""
"null","2240918","pSARL_v2","pSARL_v24rzu966z","56fc8248b5648e000fac9980","freq_resp","img/orange_2bandit_a.png","70","70","test","","","","7","",""
"null","2241088","pSARL_v2","pSARL_v24rzu966z","56fc8248b5648e000fac9980","fixation","img/fixation.png","null","","test","","","","","",""
"305.90000009536743","2241399","pSARL_v2","pSARL_v24rzu966z","56fc8248b5648e000fac9980","freq","img/orange_2bandit_a2.png","70","70","test","1","147","147","7","",""
"null","2241913","pSARL_v2","pSARL_v24rzu966z","56fc8248b5648e000fac9980","freq_resp","img/orange_2bandit_a.png","70","70","test","","","","7","",""
"null","2242070","pSARL_v2","pSARL_v24rzu966z","56fc8248b5648e000fac9980","fixation","img/fixation.png","null","","test","","","","","",""
"378.7999997138977","2242454","pSARL_v2","pSARL_v24rzu966z","56fc8248b5648e000fac9980","freq","img/orange_2bandit_a2.png","70","70","test","1","148","148","7","",""
"null","2242883","pSARL_v2","pSARL_v24rzu966z","56fc8248b5648e000fac9980","freq_resp","img/orange_2bandit_a.png","70","70","test","","","","7","",""
"null","2243038","pSARL_v2","pSARL_v24rzu966z","56fc8248b5648e000fac9980","fixation","img/fixation.png","null","","test","","","","","",""
"303.2000002861023","2243347","pSARL_v2","pSARL_v24rzu966z","56fc8248b5648e000fac9980","freq","img/orange_2bandit_a2.png","70","70","test","1","149","149","7","",""
"null","2243857","pSARL_v2","pSARL_v24rzu966z","56fc8248b5648e000fac9980","freq_resp","img/orange_2bandit_a.png","70","70","test","","","","7","",""
"null","2244028","pSARL_v2","pSARL_v24rzu966z","56fc8248b5648e000fac9980","fixation","img/fixation.png","null","","test","","","","","",""
"481.3999996185303","2244514","pSARL_v2","pSARL_v24rzu966z","56fc8248b5648e000fac9980","infreq","img/green_2bandit_a2.png","68","68","test","1","150","150","7","",""
"null","2244844","pSARL_v2","pSARL_v24rzu966z","56fc8248b5648e000fac9980","infreq_resp","img/green_2bandit_a.png","68","68","test","","","","7","",""
"null","2245014","pSARL_v2","pSARL_v24rzu966z","56fc8248b5648e000fac9980","fixation","img/fixation.png","null","","test","","","","","",""
"384.2999997138977","2245403","pSARL_v2","pSARL_v24rzu966z","56fc8248b5648e000fac9980","freq","img/orange_2bandit_a2.png","70","70","test","1","151","151","7","",""
"null","2245831","pSARL_v2","pSARL_v24rzu966z","56fc8248b5648e000fac9980","freq_resp","img/orange_2bandit_a.png","70","70","test","","","","7","",""
"null","2245987","pSARL_v2","pSARL_v24rzu966z","56fc8248b5648e000fac9980","fixation","img/fixation.png","null","","test","","","","","",""
"326.3999996185303","2246318","pSARL_v2","pSARL_v24rzu966z","56fc8248b5648e000fac9980","freq","img/orange_2bandit_a2.png","70","70","test","1","152","152","7","",""
"null","2246811","pSARL_v2","pSARL_v24rzu966z","56fc8248b5648e000fac9980","freq_resp","img/orange_2bandit_a.png","70","70","test","","","","7","",""
"null","2246980","pSARL_v2","pSARL_v24rzu966z","56fc8248b5648e000fac9980","fixation","img/fixation.png","null","","test","","","","","",""
"240.69999980926514","2247226","pSARL_v2","pSARL_v24rzu966z","56fc8248b5648e000fac9980","freq","img/orange_2bandit_a2.png","70","70","test","1","153","153","7","",""
"null","2247801","pSARL_v2","pSARL_v24rzu966z","56fc8248b5648e000fac9980","freq_resp","img/orange_2bandit_a.png","70","70","test","","","","7","",""
"null","2247971","pSARL_v2","pSARL_v24rzu966z","56fc8248b5648e000fac9980","fixation","img/fixation.png","null","","test","","","","","",""
"107.30000019073486","2248084","pSARL_v2","pSARL_v24rzu966z","56fc8248b5648e000fac9980","freq","img/orange_2bandit_a2.png","70","70","test","1","154","154","7","",""
"null","2248792","pSARL_v2","pSARL_v24rzu966z","56fc8248b5648e000fac9980","freq_resp","img/orange_2bandit_a.png","70","70","test","","","","7","",""
"null","2248962","pSARL_v2","pSARL_v24rzu966z","56fc8248b5648e000fac9980","fixation","img/fixation.png","null","","test","","","","","",""
"131.90000009536743","2249099","pSARL_v2","pSARL_v24rzu966z","56fc8248b5648e000fac9980","freq","img/orange_2bandit_a2.png","70","70","test","1","155","155","7","",""
"null","2249778","pSARL_v2","pSARL_v24rzu966z","56fc8248b5648e000fac9980","freq_resp","img/orange_2bandit_a.png","70","70","test","","","","7","",""
"null","2249949","pSARL_v2","pSARL_v24rzu966z","56fc8248b5648e000fac9980","fixation","img/fixation.png","null","","test","","","","","",""
"134.10000038146973","2250088","pSARL_v2","pSARL_v24rzu966z","56fc8248b5648e000fac9980","freq","img/orange_2bandit_a2.png","70","70","test","1","156","156","7","",""
"null","2250767","pSARL_v2","pSARL_v24rzu966z","56fc8248b5648e000fac9980","freq_resp","img/orange_2bandit_a.png","70","70","test","","","","7","",""
"null","2250938","pSARL_v2","pSARL_v24rzu966z","56fc8248b5648e000fac9980","fixation","img/fixation.png","null","","test","","","","","",""
"127.30000019073486","2251071","pSARL_v2","pSARL_v24rzu966z","56fc8248b5648e000fac9980","infreq","img/green_2bandit_a2.png","70","68","test","0","157","157","7","",""
"null","2251760","pSARL_v2","pSARL_v24rzu966z","56fc8248b5648e000fac9980","infreq_resp","img/green_2bandit_a.png","70","68","test","","","","7","",""
"null","2251930","pSARL_v2","pSARL_v24rzu966z","56fc8248b5648e000fac9980","fixation","img/fixation.png","null","","test","","","","","",""
"443","2252378","pSARL_v2","pSARL_v24rzu966z","56fc8248b5648e000fac9980","freq","img/orange_2bandit_a2.png","70","70","test","1","158","158","7","",""
"null","2252752","pSARL_v2","pSARL_v24rzu966z","56fc8248b5648e000fac9980","freq_resp","img/orange_2bandit_a.png","70","70","test","","","","7","",""
"null","2252909","pSARL_v2","pSARL_v24rzu966z","56fc8248b5648e000fac9980","fixation","img/fixation.png","null","","test","","","","","",""
"366.69999980926514","2253281","pSARL_v2","pSARL_v24rzu966z","56fc8248b5648e000fac9980","freq","img/orange_2bandit_a2.png","70","70","test","1","159","159","7","",""
"null","2253728","pSARL_v2","pSARL_v24rzu966z","56fc8248b5648e000fac9980","freq_resp","img/orange_2bandit_a.png","70","70","test","","","","7","",""
"null","2253897","pSARL_v2","pSARL_v24rzu966z","56fc8248b5648e000fac9980","fixation","img/fixation.png","null","","test","","","","","",""
"491.5","2254394","pSARL_v2","pSARL_v24rzu966z","56fc8248b5648e000fac9980","reward","img/slot.png","74","","test","","","","","",""
"null","2255153","pSARL_v2","pSARL_v24rzu966z","56fc8248b5648e000fac9980","points","<div class=""verylowPoints""> -6 </div>","null","na","test","","","","7","-6","6"
"365","2255523","pSARL_v2","pSARL_v24rzu966z","56fc8248b5648e000fac9980","freq","img/orange_2bandit_a2.png","70","70","test","1","160","160","8","",""
"null","2255977","pSARL_v2","pSARL_v24rzu966z","56fc8248b5648e000fac9980","freq_resp","img/orange_2bandit_a.png","70","70","test","","","","8","",""
"null","2256133","pSARL_v2","pSARL_v24rzu966z","56fc8248b5648e000fac9980","fixation","img/fixation.png","null","","test","","","","","",""
"293.2999997138977","2256431","pSARL_v2","pSARL_v24rzu966z","56fc8248b5648e000fac9980","freq","img/orange_2bandit_a2.png","70","70","test","1","161","161","8","",""
"null","2256952","pSARL_v2","pSARL_v24rzu966z","56fc8248b5648e000fac9980","freq_resp","img/orange_2bandit_a.png","70","70","test","","","","8","",""
"null","2257122","pSARL_v2","pSARL_v24rzu966z","56fc8248b5648e000fac9980","fixation","img/fixation.png","null","","test","","","","","",""
"245.59999990463257","2257373","pSARL_v2","pSARL_v24rzu966z","56fc8248b5648e000fac9980","infreq","img/green_2bandit_a2.png","70","68","test","0","162","162","8","",""
"null","2257942","pSARL_v2","pSARL_v24rzu966z","56fc8248b5648e000fac9980","infreq_resp","img/green_2bandit_a.png","70","68","test","","","","8","",""
"null","2258110","pSARL_v2","pSARL_v24rzu966z","56fc8248b5648e000fac9980","fixation","img/fixation.png","null","","test","","","","","",""
"367.30000019073486","2258483","pSARL_v2","pSARL_v24rzu966z","56fc8248b5648e000fac9980","freq","img/orange_2bandit_a2.png","70","70","test","1","163","163","8","",""
"null","2258935","pSARL_v2","pSARL_v24rzu966z","56fc8248b5648e000fac9980","freq_resp","img/orange_2bandit_a.png","70","70","test","","","","8","",""
"null","2259092","pSARL_v2","pSARL_v24rzu966z","56fc8248b5648e000fac9980","fixation","img/fixation.png","null","","test","","","","","",""
"317.40000009536743","2259414","pSARL_v2","pSARL_v24rzu966z","56fc8248b5648e000fac9980","freq","img/orange_2bandit_a2.png","70","70","test","1","164","164","8","",""
"null","2259916","pSARL_v2","pSARL_v24rzu966z","56fc8248b5648e000fac9980","freq_resp","img/orange_2bandit_a.png","70","70","test","","","","8","",""
"null","2260085","pSARL_v2","pSARL_v24rzu966z","56fc8248b5648e000fac9980","fixation","img/fixation.png","null","","test","","","","","",""
"261.7999997138977","2260352","pSARL_v2","pSARL_v24rzu966z","56fc8248b5648e000fac9980","freq","img/orange_2bandit_a2.png","70","70","test","1","165","165","8","",""
"null","2260906","pSARL_v2","pSARL_v24rzu966z","56fc8248b5648e000fac9980","freq_resp","img/orange_2bandit_a.png","70","70","test","","","","8","",""
"null","2261074","pSARL_v2","pSARL_v24rzu966z","56fc8248b5648e000fac9980","fixation","img/fixation.png","null","","test","","","","","",""
"208.7000002861023","2261288","pSARL_v2","pSARL_v24rzu966z","56fc8248b5648e000fac9980","freq","img/orange_2bandit_a2.png","70","70","test","1","166","166","8","",""
"null","2261895","pSARL_v2","pSARL_v24rzu966z","56fc8248b5648e000fac9980","freq_resp","img/orange_2bandit_a.png","70","70","test","","","","8","",""
"null","2262063","pSARL_v2","pSARL_v24rzu966z","56fc8248b5648e000fac9980","fixation","img/fixation.png","null","","test","","","","","",""
"193.19999980926514","2262262","pSARL_v2","pSARL_v24rzu966z","56fc8248b5648e000fac9980","infreq","img/green_2bandit_a2.png","70","68","test","0","167","167","8","",""
"null","2262884","pSARL_v2","pSARL_v24rzu966z","56fc8248b5648e000fac9980","infreq_resp","img/green_2bandit_a.png","70","68","test","","","","8","",""
"null","2263056","pSARL_v2","pSARL_v24rzu966z","56fc8248b5648e000fac9980","fixation","img/fixation.png","null","","test","","","","","",""
"501","2263564","pSARL_v2","pSARL_v24rzu966z","56fc8248b5648e000fac9980","infreq","img/green_2bandit_a2.png","68","68","test","1","168","168","8","",""
"null","2263874","pSARL_v2","pSARL_v24rzu966z","56fc8248b5648e000fac9980","infreq_resp","img/green_2bandit_a.png","68","68","test","","","","8","",""
"null","2264045","pSARL_v2","pSARL_v24rzu966z","56fc8248b5648e000fac9980","fixation","img/fixation.png","null","","test","","","","","",""
"411.5","2264462","pSARL_v2","pSARL_v24rzu966z","56fc8248b5648e000fac9980","freq","img/orange_2bandit_a2.png","70","70","test","1","169","169","8","",""
"null","2264865","pSARL_v2","pSARL_v24rzu966z","56fc8248b5648e000fac9980","freq_resp","img/orange_2bandit_a.png","70","70","test","","","","8","",""
"null","2265035","pSARL_v2","pSARL_v24rzu966z","56fc8248b5648e000fac9980","fixation","img/fixation.png","null","","test","","","","","",""
"510.30000019073486","2265550","pSARL_v2","pSARL_v24rzu966z","56fc8248b5648e000fac9980","freq","img/orange_2bandit_a2.png","70","70","test","1","170","170","8","",""
"null","2265853","pSARL_v2","pSARL_v24rzu966z","56fc8248b5648e000fac9980","freq_resp","img/orange_2bandit_a.png","70","70","test","","","","8","",""
"null","2266024","pSARL_v2","pSARL_v24rzu966z","56fc8248b5648e000fac9980","fixation","img/fixation.png","null","","test","","","","","",""
"521.5","2266551","pSARL_v2","pSARL_v24rzu966z","56fc8248b5648e000fac9980","freq","img/orange_2bandit_a2.png","70","70","test","1","171","171","8","",""
"null","2266841","pSARL_v2","pSARL_v24rzu966z","56fc8248b5648e000fac9980","freq_resp","img/orange_2bandit_a.png","70","70","test","","","","8","",""
"null","2266997","pSARL_v2","pSARL_v24rzu966z","56fc8248b5648e000fac9980","fixation","img/fixation.png","null","","test","","","","","",""
"411.2999997138977","2267414","pSARL_v2","pSARL_v24rzu966z","56fc8248b5648e000fac9980","freq","img/orange_2bandit_a2.png","70","70","test","1","172","172","8","",""
"null","2267815","pSARL_v2","pSARL_v24rzu966z","56fc8248b5648e000fac9980","freq_resp","img/orange_2bandit_a.png","70","70","test","","","","8","",""
"null","2267984","pSARL_v2","pSARL_v24rzu966z","56fc8248b5648e000fac9980","fixation","img/fixation.png","null","","test","","","","","",""
"395.80000019073486","2268385","pSARL_v2","pSARL_v24rzu966z","56fc8248b5648e000fac9980","freq","img/orange_2bandit_a2.png","70","70","test","1","173","173","8","",""
"null","2268808","pSARL_v2","pSARL_v24rzu966z","56fc8248b5648e000fac9980","freq_resp","img/orange_2bandit_a.png","70","70","test","","","","8","",""
"null","2268979","pSARL_v2","pSARL_v24rzu966z","56fc8248b5648e000fac9980","fixation","img/fixation.png","null","","test","","","","","",""
"316.40000009536743","2269300","pSARL_v2","pSARL_v24rzu966z","56fc8248b5648e000fac9980","freq","img/orange_2bandit_a2.png","70","70","test","1","174","174","8","",""
"null","2269798","pSARL_v2","pSARL_v24rzu966z","56fc8248b5648e000fac9980","freq_resp","img/orange_2bandit_a.png","70","70","test","","","","8","",""
"null","2269969","pSARL_v2","pSARL_v24rzu966z","56fc8248b5648e000fac9980","fixation","img/fixation.png","null","","test","","","","","",""
"289.69999980926514","2270265","pSARL_v2","pSARL_v24rzu966z","56fc8248b5648e000fac9980","freq","img/orange_2bandit_a2.png","70","70","test","1","175","175","8","",""
"null","2270789","pSARL_v2","pSARL_v24rzu966z","56fc8248b5648e000fac9980","freq_resp","img/orange_2bandit_a.png","70","70","test","","","","8","",""
"null","2270959","pSARL_v2","pSARL_v24rzu966z","56fc8248b5648e000fac9980","fixation","img/fixation.png","null","","test","","","","","",""
"286.80000019073486","2271252","pSARL_v2","pSARL_v24rzu966z","56fc8248b5648e000fac9980","freq","img/orange_2bandit_a2.png","70","70","test","1","176","176","8","",""
"null","2271778","pSARL_v2","pSARL_v24rzu966z","56fc8248b5648e000fac9980","freq_resp","img/orange_2bandit_a.png","70","70","test","","","","8","",""
"null","2271948","pSARL_v2","pSARL_v24rzu966z","56fc8248b5648e000fac9980","fixation","img/fixation.png","null","","test","","","","","",""
"401.30000019073486","2272355","pSARL_v2","pSARL_v24rzu966z","56fc8248b5648e000fac9980","freq","img/orange_2bandit_a2.png","70","70","test","1","177","177","8","",""
"null","2272765","pSARL_v2","pSARL_v24rzu966z","56fc8248b5648e000fac9980","freq_resp","img/orange_2bandit_a.png","70","70","test","","","","8","",""
"null","2272934","pSARL_v2","pSARL_v24rzu966z","56fc8248b5648e000fac9980","fixation","img/fixation.png","null","","test","","","","","",""
"486.69999980926514","2273426","pSARL_v2","pSARL_v24rzu966z","56fc8248b5648e000fac9980","freq","img/orange_2bandit_a2.png","70","70","test","1","178","178","8","",""
"null","2273752","pSARL_v2","pSARL_v24rzu966z","56fc8248b5648e000fac9980","freq_resp","img/orange_2bandit_a.png","70","70","test","","","","8","",""
"null","2273923","pSARL_v2","pSARL_v24rzu966z","56fc8248b5648e000fac9980","fixation","img/fixation.png","null","","test","","","","","",""
"463.40000009536743","2274391","pSARL_v2","pSARL_v24rzu966z","56fc8248b5648e000fac9980","freq","img/orange_2bandit_a2.png","70","70","test","1","179","179","8","",""
"null","2274742","pSARL_v2","pSARL_v24rzu966z","56fc8248b5648e000fac9980","freq_resp","img/orange_2bandit_a.png","70","70","test","","","","8","",""
"null","2274911","pSARL_v2","pSARL_v24rzu966z","56fc8248b5648e000fac9980","fixation","img/fixation.png","null","","test","","","","","",""
"327.7000002861023","2275244","pSARL_v2","pSARL_v24rzu966z","56fc8248b5648e000fac9980","freq","img/orange_2bandit_a2.png","70","70","test","1","180","180","8","",""
"null","2275732","pSARL_v2","pSARL_v24rzu966z","56fc8248b5648e000fac9980","freq_resp","img/orange_2bandit_a.png","70","70","test","","","","8","",""
"null","2275888","pSARL_v2","pSARL_v24rzu966z","56fc8248b5648e000fac9980","fixation","img/fixation.png","null","","test","","","","","",""
"362.90000009536743","2276256","pSARL_v2","pSARL_v24rzu966z","56fc8248b5648e000fac9980","freq","img/orange_2bandit_a2.png","70","70","test","1","181","181","8","",""
"null","2276710","pSARL_v2","pSARL_v24rzu966z","56fc8248b5648e000fac9980","freq_resp","img/orange_2bandit_a.png","70","70","test","","","","8","",""
"null","2276867","pSARL_v2","pSARL_v24rzu966z","56fc8248b5648e000fac9980","fixation","img/fixation.png","null","","test","","","","","",""
"324","2277196","pSARL_v2","pSARL_v24rzu966z","56fc8248b5648e000fac9980","freq","img/orange_2bandit_a2.png","70","70","test","1","182","182","8","",""
"null","2277688","pSARL_v2","pSARL_v24rzu966z","56fc8248b5648e000fac9980","freq_resp","img/orange_2bandit_a.png","70","70","test","","","","8","",""
"null","2277844","pSARL_v2","pSARL_v24rzu966z","56fc8248b5648e000fac9980","fixation","img/fixation.png","null","","test","","","","","",""
"406.40000009536743","2278256","pSARL_v2","pSARL_v24rzu966z","56fc8248b5648e000fac9980","reward","img/slot.png","74","","test","","","","","",""
"null","2279027","pSARL_v2","pSARL_v24rzu966z","56fc8248b5648e000fac9980","points","<div class=""verylowPoints""> -4 </div>","null","na","test","","","","8","-4","7"
"338.90000009536743","2279371","pSARL_v2","pSARL_v24rzu966z","56fc8248b5648e000fac9980","freq","img/orange_2bandit_a2.png","70","70","test","1","183","183","9","",""
"null","2279847","pSARL_v2","pSARL_v24rzu966z","56fc8248b5648e000fac9980","freq_resp","img/orange_2bandit_a.png","70","70","test","","","","9","",""
"null","2280019","pSARL_v2","pSARL_v24rzu966z","56fc8248b5648e000fac9980","fixation","img/fixation.png","null","","test","","","","","",""
"307.19999980926514","2280331","pSARL_v2","pSARL_v24rzu966z","56fc8248b5648e000fac9980","freq","img/orange_2bandit_a2.png","70","70","test","1","184","184","9","",""
"null","2280841","pSARL_v2","pSARL_v24rzu966z","56fc8248b5648e000fac9980","freq_resp","img/orange_2bandit_a.png","70","70","test","","","","9","",""
"null","2281011","pSARL_v2","pSARL_v24rzu966z","56fc8248b5648e000fac9980","fixation","img/fixation.png","null","","test","","","","","",""
"299.2999997138977","2281316","pSARL_v2","pSARL_v24rzu966z","56fc8248b5648e000fac9980","freq","img/orange_2bandit_a2.png","70","70","test","1","185","185","9","",""
"null","2281833","pSARL_v2","pSARL_v24rzu966z","56fc8248b5648e000fac9980","freq_resp","img/orange_2bandit_a.png","70","70","test","","","","9","",""
"null","2281989","pSARL_v2","pSARL_v24rzu966z","56fc8248b5648e000fac9980","fixation","img/fixation.png","null","","test","","","","","",""
"347.7000002861023","2282343","pSARL_v2","pSARL_v24rzu966z","56fc8248b5648e000fac9980","freq","img/orange_2bandit_a2.png","70","70","test","1","186","186","9","",""
"null","2282809","pSARL_v2","pSARL_v24rzu966z","56fc8248b5648e000fac9980","freq_resp","img/orange_2bandit_a.png","70","70","test","","","","9","",""
"null","2282979","pSARL_v2","pSARL_v24rzu966z","56fc8248b5648e000fac9980","fixation","img/fixation.png","null","","test","","","","","",""
"318","2283302","pSARL_v2","pSARL_v24rzu966z","56fc8248b5648e000fac9980","freq","img/orange_2bandit_a2.png","70","70","test","1","187","187","9","",""
"null","2283799","pSARL_v2","pSARL_v24rzu966z","56fc8248b5648e000fac9980","freq_resp","img/orange_2bandit_a.png","70","70","test","","","","9","",""
"null","2283969","pSARL_v2","pSARL_v24rzu966z","56fc8248b5648e000fac9980","fixation","img/fixation.png","null","","test","","","","","",""
"407.2000002861023","2284381","pSARL_v2","pSARL_v24rzu966z","56fc8248b5648e000fac9980","infreq","img/green_2bandit_a2.png","68","68","test","1","188","188","9","",""
"null","2284792","pSARL_v2","pSARL_v24rzu966z","56fc8248b5648e000fac9980","infreq_resp","img/green_2bandit_a.png","68","68","test","","","","9","",""
"null","2284961","pSARL_v2","pSARL_v24rzu966z","56fc8248b5648e000fac9980","fixation","img/fixation.png","null","","test","","","","","",""
"396.30000019073486","2285362","pSARL_v2","pSARL_v24rzu966z","56fc8248b5648e000fac9980","freq","img/orange_2bandit_a2.png","70","70","test","1","189","189","9","",""
"null","2285776","pSARL_v2","pSARL_v24rzu966z","56fc8248b5648e000fac9980","freq_resp","img/orange_2bandit_a.png","70","70","test","","","","9","",""
"null","2285947","pSARL_v2","pSARL_v24rzu966z","56fc8248b5648e000fac9980","fixation","img/fixation.png","null","","test","","","","","",""
"381.8999996185303","2286334","pSARL_v2","pSARL_v24rzu966z","56fc8248b5648e000fac9980","freq","img/orange_2bandit_a2.png","70","70","test","1","190","190","9","",""
"null","2286766","pSARL_v2","pSARL_v24rzu966z","56fc8248b5648e000fac9980","freq_resp","img/orange_2bandit_a.png","70","70","test","","","","9","",""
"null","2286935","pSARL_v2","pSARL_v24rzu966z","56fc8248b5648e000fac9980","fixation","img/fixation.png","null","","test","","","","","",""
"371.6000003814697","2287312","pSARL_v2","pSARL_v24rzu966z","56fc8248b5648e000fac9980","freq","img/orange_2bandit_a2.png","70","70","test","1","191","191","9","",""
"null","2287753","pSARL_v2","pSARL_v24rzu966z","56fc8248b5648e000fac9980","freq_resp","img/orange_2bandit_a.png","70","70","test","","","","9","",""
"null","2287922","pSARL_v2","pSARL_v24rzu966z","56fc8248b5648e000fac9980","fixation","img/fixation.png","null","","test","","","","","",""
"318.19999980926514","2288245","pSARL_v2","pSARL_v24rzu966z","56fc8248b5648e000fac9980","freq","img/orange_2bandit_a2.png","70","70","test","1","192","192","9","",""
"null","2288748","pSARL_v2","pSARL_v24rzu966z","56fc8248b5648e000fac9980","freq_resp","img/orange_2bandit_a.png","70","70","test","","","","9","",""
"null","2288905","pSARL_v2","pSARL_v24rzu966z","56fc8248b5648e000fac9980","fixation","img/fixation.png","null","","test","","","","","",""
"386.19999980926514","2289296","pSARL_v2","pSARL_v24rzu966z","56fc8248b5648e000fac9980","freq","img/orange_2bandit_a2.png","70","70","test","1","193","193","9","",""
"null","2289724","pSARL_v2","pSARL_v24rzu966z","56fc8248b5648e000fac9980","freq_resp","img/orange_2bandit_a.png","70","70","test","","","","9","",""
"null","2289881","pSARL_v2","pSARL_v24rzu966z","56fc8248b5648e000fac9980","fixation","img/fixation.png","null","","test","","","","","",""
"323.2999997138977","2290210","pSARL_v2","pSARL_v24rzu966z","56fc8248b5648e000fac9980","freq","img/orange_2bandit_a2.png","70","70","test","1","194","194","9","",""
"null","2290694","pSARL_v2","pSARL_v24rzu966z","56fc8248b5648e000fac9980","freq_resp","img/orange_2bandit_a.png","70","70","test","","","","9","",""
"null","2290864","pSARL_v2","pSARL_v24rzu966z","56fc8248b5648e000fac9980","fixation","img/fixation.png","null","","test","","","","","",""
"282.1000003814697","2291152","pSARL_v2","pSARL_v24rzu966z","56fc8248b5648e000fac9980","freq","img/orange_2bandit_a2.png","70","70","test","1","195","195","9","",""
"null","2291682","pSARL_v2","pSARL_v24rzu966z","56fc8248b5648e000fac9980","freq_resp","img/orange_2bandit_a.png","70","70","test","","","","9","",""
"null","2291852","pSARL_v2","pSARL_v24rzu966z","56fc8248b5648e000fac9980","fixation","img/fixation.png","null","","test","","","","","",""
"277.5","2292136","pSARL_v2","pSARL_v24rzu966z","56fc8248b5648e000fac9980","freq","img/orange_2bandit_a2.png","70","70","test","1","196","196","9","",""
"null","2292673","pSARL_v2","pSARL_v24rzu966z","56fc8248b5648e000fac9980","freq_resp","img/orange_2bandit_a.png","70","70","test","","","","9","",""
"null","2292843","pSARL_v2","pSARL_v24rzu966z","56fc8248b5648e000fac9980","fixation","img/fixation.png","null","","test","","","","","",""
"263.7999997138977","2293112","pSARL_v2","pSARL_v24rzu966z","56fc8248b5648e000fac9980","freq","img/orange_2bandit_a2.png","70","70","test","1","197","197","9","",""
"null","2293665","pSARL_v2","pSARL_v24rzu966z","56fc8248b5648e000fac9980","freq_resp","img/orange_2bandit_a.png","70","70","test","","","","9","",""
"null","2293834","pSARL_v2","pSARL_v24rzu966z","56fc8248b5648e000fac9980","fixation","img/fixation.png","null","","test","","","","","",""
"280.80000019073486","2294120","pSARL_v2","pSARL_v24rzu966z","56fc8248b5648e000fac9980","freq","img/orange_2bandit_a2.png","70","70","test","1","198","198","9","",""
"null","2294651","pSARL_v2","pSARL_v24rzu966z","56fc8248b5648e000fac9980","freq_resp","img/orange_2bandit_a.png","70","70","test","","","","9","",""
"null","2294820","pSARL_v2","pSARL_v24rzu966z","56fc8248b5648e000fac9980","fixation","img/fixation.png","null","","test","","","","","",""
"420.7999997138977","2295246","pSARL_v2","pSARL_v24rzu966z","56fc8248b5648e000fac9980","infreq","img/green_2bandit_a2.png","68","68","test","1","199","199","9","",""
"null","2295643","pSARL_v2","pSARL_v24rzu966z","56fc8248b5648e000fac9980","infreq_resp","img/green_2bandit_a.png","68","68","test","","","","9","",""
"null","2295813","pSARL_v2","pSARL_v24rzu966z","56fc8248b5648e000fac9980","fixation","img/fixation.png","null","","test","","","","","",""
"334.7000002861023","2296154","pSARL_v2","pSARL_v24rzu966z","56fc8248b5648e000fac9980","freq","img/orange_2bandit_a2.png","70","70","test","1","200","200","9","",""
"null","2296636","pSARL_v2","pSARL_v24rzu966z","56fc8248b5648e000fac9980","freq_resp","img/orange_2bandit_a.png","70","70","test","","","","9","",""
"null","2296805","pSARL_v2","pSARL_v24rzu966z","56fc8248b5648e000fac9980","fixation","img/fixation.png","null","","test","","","","","",""
"372.5","2297183","pSARL_v2","pSARL_v24rzu966z","56fc8248b5648e000fac9980","freq","img/orange_2bandit_a2.png","70","70","test","1","201","201","9","",""
"null","2297630","pSARL_v2","pSARL_v24rzu966z","56fc8248b5648e000fac9980","freq_resp","img/orange_2bandit_a.png","70","70","test","","","","9","",""
"null","2297787","pSARL_v2","pSARL_v24rzu966z","56fc8248b5648e000fac9980","fixation","img/fixation.png","null","","test","","","","","",""
"344.40000009536743","2298136","pSARL_v2","pSARL_v24rzu966z","56fc8248b5648e000fac9980","freq","img/orange_2bandit_a2.png","70","70","test","1","202","202","9","",""
"null","2298608","pSARL_v2","pSARL_v24rzu966z","56fc8248b5648e000fac9980","freq_resp","img/orange_2bandit_a.png","70","70","test","","","","9","",""
"null","2298778","pSARL_v2","pSARL_v24rzu966z","56fc8248b5648e000fac9980","fixation","img/fixation.png","null","","test","","","","","",""
"482.7000002861023","2299266","pSARL_v2","pSARL_v24rzu966z","56fc8248b5648e000fac9980","reward","img/slot.png","74","","test","","","","","",""
"null","2300031","pSARL_v2","pSARL_v24rzu966z","56fc8248b5648e000fac9980","points","<div class=""verylowPoints""> -3 </div>","null","na","test","","","","9","-3","8"
"444.6000003814697","2300481","pSARL_v2","pSARL_v24rzu966z","56fc8248b5648e000fac9980","freq","img/orange_2bandit_a2.png","70","70","test","1","203","203","10","",""
