"rt","time_elapsed","expId","subject","prolificID","trialType","stimulus","key_press","corrresp","phase","corr","trialNum","attentionRunNum","blockNum","points","rlNum"
"9040.000000000002","9047","pSARL_v2","pSARL_v2re3px14k","63cee7f1f8ef24eb79c80270","","","","","","","","","","",""
"","12331","pSARL_v2","pSARL_v2re3px14k","63cee7f1f8ef24eb79c80270","fullscreen","","","","","","","","","",""
"77774","90106","pSARL_v2","pSARL_v2re3px14k","63cee7f1f8ef24eb79c80270","","","","","","","","","","",""
"null","90921","pSARL_v2","pSARL_v2re3px14k","63cee7f1f8ef24eb79c80270","freqPrac","img/orange_2bandit_b2.png","null","70","prac","0","","","","",""
"null","91937","pSARL_v2","pSARL_v2re3px14k","63cee7f1f8ef24eb79c80270","feedback","img/tooSlow.png","null","na","prac","","","","","",""
"null","92096","pSARL_v2","pSARL_v2re3px14k","63cee7f1f8ef24eb79c80270","fixation","img/fixation.png","null","","prac","","","","","",""
"614","92721","pSARL_v2","pSARL_v2re3px14k","63cee7f1f8ef24eb79c80270","infreqPrac","img/green_2bandit_b2.png","68","68","prac","1","","","","",""
"614","92919","pSARL_v2","pSARL_v2re3px14k","63cee7f1f8ef24eb79c80270","infreqPrac_resp","img/green_2bandit_b.png","68","68","prac","","","","","",""
"null","93079","pSARL_v2","pSARL_v2re3px14k","63cee7f1f8ef24eb79c80270","fixation","img/fixation.png","null","","prac","","","","","",""
"519","93607","pSARL_v2","pSARL_v2re3px14k","63cee7f1f8ef24eb79c80270","freqPrac","img/orange_2bandit_b2.png","70","70","prac","1","","","","",""
"519","93898","pSARL_v2","pSARL_v2re3px14k","63cee7f1f8ef24eb79c80270","freqPrac_resp","img/orange_2bandit_b.png","70","70","prac","","","","","",""
"null","94058","pSARL_v2","pSARL_v2re3px14k","63cee7f1f8ef24eb79c80270","fixation","img/fixation.png","null","","prac","","","","","",""
"310","94376","pSARL_v2","pSARL_v2re3px14k","63cee7f1f8ef24eb79c80270","infreqPrac","img/green_2bandit_b2.png","68","68","prac","1","","","","",""
"310","94876","pSARL_v2","pSARL_v2re3px14k","63cee7f1f8ef24eb79c80270","infreqPrac_resp","img/green_2bandit_b.png","68","68","prac","","","","","",""
"null","95035","pSARL_v2","pSARL_v2re3px14k","63cee7f1f8ef24eb79c80270","fixation","img/fixation.png","null","","prac","","","","","",""
"278.00000000001455","95321","pSARL_v2","pSARL_v2re3px14k","63cee7f1f8ef24eb79c80270","infreqPrac","img/green_2bandit_b2.png","70","68","prac","0","","","","",""
"278.00000000001455","95854","pSARL_v2","pSARL_v2re3px14k","63cee7f1f8ef24eb79c80270","infreqPrac_resp","img/green_2bandit_b.png","70","68","prac","","","","","",""
"null","96864","pSARL_v2","pSARL_v2re3px14k","63cee7f1f8ef24eb79c80270","feedback","img/wrongKey.png","null","na","prac","","","","","",""
"null","97026","pSARL_v2","pSARL_v2re3px14k","63cee7f1f8ef24eb79c80270","fixation","img/fixation.png","null","","prac","","","","","",""
"584","97621","pSARL_v2","pSARL_v2re3px14k","63cee7f1f8ef24eb79c80270","infreqPrac","img/green_2bandit_b2.png","68","68","prac","1","","","","",""
"584","97847","pSARL_v2","pSARL_v2re3px14k","63cee7f1f8ef24eb79c80270","infreqPrac_resp","img/green_2bandit_b.png","68","68","prac","","","","","",""
"null","98006","pSARL_v2","pSARL_v2re3px14k","63cee7f1f8ef24eb79c80270","fixation","img/fixation.png","null","","prac","","","","","",""
"722","98738","pSARL_v2","pSARL_v2re3px14k","63cee7f1f8ef24eb79c80270","freqPrac","img/orange_2bandit_b2.png","70","70","prac","1","","","","",""
"722","98825","pSARL_v2","pSARL_v2re3px14k","63cee7f1f8ef24eb79c80270","freqPrac_resp","img/orange_2bandit_b.png","70","70","prac","","","","","",""
"null","98989","pSARL_v2","pSARL_v2re3px14k","63cee7f1f8ef24eb79c80270","fixation","img/fixation.png","null","","prac","","","","","",""
"378","99376","pSARL_v2","pSARL_v2re3px14k","63cee7f1f8ef24eb79c80270","infreqPrac","img/green_2bandit_b2.png","68","68","prac","1","","","","",""
"378","99808","pSARL_v2","pSARL_v2re3px14k","63cee7f1f8ef24eb79c80270","infreqPrac_resp","img/green_2bandit_b.png","68","68","prac","","","","","",""
"null","99969","pSARL_v2","pSARL_v2re3px14k","63cee7f1f8ef24eb79c80270","fixation","img/fixation.png","null","","prac","","","","","",""
"346","100322","pSARL_v2","pSARL_v2re3px14k","63cee7f1f8ef24eb79c80270","freqPrac","img/orange_2bandit_b2.png","70","70","prac","1","","","","",""
"346","100786","pSARL_v2","pSARL_v2re3px14k","63cee7f1f8ef24eb79c80270","freqPrac_resp","img/orange_2bandit_b.png","70","70","prac","","","","","",""
"null","100947","pSARL_v2","pSARL_v2re3px14k","63cee7f1f8ef24eb79c80270","fixation","img/fixation.png","null","","prac","","","","","",""
"424.99999999998545","101374","pSARL_v2","pSARL_v2re3px14k","63cee7f1f8ef24eb79c80270","freqPrac","img/orange_2bandit_b2.png","70","70","prac","1","","","","",""
"424.99999999998545","101761","pSARL_v2","pSARL_v2re3px14k","63cee7f1f8ef24eb79c80270","freqPrac_resp","img/orange_2bandit_b.png","70","70","prac","","","","","",""
"null","101920","pSARL_v2","pSARL_v2re3px14k","63cee7f1f8ef24eb79c80270","fixation","img/fixation.png","null","","prac","","","","","",""
"20544.000000000015","122471","pSARL_v2","pSARL_v2re3px14k","63cee7f1f8ef24eb79c80270","","","","","prac","","","","","",""
"613","123093","pSARL_v2","pSARL_v2re3px14k","63cee7f1f8ef24eb79c80270","rewardPractice","img/slot.png","74","","prac","","","","","",""
"null","123858","pSARL_v2","pSARL_v2re3px14k","63cee7f1f8ef24eb79c80270","feedback","<div class=""veryhighPoints""> +15 </div>","null","na","prac","","","","","",""
"null","124018","pSARL_v2","pSARL_v2re3px14k","63cee7f1f8ef24eb79c80270","fixation","img/fixation.png","null","","prac","","","","","",""
"15778","139804","pSARL_v2","pSARL_v2re3px14k","63cee7f1f8ef24eb79c80270","","","","","prac","","","","","",""
"556","140370","pSARL_v2","pSARL_v2re3px14k","63cee7f1f8ef24eb79c80270","freq","img/orange_2bandit_b2.png","70","70","test","1","1","1","1","",""
"null","140622","pSARL_v2","pSARL_v2re3px14k","63cee7f1f8ef24eb79c80270","freq_resp","img/orange_2bandit_b.png","70","70","test","","","","1","",""
"null","140782","pSARL_v2","pSARL_v2re3px14k","63cee7f1f8ef24eb79c80270","fixation","img/fixation.png","null","","test","","","","","",""
"395","141185","pSARL_v2","pSARL_v2re3px14k","63cee7f1f8ef24eb79c80270","freq","img/orange_2bandit_b2.png","70","70","test","1","2","2","1","",""
"null","141602","pSARL_v2","pSARL_v2re3px14k","63cee7f1f8ef24eb79c80270","freq_resp","img/orange_2bandit_b.png","70","70","test","","","","1","",""
"null","141766","pSARL_v2","pSARL_v2re3px14k","63cee7f1f8ef24eb79c80270","fixation","img/fixation.png","null","","test","","","","","",""
"325","142099","pSARL_v2","pSARL_v2re3px14k","63cee7f1f8ef24eb79c80270","freq","img/orange_2bandit_b2.png","70","70","test","1","3","3","1","",""
"null","142586","pSARL_v2","pSARL_v2re3px14k","63cee7f1f8ef24eb79c80270","freq_resp","img/orange_2bandit_b.png","70","70","test","","","","1","",""
"null","142747","pSARL_v2","pSARL_v2re3px14k","63cee7f1f8ef24eb79c80270","fixation","img/fixation.png","null","","test","","","","","",""
"343","143097","pSARL_v2","pSARL_v2re3px14k","63cee7f1f8ef24eb79c80270","freq","img/orange_2bandit_b2.png","70","70","test","1","4","4","1","",""
"null","143566","pSARL_v2","pSARL_v2re3px14k","63cee7f1f8ef24eb79c80270","freq_resp","img/orange_2bandit_b.png","70","70","test","","","","1","",""
"null","143728","pSARL_v2","pSARL_v2re3px14k","63cee7f1f8ef24eb79c80270","fixation","img/fixation.png","null","","test","","","","","",""
"394","144130","pSARL_v2","pSARL_v2re3px14k","63cee7f1f8ef24eb79c80270","freq","img/orange_2bandit_b2.png","70","70","test","1","5","5","1","",""
"null","144548","pSARL_v2","pSARL_v2re3px14k","63cee7f1f8ef24eb79c80270","freq_resp","img/orange_2bandit_b.png","70","70","test","","","","1","",""
"null","144712","pSARL_v2","pSARL_v2re3px14k","63cee7f1f8ef24eb79c80270","fixation","img/fixation.png","null","","test","","","","","",""
"458","145181","pSARL_v2","pSARL_v2re3px14k","63cee7f1f8ef24eb79c80270","infreq","img/green_2bandit_b2.png","68","68","test","1","6","6","1","",""
"null","145533","pSARL_v2","pSARL_v2re3px14k","63cee7f1f8ef24eb79c80270","infreq_resp","img/green_2bandit_b.png","68","68","test","","","","1","",""
"null","145694","pSARL_v2","pSARL_v2re3px14k","63cee7f1f8ef24eb79c80270","fixation","img/fixation.png","null","","test","","","","","",""
"349","146052","pSARL_v2","pSARL_v2re3px14k","63cee7f1f8ef24eb79c80270","infreq","img/green_2bandit_b2.png","68","68","test","1","7","7","1","",""
"null","146515","pSARL_v2","pSARL_v2re3px14k","63cee7f1f8ef24eb79c80270","infreq_resp","img/green_2bandit_b.png","68","68","test","","","","1","",""
"null","146676","pSARL_v2","pSARL_v2re3px14k","63cee7f1f8ef24eb79c80270","fixation","img/fixation.png","null","","test","","","","","",""
"403","147088","pSARL_v2","pSARL_v2re3px14k","63cee7f1f8ef24eb79c80270","freq","img/orange_2bandit_b2.png","70","70","test","1","8","8","1","",""
"null","147498","pSARL_v2","pSARL_v2re3px14k","63cee7f1f8ef24eb79c80270","freq_resp","img/orange_2bandit_b.png","70","70","test","","","","1","",""
"null","147661","pSARL_v2","pSARL_v2re3px14k","63cee7f1f8ef24eb79c80270","fixation","img/fixation.png","null","","test","","","","","",""
"334.0000000000291","148006","pSARL_v2","pSARL_v2re3px14k","63cee7f1f8ef24eb79c80270","freq","img/orange_2bandit_b2.png","70","70","test","1","9","9","1","",""
"null","148483","pSARL_v2","pSARL_v2re3px14k","63cee7f1f8ef24eb79c80270","freq_resp","img/orange_2bandit_b.png","70","70","test","","","","1","",""
"null","148647","pSARL_v2","pSARL_v2re3px14k","63cee7f1f8ef24eb79c80270","fixation","img/fixation.png","null","","test","","","","","",""
"313","148970","pSARL_v2","pSARL_v2re3px14k","63cee7f1f8ef24eb79c80270","freq","img/orange_2bandit_b2.png","70","70","test","1","10","10","1","",""
"null","149466","pSARL_v2","pSARL_v2re3px14k","63cee7f1f8ef24eb79c80270","freq_resp","img/orange_2bandit_b.png","70","70","test","","","","1","",""
"null","149627","pSARL_v2","pSARL_v2re3px14k","63cee7f1f8ef24eb79c80270","fixation","img/fixation.png","null","","test","","","","","",""
"324","149956","pSARL_v2","pSARL_v2re3px14k","63cee7f1f8ef24eb79c80270","freq","img/orange_2bandit_b2.png","70","70","test","1","11","11","1","",""
"null","150447","pSARL_v2","pSARL_v2re3px14k","63cee7f1f8ef24eb79c80270","freq_resp","img/orange_2bandit_b.png","70","70","test","","","","1","",""
"null","150606","pSARL_v2","pSARL_v2re3px14k","63cee7f1f8ef24eb79c80270","fixation","img/fixation.png","null","","test","","","","","",""
"383","150997","pSARL_v2","pSARL_v2re3px14k","63cee7f1f8ef24eb79c80270","freq","img/orange_2bandit_b2.png","70","70","test","1","12","12","1","",""
"null","151428","pSARL_v2","pSARL_v2re3px14k","63cee7f1f8ef24eb79c80270","freq_resp","img/orange_2bandit_b.png","70","70","test","","","","1","",""
"null","151587","pSARL_v2","pSARL_v2re3px14k","63cee7f1f8ef24eb79c80270","fixation","img/fixation.png","null","","test","","","","","",""
"360","151956","pSARL_v2","pSARL_v2re3px14k","63cee7f1f8ef24eb79c80270","freq","img/orange_2bandit_b2.png","70","70","test","1","13","13","1","",""
"null","152406","pSARL_v2","pSARL_v2re3px14k","63cee7f1f8ef24eb79c80270","freq_resp","img/orange_2bandit_b.png","70","70","test","","","","1","",""
"null","152568","pSARL_v2","pSARL_v2re3px14k","63cee7f1f8ef24eb79c80270","fixation","img/fixation.png","null","","test","","","","","",""
"345","152921","pSARL_v2","pSARL_v2re3px14k","63cee7f1f8ef24eb79c80270","freq","img/orange_2bandit_b2.png","70","70","test","1","14","14","1","",""
"null","153386","pSARL_v2","pSARL_v2re3px14k","63cee7f1f8ef24eb79c80270","freq_resp","img/orange_2bandit_b.png","70","70","test","","","","1","",""
"null","153545","pSARL_v2","pSARL_v2re3px14k","63cee7f1f8ef24eb79c80270","fixation","img/fixation.png","null","","test","","","","","",""
"340","153891","pSARL_v2","pSARL_v2re3px14k","63cee7f1f8ef24eb79c80270","freq","img/orange_2bandit_b2.png","70","70","test","1","15","15","1","",""
"null","154365","pSARL_v2","pSARL_v2re3px14k","63cee7f1f8ef24eb79c80270","freq_resp","img/orange_2bandit_b.png","70","70","test","","","","1","",""
"null","154523","pSARL_v2","pSARL_v2re3px14k","63cee7f1f8ef24eb79c80270","fixation","img/fixation.png","null","","test","","","","","",""
"317","154848","pSARL_v2","pSARL_v2re3px14k","63cee7f1f8ef24eb79c80270","freq","img/orange_2bandit_b2.png","70","70","test","1","16","16","1","",""
"null","155340","pSARL_v2","pSARL_v2re3px14k","63cee7f1f8ef24eb79c80270","freq_resp","img/orange_2bandit_b.png","70","70","test","","","","1","",""
"null","155501","pSARL_v2","pSARL_v2re3px14k","63cee7f1f8ef24eb79c80270","fixation","img/fixation.png","null","","test","","","","","",""
"365","155875","pSARL_v2","pSARL_v2re3px14k","63cee7f1f8ef24eb79c80270","freq","img/orange_2bandit_b2.png","70","70","test","1","17","17","1","",""
"null","156319","pSARL_v2","pSARL_v2re3px14k","63cee7f1f8ef24eb79c80270","freq_resp","img/orange_2bandit_b.png","70","70","test","","","","1","",""
"null","156478","pSARL_v2","pSARL_v2re3px14k","63cee7f1f8ef24eb79c80270","fixation","img/fixation.png","null","","test","","","","","",""
"403.0000000000291","156892","pSARL_v2","pSARL_v2re3px14k","63cee7f1f8ef24eb79c80270","freq","img/orange_2bandit_b2.png","70","70","test","1","18","18","1","",""
"null","157297","pSARL_v2","pSARL_v2re3px14k","63cee7f1f8ef24eb79c80270","freq_resp","img/orange_2bandit_b.png","70","70","test","","","","1","",""
"null","157456","pSARL_v2","pSARL_v2re3px14k","63cee7f1f8ef24eb79c80270","fixation","img/fixation.png","null","","test","","","","","",""
"397","157862","pSARL_v2","pSARL_v2re3px14k","63cee7f1f8ef24eb79c80270","freq","img/orange_2bandit_b2.png","70","70","test","1","19","19","1","",""
"null","158277","pSARL_v2","pSARL_v2re3px14k","63cee7f1f8ef24eb79c80270","freq_resp","img/orange_2bandit_b.png","70","70","test","","","","1","",""
"null","158435","pSARL_v2","pSARL_v2re3px14k","63cee7f1f8ef24eb79c80270","fixation","img/fixation.png","null","","test","","","","","",""
"426","158869","pSARL_v2","pSARL_v2re3px14k","63cee7f1f8ef24eb79c80270","freq","img/orange_2bandit_b2.png","70","70","test","1","20","20","1","",""
"null","159255","pSARL_v2","pSARL_v2re3px14k","63cee7f1f8ef24eb79c80270","freq_resp","img/orange_2bandit_b.png","70","70","test","","","","1","",""
"null","159413","pSARL_v2","pSARL_v2re3px14k","63cee7f1f8ef24eb79c80270","fixation","img/fixation.png","null","","test","","","","","",""
"344","159764","pSARL_v2","pSARL_v2re3px14k","63cee7f1f8ef24eb79c80270","freq","img/orange_2bandit_b2.png","70","70","test","1","21","21","1","",""
"null","160229","pSARL_v2","pSARL_v2re3px14k","63cee7f1f8ef24eb79c80270","freq_resp","img/orange_2bandit_b.png","70","70","test","","","","1","",""
"null","160389","pSARL_v2","pSARL_v2re3px14k","63cee7f1f8ef24eb79c80270","fixation","img/fixation.png","null","","test","","","","","",""
"546","160943","pSARL_v2","pSARL_v2re3px14k","63cee7f1f8ef24eb79c80270","reward","img/slot.png","74","","test","","","","","",""
"null","161703","pSARL_v2","pSARL_v2re3px14k","63cee7f1f8ef24eb79c80270","points","<div class=""verylowPoints""> -6 </div>","null","na","test","","","","1","-6","0"
"649","162361","pSARL_v2","pSARL_v2re3px14k","63cee7f1f8ef24eb79c80270","freq","img/orange_2bandit_b2.png","70","70","test","1","22","22","2","",""
"null","162521","pSARL_v2","pSARL_v2re3px14k","63cee7f1f8ef24eb79c80270","freq_resp","img/orange_2bandit_b.png","70","70","test","","","","2","",""
"null","162681","pSARL_v2","pSARL_v2re3px14k","63cee7f1f8ef24eb79c80270","fixation","img/fixation.png","null","","test","","","","","",""
"418","163105","pSARL_v2","pSARL_v2re3px14k","63cee7f1f8ef24eb79c80270","infreq","img/green_2bandit_b2.png","68","68","test","1","23","23","2","",""
"null","163498","pSARL_v2","pSARL_v2re3px14k","63cee7f1f8ef24eb79c80270","infreq_resp","img/green_2bandit_b.png","68","68","test","","","","2","",""
"null","163658","pSARL_v2","pSARL_v2re3px14k","63cee7f1f8ef24eb79c80270","fixation","img/fixation.png","null","","test","","","","","",""
"480","164149","pSARL_v2","pSARL_v2re3px14k","63cee7f1f8ef24eb79c80270","freq","img/orange_2bandit_b2.png","70","70","test","1","24","24","2","",""
"null","164479","pSARL_v2","pSARL_v2re3px14k","63cee7f1f8ef24eb79c80270","freq_resp","img/orange_2bandit_b.png","70","70","test","","","","2","",""
"null","164640","pSARL_v2","pSARL_v2re3px14k","63cee7f1f8ef24eb79c80270","fixation","img/fixation.png","null","","test","","","","","",""
"339","164987","pSARL_v2","pSARL_v2re3px14k","63cee7f1f8ef24eb79c80270","freq","img/orange_2bandit_b2.png","70","70","test","1","25","25","2","",""
"null","165460","pSARL_v2","pSARL_v2re3px14k","63cee7f1f8ef24eb79c80270","freq_resp","img/orange_2bandit_b.png","70","70","test","","","","2","",""
"null","165618","pSARL_v2","pSARL_v2re3px14k","63cee7f1f8ef24eb79c80270","fixation","img/fixation.png","null","","test","","","","","",""
"320.9999999999709","165949","pSARL_v2","pSARL_v2re3px14k","63cee7f1f8ef24eb79c80270","freq","img/orange_2bandit_b2.png","70","70","test","1","26","26","2","",""
"null","166438","pSARL_v2","pSARL_v2re3px14k","63cee7f1f8ef24eb79c80270","freq_resp","img/orange_2bandit_b.png","70","70","test","","","","2","",""
"null","166595","pSARL_v2","pSARL_v2re3px14k","63cee7f1f8ef24eb79c80270","fixation","img/fixation.png","null","","test","","","","","",""
"351","166955","pSARL_v2","pSARL_v2re3px14k","63cee7f1f8ef24eb79c80270","freq","img/orange_2bandit_b2.png","70","70","test","1","27","27","2","",""
"null","167416","pSARL_v2","pSARL_v2re3px14k","63cee7f1f8ef24eb79c80270","freq_resp","img/orange_2bandit_b.png","70","70","test","","","","2","",""
"null","167576","pSARL_v2","pSARL_v2re3px14k","63cee7f1f8ef24eb79c80270","fixation","img/fixation.png","null","","test","","","","","",""
"401","167984","pSARL_v2","pSARL_v2re3px14k","63cee7f1f8ef24eb79c80270","freq","img/orange_2bandit_b2.png","70","70","test","1","28","28","2","",""
"null","168394","pSARL_v2","pSARL_v2re3px14k","63cee7f1f8ef24eb79c80270","freq_resp","img/orange_2bandit_b.png","70","70","test","","","","2","",""
"null","168552","pSARL_v2","pSARL_v2re3px14k","63cee7f1f8ef24eb79c80270","fixation","img/fixation.png","null","","test","","","","","",""
"341.0000000000291","168901","pSARL_v2","pSARL_v2re3px14k","63cee7f1f8ef24eb79c80270","freq","img/orange_2bandit_b2.png","70","70","test","1","29","29","2","",""
"null","169373","pSARL_v2","pSARL_v2re3px14k","63cee7f1f8ef24eb79c80270","freq_resp","img/orange_2bandit_b.png","70","70","test","","","","2","",""
"null","169534","pSARL_v2","pSARL_v2re3px14k","63cee7f1f8ef24eb79c80270","fixation","img/fixation.png","null","","test","","","","","",""
"441","169982","pSARL_v2","pSARL_v2re3px14k","63cee7f1f8ef24eb79c80270","freq","img/orange_2bandit_b2.png","70","70","test","1","30","30","2","",""
"null","170349","pSARL_v2","pSARL_v2re3px14k","63cee7f1f8ef24eb79c80270","freq_resp","img/orange_2bandit_b.png","70","70","test","","","","2","",""
"null","170508","pSARL_v2","pSARL_v2re3px14k","63cee7f1f8ef24eb79c80270","fixation","img/fixation.png","null","","test","","","","","",""
"373.0000000000291","170889","pSARL_v2","pSARL_v2re3px14k","63cee7f1f8ef24eb79c80270","freq","img/orange_2bandit_b2.png","70","70","test","1","31","31","2","",""
"null","171326","pSARL_v2","pSARL_v2re3px14k","63cee7f1f8ef24eb79c80270","freq_resp","img/orange_2bandit_b.png","70","70","test","","","","2","",""
"null","171487","pSARL_v2","pSARL_v2re3px14k","63cee7f1f8ef24eb79c80270","fixation","img/fixation.png","null","","test","","","","","",""
"332","171826","pSARL_v2","pSARL_v2re3px14k","63cee7f1f8ef24eb79c80270","freq","img/orange_2bandit_b2.png","70","70","test","1","32","32","2","",""
"null","172306","pSARL_v2","pSARL_v2re3px14k","63cee7f1f8ef24eb79c80270","freq_resp","img/orange_2bandit_b.png","70","70","test","","","","2","",""
"null","172467","pSARL_v2","pSARL_v2re3px14k","63cee7f1f8ef24eb79c80270","fixation","img/fixation.png","null","","test","","","","","",""
"303","172779","pSARL_v2","pSARL_v2re3px14k","63cee7f1f8ef24eb79c80270","freq","img/orange_2bandit_b2.png","70","70","test","1","33","33","2","",""
"null","173285","pSARL_v2","pSARL_v2re3px14k","63cee7f1f8ef24eb79c80270","freq_resp","img/orange_2bandit_b.png","70","70","test","","","","2","",""
"null","173445","pSARL_v2","pSARL_v2re3px14k","63cee7f1f8ef24eb79c80270","fixation","img/fixation.png","null","","test","","","","","",""
"286","173739","pSARL_v2","pSARL_v2re3px14k","63cee7f1f8ef24eb79c80270","freq","img/orange_2bandit_b2.png","70","70","test","1","34","34","2","",""
"null","174260","pSARL_v2","pSARL_v2re3px14k","63cee7f1f8ef24eb79c80270","freq_resp","img/orange_2bandit_b.png","70","70","test","","","","2","",""
"null","174418","pSARL_v2","pSARL_v2re3px14k","63cee7f1f8ef24eb79c80270","fixation","img/fixation.png","null","","test","","","","","",""
"406","174832","pSARL_v2","pSARL_v2re3px14k","63cee7f1f8ef24eb79c80270","freq","img/orange_2bandit_b2.png","70","70","test","1","35","35","2","",""
"null","175235","pSARL_v2","pSARL_v2re3px14k","63cee7f1f8ef24eb79c80270","freq_resp","img/orange_2bandit_b.png","70","70","test","","","","2","",""
"null","175395","pSARL_v2","pSARL_v2re3px14k","63cee7f1f8ef24eb79c80270","fixation","img/fixation.png","null","","test","","","","","",""
"476","175879","pSARL_v2","pSARL_v2re3px14k","63cee7f1f8ef24eb79c80270","infreq","img/green_2bandit_b2.png","68","68","test","1","36","36","2","",""
"null","176214","pSARL_v2","pSARL_v2re3px14k","63cee7f1f8ef24eb79c80270","infreq_resp","img/green_2bandit_b.png","68","68","test","","","","2","",""
"null","176374","pSARL_v2","pSARL_v2re3px14k","63cee7f1f8ef24eb79c80270","fixation","img/fixation.png","null","","test","","","","","",""
"476","176857","pSARL_v2","pSARL_v2re3px14k","63cee7f1f8ef24eb79c80270","freq","img/orange_2bandit_b2.png","70","70","test","1","37","37","2","",""
"null","177191","pSARL_v2","pSARL_v2re3px14k","63cee7f1f8ef24eb79c80270","freq_resp","img/orange_2bandit_b.png","70","70","test","","","","2","",""
"null","177351","pSARL_v2","pSARL_v2re3px14k","63cee7f1f8ef24eb79c80270","fixation","img/fixation.png","null","","test","","","","","",""
"383","177742","pSARL_v2","pSARL_v2re3px14k","63cee7f1f8ef24eb79c80270","freq","img/orange_2bandit_b2.png","70","70","test","1","38","38","2","",""
"null","178167","pSARL_v2","pSARL_v2re3px14k","63cee7f1f8ef24eb79c80270","freq_resp","img/orange_2bandit_b.png","70","70","test","","","","2","",""
"null","178327","pSARL_v2","pSARL_v2re3px14k","63cee7f1f8ef24eb79c80270","fixation","img/fixation.png","null","","test","","","","","",""
"425","178757","pSARL_v2","pSARL_v2re3px14k","63cee7f1f8ef24eb79c80270","freq","img/orange_2bandit_b2.png","70","70","test","1","39","39","2","",""
"null","179143","pSARL_v2","pSARL_v2re3px14k","63cee7f1f8ef24eb79c80270","freq_resp","img/orange_2bandit_b.png","70","70","test","","","","2","",""
"null","179302","pSARL_v2","pSARL_v2re3px14k","63cee7f1f8ef24eb79c80270","fixation","img/fixation.png","null","","test","","","","","",""
"355","179667","pSARL_v2","pSARL_v2re3px14k","63cee7f1f8ef24eb79c80270","freq","img/orange_2bandit_b2.png","70","70","test","1","40","40","2","",""
"null","180123","pSARL_v2","pSARL_v2re3px14k","63cee7f1f8ef24eb79c80270","freq_resp","img/orange_2bandit_b.png","70","70","test","","","","2","",""
"null","180281","pSARL_v2","pSARL_v2re3px14k","63cee7f1f8ef24eb79c80270","fixation","img/fixation.png","null","","test","","","","","",""
"358","180646","pSARL_v2","pSARL_v2re3px14k","63cee7f1f8ef24eb79c80270","freq","img/orange_2bandit_b2.png","70","70","test","1","41","41","2","",""
"null","181096","pSARL_v2","pSARL_v2re3px14k","63cee7f1f8ef24eb79c80270","freq_resp","img/orange_2bandit_b.png","70","70","test","","","","2","",""
"null","181256","pSARL_v2","pSARL_v2re3px14k","63cee7f1f8ef24eb79c80270","fixation","img/fixation.png","null","","test","","","","","",""
"554","181816","pSARL_v2","pSARL_v2re3px14k","63cee7f1f8ef24eb79c80270","freq","img/orange_2bandit_b2.png","70","70","test","1","42","42","2","",""
"null","182073","pSARL_v2","pSARL_v2re3px14k","63cee7f1f8ef24eb79c80270","freq_resp","img/orange_2bandit_b.png","70","70","test","","","","2","",""
"null","182231","pSARL_v2","pSARL_v2re3px14k","63cee7f1f8ef24eb79c80270","fixation","img/fixation.png","null","","test","","","","","",""
"314.9999999999709","182552","pSARL_v2","pSARL_v2re3px14k","63cee7f1f8ef24eb79c80270","freq","img/orange_2bandit_b2.png","70","70","test","1","43","43","2","",""
"null","183046","pSARL_v2","pSARL_v2re3px14k","63cee7f1f8ef24eb79c80270","freq_resp","img/orange_2bandit_b.png","70","70","test","","","","2","",""
"null","183205","pSARL_v2","pSARL_v2re3px14k","63cee7f1f8ef24eb79c80270","fixation","img/fixation.png","null","","test","","","","","",""
"507","183722","pSARL_v2","pSARL_v2re3px14k","63cee7f1f8ef24eb79c80270","reward","img/slot.png","74","","test","","","","","",""
"null","184481","pSARL_v2","pSARL_v2re3px14k","63cee7f1f8ef24eb79c80270","points","<div class=""verylowPoints""> -11 </div>","null","na","test","","","","2","-11","1"
"687.9999999999709","185180","pSARL_v2","pSARL_v2re3px14k","63cee7f1f8ef24eb79c80270","freq","img/orange_2bandit_b2.png","70","70","test","1","44","44","3","",""
"null","185301","pSARL_v2","pSARL_v2re3px14k","63cee7f1f8ef24eb79c80270","freq_resp","img/orange_2bandit_b.png","70","70","test","","","","3","",""
"null","185462","pSARL_v2","pSARL_v2re3px14k","63cee7f1f8ef24eb79c80270","fixation","img/fixation.png","null","","test","","","","","",""
"430.0000000000291","185900","pSARL_v2","pSARL_v2re3px14k","63cee7f1f8ef24eb79c80270","freq","img/orange_2bandit_b2.png","70","70","test","1","45","45","3","",""
"null","186279","pSARL_v2","pSARL_v2re3px14k","63cee7f1f8ef24eb79c80270","freq_resp","img/orange_2bandit_b.png","70","70","test","","","","3","",""
"null","186433","pSARL_v2","pSARL_v2re3px14k","63cee7f1f8ef24eb79c80270","fixation","img/fixation.png","null","","test","","","","","",""
"442","186882","pSARL_v2","pSARL_v2re3px14k","63cee7f1f8ef24eb79c80270","freq","img/orange_2bandit_b2.png","70","70","test","1","46","46","3","",""
"null","187251","pSARL_v2","pSARL_v2re3px14k","63cee7f1f8ef24eb79c80270","freq_resp","img/orange_2bandit_b.png","70","70","test","","","","3","",""
"null","187412","pSARL_v2","pSARL_v2re3px14k","63cee7f1f8ef24eb79c80270","fixation","img/fixation.png","null","","test","","","","","",""
"303","187724","pSARL_v2","pSARL_v2re3px14k","63cee7f1f8ef24eb79c80270","freq","img/orange_2bandit_b2.png","70","70","test","1","47","47","3","",""
"null","188231","pSARL_v2","pSARL_v2re3px14k","63cee7f1f8ef24eb79c80270","freq_resp","img/orange_2bandit_b.png","70","70","test","","","","3","",""
"null","188390","pSARL_v2","pSARL_v2re3px14k","63cee7f1f8ef24eb79c80270","fixation","img/fixation.png","null","","test","","","","","",""
"325","188722","pSARL_v2","pSARL_v2re3px14k","63cee7f1f8ef24eb79c80270","freq","img/orange_2bandit_b2.png","70","70","test","1","48","48","3","",""
"null","189206","pSARL_v2","pSARL_v2re3px14k","63cee7f1f8ef24eb79c80270","freq_resp","img/orange_2bandit_b.png","70","70","test","","","","3","",""
"null","189364","pSARL_v2","pSARL_v2re3px14k","63cee7f1f8ef24eb79c80270","fixation","img/fixation.png","null","","test","","","","","",""
"314.0000000000291","189686","pSARL_v2","pSARL_v2re3px14k","63cee7f1f8ef24eb79c80270","freq","img/orange_2bandit_b2.png","70","70","test","1","49","49","3","",""
"null","190180","pSARL_v2","pSARL_v2re3px14k","63cee7f1f8ef24eb79c80270","freq_resp","img/orange_2bandit_b.png","70","70","test","","","","3","",""
"null","190339","pSARL_v2","pSARL_v2re3px14k","63cee7f1f8ef24eb79c80270","fixation","img/fixation.png","null","","test","","","","","",""
"285.0000000000291","190636","pSARL_v2","pSARL_v2re3px14k","63cee7f1f8ef24eb79c80270","freq","img/orange_2bandit_b2.png","70","70","test","1","50","50","3","",""
"null","191159","pSARL_v2","pSARL_v2re3px14k","63cee7f1f8ef24eb79c80270","freq_resp","img/orange_2bandit_b.png","70","70","test","","","","3","",""
"null","191318","pSARL_v2","pSARL_v2re3px14k","63cee7f1f8ef24eb79c80270","fixation","img/fixation.png","null","","test","","","","","",""
"271","191597","pSARL_v2","pSARL_v2re3px14k","63cee7f1f8ef24eb79c80270","freq","img/orange_2bandit_b2.png","70","70","test","1","51","51","3","",""
"null","192138","pSARL_v2","pSARL_v2re3px14k","63cee7f1f8ef24eb79c80270","freq_resp","img/orange_2bandit_b.png","70","70","test","","","","3","",""
"null","192297","pSARL_v2","pSARL_v2re3px14k","63cee7f1f8ef24eb79c80270","fixation","img/fixation.png","null","","test","","","","","",""
"412.9999999999709","192719","pSARL_v2","pSARL_v2re3px14k","63cee7f1f8ef24eb79c80270","freq","img/orange_2bandit_b2.png","70","70","test","1","52","52","3","",""
"null","193119","pSARL_v2","pSARL_v2re3px14k","63cee7f1f8ef24eb79c80270","freq_resp","img/orange_2bandit_b.png","70","70","test","","","","3","",""
"null","193278","pSARL_v2","pSARL_v2re3px14k","63cee7f1f8ef24eb79c80270","fixation","img/fixation.png","null","","test","","","","","",""
"295","193581","pSARL_v2","pSARL_v2re3px14k","63cee7f1f8ef24eb79c80270","freq","img/orange_2bandit_b2.png","70","70","test","1","53","53","3","",""
"null","194097","pSARL_v2","pSARL_v2re3px14k","63cee7f1f8ef24eb79c80270","freq_resp","img/orange_2bandit_b.png","70","70","test","","","","3","",""
"null","194255","pSARL_v2","pSARL_v2re3px14k","63cee7f1f8ef24eb79c80270","fixation","img/fixation.png","null","","test","","","","","",""
"394.9999999999709","194657","pSARL_v2","pSARL_v2re3px14k","63cee7f1f8ef24eb79c80270","freq","img/orange_2bandit_b2.png","70","70","test","1","54","54","3","",""
"null","195071","pSARL_v2","pSARL_v2re3px14k","63cee7f1f8ef24eb79c80270","freq_resp","img/orange_2bandit_b.png","70","70","test","","","","3","",""
"null","195229","pSARL_v2","pSARL_v2re3px14k","63cee7f1f8ef24eb79c80270","fixation","img/fixation.png","null","","test","","","","","",""
"400","195637","pSARL_v2","pSARL_v2re3px14k","63cee7f1f8ef24eb79c80270","freq","img/orange_2bandit_b2.png","70","70","test","1","55","55","3","",""
"null","196050","pSARL_v2","pSARL_v2re3px14k","63cee7f1f8ef24eb79c80270","freq_resp","img/orange_2bandit_b.png","70","70","test","","","","3","",""
"null","196211","pSARL_v2","pSARL_v2re3px14k","63cee7f1f8ef24eb79c80270","fixation","img/fixation.png","null","","test","","","","","",""
"283","196505","pSARL_v2","pSARL_v2re3px14k","63cee7f1f8ef24eb79c80270","freq","img/orange_2bandit_b2.png","70","70","test","1","56","56","3","",""
"null","197032","pSARL_v2","pSARL_v2re3px14k","63cee7f1f8ef24eb79c80270","freq_resp","img/orange_2bandit_b.png","70","70","test","","","","3","",""
"null","197191","pSARL_v2","pSARL_v2re3px14k","63cee7f1f8ef24eb79c80270","fixation","img/fixation.png","null","","test","","","","","",""
"303","197502","pSARL_v2","pSARL_v2re3px14k","63cee7f1f8ef24eb79c80270","freq","img/orange_2bandit_b2.png","70","70","test","1","57","57","3","",""
"null","198008","pSARL_v2","pSARL_v2re3px14k","63cee7f1f8ef24eb79c80270","freq_resp","img/orange_2bandit_b.png","70","70","test","","","","3","",""
"null","198168","pSARL_v2","pSARL_v2re3px14k","63cee7f1f8ef24eb79c80270","fixation","img/fixation.png","null","","test","","","","","",""
"510","198686","pSARL_v2","pSARL_v2re3px14k","63cee7f1f8ef24eb79c80270","infreq","img/green_2bandit_b2.png","68","68","test","1","58","58","3","",""
"null","198985","pSARL_v2","pSARL_v2re3px14k","63cee7f1f8ef24eb79c80270","infreq_resp","img/green_2bandit_b.png","68","68","test","","","","3","",""
"null","199147","pSARL_v2","pSARL_v2re3px14k","63cee7f1f8ef24eb79c80270","fixation","img/fixation.png","null","","test","","","","","",""
"508","199662","pSARL_v2","pSARL_v2re3px14k","63cee7f1f8ef24eb79c80270","freq","img/orange_2bandit_b2.png","70","70","test","1","59","59","3","",""
"null","199964","pSARL_v2","pSARL_v2re3px14k","63cee7f1f8ef24eb79c80270","freq_resp","img/orange_2bandit_b.png","70","70","test","","","","3","",""
"null","200126","pSARL_v2","pSARL_v2re3px14k","63cee7f1f8ef24eb79c80270","fixation","img/fixation.png","null","","test","","","","","",""
"330","200467","pSARL_v2","pSARL_v2re3px14k","63cee7f1f8ef24eb79c80270","freq","img/orange_2bandit_b2.png","70","70","test","1","60","60","3","",""
"null","200948","pSARL_v2","pSARL_v2re3px14k","63cee7f1f8ef24eb79c80270","freq_resp","img/orange_2bandit_b.png","70","70","test","","","","3","",""
"null","201111","pSARL_v2","pSARL_v2re3px14k","63cee7f1f8ef24eb79c80270","fixation","img/fixation.png","null","","test","","","","","",""
"169","201287","pSARL_v2","pSARL_v2re3px14k","63cee7f1f8ef24eb79c80270","freq","img/orange_2bandit_b2.png","70","70","test","1","61","61","3","",""
"null","201930","pSARL_v2","pSARL_v2re3px14k","63cee7f1f8ef24eb79c80270","freq_resp","img/orange_2bandit_b.png","70","70","test","","","","3","",""
"null","202089","pSARL_v2","pSARL_v2re3px14k","63cee7f1f8ef24eb79c80270","fixation","img/fixation.png","null","","test","","","","","",""
"0","202092","pSARL_v2","pSARL_v2re3px14k","63cee7f1f8ef24eb79c80270","freq","img/orange_2bandit_b2.png","70","70","test","1","62","62","3","",""
"null","202901","pSARL_v2","pSARL_v2re3px14k","63cee7f1f8ef24eb79c80270","freq_resp","img/orange_2bandit_b.png","70","70","test","","","","3","",""
"null","203063","pSARL_v2","pSARL_v2re3px14k","63cee7f1f8ef24eb79c80270","fixation","img/fixation.png","null","","test","","","","","",""
"397","203472","pSARL_v2","pSARL_v2re3px14k","63cee7f1f8ef24eb79c80270","freq","img/orange_2bandit_b2.png","70","70","test","1","63","63","3","",""
"null","203885","pSARL_v2","pSARL_v2re3px14k","63cee7f1f8ef24eb79c80270","freq_resp","img/orange_2bandit_b.png","70","70","test","","","","3","",""
"null","204046","pSARL_v2","pSARL_v2re3px14k","63cee7f1f8ef24eb79c80270","fixation","img/fixation.png","null","","test","","","","","",""
"346.0000000000291","204404","pSARL_v2","pSARL_v2re3px14k","63cee7f1f8ef24eb79c80270","freq","img/orange_2bandit_b2.png","70","70","test","1","64","64","3","",""
"null","204870","pSARL_v2","pSARL_v2re3px14k","63cee7f1f8ef24eb79c80270","freq_resp","img/orange_2bandit_b.png","70","70","test","","","","3","",""
"null","205030","pSARL_v2","pSARL_v2re3px14k","63cee7f1f8ef24eb79c80270","fixation","img/fixation.png","null","","test","","","","","",""
"623","205664","pSARL_v2","pSARL_v2re3px14k","63cee7f1f8ef24eb79c80270","infreq","img/green_2bandit_b2.png","68","68","test","1","65","65","3","",""
"null","205852","pSARL_v2","pSARL_v2re3px14k","63cee7f1f8ef24eb79c80270","infreq_resp","img/green_2bandit_b.png","68","68","test","","","","3","",""
"null","206012","pSARL_v2","pSARL_v2re3px14k","63cee7f1f8ef24eb79c80270","fixation","img/fixation.png","null","","test","","","","","",""
"415.0000000000291","206436","pSARL_v2","pSARL_v2re3px14k","63cee7f1f8ef24eb79c80270","freq","img/orange_2bandit_b2.png","70","70","test","1","66","66","3","",""
"null","206828","pSARL_v2","pSARL_v2re3px14k","63cee7f1f8ef24eb79c80270","freq_resp","img/orange_2bandit_b.png","70","70","test","","","","3","",""
"null","206990","pSARL_v2","pSARL_v2re3px14k","63cee7f1f8ef24eb79c80270","fixation","img/fixation.png","null","","test","","","","","",""
"499","207497","pSARL_v2","pSARL_v2re3px14k","63cee7f1f8ef24eb79c80270","reward","img/slot.png","74","","test","","","","","",""
"null","208260","pSARL_v2","pSARL_v2re3px14k","63cee7f1f8ef24eb79c80270","points","<div class=""verylowPoints""> -7 </div>","null","na","test","","","","3","-7","2"
"625","208892","pSARL_v2","pSARL_v2re3px14k","63cee7f1f8ef24eb79c80270","freq","img/orange_2bandit_b2.png","70","70","test","1","67","67","4","",""
"null","209081","pSARL_v2","pSARL_v2re3px14k","63cee7f1f8ef24eb79c80270","freq_resp","img/orange_2bandit_b.png","70","70","test","","","","4","",""
"null","209241","pSARL_v2","pSARL_v2re3px14k","63cee7f1f8ef24eb79c80270","fixation","img/fixation.png","null","","test","","","","","",""
"326","209575","pSARL_v2","pSARL_v2re3px14k","63cee7f1f8ef24eb79c80270","freq","img/orange_2bandit_b2.png","70","70","test","1","68","68","4","",""
"null","210058","pSARL_v2","pSARL_v2re3px14k","63cee7f1f8ef24eb79c80270","freq_resp","img/orange_2bandit_b.png","70","70","test","","","","4","",""
"null","210216","pSARL_v2","pSARL_v2re3px14k","63cee7f1f8ef24eb79c80270","fixation","img/fixation.png","null","","test","","","","","",""
"423","210648","pSARL_v2","pSARL_v2re3px14k","63cee7f1f8ef24eb79c80270","freq","img/orange_2bandit_b2.png","70","70","test","1","69","69","4","",""
"null","211034","pSARL_v2","pSARL_v2re3px14k","63cee7f1f8ef24eb79c80270","freq_resp","img/orange_2bandit_b.png","70","70","test","","","","4","",""
"null","211193","pSARL_v2","pSARL_v2re3px14k","63cee7f1f8ef24eb79c80270","fixation","img/fixation.png","null","","test","","","","","",""
"304","211504","pSARL_v2","pSARL_v2re3px14k","63cee7f1f8ef24eb79c80270","freq","img/orange_2bandit_b2.png","70","70","test","1","70","70","4","",""
"null","212010","pSARL_v2","pSARL_v2re3px14k","63cee7f1f8ef24eb79c80270","freq_resp","img/orange_2bandit_b.png","70","70","test","","","","4","",""
"null","212169","pSARL_v2","pSARL_v2re3px14k","63cee7f1f8ef24eb79c80270","fixation","img/fixation.png","null","","test","","","","","",""
"342","212519","pSARL_v2","pSARL_v2re3px14k","63cee7f1f8ef24eb79c80270","freq","img/orange_2bandit_b2.png","70","70","test","1","71","71","4","",""
"null","212987","pSARL_v2","pSARL_v2re3px14k","63cee7f1f8ef24eb79c80270","freq_resp","img/orange_2bandit_b.png","70","70","test","","","","4","",""
"null","213149","pSARL_v2","pSARL_v2re3px14k","63cee7f1f8ef24eb79c80270","fixation","img/fixation.png","null","","test","","","","","",""
"302","213458","pSARL_v2","pSARL_v2re3px14k","63cee7f1f8ef24eb79c80270","freq","img/orange_2bandit_b2.png","70","70","test","1","72","72","4","",""
"null","213969","pSARL_v2","pSARL_v2re3px14k","63cee7f1f8ef24eb79c80270","freq_resp","img/orange_2bandit_b.png","70","70","test","","","","4","",""
"null","214131","pSARL_v2","pSARL_v2re3px14k","63cee7f1f8ef24eb79c80270","fixation","img/fixation.png","null","","test","","","","","",""
"291","214431","pSARL_v2","pSARL_v2re3px14k","63cee7f1f8ef24eb79c80270","freq","img/orange_2bandit_b2.png","70","70","test","1","73","73","4","",""
"null","214954","pSARL_v2","pSARL_v2re3px14k","63cee7f1f8ef24eb79c80270","freq_resp","img/orange_2bandit_b.png","70","70","test","","","","4","",""
"null","215113","pSARL_v2","pSARL_v2re3px14k","63cee7f1f8ef24eb79c80270","fixation","img/fixation.png","null","","test","","","","","",""
"259","215380","pSARL_v2","pSARL_v2re3px14k","63cee7f1f8ef24eb79c80270","infreq","img/green_2bandit_b2.png","70","68","test","0","74","74","4","",""
"null","215929","pSARL_v2","pSARL_v2re3px14k","63cee7f1f8ef24eb79c80270","infreq_resp","img/green_2bandit_b.png","70","68","test","","","","4","",""
"null","216091","pSARL_v2","pSARL_v2re3px14k","63cee7f1f8ef24eb79c80270","fixation","img/fixation.png","null","","test","","","","","",""
"30","216124","pSARL_v2","pSARL_v2re3px14k","63cee7f1f8ef24eb79c80270","freq","img/orange_2bandit_b2.png","68","70","test","0","75","75","4","",""
"null","216897","pSARL_v2","pSARL_v2re3px14k","63cee7f1f8ef24eb79c80270","freq_resp","img/orange_2bandit_b.png","68","70","test","","","","4","",""
"null","217056","pSARL_v2","pSARL_v2re3px14k","63cee7f1f8ef24eb79c80270","fixation","img/fixation.png","null","","test","","","","","",""
"389.0000000000291","217454","pSARL_v2","pSARL_v2re3px14k","63cee7f1f8ef24eb79c80270","freq","img/orange_2bandit_b2.png","70","70","test","1","76","76","4","",""
"null","217876","pSARL_v2","pSARL_v2re3px14k","63cee7f1f8ef24eb79c80270","freq_resp","img/orange_2bandit_b.png","70","70","test","","","","4","",""
"null","218035","pSARL_v2","pSARL_v2re3px14k","63cee7f1f8ef24eb79c80270","fixation","img/fixation.png","null","","test","","","","","",""
"489","218531","pSARL_v2","pSARL_v2re3px14k","63cee7f1f8ef24eb79c80270","freq","img/orange_2bandit_b2.png","70","70","test","1","77","77","4","",""
"null","218855","pSARL_v2","pSARL_v2re3px14k","63cee7f1f8ef24eb79c80270","freq_resp","img/orange_2bandit_b.png","70","70","test","","","","4","",""
"null","219016","pSARL_v2","pSARL_v2re3px14k","63cee7f1f8ef24eb79c80270","fixation","img/fixation.png","null","","test","","","","","",""
"561.9999999999709","219585","pSARL_v2","pSARL_v2re3px14k","63cee7f1f8ef24eb79c80270","freq","img/orange_2bandit_b2.png","70","70","test","1","78","78","4","",""
"null","219832","pSARL_v2","pSARL_v2re3px14k","63cee7f1f8ef24eb79c80270","freq_resp","img/orange_2bandit_b.png","70","70","test","","","","4","",""
"null","219992","pSARL_v2","pSARL_v2re3px14k","63cee7f1f8ef24eb79c80270","fixation","img/fixation.png","null","","test","","","","","",""
"317.0000000000291","220318","pSARL_v2","pSARL_v2re3px14k","63cee7f1f8ef24eb79c80270","freq","img/orange_2bandit_b2.png","70","70","test","1","79","79","4","",""
"null","220814","pSARL_v2","pSARL_v2re3px14k","63cee7f1f8ef24eb79c80270","freq_resp","img/orange_2bandit_b.png","70","70","test","","","","4","",""
"null","220973","pSARL_v2","pSARL_v2re3px14k","63cee7f1f8ef24eb79c80270","fixation","img/fixation.png","null","","test","","","","","",""
"477","221459","pSARL_v2","pSARL_v2re3px14k","63cee7f1f8ef24eb79c80270","freq","img/orange_2bandit_b2.png","70","70","test","1","80","80","4","",""
"null","221791","pSARL_v2","pSARL_v2re3px14k","63cee7f1f8ef24eb79c80270","freq_resp","img/orange_2bandit_b.png","70","70","test","","","","4","",""
"null","221949","pSARL_v2","pSARL_v2re3px14k","63cee7f1f8ef24eb79c80270","fixation","img/fixation.png","null","","test","","","","","",""
"390","222348","pSARL_v2","pSARL_v2re3px14k","63cee7f1f8ef24eb79c80270","freq","img/orange_2bandit_b2.png","70","70","test","1","81","81","4","",""
"null","222766","pSARL_v2","pSARL_v2re3px14k","63cee7f1f8ef24eb79c80270","freq_resp","img/orange_2bandit_b.png","70","70","test","","","","4","",""
"null","222930","pSARL_v2","pSARL_v2re3px14k","63cee7f1f8ef24eb79c80270","fixation","img/fixation.png","null","","test","","","","","",""
"385","223323","pSARL_v2","pSARL_v2re3px14k","63cee7f1f8ef24eb79c80270","freq","img/orange_2bandit_b2.png","70","70","test","1","82","82","4","",""
"null","223746","pSARL_v2","pSARL_v2re3px14k","63cee7f1f8ef24eb79c80270","freq_resp","img/orange_2bandit_b.png","70","70","test","","","","4","",""
"null","223908","pSARL_v2","pSARL_v2re3px14k","63cee7f1f8ef24eb79c80270","fixation","img/fixation.png","null","","test","","","","","",""
"514","224431","pSARL_v2","pSARL_v2re3px14k","63cee7f1f8ef24eb79c80270","freq","img/orange_2bandit_b2.png","70","70","test","1","83","83","4","",""
"null","224730","pSARL_v2","pSARL_v2re3px14k","63cee7f1f8ef24eb79c80270","freq_resp","img/orange_2bandit_b.png","70","70","test","","","","4","",""
"null","224894","pSARL_v2","pSARL_v2re3px14k","63cee7f1f8ef24eb79c80270","fixation","img/fixation.png","null","","test","","","","","",""
"473.0000000000291","225375","pSARL_v2","pSARL_v2re3px14k","63cee7f1f8ef24eb79c80270","infreq","img/green_2bandit_b2.png","68","68","test","1","84","84","4","",""
"null","225713","pSARL_v2","pSARL_v2re3px14k","63cee7f1f8ef24eb79c80270","infreq_resp","img/green_2bandit_b.png","68","68","test","","","","4","",""
"null","225871","pSARL_v2","pSARL_v2re3px14k","63cee7f1f8ef24eb79c80270","fixation","img/fixation.png","null","","test","","","","","",""
"394","226272","pSARL_v2","pSARL_v2re3px14k","63cee7f1f8ef24eb79c80270","freq","img/orange_2bandit_b2.png","70","70","test","1","85","85","4","",""
"null","226688","pSARL_v2","pSARL_v2re3px14k","63cee7f1f8ef24eb79c80270","freq_resp","img/orange_2bandit_b.png","70","70","test","","","","4","",""
"null","226848","pSARL_v2","pSARL_v2re3px14k","63cee7f1f8ef24eb79c80270","fixation","img/fixation.png","null","","test","","","","","",""
"317.0000000000291","227172","pSARL_v2","pSARL_v2re3px14k","63cee7f1f8ef24eb79c80270","freq","img/orange_2bandit_b2.png","70","70","test","1","86","86","4","",""
"null","227666","pSARL_v2","pSARL_v2re3px14k","63cee7f1f8ef24eb79c80270","freq_resp","img/orange_2bandit_b.png","70","70","test","","","","4","",""
"null","227824","pSARL_v2","pSARL_v2re3px14k","63cee7f1f8ef24eb79c80270","fixation","img/fixation.png","null","","test","","","","","",""
"309","228142","pSARL_v2","pSARL_v2re3px14k","63cee7f1f8ef24eb79c80270","freq","img/orange_2bandit_b2.png","70","70","test","1","87","87","4","",""
"null","228647","pSARL_v2","pSARL_v2re3px14k","63cee7f1f8ef24eb79c80270","freq_resp","img/orange_2bandit_b.png","70","70","test","","","","4","",""
"null","228806","pSARL_v2","pSARL_v2re3px14k","63cee7f1f8ef24eb79c80270","fixation","img/fixation.png","null","","test","","","","","",""
"356","229174","pSARL_v2","pSARL_v2re3px14k","63cee7f1f8ef24eb79c80270","freq","img/orange_2bandit_b2.png","70","70","test","1","88","88","4","",""
"null","229631","pSARL_v2","pSARL_v2re3px14k","63cee7f1f8ef24eb79c80270","freq_resp","img/orange_2bandit_b.png","70","70","test","","","","4","",""
"null","229791","pSARL_v2","pSARL_v2re3px14k","63cee7f1f8ef24eb79c80270","fixation","img/fixation.png","null","","test","","","","","",""
"302","230102","pSARL_v2","pSARL_v2re3px14k","63cee7f1f8ef24eb79c80270","freq","img/orange_2bandit_b2.png","70","70","test","1","89","89","4","",""
"null","230611","pSARL_v2","pSARL_v2re3px14k","63cee7f1f8ef24eb79c80270","freq_resp","img/orange_2bandit_b.png","70","70","test","","","","4","",""
"null","230770","pSARL_v2","pSARL_v2re3px14k","63cee7f1f8ef24eb79c80270","fixation","img/fixation.png","null","","test","","","","","",""
"304","231080","pSARL_v2","pSARL_v2re3px14k","63cee7f1f8ef24eb79c80270","freq","img/orange_2bandit_b2.png","70","70","test","1","90","90","4","",""
"null","231585","pSARL_v2","pSARL_v2re3px14k","63cee7f1f8ef24eb79c80270","freq_resp","img/orange_2bandit_b.png","70","70","test","","","","4","",""
"null","231747","pSARL_v2","pSARL_v2re3px14k","63cee7f1f8ef24eb79c80270","fixation","img/fixation.png","null","","test","","","","","",""
"315","232069","pSARL_v2","pSARL_v2re3px14k","63cee7f1f8ef24eb79c80270","freq","img/orange_2bandit_b2.png","70","70","test","1","91","91","4","",""
"null","232566","pSARL_v2","pSARL_v2re3px14k","63cee7f1f8ef24eb79c80270","freq_resp","img/orange_2bandit_b.png","70","70","test","","","","4","",""
"null","232728","pSARL_v2","pSARL_v2re3px14k","63cee7f1f8ef24eb79c80270","fixation","img/fixation.png","null","","test","","","","","",""
"572","233307","pSARL_v2","pSARL_v2re3px14k","63cee7f1f8ef24eb79c80270","reward","img/slot.png","74","","test","","","","","",""
"null","234069","pSARL_v2","pSARL_v2re3px14k","63cee7f1f8ef24eb79c80270","points","<div class=""verylowPoints""> -3 </div>","null","na","test","","","","4","-3","3"
"761","234839","pSARL_v2","pSARL_v2re3px14k","63cee7f1f8ef24eb79c80270","freq","img/orange_2bandit_b2.png","70","70","test","1","92","92","5","",""
"null","234882","pSARL_v2","pSARL_v2re3px14k","63cee7f1f8ef24eb79c80270","freq_resp","img/orange_2bandit_b.png","70","70","test","","","","5","",""
"null","235041","pSARL_v2","pSARL_v2re3px14k","63cee7f1f8ef24eb79c80270","fixation","img/fixation.png","null","","test","","","","","",""
"597","235646","pSARL_v2","pSARL_v2re3px14k","63cee7f1f8ef24eb79c80270","freq","img/orange_2bandit_b2.png","70","70","test","1","93","93","5","",""
"null","235857","pSARL_v2","pSARL_v2re3px14k","63cee7f1f8ef24eb79c80270","freq_resp","img/orange_2bandit_b.png","70","70","test","","","","5","",""
"null","236015","pSARL_v2","pSARL_v2re3px14k","63cee7f1f8ef24eb79c80270","fixation","img/fixation.png","null","","test","","","","","",""
"314","236337","pSARL_v2","pSARL_v2re3px14k","63cee7f1f8ef24eb79c80270","freq","img/orange_2bandit_b2.png","70","70","test","1","94","94","5","",""
"null","236833","pSARL_v2","pSARL_v2re3px14k","63cee7f1f8ef24eb79c80270","freq_resp","img/orange_2bandit_b.png","70","70","test","","","","5","",""
"null","236993","pSARL_v2","pSARL_v2re3px14k","63cee7f1f8ef24eb79c80270","fixation","img/fixation.png","null","","test","","","","","",""
"494","237495","pSARL_v2","pSARL_v2re3px14k","63cee7f1f8ef24eb79c80270","infreq","img/green_2bandit_b2.png","68","68","test","1","95","95","5","",""
"null","237814","pSARL_v2","pSARL_v2re3px14k","63cee7f1f8ef24eb79c80270","infreq_resp","img/green_2bandit_b.png","68","68","test","","","","5","",""
"null","237973","pSARL_v2","pSARL_v2re3px14k","63cee7f1f8ef24eb79c80270","fixation","img/fixation.png","null","","test","","","","","",""
"516","238499","pSARL_v2","pSARL_v2re3px14k","63cee7f1f8ef24eb79c80270","freq","img/orange_2bandit_b2.png","70","70","test","1","96","96","5","",""
"null","238794","pSARL_v2","pSARL_v2re3px14k","63cee7f1f8ef24eb79c80270","freq_resp","img/orange_2bandit_b.png","70","70","test","","","","5","",""
"null","238953","pSARL_v2","pSARL_v2re3px14k","63cee7f1f8ef24eb79c80270","fixation","img/fixation.png","null","","test","","","","","",""
"455","239414","pSARL_v2","pSARL_v2re3px14k","63cee7f1f8ef24eb79c80270","infreq","img/green_2bandit_b2.png","68","68","test","1","97","97","5","",""
"null","239768","pSARL_v2","pSARL_v2re3px14k","63cee7f1f8ef24eb79c80270","infreq_resp","img/green_2bandit_b.png","68","68","test","","","","5","",""
"null","239932","pSARL_v2","pSARL_v2re3px14k","63cee7f1f8ef24eb79c80270","fixation","img/fixation.png","null","","test","","","","","",""
"409.9999999999709","240352","pSARL_v2","pSARL_v2re3px14k","63cee7f1f8ef24eb79c80270","freq","img/orange_2bandit_b2.png","70","70","test","1","98","98","5","",""
"null","240753","pSARL_v2","pSARL_v2re3px14k","63cee7f1f8ef24eb79c80270","freq_resp","img/orange_2bandit_b.png","70","70","test","","","","5","",""
"null","240913","pSARL_v2","pSARL_v2re3px14k","63cee7f1f8ef24eb79c80270","fixation","img/fixation.png","null","","test","","","","","",""
"404","241324","pSARL_v2","pSARL_v2re3px14k","63cee7f1f8ef24eb79c80270","freq","img/orange_2bandit_b2.png","70","70","test","1","99","99","5","",""
"null","241728","pSARL_v2","pSARL_v2re3px14k","63cee7f1f8ef24eb79c80270","freq_resp","img/orange_2bandit_b.png","70","70","test","","","","5","",""
"null","241886","pSARL_v2","pSARL_v2re3px14k","63cee7f1f8ef24eb79c80270","fixation","img/fixation.png","null","","test","","","","","",""
"356","242249","pSARL_v2","pSARL_v2re3px14k","63cee7f1f8ef24eb79c80270","freq","img/orange_2bandit_b2.png","70","70","test","1","100","100","5","",""
"null","242703","pSARL_v2","pSARL_v2re3px14k","63cee7f1f8ef24eb79c80270","freq_resp","img/orange_2bandit_b.png","70","70","test","","","","5","",""
"null","242865","pSARL_v2","pSARL_v2re3px14k","63cee7f1f8ef24eb79c80270","fixation","img/fixation.png","null","","test","","","","","",""
"548","243420","pSARL_v2","pSARL_v2re3px14k","63cee7f1f8ef24eb79c80270","freq","img/orange_2bandit_b2.png","70","70","test","1","101","101","5","",""
"null","243681","pSARL_v2","pSARL_v2re3px14k","63cee7f1f8ef24eb79c80270","freq_resp","img/orange_2bandit_b.png","70","70","test","","","","5","",""
"null","243840","pSARL_v2","pSARL_v2re3px14k","63cee7f1f8ef24eb79c80270","fixation","img/fixation.png","null","","test","","","","","",""
"571","244422","pSARL_v2","pSARL_v2re3px14k","63cee7f1f8ef24eb79c80270","freq","img/orange_2bandit_b2.png","70","70","test","1","102","102","5","",""
"null","244663","pSARL_v2","pSARL_v2re3px14k","63cee7f1f8ef24eb79c80270","freq_resp","img/orange_2bandit_b.png","70","70","test","","","","5","",""
"null","244825","pSARL_v2","pSARL_v2re3px14k","63cee7f1f8ef24eb79c80270","fixation","img/fixation.png","null","","test","","","","","",""
"680.9999999999709","245514","pSARL_v2","pSARL_v2re3px14k","63cee7f1f8ef24eb79c80270","freq","img/orange_2bandit_b2.png","70","70","test","1","103","103","5","",""
"null","245645","pSARL_v2","pSARL_v2re3px14k","63cee7f1f8ef24eb79c80270","freq_resp","img/orange_2bandit_b.png","70","70","test","","","","5","",""
"null","245807","pSARL_v2","pSARL_v2re3px14k","63cee7f1f8ef24eb79c80270","fixation","img/fixation.png","null","","test","","","","","",""
"614.9999999999709","246435","pSARL_v2","pSARL_v2re3px14k","63cee7f1f8ef24eb79c80270","freq","img/orange_2bandit_b2.png","70","70","test","1","104","104","5","",""
"null","246629","pSARL_v2","pSARL_v2re3px14k","63cee7f1f8ef24eb79c80270","freq_resp","img/orange_2bandit_b.png","70","70","test","","","","5","",""
"null","246789","pSARL_v2","pSARL_v2re3px14k","63cee7f1f8ef24eb79c80270","fixation","img/fixation.png","null","","test","","","","","",""
"573.9999999999709","247371","pSARL_v2","pSARL_v2re3px14k","63cee7f1f8ef24eb79c80270","freq","img/orange_2bandit_b2.png","70","70","test","1","105","105","5","",""
"null","247609","pSARL_v2","pSARL_v2re3px14k","63cee7f1f8ef24eb79c80270","freq_resp","img/orange_2bandit_b.png","70","70","test","","","","5","",""
"null","247769","pSARL_v2","pSARL_v2re3px14k","63cee7f1f8ef24eb79c80270","fixation","img/fixation.png","null","","test","","","","","",""
"372.0000000000291","248147","pSARL_v2","pSARL_v2re3px14k","63cee7f1f8ef24eb79c80270","freq","img/orange_2bandit_b2.png","70","70","test","1","106","106","5","",""
"null","248583","pSARL_v2","pSARL_v2re3px14k","63cee7f1f8ef24eb79c80270","freq_resp","img/orange_2bandit_b.png","70","70","test","","","","5","",""
"null","248745","pSARL_v2","pSARL_v2re3px14k","63cee7f1f8ef24eb79c80270","fixation","img/fixation.png","null","","test","","","","","",""
"498","249253","pSARL_v2","pSARL_v2re3px14k","63cee7f1f8ef24eb79c80270","freq","img/orange_2bandit_b2.png","70","70","test","1","107","107","5","",""
"null","249564","pSARL_v2","pSARL_v2re3px14k","63cee7f1f8ef24eb79c80270","freq_resp","img/orange_2bandit_b.png","70","70","test","","","","5","",""
"null","249725","pSARL_v2","pSARL_v2re3px14k","63cee7f1f8ef24eb79c80270","fixation","img/fixation.png","null","","test","","","","","",""
"370","250102","pSARL_v2","pSARL_v2re3px14k","63cee7f1f8ef24eb79c80270","freq","img/orange_2bandit_b2.png","70","70","test","1","108","108","5","",""
"null","250541","pSARL_v2","pSARL_v2re3px14k","63cee7f1f8ef24eb79c80270","freq_resp","img/orange_2bandit_b.png","70","70","test","","","","5","",""
"null","250702","pSARL_v2","pSARL_v2re3px14k","63cee7f1f8ef24eb79c80270","fixation","img/fixation.png","null","","test","","","","","",""
"277.0000000000291","250989","pSARL_v2","pSARL_v2re3px14k","63cee7f1f8ef24eb79c80270","freq","img/orange_2bandit_b2.png","70","70","test","1","109","109","5","",""
"null","251522","pSARL_v2","pSARL_v2re3px14k","63cee7f1f8ef24eb79c80270","freq_resp","img/orange_2bandit_b.png","70","70","test","","","","5","",""
"null","251681","pSARL_v2","pSARL_v2re3px14k","63cee7f1f8ef24eb79c80270","fixation","img/fixation.png","null","","test","","","","","",""
"331","252020","pSARL_v2","pSARL_v2re3px14k","63cee7f1f8ef24eb79c80270","freq","img/orange_2bandit_b2.png","70","70","test","1","110","110","5","",""
"null","252502","pSARL_v2","pSARL_v2re3px14k","63cee7f1f8ef24eb79c80270","freq_resp","img/orange_2bandit_b.png","70","70","test","","","","5","",""
"null","252662","pSARL_v2","pSARL_v2re3px14k","63cee7f1f8ef24eb79c80270","fixation","img/fixation.png","null","","test","","","","","",""
"327","252997","pSARL_v2","pSARL_v2re3px14k","63cee7f1f8ef24eb79c80270","freq","img/orange_2bandit_b2.png","70","70","test","1","111","111","5","",""
"null","253480","pSARL_v2","pSARL_v2re3px14k","63cee7f1f8ef24eb79c80270","freq_resp","img/orange_2bandit_b.png","70","70","test","","","","5","",""
"null","253639","pSARL_v2","pSARL_v2re3px14k","63cee7f1f8ef24eb79c80270","fixation","img/fixation.png","null","","test","","","","","",""
"455.0000000000291","254104","pSARL_v2","pSARL_v2re3px14k","63cee7f1f8ef24eb79c80270","infreq","img/green_2bandit_b2.png","68","68","test","1","112","112","5","",""
"null","254460","pSARL_v2","pSARL_v2re3px14k","63cee7f1f8ef24eb79c80270","infreq_resp","img/green_2bandit_b.png","68","68","test","","","","5","",""
"null","254619","pSARL_v2","pSARL_v2re3px14k","63cee7f1f8ef24eb79c80270","fixation","img/fixation.png","null","","test","","","","","",""
"441.0000000000291","255068","pSARL_v2","pSARL_v2re3px14k","63cee7f1f8ef24eb79c80270","freq","img/orange_2bandit_b2.png","70","70","test","1","113","113","5","",""
"null","255440","pSARL_v2","pSARL_v2re3px14k","63cee7f1f8ef24eb79c80270","freq_resp","img/orange_2bandit_b.png","70","70","test","","","","5","",""
"null","255599","pSARL_v2","pSARL_v2re3px14k","63cee7f1f8ef24eb79c80270","fixation","img/fixation.png","null","","test","","","","","",""
"399.9999999999709","256006","pSARL_v2","pSARL_v2re3px14k","63cee7f1f8ef24eb79c80270","freq","img/orange_2bandit_b2.png","70","70","test","1","114","114","5","",""
"null","256414","pSARL_v2","pSARL_v2re3px14k","63cee7f1f8ef24eb79c80270","freq_resp","img/orange_2bandit_b.png","70","70","test","","","","5","",""
"null","256573","pSARL_v2","pSARL_v2re3px14k","63cee7f1f8ef24eb79c80270","fixation","img/fixation.png","null","","test","","","","","",""
"500","257080","pSARL_v2","pSARL_v2re3px14k","63cee7f1f8ef24eb79c80270","reward","img/slot.png","74","","test","","","","","",""
"null","257840","pSARL_v2","pSARL_v2re3px14k","63cee7f1f8ef24eb79c80270","points","<div class=""veryhighPoints""> +1 </div>","null","na","test","","","","5","1","4"
"637","258482","pSARL_v2","pSARL_v2re3px14k","63cee7f1f8ef24eb79c80270","freq","img/orange_2bandit_b2.png","70","70","test","1","115","115","6","",""
"null","258655","pSARL_v2","pSARL_v2re3px14k","63cee7f1f8ef24eb79c80270","freq_resp","img/orange_2bandit_b.png","70","70","test","","","","6","",""
"null","258813","pSARL_v2","pSARL_v2re3px14k","63cee7f1f8ef24eb79c80270","fixation","img/fixation.png","null","","test","","","","","",""
"569.9999999999709","259392","pSARL_v2","pSARL_v2re3px14k","63cee7f1f8ef24eb79c80270","freq","img/orange_2bandit_b2.png","70","70","test","1","116","116","6","",""
"null","259631","pSARL_v2","pSARL_v2re3px14k","63cee7f1f8ef24eb79c80270","freq_resp","img/orange_2bandit_b.png","70","70","test","","","","6","",""
"null","259791","pSARL_v2","pSARL_v2re3px14k","63cee7f1f8ef24eb79c80270","fixation","img/fixation.png","null","","test","","","","","",""
"498.9999999999709","260301","pSARL_v2","pSARL_v2re3px14k","63cee7f1f8ef24eb79c80270","freq","img/orange_2bandit_b2.png","70","70","test","1","117","117","6","",""
"null","260613","pSARL_v2","pSARL_v2re3px14k","63cee7f1f8ef24eb79c80270","freq_resp","img/orange_2bandit_b.png","70","70","test","","","","6","",""
"null","260774","pSARL_v2","pSARL_v2re3px14k","63cee7f1f8ef24eb79c80270","fixation","img/fixation.png","null","","test","","","","","",""
"357.9999999999418","261139","pSARL_v2","pSARL_v2re3px14k","63cee7f1f8ef24eb79c80270","freq","img/orange_2bandit_b2.png","70","70","test","1","118","118","6","",""
"null","261592","pSARL_v2","pSARL_v2re3px14k","63cee7f1f8ef24eb79c80270","freq_resp","img/orange_2bandit_b.png","70","70","test","","","","6","",""
"null","261755","pSARL_v2","pSARL_v2re3px14k","63cee7f1f8ef24eb79c80270","fixation","img/fixation.png","null","","test","","","","","",""
"502","262265","pSARL_v2","pSARL_v2re3px14k","63cee7f1f8ef24eb79c80270","infreq","img/green_2bandit_b2.png","68","68","test","1","119","119","6","",""
"null","262571","pSARL_v2","pSARL_v2re3px14k","63cee7f1f8ef24eb79c80270","infreq_resp","img/green_2bandit_b.png","68","68","test","","","","6","",""
"null","262730","pSARL_v2","pSARL_v2re3px14k","63cee7f1f8ef24eb79c80270","fixation","img/fixation.png","null","","test","","","","","",""
"384","263121","pSARL_v2","pSARL_v2re3px14k","63cee7f1f8ef24eb79c80270","freq","img/orange_2bandit_b2.png","70","70","test","1","120","120","6","",""
"null","263546","pSARL_v2","pSARL_v2re3px14k","63cee7f1f8ef24eb79c80270","freq_resp","img/orange_2bandit_b.png","70","70","test","","","","6","",""
"null","263707","pSARL_v2","pSARL_v2re3px14k","63cee7f1f8ef24eb79c80270","fixation","img/fixation.png","null","","test","","","","","",""
"415","264129","pSARL_v2","pSARL_v2re3px14k","63cee7f1f8ef24eb79c80270","freq","img/orange_2bandit_b2.png","70","70","test","1","121","121","6","",""
"null","264526","pSARL_v2","pSARL_v2re3px14k","63cee7f1f8ef24eb79c80270","freq_resp","img/orange_2bandit_b.png","70","70","test","","","","6","",""
"null","264684","pSARL_v2","pSARL_v2re3px14k","63cee7f1f8ef24eb79c80270","fixation","img/fixation.png","null","","test","","","","","",""
"507","265198","pSARL_v2","pSARL_v2re3px14k","63cee7f1f8ef24eb79c80270","freq","img/orange_2bandit_b2.png","70","70","test","1","122","122","6","",""
"null","265504","pSARL_v2","pSARL_v2re3px14k","63cee7f1f8ef24eb79c80270","freq_resp","img/orange_2bandit_b.png","70","70","test","","","","6","",""
"null","265666","pSARL_v2","pSARL_v2re3px14k","63cee7f1f8ef24eb79c80270","fixation","img/fixation.png","null","","test","","","","","",""
"561","266237","pSARL_v2","pSARL_v2re3px14k","63cee7f1f8ef24eb79c80270","freq","img/orange_2bandit_b2.png","70","70","test","1","123","123","6","",""
"null","266486","pSARL_v2","pSARL_v2re3px14k","63cee7f1f8ef24eb79c80270","freq_resp","img/orange_2bandit_b.png","70","70","test","","","","6","",""
"null","266645","pSARL_v2","pSARL_v2re3px14k","63cee7f1f8ef24eb79c80270","fixation","img/fixation.png","null","","test","","","","","",""
"553","267206","pSARL_v2","pSARL_v2re3px14k","63cee7f1f8ef24eb79c80270","freq","img/orange_2bandit_b2.png","70","70","test","1","124","124","6","",""
"null","267460","pSARL_v2","pSARL_v2re3px14k","63cee7f1f8ef24eb79c80270","freq_resp","img/orange_2bandit_b.png","70","70","test","","","","6","",""
"null","267619","pSARL_v2","pSARL_v2re3px14k","63cee7f1f8ef24eb79c80270","fixation","img/fixation.png","null","","test","","","","","",""
"585","268216","pSARL_v2","pSARL_v2re3px14k","63cee7f1f8ef24eb79c80270","freq","img/orange_2bandit_b2.png","70","70","test","1","125","125","6","",""
"null","268443","pSARL_v2","pSARL_v2re3px14k","63cee7f1f8ef24eb79c80270","freq_resp","img/orange_2bandit_b.png","70","70","test","","","","6","",""
"null","268602","pSARL_v2","pSARL_v2re3px14k","63cee7f1f8ef24eb79c80270","fixation","img/fixation.png","null","","test","","","","","",""
"522.0000000000582","269132","pSARL_v2","pSARL_v2re3px14k","63cee7f1f8ef24eb79c80270","freq","img/orange_2bandit_b2.png","70","70","test","1","126","126","6","",""
"null","269417","pSARL_v2","pSARL_v2re3px14k","63cee7f1f8ef24eb79c80270","freq_resp","img/orange_2bandit_b.png","70","70","test","","","","6","",""
"null","269577","pSARL_v2","pSARL_v2re3px14k","63cee7f1f8ef24eb79c80270","fixation","img/fixation.png","null","","test","","","","","",""
"381","269966","pSARL_v2","pSARL_v2re3px14k","63cee7f1f8ef24eb79c80270","freq","img/orange_2bandit_b2.png","70","70","test","1","127","127","6","",""
"null","270393","pSARL_v2","pSARL_v2re3px14k","63cee7f1f8ef24eb79c80270","freq_resp","img/orange_2bandit_b.png","70","70","test","","","","6","",""
"null","270551","pSARL_v2","pSARL_v2re3px14k","63cee7f1f8ef24eb79c80270","fixation","img/fixation.png","null","","test","","","","","",""
"366","270927","pSARL_v2","pSARL_v2re3px14k","63cee7f1f8ef24eb79c80270","freq","img/orange_2bandit_b2.png","70","70","test","1","128","128","6","",""
"null","271371","pSARL_v2","pSARL_v2re3px14k","63cee7f1f8ef24eb79c80270","freq_resp","img/orange_2bandit_b.png","70","70","test","","","","6","",""
"null","271528","pSARL_v2","pSARL_v2re3px14k","63cee7f1f8ef24eb79c80270","fixation","img/fixation.png","null","","test","","","","","",""
"353","271890","pSARL_v2","pSARL_v2re3px14k","63cee7f1f8ef24eb79c80270","freq","img/orange_2bandit_b2.png","70","70","test","1","129","129","6","",""
"null","272346","pSARL_v2","pSARL_v2re3px14k","63cee7f1f8ef24eb79c80270","freq_resp","img/orange_2bandit_b.png","70","70","test","","","","6","",""
"null","272507","pSARL_v2","pSARL_v2re3px14k","63cee7f1f8ef24eb79c80270","fixation","img/fixation.png","null","","test","","","","","",""
"376","272893","pSARL_v2","pSARL_v2re3px14k","63cee7f1f8ef24eb79c80270","freq","img/orange_2bandit_b2.png","70","70","test","1","130","130","6","",""
"null","273327","pSARL_v2","pSARL_v2re3px14k","63cee7f1f8ef24eb79c80270","freq_resp","img/orange_2bandit_b.png","70","70","test","","","","6","",""
"null","273485","pSARL_v2","pSARL_v2re3px14k","63cee7f1f8ef24eb79c80270","fixation","img/fixation.png","null","","test","","","","","",""
"491","273984","pSARL_v2","pSARL_v2re3px14k","63cee7f1f8ef24eb79c80270","infreq","img/green_2bandit_b2.png","68","68","test","1","131","131","6","",""
"null","274302","pSARL_v2","pSARL_v2re3px14k","63cee7f1f8ef24eb79c80270","infreq_resp","img/green_2bandit_b.png","68","68","test","","","","6","",""
"null","274462","pSARL_v2","pSARL_v2re3px14k","63cee7f1f8ef24eb79c80270","fixation","img/fixation.png","null","","test","","","","","",""
"373","274842","pSARL_v2","pSARL_v2re3px14k","63cee7f1f8ef24eb79c80270","freq","img/orange_2bandit_b2.png","70","70","test","1","132","132","6","",""
"null","275280","pSARL_v2","pSARL_v2re3px14k","63cee7f1f8ef24eb79c80270","freq_resp","img/orange_2bandit_b.png","70","70","test","","","","6","",""
"null","275442","pSARL_v2","pSARL_v2re3px14k","63cee7f1f8ef24eb79c80270","fixation","img/fixation.png","null","","test","","","","","",""
"379.0000000000582","275830","pSARL_v2","pSARL_v2re3px14k","63cee7f1f8ef24eb79c80270","freq","img/orange_2bandit_b2.png","70","70","test","1","133","133","6","",""
"null","276262","pSARL_v2","pSARL_v2re3px14k","63cee7f1f8ef24eb79c80270","freq_resp","img/orange_2bandit_b.png","70","70","test","","","","6","",""
"null","276422","pSARL_v2","pSARL_v2re3px14k","63cee7f1f8ef24eb79c80270","fixation","img/fixation.png","null","","test","","","","","",""
"447","276877","pSARL_v2","pSARL_v2re3px14k","63cee7f1f8ef24eb79c80270","freq","img/orange_2bandit_b2.png","70","70","test","1","134","134","6","",""
"null","277240","pSARL_v2","pSARL_v2re3px14k","63cee7f1f8ef24eb79c80270","freq_resp","img/orange_2bandit_b.png","70","70","test","","","","6","",""
"null","277398","pSARL_v2","pSARL_v2re3px14k","63cee7f1f8ef24eb79c80270","fixation","img/fixation.png","null","","test","","","","","",""
"502","277906","pSARL_v2","pSARL_v2re3px14k","63cee7f1f8ef24eb79c80270","freq","img/orange_2bandit_b2.png","70","70","test","1","135","135","6","",""
"null","278212","pSARL_v2","pSARL_v2re3px14k","63cee7f1f8ef24eb79c80270","freq_resp","img/orange_2bandit_b.png","70","70","test","","","","6","",""
"null","278369","pSARL_v2","pSARL_v2re3px14k","63cee7f1f8ef24eb79c80270","fixation","img/fixation.png","null","","test","","","","","",""
"552","278929","pSARL_v2","pSARL_v2re3px14k","63cee7f1f8ef24eb79c80270","freq","img/orange_2bandit_b2.png","70","70","test","1","136","136","6","",""
"null","279187","pSARL_v2","pSARL_v2re3px14k","63cee7f1f8ef24eb79c80270","freq_resp","img/orange_2bandit_b.png","70","70","test","","","","6","",""
"null","279349","pSARL_v2","pSARL_v2re3px14k","63cee7f1f8ef24eb79c80270","fixation","img/fixation.png","null","","test","","","","","",""
"514.0000000000582","279871","pSARL_v2","pSARL_v2re3px14k","63cee7f1f8ef24eb79c80270","reward","img/slot.png","74","","test","","","","","",""
"null","280633","pSARL_v2","pSARL_v2re3px14k","63cee7f1f8ef24eb79c80270","points","<div class=""verylowPoints""> -7 </div>","null","na","test","","","","6","-7","5"
"554","281195","pSARL_v2","pSARL_v2re3px14k","63cee7f1f8ef24eb79c80270","freq","img/orange_2bandit_b2.png","70","70","test","1","137","137","7","",""
"null","281451","pSARL_v2","pSARL_v2re3px14k","63cee7f1f8ef24eb79c80270","freq_resp","img/orange_2bandit_b.png","70","70","test","","","","7","",""
"null","281612","pSARL_v2","pSARL_v2re3px14k","63cee7f1f8ef24eb79c80270","fixation","img/fixation.png","null","","test","","","","","",""
"512.9999999999418","282132","pSARL_v2","pSARL_v2re3px14k","63cee7f1f8ef24eb79c80270","freq","img/orange_2bandit_b2.png","70","70","test","1","138","138","7","",""
"null","282423","pSARL_v2","pSARL_v2re3px14k","63cee7f1f8ef24eb79c80270","freq_resp","img/orange_2bandit_b.png","70","70","test","","","","7","",""
"null","282582","pSARL_v2","pSARL_v2re3px14k","63cee7f1f8ef24eb79c80270","fixation","img/fixation.png","null","","test","","","","","",""
"500","283090","pSARL_v2","pSARL_v2re3px14k","63cee7f1f8ef24eb79c80270","freq","img/orange_2bandit_b2.png","70","70","test","1","139","139","7","",""
"null","283404","pSARL_v2","pSARL_v2re3px14k","63cee7f1f8ef24eb79c80270","freq_resp","img/orange_2bandit_b.png","70","70","test","","","","7","",""
"null","283564","pSARL_v2","pSARL_v2re3px14k","63cee7f1f8ef24eb79c80270","fixation","img/fixation.png","null","","test","","","","","",""
"483","284054","pSARL_v2","pSARL_v2re3px14k","63cee7f1f8ef24eb79c80270","freq","img/orange_2bandit_b2.png","70","70","test","1","140","140","7","",""
"null","284380","pSARL_v2","pSARL_v2re3px14k","63cee7f1f8ef24eb79c80270","freq_resp","img/orange_2bandit_b.png","70","70","test","","","","7","",""
"null","284539","pSARL_v2","pSARL_v2re3px14k","63cee7f1f8ef24eb79c80270","fixation","img/fixation.png","null","","test","","","","","",""
"344","284892","pSARL_v2","pSARL_v2re3px14k","63cee7f1f8ef24eb79c80270","freq","img/orange_2bandit_b2.png","70","70","test","1","141","141","7","",""
"null","285360","pSARL_v2","pSARL_v2re3px14k","63cee7f1f8ef24eb79c80270","freq_resp","img/orange_2bandit_b.png","70","70","test","","","","7","",""
"null","285523","pSARL_v2","pSARL_v2re3px14k","63cee7f1f8ef24eb79c80270","fixation","img/fixation.png","null","","test","","","","","",""
"322","285855","pSARL_v2","pSARL_v2re3px14k","63cee7f1f8ef24eb79c80270","freq","img/orange_2bandit_b2.png","70","70","test","1","142","142","7","",""
"null","286347","pSARL_v2","pSARL_v2re3px14k","63cee7f1f8ef24eb79c80270","freq_resp","img/orange_2bandit_b.png","70","70","test","","","","7","",""
"null","286511","pSARL_v2","pSARL_v2re3px14k","63cee7f1f8ef24eb79c80270","fixation","img/fixation.png","null","","test","","","","","",""
"303.9999999999418","286824","pSARL_v2","pSARL_v2re3px14k","63cee7f1f8ef24eb79c80270","freq","img/orange_2bandit_b2.png","70","70","test","1","143","143","7","",""
"null","287329","pSARL_v2","pSARL_v2re3px14k","63cee7f1f8ef24eb79c80270","freq_resp","img/orange_2bandit_b.png","70","70","test","","","","7","",""
"null","287488","pSARL_v2","pSARL_v2re3px14k","63cee7f1f8ef24eb79c80270","fixation","img/fixation.png","null","","test","","","","","",""
"548","288047","pSARL_v2","pSARL_v2re3px14k","63cee7f1f8ef24eb79c80270","infreq","img/green_2bandit_b2.png","68","68","test","1","144","144","7","",""
"null","288309","pSARL_v2","pSARL_v2re3px14k","63cee7f1f8ef24eb79c80270","infreq_resp","img/green_2bandit_b.png","68","68","test","","","","7","",""
"null","288467","pSARL_v2","pSARL_v2re3px14k","63cee7f1f8ef24eb79c80270","fixation","img/fixation.png","null","","test","","","","","",""
"462","288936","pSARL_v2","pSARL_v2re3px14k","63cee7f1f8ef24eb79c80270","infreq","img/green_2bandit_b2.png","68","68","test","1","145","145","7","",""
"null","289284","pSARL_v2","pSARL_v2re3px14k","63cee7f1f8ef24eb79c80270","infreq_resp","img/green_2bandit_b.png","68","68","test","","","","7","",""
"null","289443","pSARL_v2","pSARL_v2re3px14k","63cee7f1f8ef24eb79c80270","fixation","img/fixation.png","null","","test","","","","","",""
"488","289941","pSARL_v2","pSARL_v2re3px14k","63cee7f1f8ef24eb79c80270","freq","img/orange_2bandit_b2.png","70","70","test","1","146","146","7","",""
"null","290266","pSARL_v2","pSARL_v2re3px14k","63cee7f1f8ef24eb79c80270","freq_resp","img/orange_2bandit_b.png","70","70","test","","","","7","",""
"null","290428","pSARL_v2","pSARL_v2re3px14k","63cee7f1f8ef24eb79c80270","fixation","img/fixation.png","null","","test","","","","","",""
"309.0000000000582","290745","pSARL_v2","pSARL_v2re3px14k","63cee7f1f8ef24eb79c80270","freq","img/orange_2bandit_b2.png","70","70","test","1","147","147","7","",""
"null","291247","pSARL_v2","pSARL_v2re3px14k","63cee7f1f8ef24eb79c80270","freq_resp","img/orange_2bandit_b.png","70","70","test","","","","7","",""
"null","291408","pSARL_v2","pSARL_v2re3px14k","63cee7f1f8ef24eb79c80270","fixation","img/fixation.png","null","","test","","","","","",""
"400","291816","pSARL_v2","pSARL_v2re3px14k","63cee7f1f8ef24eb79c80270","freq","img/orange_2bandit_b2.png","70","70","test","1","148","148","7","",""
"null","292225","pSARL_v2","pSARL_v2re3px14k","63cee7f1f8ef24eb79c80270","freq_resp","img/orange_2bandit_b.png","70","70","test","","","","7","",""
"null","292383","pSARL_v2","pSARL_v2re3px14k","63cee7f1f8ef24eb79c80270","fixation","img/fixation.png","null","","test","","","","","",""
"381","292772","pSARL_v2","pSARL_v2re3px14k","63cee7f1f8ef24eb79c80270","freq","img/orange_2bandit_b2.png","70","70","test","1","149","149","7","",""
"null","293204","pSARL_v2","pSARL_v2re3px14k","63cee7f1f8ef24eb79c80270","freq_resp","img/orange_2bandit_b.png","70","70","test","","","","7","",""
"null","293366","pSARL_v2","pSARL_v2re3px14k","63cee7f1f8ef24eb79c80270","fixation","img/fixation.png","null","","test","","","","","",""
"425","293800","pSARL_v2","pSARL_v2re3px14k","63cee7f1f8ef24eb79c80270","freq","img/orange_2bandit_b2.png","70","70","test","1","150","150","7","",""
"null","294183","pSARL_v2","pSARL_v2re3px14k","63cee7f1f8ef24eb79c80270","freq_resp","img/orange_2bandit_b.png","70","70","test","","","","7","",""
"null","294342","pSARL_v2","pSARL_v2re3px14k","63cee7f1f8ef24eb79c80270","fixation","img/fixation.png","null","","test","","","","","",""
"352","294703","pSARL_v2","pSARL_v2re3px14k","63cee7f1f8ef24eb79c80270","freq","img/orange_2bandit_b2.png","70","70","test","1","151","151","7","",""
"null","295159","pSARL_v2","pSARL_v2re3px14k","63cee7f1f8ef24eb79c80270","freq_resp","img/orange_2bandit_b.png","70","70","test","","","","7","",""
"null","295317","pSARL_v2","pSARL_v2re3px14k","63cee7f1f8ef24eb79c80270","fixation","img/fixation.png","null","","test","","","","","",""
"421","295747","pSARL_v2","pSARL_v2re3px14k","63cee7f1f8ef24eb79c80270","freq","img/orange_2bandit_b2.png","70","70","test","1","152","152","7","",""
"null","296136","pSARL_v2","pSARL_v2re3px14k","63cee7f1f8ef24eb79c80270","freq_resp","img/orange_2bandit_b.png","70","70","test","","","","7","",""
"null","296295","pSARL_v2","pSARL_v2re3px14k","63cee7f1f8ef24eb79c80270","fixation","img/fixation.png","null","","test","","","","","",""
"371","296674","pSARL_v2","pSARL_v2re3px14k","63cee7f1f8ef24eb79c80270","freq","img/orange_2bandit_b2.png","70","70","test","1","153","153","7","",""
"null","297116","pSARL_v2","pSARL_v2re3px14k","63cee7f1f8ef24eb79c80270","freq_resp","img/orange_2bandit_b.png","70","70","test","","","","7","",""
"null","297277","pSARL_v2","pSARL_v2re3px14k","63cee7f1f8ef24eb79c80270","fixation","img/fixation.png","null","","test","","","","","",""
"409","297694","pSARL_v2","pSARL_v2re3px14k","63cee7f1f8ef24eb79c80270","freq","img/orange_2bandit_b2.png","70","70","test","1","154","154","7","",""
"null","298097","pSARL_v2","pSARL_v2re3px14k","63cee7f1f8ef24eb79c80270","freq_resp","img/orange_2bandit_b.png","70","70","test","","","","7","",""
"null","298258","pSARL_v2","pSARL_v2re3px14k","63cee7f1f8ef24eb79c80270","fixation","img/fixation.png","null","","test","","","","","",""
"330","298596","pSARL_v2","pSARL_v2re3px14k","63cee7f1f8ef24eb79c80270","freq","img/orange_2bandit_b2.png","70","70","test","1","155","155","7","",""
"null","299078","pSARL_v2","pSARL_v2re3px14k","63cee7f1f8ef24eb79c80270","freq_resp","img/orange_2bandit_b.png","70","70","test","","","","7","",""
"null","299236","pSARL_v2","pSARL_v2re3px14k","63cee7f1f8ef24eb79c80270","fixation","img/fixation.png","null","","test","","","","","",""
"353","299597","pSARL_v2","pSARL_v2re3px14k","63cee7f1f8ef24eb79c80270","freq","img/orange_2bandit_b2.png","70","70","test","1","156","156","7","",""
"null","300054","pSARL_v2","pSARL_v2re3px14k","63cee7f1f8ef24eb79c80270","freq_resp","img/orange_2bandit_b.png","70","70","test","","","","7","",""
"null","300215","pSARL_v2","pSARL_v2re3px14k","63cee7f1f8ef24eb79c80270","fixation","img/fixation.png","null","","test","","","","","",""
"321","300542","pSARL_v2","pSARL_v2re3px14k","63cee7f1f8ef24eb79c80270","freq","img/orange_2bandit_b2.png","70","70","test","1","157","157","7","",""
"null","301033","pSARL_v2","pSARL_v2re3px14k","63cee7f1f8ef24eb79c80270","freq_resp","img/orange_2bandit_b.png","70","70","test","","","","7","",""
"null","301196","pSARL_v2","pSARL_v2re3px14k","63cee7f1f8ef24eb79c80270","fixation","img/fixation.png","null","","test","","","","","",""
"292.9999999999418","301496","pSARL_v2","pSARL_v2re3px14k","63cee7f1f8ef24eb79c80270","freq","img/orange_2bandit_b2.png","70","70","test","1","158","158","7","",""
"null","302014","pSARL_v2","pSARL_v2re3px14k","63cee7f1f8ef24eb79c80270","freq_resp","img/orange_2bandit_b.png","70","70","test","","","","7","",""
"null","302176","pSARL_v2","pSARL_v2re3px14k","63cee7f1f8ef24eb79c80270","fixation","img/fixation.png","null","","test","","","","","",""
"368","302553","pSARL_v2","pSARL_v2re3px14k","63cee7f1f8ef24eb79c80270","freq","img/orange_2bandit_b2.png","70","70","test","1","159","159","7","",""
"null","302993","pSARL_v2","pSARL_v2re3px14k","63cee7f1f8ef24eb79c80270","freq_resp","img/orange_2bandit_b.png","70","70","test","","","","7","",""
"null","303151","pSARL_v2","pSARL_v2re3px14k","63cee7f1f8ef24eb79c80270","fixation","img/fixation.png","null","","test","","","","","",""
"377","303536","pSARL_v2","pSARL_v2re3px14k","63cee7f1f8ef24eb79c80270","freq","img/orange_2bandit_b2.png","70","70","test","1","160","160","7","",""
"null","303970","pSARL_v2","pSARL_v2re3px14k","63cee7f1f8ef24eb79c80270","freq_resp","img/orange_2bandit_b.png","70","70","test","","","","7","",""
"null","304133","pSARL_v2","pSARL_v2re3px14k","63cee7f1f8ef24eb79c80270","fixation","img/fixation.png","null","","test","","","","","",""
"510","304652","pSARL_v2","pSARL_v2re3px14k","63cee7f1f8ef24eb79c80270","reward","img/slot.png","74","","test","","","","","",""
"null","305412","pSARL_v2","pSARL_v2re3px14k","63cee7f1f8ef24eb79c80270","points","<div class=""verylowPoints""> -6 </div>","null","na","test","","","","7","-6","6"
"422","305842","pSARL_v2","pSARL_v2re3px14k","63cee7f1f8ef24eb79c80270","freq","img/orange_2bandit_b2.png","70","70","test","1","161","161","8","",""
"null","306229","pSARL_v2","pSARL_v2re3px14k","63cee7f1f8ef24eb79c80270","freq_resp","img/orange_2bandit_b.png","70","70","test","","","","8","",""
"null","306386","pSARL_v2","pSARL_v2re3px14k","63cee7f1f8ef24eb79c80270","fixation","img/fixation.png","null","","test","","","","","",""
"298","306692","pSARL_v2","pSARL_v2re3px14k","63cee7f1f8ef24eb79c80270","freq","img/orange_2bandit_b2.png","70","70","test","1","162","162","8","",""
"null","307205","pSARL_v2","pSARL_v2re3px14k","63cee7f1f8ef24eb79c80270","freq_resp","img/orange_2bandit_b.png","70","70","test","","","","8","",""
"null","307367","pSARL_v2","pSARL_v2re3px14k","63cee7f1f8ef24eb79c80270","fixation","img/fixation.png","null","","test","","","","","",""
"321","307694","pSARL_v2","pSARL_v2re3px14k","63cee7f1f8ef24eb79c80270","freq","img/orange_2bandit_b2.png","70","70","test","1","163","163","8","",""
"null","308185","pSARL_v2","pSARL_v2re3px14k","63cee7f1f8ef24eb79c80270","freq_resp","img/orange_2bandit_b.png","70","70","test","","","","8","",""
"null","308348","pSARL_v2","pSARL_v2re3px14k","63cee7f1f8ef24eb79c80270","fixation","img/fixation.png","null","","test","","","","","",""
"295","308655","pSARL_v2","pSARL_v2re3px14k","63cee7f1f8ef24eb79c80270","freq","img/orange_2bandit_b2.png","70","70","test","1","164","164","8","",""
"null","309172","pSARL_v2","pSARL_v2re3px14k","63cee7f1f8ef24eb79c80270","freq_resp","img/orange_2bandit_b.png","70","70","test","","","","8","",""
"null","309330","pSARL_v2","pSARL_v2re3px14k","63cee7f1f8ef24eb79c80270","fixation","img/fixation.png","null","","test","","","","","",""
"327","309665","pSARL_v2","pSARL_v2re3px14k","63cee7f1f8ef24eb79c80270","freq","img/orange_2bandit_b2.png","70","70","test","1","165","165","8","",""
"null","310147","pSARL_v2","pSARL_v2re3px14k","63cee7f1f8ef24eb79c80270","freq_resp","img/orange_2bandit_b.png","70","70","test","","","","8","",""
"null","310307","pSARL_v2","pSARL_v2re3px14k","63cee7f1f8ef24eb79c80270","fixation","img/fixation.png","null","","test","","","","","",""
"506","310821","pSARL_v2","pSARL_v2re3px14k","63cee7f1f8ef24eb79c80270","infreq","img/green_2bandit_b2.png","68","68","test","1","166","166","8","",""
"null","311126","pSARL_v2","pSARL_v2re3px14k","63cee7f1f8ef24eb79c80270","infreq_resp","img/green_2bandit_b.png","68","68","test","","","","8","",""
"null","311285","pSARL_v2","pSARL_v2re3px14k","63cee7f1f8ef24eb79c80270","fixation","img/fixation.png","null","","test","","","","","",""
"336.9999999999418","311630","pSARL_v2","pSARL_v2re3px14k","63cee7f1f8ef24eb79c80270","freq","img/orange_2bandit_b2.png","70","70","test","1","167","167","8","",""
"null","312105","pSARL_v2","pSARL_v2re3px14k","63cee7f1f8ef24eb79c80270","freq_resp","img/orange_2bandit_b.png","70","70","test","","","","8","",""
"null","312266","pSARL_v2","pSARL_v2re3px14k","63cee7f1f8ef24eb79c80270","fixation","img/fixation.png","null","","test","","","","","",""
"321","312594","pSARL_v2","pSARL_v2re3px14k","63cee7f1f8ef24eb79c80270","freq","img/orange_2bandit_b2.png","70","70","test","1","168","168","8","",""
"null","313082","pSARL_v2","pSARL_v2re3px14k","63cee7f1f8ef24eb79c80270","freq_resp","img/orange_2bandit_b.png","70","70","test","","","","8","",""
"null","313242","pSARL_v2","pSARL_v2re3px14k","63cee7f1f8ef24eb79c80270","fixation","img/fixation.png","null","","test","","","","","",""
"379","313627","pSARL_v2","pSARL_v2re3px14k","63cee7f1f8ef24eb79c80270","freq","img/orange_2bandit_b2.png","70","70","test","1","169","169","8","",""
"null","314059","pSARL_v2","pSARL_v2re3px14k","63cee7f1f8ef24eb79c80270","freq_resp","img/orange_2bandit_b.png","70","70","test","","","","8","",""
"null","314222","pSARL_v2","pSARL_v2re3px14k","63cee7f1f8ef24eb79c80270","fixation","img/fixation.png","null","","test","","","","","",""
"404","314637","pSARL_v2","pSARL_v2re3px14k","63cee7f1f8ef24eb79c80270","freq","img/orange_2bandit_b2.png","70","70","test","1","170","170","8","",""
"null","315047","pSARL_v2","pSARL_v2re3px14k","63cee7f1f8ef24eb79c80270","freq_resp","img/orange_2bandit_b.png","70","70","test","","","","8","",""
"null","315209","pSARL_v2","pSARL_v2re3px14k","63cee7f1f8ef24eb79c80270","fixation","img/fixation.png","null","","test","","","","","",""
"343","315563","pSARL_v2","pSARL_v2re3px14k","63cee7f1f8ef24eb79c80270","freq","img/orange_2bandit_b2.png","70","70","test","1","171","171","8","",""
"null","316030","pSARL_v2","pSARL_v2re3px14k","63cee7f1f8ef24eb79c80270","freq_resp","img/orange_2bandit_b.png","70","70","test","","","","8","",""
"null","316187","pSARL_v2","pSARL_v2re3px14k","63cee7f1f8ef24eb79c80270","fixation","img/fixation.png","null","","test","","","","","",""
"486","316682","pSARL_v2","pSARL_v2re3px14k","63cee7f1f8ef24eb79c80270","infreq","img/green_2bandit_b2.png","68","68","test","1","172","172","8","",""
"null","317005","pSARL_v2","pSARL_v2re3px14k","63cee7f1f8ef24eb79c80270","infreq_resp","img/green_2bandit_b.png","68","68","test","","","","8","",""
"null","317164","pSARL_v2","pSARL_v2re3px14k","63cee7f1f8ef24eb79c80270","fixation","img/fixation.png","null","","test","","","","","",""
"477","317651","pSARL_v2","pSARL_v2re3px14k","63cee7f1f8ef24eb79c80270","freq","img/orange_2bandit_b2.png","70","70","test","1","173","173","8","",""
"null","317986","pSARL_v2","pSARL_v2re3px14k","63cee7f1f8ef24eb79c80270","freq_resp","img/orange_2bandit_b.png","70","70","test","","","","8","",""
"null","318148","pSARL_v2","pSARL_v2re3px14k","63cee7f1f8ef24eb79c80270","fixation","img/fixation.png","null","","test","","","","","",""
"343","318503","pSARL_v2","pSARL_v2re3px14k","63cee7f1f8ef24eb79c80270","freq","img/orange_2bandit_b2.png","70","70","test","1","174","174","8","",""
"null","318970","pSARL_v2","pSARL_v2re3px14k","63cee7f1f8ef24eb79c80270","freq_resp","img/orange_2bandit_b.png","70","70","test","","","","8","",""
"null","319132","pSARL_v2","pSARL_v2re3px14k","63cee7f1f8ef24eb79c80270","fixation","img/fixation.png","null","","test","","","","","",""
"331","319471","pSARL_v2","pSARL_v2re3px14k","63cee7f1f8ef24eb79c80270","freq","img/orange_2bandit_b2.png","70","70","test","1","175","175","8","",""
"null","319953","pSARL_v2","pSARL_v2re3px14k","63cee7f1f8ef24eb79c80270","freq_resp","img/orange_2bandit_b.png","70","70","test","","","","8","",""
"null","320115","pSARL_v2","pSARL_v2re3px14k","63cee7f1f8ef24eb79c80270","fixation","img/fixation.png","null","","test","","","","","",""
"316","320442","pSARL_v2","pSARL_v2re3px14k","63cee7f1f8ef24eb79c80270","freq","img/orange_2bandit_b2.png","70","70","test","1","176","176","8","",""
"null","320935","pSARL_v2","pSARL_v2re3px14k","63cee7f1f8ef24eb79c80270","freq_resp","img/orange_2bandit_b.png","70","70","test","","","","8","",""
"null","321097","pSARL_v2","pSARL_v2re3px14k","63cee7f1f8ef24eb79c80270","fixation","img/fixation.png","null","","test","","","","","",""
"494","321598","pSARL_v2","pSARL_v2re3px14k","63cee7f1f8ef24eb79c80270","freq","img/orange_2bandit_b2.png","70","70","test","1","177","177","8","",""
"null","321918","pSARL_v2","pSARL_v2re3px14k","63cee7f1f8ef24eb79c80270","freq_resp","img/orange_2bandit_b.png","70","70","test","","","","8","",""
"null","322080","pSARL_v2","pSARL_v2re3px14k","63cee7f1f8ef24eb79c80270","fixation","img/fixation.png","null","","test","","","","","",""
"369","322459","pSARL_v2","pSARL_v2re3px14k","63cee7f1f8ef24eb79c80270","freq","img/orange_2bandit_b2.png","70","70","test","1","178","178","8","",""
"null","322900","pSARL_v2","pSARL_v2re3px14k","63cee7f1f8ef24eb79c80270","freq_resp","img/orange_2bandit_b.png","70","70","test","","","","8","",""
"null","323058","pSARL_v2","pSARL_v2re3px14k","63cee7f1f8ef24eb79c80270","fixation","img/fixation.png","null","","test","","","","","",""
"421.9999999999418","323490","pSARL_v2","pSARL_v2re3px14k","63cee7f1f8ef24eb79c80270","freq","img/orange_2bandit_b2.png","70","70","test","1","179","179","8","",""
"null","323875","pSARL_v2","pSARL_v2re3px14k","63cee7f1f8ef24eb79c80270","freq_resp","img/orange_2bandit_b.png","70","70","test","","","","8","",""
"null","324034","pSARL_v2","pSARL_v2re3px14k","63cee7f1f8ef24eb79c80270","fixation","img/fixation.png","null","","test","","","","","",""
"337.9999999999418","324380","pSARL_v2","pSARL_v2re3px14k","63cee7f1f8ef24eb79c80270","freq","img/orange_2bandit_b2.png","70","70","test","1","180","180","8","",""
"null","324851","pSARL_v2","pSARL_v2re3px14k","63cee7f1f8ef24eb79c80270","freq_resp","img/orange_2bandit_b.png","70","70","test","","","","8","",""
"null","325013","pSARL_v2","pSARL_v2re3px14k","63cee7f1f8ef24eb79c80270","fixation","img/fixation.png","null","","test","","","","","",""
"301","325322","pSARL_v2","pSARL_v2re3px14k","63cee7f1f8ef24eb79c80270","freq","img/orange_2bandit_b2.png","70","70","test","1","181","181","8","",""
"null","325832","pSARL_v2","pSARL_v2re3px14k","63cee7f1f8ef24eb79c80270","freq_resp","img/orange_2bandit_b.png","70","70","test","","","","8","",""
"null","325993","pSARL_v2","pSARL_v2re3px14k","63cee7f1f8ef24eb79c80270","fixation","img/fixation.png","null","","test","","","","","",""
"325.9999999999418","326327","pSARL_v2","pSARL_v2re3px14k","63cee7f1f8ef24eb79c80270","freq","img/orange_2bandit_b2.png","70","70","test","1","182","182","8","",""
"null","326814","pSARL_v2","pSARL_v2re3px14k","63cee7f1f8ef24eb79c80270","freq_resp","img/orange_2bandit_b.png","70","70","test","","","","8","",""
"null","326975","pSARL_v2","pSARL_v2re3px14k","63cee7f1f8ef24eb79c80270","fixation","img/fixation.png","null","","test","","","","","",""
"314","327297","pSARL_v2","pSARL_v2re3px14k","63cee7f1f8ef24eb79c80270","freq","img/orange_2bandit_b2.png","70","70","test","1","183","183","8","",""
"null","327792","pSARL_v2","pSARL_v2re3px14k","63cee7f1f8ef24eb79c80270","freq_resp","img/orange_2bandit_b.png","70","70","test","","","","8","",""
"null","327950","pSARL_v2","pSARL_v2re3px14k","63cee7f1f8ef24eb79c80270","fixation","img/fixation.png","null","","test","","","","","",""
"517","328475","pSARL_v2","pSARL_v2re3px14k","63cee7f1f8ef24eb79c80270","reward","img/slot.png","74","","test","","","","","",""
"null","329236","pSARL_v2","pSARL_v2re3px14k","63cee7f1f8ef24eb79c80270","points","<div class=""verylowPoints""> -4 </div>","null","na","test","","","","8","-4","7"
"342","329588","pSARL_v2","pSARL_v2re3px14k","63cee7f1f8ef24eb79c80270","freq","img/orange_2bandit_b2.png","70","70","test","1","184","184","9","",""
"null","330055","pSARL_v2","pSARL_v2re3px14k","63cee7f1f8ef24eb79c80270","freq_resp","img/orange_2bandit_b.png","70","70","test","","","","9","",""
"null","330217","pSARL_v2","pSARL_v2re3px14k","63cee7f1f8ef24eb79c80270","fixation","img/fixation.png","null","","test","","","","","",""
"350","330575","pSARL_v2","pSARL_v2re3px14k","63cee7f1f8ef24eb79c80270","freq","img/orange_2bandit_b2.png","70","70","test","1","185","185","9","",""
"null","331037","pSARL_v2","pSARL_v2re3px14k","63cee7f1f8ef24eb79c80270","freq_resp","img/orange_2bandit_b.png","70","70","test","","","","9","",""
"null","331194","pSARL_v2","pSARL_v2re3px14k","63cee7f1f8ef24eb79c80270","fixation","img/fixation.png","null","","test","","","","","",""
"339","331541","pSARL_v2","pSARL_v2re3px14k","63cee7f1f8ef24eb79c80270","freq","img/orange_2bandit_b2.png","70","70","test","1","186","186","9","",""
"null","332012","pSARL_v2","pSARL_v2re3px14k","63cee7f1f8ef24eb79c80270","freq_resp","img/orange_2bandit_b.png","70","70","test","","","","9","",""
"null","332170","pSARL_v2","pSARL_v2re3px14k","63cee7f1f8ef24eb79c80270","fixation","img/fixation.png","null","","test","","","","","",""
"313","332487","pSARL_v2","pSARL_v2re3px14k","63cee7f1f8ef24eb79c80270","freq","img/orange_2bandit_b2.png","70","70","test","1","187","187","9","",""
"null","332985","pSARL_v2","pSARL_v2re3px14k","63cee7f1f8ef24eb79c80270","freq_resp","img/orange_2bandit_b.png","70","70","test","","","","9","",""
"null","333148","pSARL_v2","pSARL_v2re3px14k","63cee7f1f8ef24eb79c80270","fixation","img/fixation.png","null","","test","","","","","",""
"393","333552","pSARL_v2","pSARL_v2re3px14k","63cee7f1f8ef24eb79c80270","freq","img/orange_2bandit_b2.png","70","70","test","1","188","188","9","",""
"null","333970","pSARL_v2","pSARL_v2re3px14k","63cee7f1f8ef24eb79c80270","freq_resp","img/orange_2bandit_b.png","70","70","test","","","","9","",""
"null","334129","pSARL_v2","pSARL_v2re3px14k","63cee7f1f8ef24eb79c80270","fixation","img/fixation.png","null","","test","","","","","",""
"368","334503","pSARL_v2","pSARL_v2re3px14k","63cee7f1f8ef24eb79c80270","freq","img/orange_2bandit_b2.png","70","70","test","1","189","189","9","",""
"null","334948","pSARL_v2","pSARL_v2re3px14k","63cee7f1f8ef24eb79c80270","freq_resp","img/orange_2bandit_b.png","70","70","test","","","","9","",""
"null","335107","pSARL_v2","pSARL_v2re3px14k","63cee7f1f8ef24eb79c80270","fixation","img/fixation.png","null","","test","","","","","",""
"309","335424","pSARL_v2","pSARL_v2re3px14k","63cee7f1f8ef24eb79c80270","freq","img/orange_2bandit_b2.png","70","70","test","1","190","190","9","",""
"null","335926","pSARL_v2","pSARL_v2re3px14k","63cee7f1f8ef24eb79c80270","freq_resp","img/orange_2bandit_b.png","70","70","test","","","","9","",""
"null","336080","pSARL_v2","pSARL_v2re3px14k","63cee7f1f8ef24eb79c80270","fixation","img/fixation.png","null","","test","","","","","",""
"470","336559","pSARL_v2","pSARL_v2re3px14k","63cee7f1f8ef24eb79c80270","infreq","img/green_2bandit_b2.png","68","68","test","1","191","191","9","",""
"null","336898","pSARL_v2","pSARL_v2re3px14k","63cee7f1f8ef24eb79c80270","infreq_resp","img/green_2bandit_b.png","68","68","test","","","","9","",""
"null","337059","pSARL_v2","pSARL_v2re3px14k","63cee7f1f8ef24eb79c80270","fixation","img/fixation.png","null","","test","","","","","",""
"324","337393","pSARL_v2","pSARL_v2re3px14k","63cee7f1f8ef24eb79c80270","freq","img/orange_2bandit_b2.png","70","70","test","1","192","192","9","",""
"null","337880","pSARL_v2","pSARL_v2re3px14k","63cee7f1f8ef24eb79c80270","freq_resp","img/orange_2bandit_b.png","70","70","test","","","","9","",""
"null","338039","pSARL_v2","pSARL_v2re3px14k","63cee7f1f8ef24eb79c80270","fixation","img/fixation.png","null","","test","","","","","",""
"335","338381","pSARL_v2","pSARL_v2re3px14k","63cee7f1f8ef24eb79c80270","freq","img/orange_2bandit_b2.png","70","70","test","1","193","193","9","",""
"null","338859","pSARL_v2","pSARL_v2re3px14k","63cee7f1f8ef24eb79c80270","freq_resp","img/orange_2bandit_b.png","70","70","test","","","","9","",""
"null","339019","pSARL_v2","pSARL_v2re3px14k","63cee7f1f8ef24eb79c80270","fixation","img/fixation.png","null","","test","","","","","",""
"502.0000000000582","339530","pSARL_v2","pSARL_v2re3px14k","63cee7f1f8ef24eb79c80270","infreq","img/green_2bandit_b2.png","68","68","test","1","194","194","9","",""
"null","339835","pSARL_v2","pSARL_v2re3px14k","63cee7f1f8ef24eb79c80270","infreq_resp","img/green_2bandit_b.png","68","68","test","","","","9","",""
"null","339997","pSARL_v2","pSARL_v2re3px14k","63cee7f1f8ef24eb79c80270","fixation","img/fixation.png","null","","test","","","","","",""
"459","340464","pSARL_v2","pSARL_v2re3px14k","63cee7f1f8ef24eb79c80270","infreq","img/green_2bandit_b2.png","68","68","test","1","195","195","9","",""
"null","340814","pSARL_v2","pSARL_v2re3px14k","63cee7f1f8ef24eb79c80270","infreq_resp","img/green_2bandit_b.png","68","68","test","","","","9","",""
"null","340973","pSARL_v2","pSARL_v2re3px14k","63cee7f1f8ef24eb79c80270","fixation","img/fixation.png","null","","test","","","","","",""
"493","341474","pSARL_v2","pSARL_v2re3px14k","63cee7f1f8ef24eb79c80270","freq","img/orange_2bandit_b2.png","70","70","test","1","196","196","9","",""
"null","341792","pSARL_v2","pSARL_v2re3px14k","63cee7f1f8ef24eb79c80270","freq_resp","img/orange_2bandit_b.png","70","70","test","","","","9","",""
"null","341952","pSARL_v2","pSARL_v2re3px14k","63cee7f1f8ef24eb79c80270","fixation","img/fixation.png","null","","test","","","","","",""
"437","342395","pSARL_v2","pSARL_v2re3px14k","63cee7f1f8ef24eb79c80270","freq","img/orange_2bandit_b2.png","70","70","test","1","197","197","9","",""
"null","342769","pSARL_v2","pSARL_v2re3px14k","63cee7f1f8ef24eb79c80270","freq_resp","img/orange_2bandit_b.png","70","70","test","","","","9","",""
"null","342930","pSARL_v2","pSARL_v2re3px14k","63cee7f1f8ef24eb79c80270","fixation","img/fixation.png","null","","test","","","","","",""
"314","343250","pSARL_v2","pSARL_v2re3px14k","63cee7f1f8ef24eb79c80270","freq","img/orange_2bandit_b2.png","70","70","test","1","198","198","9","",""
"null","343748","pSARL_v2","pSARL_v2re3px14k","63cee7f1f8ef24eb79c80270","freq_resp","img/orange_2bandit_b.png","70","70","test","","","","9","",""
"null","343908","pSARL_v2","pSARL_v2re3px14k","63cee7f1f8ef24eb79c80270","fixation","img/fixation.png","null","","test","","","","","",""
"335.9999999999418","344253","pSARL_v2","pSARL_v2re3px14k","63cee7f1f8ef24eb79c80270","freq","img/orange_2bandit_b2.png","70","70","test","1","199","199","9","",""
"null","344729","pSARL_v2","pSARL_v2re3px14k","63cee7f1f8ef24eb79c80270","freq_resp","img/orange_2bandit_b.png","70","70","test","","","","9","",""
"null","344886","pSARL_v2","pSARL_v2re3px14k","63cee7f1f8ef24eb79c80270","fixation","img/fixation.png","null","","test","","","","","",""
"341","345236","pSARL_v2","pSARL_v2re3px14k","63cee7f1f8ef24eb79c80270","freq","img/orange_2bandit_b2.png","70","70","test","1","200","200","9","",""
"null","345704","pSARL_v2","pSARL_v2re3px14k","63cee7f1f8ef24eb79c80270","freq_resp","img/orange_2bandit_b.png","70","70","test","","","","9","",""
"null","345866","pSARL_v2","pSARL_v2re3px14k","63cee7f1f8ef24eb79c80270","fixation","img/fixation.png","null","","test","","","","","",""
"359","346232","pSARL_v2","pSARL_v2re3px14k","63cee7f1f8ef24eb79c80270","freq","img/orange_2bandit_b2.png","70","70","test","1","201","201","9","",""
"null","346681","pSARL_v2","pSARL_v2re3px14k","63cee7f1f8ef24eb79c80270","freq_resp","img/orange_2bandit_b.png","70","70","test","","","","9","",""
"null","346841","pSARL_v2","pSARL_v2re3px14k","63cee7f1f8ef24eb79c80270","fixation","img/fixation.png","null","","test","","","","","",""
"434","347283","pSARL_v2","pSARL_v2re3px14k","63cee7f1f8ef24eb79c80270","freq","img/orange_2bandit_b2.png","70","70","test","1","202","202","9","",""
"null","347659","pSARL_v2","pSARL_v2re3px14k","63cee7f1f8ef24eb79c80270","freq_resp","img/orange_2bandit_b.png","70","70","test","","","","9","",""
"null","347819","pSARL_v2","pSARL_v2re3px14k","63cee7f1f8ef24eb79c80270","fixation","img/fixation.png","null","","test","","","","","",""
"436.9999999999418","348266","pSARL_v2","pSARL_v2re3px14k","63cee7f1f8ef24eb79c80270","freq","img/orange_2bandit_b2.png","70","70","test","1","203","203","9","",""
"null","348642","pSARL_v2","pSARL_v2re3px14k","63cee7f1f8ef24eb79c80270","freq_resp","img/orange_2bandit_b.png","70","70","test","","","","9","",""
"null","348801","pSARL_v2","pSARL_v2re3px14k","63cee7f1f8ef24eb79c80270","fixation","img/fixation.png","null","","test","","","","","",""
"408","349220","pSARL_v2","pSARL_v2re3px14k","63cee7f1f8ef24eb79c80270","freq","img/orange_2bandit_b2.png","70","70","test","1","204","204","9","",""
"null","349621","pSARL_v2","pSARL_v2re3px14k","63cee7f1f8ef24eb79c80270","freq_resp","img/orange_2bandit_b.png","70","70","test","","","","9","",""
"null","349780","pSARL_v2","pSARL_v2re3px14k","63cee7f1f8ef24eb79c80270","fixation","img/fixation.png","null","","test","","","","","",""
"408","350198","pSARL_v2","pSARL_v2re3px14k","63cee7f1f8ef24eb79c80270","freq","img/orange_2bandit_b2.png","70","70","test","1","205","205","9","",""
"null","350605","pSARL_v2","pSARL_v2re3px14k","63cee7f1f8ef24eb79c80270","freq_resp","img/orange_2bandit_b.png","70","70","test","","","","9","",""
"null","350766","pSARL_v2","pSARL_v2re3px14k","63cee7f1f8ef24eb79c80270","fixation","img/fixation.png","null","","test","","","","","",""
"440","351214","pSARL_v2","pSARL_v2re3px14k","63cee7f1f8ef24eb79c80270","freq","img/orange_2bandit_b2.png","70","70","test","1","206","206","9","",""
"null","351583","pSARL_v2","pSARL_v2re3px14k","63cee7f1f8ef24eb79c80270","freq_resp","img/orange_2bandit_b.png","70","70","test","","","","9","",""
"null","351740","pSARL_v2","pSARL_v2re3px14k","63cee7f1f8ef24eb79c80270","fixation","img/fixation.png","null","","test","","","","","",""
"393","352142","pSARL_v2","pSARL_v2re3px14k","63cee7f1f8ef24eb79c80270","freq","img/orange_2bandit_b2.png","70","70","test","1","207","207","9","",""
"null","352562","pSARL_v2","pSARL_v2re3px14k","63cee7f1f8ef24eb79c80270","freq_resp","img/orange_2bandit_b.png","70","70","test","","","","9","",""
"null","352721","pSARL_v2","pSARL_v2re3px14k","63cee7f1f8ef24eb79c80270","fixation","img/fixation.png","null","","test","","","","","",""
"466","353196","pSARL_v2","pSARL_v2re3px14k","63cee7f1f8ef24eb79c80270","freq","img/orange_2bandit_b2.png","70","70","test","1","208","208","9","",""
"null","353541","pSARL_v2","pSARL_v2re3px14k","63cee7f1f8ef24eb79c80270","freq_resp","img/orange_2bandit_b.png","70","70","test","","","","9","",""
"null","353702","pSARL_v2","pSARL_v2re3px14k","63cee7f1f8ef24eb79c80270","fixation","img/fixation.png","null","","test","","","","","",""
"462","354172","pSARL_v2","pSARL_v2re3px14k","63cee7f1f8ef24eb79c80270","freq","img/orange_2bandit_b2.png","70","70","test","1","209","209","9","",""
"null","354520","pSARL_v2","pSARL_v2re3px14k","63cee7f1f8ef24eb79c80270","freq_resp","img/orange_2bandit_b.png","70","70","test","","","","9","",""
"null","354680","pSARL_v2","pSARL_v2re3px14k","63cee7f1f8ef24eb79c80270","fixation","img/fixation.png","null","","test","","","","","",""
"391","355080","pSARL_v2","pSARL_v2re3px14k","63cee7f1f8ef24eb79c80270","freq","img/orange_2bandit_b2.png","70","70","test","1","210","210","9","",""
"null","355502","pSARL_v2","pSARL_v2re3px14k","63cee7f1f8ef24eb79c80270","freq_resp","img/orange_2bandit_b.png","70","70","test","","","","9","",""
