"rt","time_elapsed","expId","subject","prolificID","trialType","stimulus","key_press","corrresp","phase","corr","trialNum","attentionRunNum","blockNum","points","rlNum"
"27712.70000000298","27717","pSARL_v2","pSARL_v2v643vty6","611f18c8da4156d7a97fa019","","","","","","","","","","",""
"","31123","pSARL_v2","pSARL_v2v643vty6","611f18c8da4156d7a97fa019","fullscreen","","","","","","","","","",""
"145842","176970","pSARL_v2","pSARL_v2v643vty6","611f18c8da4156d7a97fa019","","","","","","","","","","",""
"474","177448","pSARL_v2","pSARL_v2v643vty6","611f18c8da4156d7a97fa019","freqPrac","img/orange_2bandit_b2.png","70","70","prac","1","","","","",""
"474","177787","pSARL_v2","pSARL_v2v643vty6","611f18c8da4156d7a97fa019","freqPrac_resp","img/orange_2bandit_b.png","70","70","prac","","","","","",""
"null","177944","pSARL_v2","pSARL_v2v643vty6","611f18c8da4156d7a97fa019","fixation","img/fixation.png","null","","prac","","","","","",""
"467.5","178415","pSARL_v2","pSARL_v2v643vty6","611f18c8da4156d7a97fa019","infreqPrac","img/green_2bandit_b2.png","68","68","prac","1","","","","",""
"467.5","178759","pSARL_v2","pSARL_v2v643vty6","611f18c8da4156d7a97fa019","infreqPrac_resp","img/green_2bandit_b.png","68","68","prac","","","","","",""
"null","178915","pSARL_v2","pSARL_v2v643vty6","611f18c8da4156d7a97fa019","fixation","img/fixation.png","null","","prac","","","","","",""
"400.79999999701977","179319","pSARL_v2","pSARL_v2v643vty6","611f18c8da4156d7a97fa019","freqPrac","img/orange_2bandit_b2.png","70","70","prac","1","","","","",""
"400.79999999701977","179731","pSARL_v2","pSARL_v2v643vty6","611f18c8da4156d7a97fa019","freqPrac_resp","img/orange_2bandit_b.png","70","70","prac","","","","","",""
"null","179886","pSARL_v2","pSARL_v2v643vty6","611f18c8da4156d7a97fa019","fixation","img/fixation.png","null","","prac","","","","","",""
"422.6000000089407","180312","pSARL_v2","pSARL_v2v643vty6","611f18c8da4156d7a97fa019","infreqPrac","img/green_2bandit_b2.png","68","68","prac","1","","","","",""
"422.6000000089407","180697","pSARL_v2","pSARL_v2v643vty6","611f18c8da4156d7a97fa019","infreqPrac_resp","img/green_2bandit_b.png","68","68","prac","","","","","",""
"null","180854","pSARL_v2","pSARL_v2v643vty6","611f18c8da4156d7a97fa019","fixation","img/fixation.png","null","","prac","","","","","",""
"494.19999998807907","181352","pSARL_v2","pSARL_v2v643vty6","611f18c8da4156d7a97fa019","infreqPrac","img/green_2bandit_b2.png","68","68","prac","1","","","","",""
"494.19999998807907","181669","pSARL_v2","pSARL_v2v643vty6","611f18c8da4156d7a97fa019","infreqPrac_resp","img/green_2bandit_b.png","68","68","prac","","","","","",""
"null","181826","pSARL_v2","pSARL_v2v643vty6","611f18c8da4156d7a97fa019","fixation","img/fixation.png","null","","prac","","","","","",""
"394.8999999910593","182224","pSARL_v2","pSARL_v2v643vty6","611f18c8da4156d7a97fa019","infreqPrac","img/green_2bandit_b2.png","68","68","prac","1","","","","",""
"394.8999999910593","182644","pSARL_v2","pSARL_v2v643vty6","611f18c8da4156d7a97fa019","infreqPrac_resp","img/green_2bandit_b.png","68","68","prac","","","","","",""
"null","182800","pSARL_v2","pSARL_v2v643vty6","611f18c8da4156d7a97fa019","fixation","img/fixation.png","null","","prac","","","","","",""
"428.79999999701977","183232","pSARL_v2","pSARL_v2v643vty6","611f18c8da4156d7a97fa019","freqPrac","img/orange_2bandit_b2.png","70","70","prac","1","","","","",""
"428.79999999701977","183618","pSARL_v2","pSARL_v2v643vty6","611f18c8da4156d7a97fa019","freqPrac_resp","img/orange_2bandit_b.png","70","70","prac","","","","","",""
"null","183776","pSARL_v2","pSARL_v2v643vty6","611f18c8da4156d7a97fa019","fixation","img/fixation.png","null","","prac","","","","","",""
"476.6000000089407","184255","pSARL_v2","pSARL_v2v643vty6","611f18c8da4156d7a97fa019","infreqPrac","img/green_2bandit_b2.png","68","68","prac","1","","","","",""
"476.6000000089407","184588","pSARL_v2","pSARL_v2v643vty6","611f18c8da4156d7a97fa019","infreqPrac_resp","img/green_2bandit_b.png","68","68","prac","","","","","",""
"null","184745","pSARL_v2","pSARL_v2v643vty6","611f18c8da4156d7a97fa019","fixation","img/fixation.png","null","","prac","","","","","",""
"739.2000000029802","185488","pSARL_v2","pSARL_v2v643vty6","611f18c8da4156d7a97fa019","freqPrac","img/orange_2bandit_b2.png","68","70","prac","0","","","","",""
"739.2000000029802","185560","pSARL_v2","pSARL_v2v643vty6","611f18c8da4156d7a97fa019","freqPrac_resp","img/orange_2bandit_b.png","68","70","prac","","","","","",""
"null","186577","pSARL_v2","pSARL_v2v643vty6","611f18c8da4156d7a97fa019","feedback","img/wrongKey.png","null","na","prac","","","","","",""
"null","186735","pSARL_v2","pSARL_v2v643vty6","611f18c8da4156d7a97fa019","fixation","img/fixation.png","null","","prac","","","","","",""
"758.7000000029802","187497","pSARL_v2","pSARL_v2v643vty6","611f18c8da4156d7a97fa019","freqPrac","img/orange_2bandit_b2.png","70","70","prac","1","","","","",""
"758.7000000029802","187551","pSARL_v2","pSARL_v2v643vty6","611f18c8da4156d7a97fa019","freqPrac_resp","img/orange_2bandit_b.png","70","70","prac","","","","","",""
"null","187706","pSARL_v2","pSARL_v2v643vty6","611f18c8da4156d7a97fa019","fixation","img/fixation.png","null","","prac","","","","","",""
"37722.40000000596","225431","pSARL_v2","pSARL_v2v643vty6","611f18c8da4156d7a97fa019","","","","","prac","","","","","",""
"621","226055","pSARL_v2","pSARL_v2v643vty6","611f18c8da4156d7a97fa019","rewardPractice","img/slot.png","74","","prac","","","","","",""
"null","226815","pSARL_v2","pSARL_v2v643vty6","611f18c8da4156d7a97fa019","feedback","<div class=""veryhighPoints""> +15 </div>","null","na","prac","","","","","",""
"null","226972","pSARL_v2","pSARL_v2v643vty6","611f18c8da4156d7a97fa019","fixation","img/fixation.png","null","","prac","","","","","",""
"17008.80000001192","243983","pSARL_v2","pSARL_v2v643vty6","611f18c8da4156d7a97fa019","","","","","prac","","","","","",""
"null","244790","pSARL_v2","pSARL_v2v643vty6","611f18c8da4156d7a97fa019","freq","img/orange_2bandit_b2.png","null","70","test","0","1","1","1","",""
"null","244948","pSARL_v2","pSARL_v2v643vty6","611f18c8da4156d7a97fa019","fixation","img/fixation.png","null","","test","","","","","",""
"200.09999999403954","245151","pSARL_v2","pSARL_v2v643vty6","611f18c8da4156d7a97fa019","freq","img/orange_2bandit_b2.png","70","70","test","1","2","2","1","",""
"null","245764","pSARL_v2","pSARL_v2v643vty6","611f18c8da4156d7a97fa019","freq_resp","img/orange_2bandit_b.png","70","70","test","","","","1","",""
"null","245921","pSARL_v2","pSARL_v2v643vty6","611f18c8da4156d7a97fa019","fixation","img/fixation.png","null","","test","","","","","",""
"371.20000000298023","246295","pSARL_v2","pSARL_v2v643vty6","611f18c8da4156d7a97fa019","freq","img/orange_2bandit_b2.png","70","70","test","1","3","3","1","",""
"null","246737","pSARL_v2","pSARL_v2v643vty6","611f18c8da4156d7a97fa019","freq_resp","img/orange_2bandit_b.png","70","70","test","","","","1","",""
"null","246893","pSARL_v2","pSARL_v2v643vty6","611f18c8da4156d7a97fa019","fixation","img/fixation.png","null","","test","","","","","",""
"366.70000000298023","247263","pSARL_v2","pSARL_v2v643vty6","611f18c8da4156d7a97fa019","infreq","img/green_2bandit_b2.png","68","68","test","1","4","4","1","",""
"null","247705","pSARL_v2","pSARL_v2v643vty6","611f18c8da4156d7a97fa019","infreq_resp","img/green_2bandit_b.png","68","68","test","","","","1","",""
"null","247860","pSARL_v2","pSARL_v2v643vty6","611f18c8da4156d7a97fa019","fixation","img/fixation.png","null","","test","","","","","",""
"343.70000000298023","248207","pSARL_v2","pSARL_v2v643vty6","611f18c8da4156d7a97fa019","freq","img/orange_2bandit_b2.png","70","70","test","1","5","5","1","",""
"null","248670","pSARL_v2","pSARL_v2v643vty6","611f18c8da4156d7a97fa019","freq_resp","img/orange_2bandit_b.png","70","70","test","","","","1","",""
"null","248827","pSARL_v2","pSARL_v2v643vty6","611f18c8da4156d7a97fa019","fixation","img/fixation.png","null","","test","","","","","",""
"384","249214","pSARL_v2","pSARL_v2v643vty6","611f18c8da4156d7a97fa019","infreq","img/green_2bandit_b2.png","68","68","test","1","6","6","1","",""
"null","249639","pSARL_v2","pSARL_v2v643vty6","611f18c8da4156d7a97fa019","infreq_resp","img/green_2bandit_b.png","68","68","test","","","","1","",""
"null","249795","pSARL_v2","pSARL_v2v643vty6","611f18c8da4156d7a97fa019","fixation","img/fixation.png","null","","test","","","","","",""
"369","250167","pSARL_v2","pSARL_v2v643vty6","611f18c8da4156d7a97fa019","freq","img/orange_2bandit_b2.png","70","70","test","1","7","7","1","",""
"null","250611","pSARL_v2","pSARL_v2v643vty6","611f18c8da4156d7a97fa019","freq_resp","img/orange_2bandit_b.png","70","70","test","","","","1","",""
"null","250768","pSARL_v2","pSARL_v2v643vty6","611f18c8da4156d7a97fa019","fixation","img/fixation.png","null","","test","","","","","",""
"419.69999998807907","251191","pSARL_v2","pSARL_v2v643vty6","611f18c8da4156d7a97fa019","freq","img/orange_2bandit_b2.png","70","70","test","1","8","8","1","",""
"null","251583","pSARL_v2","pSARL_v2v643vty6","611f18c8da4156d7a97fa019","freq_resp","img/orange_2bandit_b.png","70","70","test","","","","1","",""
"null","251740","pSARL_v2","pSARL_v2v643vty6","611f18c8da4156d7a97fa019","fixation","img/fixation.png","null","","test","","","","","",""
"351.40000000596046","252095","pSARL_v2","pSARL_v2v643vty6","611f18c8da4156d7a97fa019","freq","img/orange_2bandit_b2.png","70","70","test","1","9","9","1","",""
"null","252553","pSARL_v2","pSARL_v2v643vty6","611f18c8da4156d7a97fa019","freq_resp","img/orange_2bandit_b.png","70","70","test","","","","1","",""
"null","252709","pSARL_v2","pSARL_v2v643vty6","611f18c8da4156d7a97fa019","fixation","img/fixation.png","null","","test","","","","","",""
"390.09999999403954","253103","pSARL_v2","pSARL_v2v643vty6","611f18c8da4156d7a97fa019","freq","img/orange_2bandit_b2.png","70","70","test","1","10","10","1","",""
"null","253528","pSARL_v2","pSARL_v2v643vty6","611f18c8da4156d7a97fa019","freq_resp","img/orange_2bandit_b.png","70","70","test","","","","1","",""
"null","253683","pSARL_v2","pSARL_v2v643vty6","611f18c8da4156d7a97fa019","fixation","img/fixation.png","null","","test","","","","","",""
"329.29999999701977","254015","pSARL_v2","pSARL_v2v643vty6","611f18c8da4156d7a97fa019","freq","img/orange_2bandit_b2.png","70","70","test","1","11","11","1","",""
"null","254497","pSARL_v2","pSARL_v2v643vty6","611f18c8da4156d7a97fa019","freq_resp","img/orange_2bandit_b.png","70","70","test","","","","1","",""
"null","254654","pSARL_v2","pSARL_v2v643vty6","611f18c8da4156d7a97fa019","fixation","img/fixation.png","null","","test","","","","","",""
"301.40000000596046","254959","pSARL_v2","pSARL_v2v643vty6","611f18c8da4156d7a97fa019","freq","img/orange_2bandit_b2.png","70","70","test","1","12","12","1","",""
"null","255471","pSARL_v2","pSARL_v2v643vty6","611f18c8da4156d7a97fa019","freq_resp","img/orange_2bandit_b.png","70","70","test","","","","1","",""
"null","255626","pSARL_v2","pSARL_v2v643vty6","611f18c8da4156d7a97fa019","fixation","img/fixation.png","null","","test","","","","","",""
"313.29999999701977","255943","pSARL_v2","pSARL_v2v643vty6","611f18c8da4156d7a97fa019","freq","img/orange_2bandit_b2.png","70","70","test","1","13","13","1","",""
"null","256440","pSARL_v2","pSARL_v2v643vty6","611f18c8da4156d7a97fa019","freq_resp","img/orange_2bandit_b.png","70","70","test","","","","1","",""
"null","256594","pSARL_v2","pSARL_v2v643vty6","611f18c8da4156d7a97fa019","fixation","img/fixation.png","null","","test","","","","","",""
"193.79999999701977","256791","pSARL_v2","pSARL_v2v643vty6","611f18c8da4156d7a97fa019","freq","img/orange_2bandit_b2.png","70","70","test","1","14","14","1","",""
"null","257410","pSARL_v2","pSARL_v2v643vty6","611f18c8da4156d7a97fa019","freq_resp","img/orange_2bandit_b.png","70","70","test","","","","1","",""
"null","257567","pSARL_v2","pSARL_v2v643vty6","611f18c8da4156d7a97fa019","fixation","img/fixation.png","null","","test","","","","","",""
"293.09999999403954","257863","pSARL_v2","pSARL_v2v643vty6","611f18c8da4156d7a97fa019","freq","img/orange_2bandit_b2.png","70","70","test","1","15","15","1","",""
"null","258380","pSARL_v2","pSARL_v2v643vty6","611f18c8da4156d7a97fa019","freq_resp","img/orange_2bandit_b.png","70","70","test","","","","1","",""
"null","258536","pSARL_v2","pSARL_v2v643vty6","611f18c8da4156d7a97fa019","fixation","img/fixation.png","null","","test","","","","","",""
"187.40000000596046","258727","pSARL_v2","pSARL_v2v643vty6","611f18c8da4156d7a97fa019","freq","img/orange_2bandit_b2.png","70","70","test","1","16","16","1","",""
"null","259356","pSARL_v2","pSARL_v2v643vty6","611f18c8da4156d7a97fa019","freq_resp","img/orange_2bandit_b.png","70","70","test","","","","1","",""
"null","259512","pSARL_v2","pSARL_v2v643vty6","611f18c8da4156d7a97fa019","fixation","img/fixation.png","null","","test","","","","","",""
"275.8999999910593","259791","pSARL_v2","pSARL_v2v643vty6","611f18c8da4156d7a97fa019","freq","img/orange_2bandit_b2.png","70","70","test","1","17","17","1","",""
"null","260323","pSARL_v2","pSARL_v2v643vty6","611f18c8da4156d7a97fa019","freq_resp","img/orange_2bandit_b.png","70","70","test","","","","1","",""
"null","260479","pSARL_v2","pSARL_v2v643vty6","611f18c8da4156d7a97fa019","fixation","img/fixation.png","null","","test","","","","","",""
"276.29999999701977","260759","pSARL_v2","pSARL_v2v643vty6","611f18c8da4156d7a97fa019","freq","img/orange_2bandit_b2.png","70","70","test","1","18","18","1","",""
"null","261293","pSARL_v2","pSARL_v2v643vty6","611f18c8da4156d7a97fa019","freq_resp","img/orange_2bandit_b.png","70","70","test","","","","1","",""
"null","261450","pSARL_v2","pSARL_v2v643vty6","611f18c8da4156d7a97fa019","fixation","img/fixation.png","null","","test","","","","","",""
"273.40000000596046","261727","pSARL_v2","pSARL_v2v643vty6","611f18c8da4156d7a97fa019","freq","img/orange_2bandit_b2.png","70","70","test","1","19","19","1","",""
"null","262263","pSARL_v2","pSARL_v2v643vty6","611f18c8da4156d7a97fa019","freq_resp","img/orange_2bandit_b.png","70","70","test","","","","1","",""
"null","262421","pSARL_v2","pSARL_v2v643vty6","611f18c8da4156d7a97fa019","fixation","img/fixation.png","null","","test","","","","","",""
"110.09999999403954","262535","pSARL_v2","pSARL_v2v643vty6","611f18c8da4156d7a97fa019","freq","img/orange_2bandit_b2.png","70","70","test","1","20","20","1","",""
"null","263237","pSARL_v2","pSARL_v2v643vty6","611f18c8da4156d7a97fa019","freq_resp","img/orange_2bandit_b.png","70","70","test","","","","1","",""
"null","263393","pSARL_v2","pSARL_v2v643vty6","611f18c8da4156d7a97fa019","fixation","img/fixation.png","null","","test","","","","","",""
"586.7999999970198","263983","pSARL_v2","pSARL_v2v643vty6","611f18c8da4156d7a97fa019","reward","img/slot.png","74","","test","","","","","",""
"null","264742","pSARL_v2","pSARL_v2v643vty6","611f18c8da4156d7a97fa019","points","<div class=""verylowPoints""> -6 </div>","null","na","test","","","","1","-6","0"
"606.5999999940395","265352","pSARL_v2","pSARL_v2v643vty6","611f18c8da4156d7a97fa019","freq","img/orange_2bandit_b2.png","70","70","test","1","21","21","2","",""
"null","265552","pSARL_v2","pSARL_v2v643vty6","611f18c8da4156d7a97fa019","freq_resp","img/orange_2bandit_b.png","70","70","test","","","","2","",""
"null","265708","pSARL_v2","pSARL_v2v643vty6","611f18c8da4156d7a97fa019","fixation","img/fixation.png","null","","test","","","","","",""
"368.29999999701977","266079","pSARL_v2","pSARL_v2v643vty6","611f18c8da4156d7a97fa019","freq","img/orange_2bandit_b2.png","70","70","test","1","22","22","2","",""
"null","266523","pSARL_v2","pSARL_v2v643vty6","611f18c8da4156d7a97fa019","freq_resp","img/orange_2bandit_b.png","70","70","test","","","","2","",""
"null","266680","pSARL_v2","pSARL_v2v643vty6","611f18c8da4156d7a97fa019","fixation","img/fixation.png","null","","test","","","","","",""
"339.40000000596046","267023","pSARL_v2","pSARL_v2v643vty6","611f18c8da4156d7a97fa019","freq","img/orange_2bandit_b2.png","70","70","test","1","23","23","2","",""
"null","267494","pSARL_v2","pSARL_v2v643vty6","611f18c8da4156d7a97fa019","freq_resp","img/orange_2bandit_b.png","70","70","test","","","","2","",""
"null","267650","pSARL_v2","pSARL_v2v643vty6","611f18c8da4156d7a97fa019","fixation","img/fixation.png","null","","test","","","","","",""
"282.29999999701977","267936","pSARL_v2","pSARL_v2v643vty6","611f18c8da4156d7a97fa019","freq","img/orange_2bandit_b2.png","70","70","test","1","24","24","2","",""
"null","268465","pSARL_v2","pSARL_v2v643vty6","611f18c8da4156d7a97fa019","freq_resp","img/orange_2bandit_b.png","70","70","test","","","","2","",""
"null","268621","pSARL_v2","pSARL_v2v643vty6","611f18c8da4156d7a97fa019","fixation","img/fixation.png","null","","test","","","","","",""
"334.30000001192093","268959","pSARL_v2","pSARL_v2v643vty6","611f18c8da4156d7a97fa019","freq","img/orange_2bandit_b2.png","70","70","test","1","25","25","2","",""
"null","269434","pSARL_v2","pSARL_v2v643vty6","611f18c8da4156d7a97fa019","freq_resp","img/orange_2bandit_b.png","70","70","test","","","","2","",""
"null","269591","pSARL_v2","pSARL_v2v643vty6","611f18c8da4156d7a97fa019","fixation","img/fixation.png","null","","test","","","","","",""
"333.5","269927","pSARL_v2","pSARL_v2v643vty6","611f18c8da4156d7a97fa019","freq","img/orange_2bandit_b2.png","70","70","test","1","26","26","2","",""
"null","270406","pSARL_v2","pSARL_v2v643vty6","611f18c8da4156d7a97fa019","freq_resp","img/orange_2bandit_b.png","70","70","test","","","","2","",""
"null","270562","pSARL_v2","pSARL_v2v643vty6","611f18c8da4156d7a97fa019","fixation","img/fixation.png","null","","test","","","","","",""
"289.5","270855","pSARL_v2","pSARL_v2v643vty6","611f18c8da4156d7a97fa019","freq","img/orange_2bandit_b2.png","70","70","test","1","27","27","2","",""
"null","271375","pSARL_v2","pSARL_v2v643vty6","611f18c8da4156d7a97fa019","freq_resp","img/orange_2bandit_b.png","70","70","test","","","","2","",""
"null","271530","pSARL_v2","pSARL_v2v643vty6","611f18c8da4156d7a97fa019","fixation","img/fixation.png","null","","test","","","","","",""
"145.59999999403954","271678","pSARL_v2","pSARL_v2v643vty6","611f18c8da4156d7a97fa019","freq","img/orange_2bandit_b2.png","70","70","test","1","28","28","2","",""
"null","272342","pSARL_v2","pSARL_v2v643vty6","611f18c8da4156d7a97fa019","freq_resp","img/orange_2bandit_b.png","70","70","test","","","","2","",""
"null","272500","pSARL_v2","pSARL_v2v643vty6","611f18c8da4156d7a97fa019","fixation","img/fixation.png","null","","test","","","","","",""
"79","272582","pSARL_v2","pSARL_v2v643vty6","611f18c8da4156d7a97fa019","freq","img/orange_2bandit_b2.png","70","70","test","1","29","29","2","",""
"null","273317","pSARL_v2","pSARL_v2v643vty6","611f18c8da4156d7a97fa019","freq_resp","img/orange_2bandit_b.png","70","70","test","","","","2","",""
"null","273475","pSARL_v2","pSARL_v2v643vty6","611f18c8da4156d7a97fa019","fixation","img/fixation.png","null","","test","","","","","",""
"152.70000000298023","273631","pSARL_v2","pSARL_v2v643vty6","611f18c8da4156d7a97fa019","freq","img/orange_2bandit_b2.png","70","70","test","1","30","30","2","",""
"null","274294","pSARL_v2","pSARL_v2v643vty6","611f18c8da4156d7a97fa019","freq_resp","img/orange_2bandit_b.png","70","70","test","","","","2","",""
"null","274451","pSARL_v2","pSARL_v2v643vty6","611f18c8da4156d7a97fa019","fixation","img/fixation.png","null","","test","","","","","",""
"144.90000000596046","274599","pSARL_v2","pSARL_v2v643vty6","611f18c8da4156d7a97fa019","infreq","img/green_2bandit_b2.png","70","68","test","0","31","31","2","",""
"null","275264","pSARL_v2","pSARL_v2v643vty6","611f18c8da4156d7a97fa019","infreq_resp","img/green_2bandit_b.png","70","68","test","","","","2","",""
"null","275422","pSARL_v2","pSARL_v2v643vty6","611f18c8da4156d7a97fa019","fixation","img/fixation.png","null","","test","","","","","",""
"445.79999999701977","275871","pSARL_v2","pSARL_v2v643vty6","611f18c8da4156d7a97fa019","freq","img/orange_2bandit_b2.png","70","70","test","1","32","32","2","",""
"null","276237","pSARL_v2","pSARL_v2v643vty6","611f18c8da4156d7a97fa019","freq_resp","img/orange_2bandit_b.png","70","70","test","","","","2","",""
"null","276393","pSARL_v2","pSARL_v2v643vty6","611f18c8da4156d7a97fa019","fixation","img/fixation.png","null","","test","","","","","",""
"417.70000000298023","276814","pSARL_v2","pSARL_v2v643vty6","611f18c8da4156d7a97fa019","freq","img/orange_2bandit_b2.png","70","70","test","1","33","33","2","",""
"null","277208","pSARL_v2","pSARL_v2v643vty6","611f18c8da4156d7a97fa019","freq_resp","img/orange_2bandit_b.png","70","70","test","","","","2","",""
"null","277364","pSARL_v2","pSARL_v2v643vty6","611f18c8da4156d7a97fa019","fixation","img/fixation.png","null","","test","","","","","",""
"311.20000000298023","277679","pSARL_v2","pSARL_v2v643vty6","611f18c8da4156d7a97fa019","freq","img/orange_2bandit_b2.png","70","70","test","1","34","34","2","",""
"null","278179","pSARL_v2","pSARL_v2v643vty6","611f18c8da4156d7a97fa019","freq_resp","img/orange_2bandit_b.png","70","70","test","","","","2","",""
"null","278335","pSARL_v2","pSARL_v2v643vty6","611f18c8da4156d7a97fa019","fixation","img/fixation.png","null","","test","","","","","",""
"412.29999999701977","278751","pSARL_v2","pSARL_v2v643vty6","611f18c8da4156d7a97fa019","freq","img/orange_2bandit_b2.png","70","70","test","1","35","35","2","",""
"null","279147","pSARL_v2","pSARL_v2v643vty6","611f18c8da4156d7a97fa019","freq_resp","img/orange_2bandit_b.png","70","70","test","","","","2","",""
"null","279304","pSARL_v2","pSARL_v2v643vty6","611f18c8da4156d7a97fa019","fixation","img/fixation.png","null","","test","","","","","",""
"323.79999999701977","279631","pSARL_v2","pSARL_v2v643vty6","611f18c8da4156d7a97fa019","freq","img/orange_2bandit_b2.png","70","70","test","1","36","36","2","",""
"null","280118","pSARL_v2","pSARL_v2v643vty6","611f18c8da4156d7a97fa019","freq_resp","img/orange_2bandit_b.png","70","70","test","","","","2","",""
"null","280275","pSARL_v2","pSARL_v2v643vty6","611f18c8da4156d7a97fa019","fixation","img/fixation.png","null","","test","","","","","",""
"280.29999999701977","280559","pSARL_v2","pSARL_v2v643vty6","611f18c8da4156d7a97fa019","freq","img/orange_2bandit_b2.png","70","70","test","1","37","37","2","",""
"null","281086","pSARL_v2","pSARL_v2v643vty6","611f18c8da4156d7a97fa019","freq_resp","img/orange_2bandit_b.png","70","70","test","","","","2","",""
"null","281243","pSARL_v2","pSARL_v2v643vty6","611f18c8da4156d7a97fa019","fixation","img/fixation.png","null","","test","","","","","",""
"279.09999999403954","281526","pSARL_v2","pSARL_v2v643vty6","611f18c8da4156d7a97fa019","freq","img/orange_2bandit_b2.png","70","70","test","1","38","38","2","",""
"null","282058","pSARL_v2","pSARL_v2v643vty6","611f18c8da4156d7a97fa019","freq_resp","img/orange_2bandit_b.png","70","70","test","","","","2","",""
"null","282215","pSARL_v2","pSARL_v2v643vty6","611f18c8da4156d7a97fa019","fixation","img/fixation.png","null","","test","","","","","",""
"316","282534","pSARL_v2","pSARL_v2v643vty6","611f18c8da4156d7a97fa019","freq","img/orange_2bandit_b2.png","70","70","test","1","39","39","2","",""
"null","283029","pSARL_v2","pSARL_v2v643vty6","611f18c8da4156d7a97fa019","freq_resp","img/orange_2bandit_b.png","70","70","test","","","","2","",""
"null","283187","pSARL_v2","pSARL_v2v643vty6","611f18c8da4156d7a97fa019","fixation","img/fixation.png","null","","test","","","","","",""
"312.79999999701977","283502","pSARL_v2","pSARL_v2v643vty6","611f18c8da4156d7a97fa019","freq","img/orange_2bandit_b2.png","70","70","test","1","40","40","2","",""
"null","284003","pSARL_v2","pSARL_v2v643vty6","611f18c8da4156d7a97fa019","freq_resp","img/orange_2bandit_b.png","70","70","test","","","","2","",""
"null","284160","pSARL_v2","pSARL_v2v643vty6","611f18c8da4156d7a97fa019","fixation","img/fixation.png","null","","test","","","","","",""
"null","284970","pSARL_v2","pSARL_v2v643vty6","611f18c8da4156d7a97fa019","infreq","img/green_2bandit_b2.png","null","68","test","0","41","41","2","",""
"null","285127","pSARL_v2","pSARL_v2v643vty6","611f18c8da4156d7a97fa019","fixation","img/fixation.png","null","","test","","","","","",""
"708.7999999970198","285839","pSARL_v2","pSARL_v2v643vty6","611f18c8da4156d7a97fa019","freq","img/orange_2bandit_b2.png","70","70","test","1","42","42","2","",""
"null","285939","pSARL_v2","pSARL_v2v643vty6","611f18c8da4156d7a97fa019","freq_resp","img/orange_2bandit_b.png","70","70","test","","","","2","",""
"null","286095","pSARL_v2","pSARL_v2v643vty6","611f18c8da4156d7a97fa019","fixation","img/fixation.png","null","","test","","","","","",""
"644.7999999970198","286742","pSARL_v2","pSARL_v2v643vty6","611f18c8da4156d7a97fa019","reward","img/slot.png","74","","test","","","","","",""
"null","287506","pSARL_v2","pSARL_v2v643vty6","611f18c8da4156d7a97fa019","points","<div class=""verylowPoints""> -11 </div>","null","na","test","","","","2","-11","1"
"505.79999999701977","288015","pSARL_v2","pSARL_v2v643vty6","611f18c8da4156d7a97fa019","freq","img/orange_2bandit_b2.png","70","70","test","1","43","43","3","",""
"null","288322","pSARL_v2","pSARL_v2v643vty6","611f18c8da4156d7a97fa019","freq_resp","img/orange_2bandit_b.png","70","70","test","","","","3","",""
"null","288479","pSARL_v2","pSARL_v2v643vty6","611f18c8da4156d7a97fa019","fixation","img/fixation.png","null","","test","","","","","",""
"396.40000000596046","288879","pSARL_v2","pSARL_v2v643vty6","611f18c8da4156d7a97fa019","freq","img/orange_2bandit_b2.png","70","70","test","1","44","44","3","",""
"null","289290","pSARL_v2","pSARL_v2v643vty6","611f18c8da4156d7a97fa019","freq_resp","img/orange_2bandit_b.png","70","70","test","","","","3","",""
"null","289447","pSARL_v2","pSARL_v2v643vty6","611f18c8da4156d7a97fa019","fixation","img/fixation.png","null","","test","","","","","",""
"356.29999999701977","289807","pSARL_v2","pSARL_v2v643vty6","611f18c8da4156d7a97fa019","freq","img/orange_2bandit_b2.png","70","70","test","1","45","45","3","",""
"null","290263","pSARL_v2","pSARL_v2v643vty6","611f18c8da4156d7a97fa019","freq_resp","img/orange_2bandit_b.png","70","70","test","","","","3","",""
"null","290420","pSARL_v2","pSARL_v2v643vty6","611f18c8da4156d7a97fa019","fixation","img/fixation.png","null","","test","","","","","",""
"327.79999999701977","290751","pSARL_v2","pSARL_v2v643vty6","611f18c8da4156d7a97fa019","freq","img/orange_2bandit_b2.png","70","70","test","1","46","46","3","",""
"null","291237","pSARL_v2","pSARL_v2v643vty6","611f18c8da4156d7a97fa019","freq_resp","img/orange_2bandit_b.png","70","70","test","","","","3","",""
"null","291395","pSARL_v2","pSARL_v2v643vty6","611f18c8da4156d7a97fa019","fixation","img/fixation.png","null","","test","","","","","",""
"305.29999999701977","291703","pSARL_v2","pSARL_v2v643vty6","611f18c8da4156d7a97fa019","freq","img/orange_2bandit_b2.png","70","70","test","1","47","47","3","",""
"null","292214","pSARL_v2","pSARL_v2v643vty6","611f18c8da4156d7a97fa019","freq_resp","img/orange_2bandit_b.png","70","70","test","","","","3","",""
"null","292370","pSARL_v2","pSARL_v2v643vty6","611f18c8da4156d7a97fa019","fixation","img/fixation.png","null","","test","","","","","",""
"312.40000000596046","292685","pSARL_v2","pSARL_v2v643vty6","611f18c8da4156d7a97fa019","freq","img/orange_2bandit_b2.png","70","70","test","1","48","48","3","",""
"null","293190","pSARL_v2","pSARL_v2v643vty6","611f18c8da4156d7a97fa019","freq_resp","img/orange_2bandit_b.png","70","70","test","","","","3","",""
"null","293347","pSARL_v2","pSARL_v2v643vty6","611f18c8da4156d7a97fa019","fixation","img/fixation.png","null","","test","","","","","",""
"408.6000000089407","293759","pSARL_v2","pSARL_v2v643vty6","611f18c8da4156d7a97fa019","infreq","img/green_2bandit_b2.png","68","68","test","1","49","49","3","",""
"null","294162","pSARL_v2","pSARL_v2v643vty6","611f18c8da4156d7a97fa019","infreq_resp","img/green_2bandit_b.png","68","68","test","","","","3","",""
"null","294320","pSARL_v2","pSARL_v2v643vty6","611f18c8da4156d7a97fa019","fixation","img/fixation.png","null","","test","","","","","",""
"339.8999999910593","294663","pSARL_v2","pSARL_v2v643vty6","611f18c8da4156d7a97fa019","freq","img/orange_2bandit_b2.png","70","70","test","1","50","50","3","",""
"null","295135","pSARL_v2","pSARL_v2v643vty6","611f18c8da4156d7a97fa019","freq_resp","img/orange_2bandit_b.png","70","70","test","","","","3","",""
"null","295294","pSARL_v2","pSARL_v2v643vty6","611f18c8da4156d7a97fa019","fixation","img/fixation.png","null","","test","","","","","",""
"292.70000000298023","295590","pSARL_v2","pSARL_v2v643vty6","611f18c8da4156d7a97fa019","freq","img/orange_2bandit_b2.png","70","70","test","1","51","51","3","",""
"null","296110","pSARL_v2","pSARL_v2v643vty6","611f18c8da4156d7a97fa019","freq_resp","img/orange_2bandit_b.png","70","70","test","","","","3","",""
"null","296268","pSARL_v2","pSARL_v2v643vty6","611f18c8da4156d7a97fa019","fixation","img/fixation.png","null","","test","","","","","",""
"343.90000000596046","296615","pSARL_v2","pSARL_v2v643vty6","611f18c8da4156d7a97fa019","freq","img/orange_2bandit_b2.png","70","70","test","1","52","52","3","",""
"null","297084","pSARL_v2","pSARL_v2v643vty6","611f18c8da4156d7a97fa019","freq_resp","img/orange_2bandit_b.png","70","70","test","","","","3","",""
"null","297241","pSARL_v2","pSARL_v2v643vty6","611f18c8da4156d7a97fa019","fixation","img/fixation.png","null","","test","","","","","",""
"273.8999999910593","297519","pSARL_v2","pSARL_v2v643vty6","611f18c8da4156d7a97fa019","freq","img/orange_2bandit_b2.png","70","70","test","1","53","53","3","",""
"null","298054","pSARL_v2","pSARL_v2v643vty6","611f18c8da4156d7a97fa019","freq_resp","img/orange_2bandit_b.png","70","70","test","","","","3","",""
"null","298212","pSARL_v2","pSARL_v2v643vty6","611f18c8da4156d7a97fa019","fixation","img/fixation.png","null","","test","","","","","",""
"254.70000000298023","298470","pSARL_v2","pSARL_v2v643vty6","611f18c8da4156d7a97fa019","freq","img/orange_2bandit_b2.png","70","70","test","1","54","54","3","",""
"null","299029","pSARL_v2","pSARL_v2v643vty6","611f18c8da4156d7a97fa019","freq_resp","img/orange_2bandit_b.png","70","70","test","","","","3","",""
"null","299185","pSARL_v2","pSARL_v2v643vty6","611f18c8da4156d7a97fa019","fixation","img/fixation.png","null","","test","","","","","",""
"467.40000000596046","299655","pSARL_v2","pSARL_v2v643vty6","611f18c8da4156d7a97fa019","infreq","img/green_2bandit_b2.png","68","68","test","1","55","55","3","",""
"null","300000","pSARL_v2","pSARL_v2v643vty6","611f18c8da4156d7a97fa019","infreq_resp","img/green_2bandit_b.png","68","68","test","","","","3","",""
"null","300158","pSARL_v2","pSARL_v2v643vty6","611f18c8da4156d7a97fa019","fixation","img/fixation.png","null","","test","","","","","",""
"460.20000000298023","300622","pSARL_v2","pSARL_v2v643vty6","611f18c8da4156d7a97fa019","freq","img/orange_2bandit_b2.png","70","70","test","1","56","56","3","",""
"null","300973","pSARL_v2","pSARL_v2v643vty6","611f18c8da4156d7a97fa019","freq_resp","img/orange_2bandit_b.png","70","70","test","","","","3","",""
"null","301130","pSARL_v2","pSARL_v2v643vty6","611f18c8da4156d7a97fa019","fixation","img/fixation.png","null","","test","","","","","",""
"313.59999999403954","301447","pSARL_v2","pSARL_v2v643vty6","611f18c8da4156d7a97fa019","freq","img/orange_2bandit_b2.png","70","70","test","1","57","57","3","",""
"null","301944","pSARL_v2","pSARL_v2v643vty6","611f18c8da4156d7a97fa019","freq_resp","img/orange_2bandit_b.png","70","70","test","","","","3","",""
"null","302100","pSARL_v2","pSARL_v2v643vty6","611f18c8da4156d7a97fa019","fixation","img/fixation.png","null","","test","","","","","",""
"311.40000000596046","302415","pSARL_v2","pSARL_v2v643vty6","611f18c8da4156d7a97fa019","freq","img/orange_2bandit_b2.png","70","70","test","1","58","58","3","",""
"null","302915","pSARL_v2","pSARL_v2v643vty6","611f18c8da4156d7a97fa019","freq_resp","img/orange_2bandit_b.png","70","70","test","","","","3","",""
"null","303073","pSARL_v2","pSARL_v2v643vty6","611f18c8da4156d7a97fa019","fixation","img/fixation.png","null","","test","","","","","",""
"267","303343","pSARL_v2","pSARL_v2v643vty6","611f18c8da4156d7a97fa019","freq","img/orange_2bandit_b2.png","70","70","test","1","59","59","3","",""
"null","303887","pSARL_v2","pSARL_v2v643vty6","611f18c8da4156d7a97fa019","freq_resp","img/orange_2bandit_b.png","70","70","test","","","","3","",""
"null","304044","pSARL_v2","pSARL_v2v643vty6","611f18c8da4156d7a97fa019","fixation","img/fixation.png","null","","test","","","","","",""
"239.5","304286","pSARL_v2","pSARL_v2v643vty6","611f18c8da4156d7a97fa019","freq","img/orange_2bandit_b2.png","70","70","test","1","60","60","3","",""
"null","304859","pSARL_v2","pSARL_v2v643vty6","611f18c8da4156d7a97fa019","freq_resp","img/orange_2bandit_b.png","70","70","test","","","","3","",""
"null","305015","pSARL_v2","pSARL_v2v643vty6","611f18c8da4156d7a97fa019","fixation","img/fixation.png","null","","test","","","","","",""
"340.79999999701977","305359","pSARL_v2","pSARL_v2v643vty6","611f18c8da4156d7a97fa019","freq","img/orange_2bandit_b2.png","70","70","test","1","61","61","3","",""
"null","305830","pSARL_v2","pSARL_v2v643vty6","611f18c8da4156d7a97fa019","freq_resp","img/orange_2bandit_b.png","70","70","test","","","","3","",""
"null","305986","pSARL_v2","pSARL_v2v643vty6","611f18c8da4156d7a97fa019","fixation","img/fixation.png","null","","test","","","","","",""
"313.19999998807907","306303","pSARL_v2","pSARL_v2v643vty6","611f18c8da4156d7a97fa019","freq","img/orange_2bandit_b2.png","70","70","test","1","62","62","3","",""
"null","306800","pSARL_v2","pSARL_v2v643vty6","611f18c8da4156d7a97fa019","freq_resp","img/orange_2bandit_b.png","70","70","test","","","","3","",""
"null","306957","pSARL_v2","pSARL_v2v643vty6","611f18c8da4156d7a97fa019","fixation","img/fixation.png","null","","test","","","","","",""
"334.5","307295","pSARL_v2","pSARL_v2v643vty6","611f18c8da4156d7a97fa019","freq","img/orange_2bandit_b2.png","70","70","test","1","63","63","3","",""
"null","307775","pSARL_v2","pSARL_v2v643vty6","611f18c8da4156d7a97fa019","freq_resp","img/orange_2bandit_b.png","70","70","test","","","","3","",""
"null","307933","pSARL_v2","pSARL_v2v643vty6","611f18c8da4156d7a97fa019","fixation","img/fixation.png","null","","test","","","","","",""
"278","308214","pSARL_v2","pSARL_v2v643vty6","611f18c8da4156d7a97fa019","freq","img/orange_2bandit_b2.png","70","70","test","1","64","64","3","",""
"null","308745","pSARL_v2","pSARL_v2v643vty6","611f18c8da4156d7a97fa019","freq_resp","img/orange_2bandit_b.png","70","70","test","","","","3","",""
"null","308902","pSARL_v2","pSARL_v2v643vty6","611f18c8da4156d7a97fa019","fixation","img/fixation.png","null","","test","","","","","",""
"502.70000000298023","309408","pSARL_v2","pSARL_v2v643vty6","611f18c8da4156d7a97fa019","reward","img/slot.png","74","","test","","","","","",""
"null","310170","pSARL_v2","pSARL_v2v643vty6","611f18c8da4156d7a97fa019","points","<div class=""verylowPoints""> -7 </div>","null","na","test","","","","3","-7","2"
"361.5","310535","pSARL_v2","pSARL_v2v643vty6","611f18c8da4156d7a97fa019","freq","img/orange_2bandit_b2.png","70","70","test","1","65","65","4","",""
"null","310982","pSARL_v2","pSARL_v2v643vty6","611f18c8da4156d7a97fa019","freq_resp","img/orange_2bandit_b.png","70","70","test","","","","4","",""
"null","311139","pSARL_v2","pSARL_v2v643vty6","611f18c8da4156d7a97fa019","fixation","img/fixation.png","null","","test","","","","","",""
"320.90000000596046","311463","pSARL_v2","pSARL_v2v643vty6","611f18c8da4156d7a97fa019","freq","img/orange_2bandit_b2.png","70","70","test","1","66","66","4","",""
"null","311957","pSARL_v2","pSARL_v2v643vty6","611f18c8da4156d7a97fa019","freq_resp","img/orange_2bandit_b.png","70","70","test","","","","4","",""
"null","312114","pSARL_v2","pSARL_v2v643vty6","611f18c8da4156d7a97fa019","fixation","img/fixation.png","null","","test","","","","","",""
"273.40000000596046","312390","pSARL_v2","pSARL_v2v643vty6","611f18c8da4156d7a97fa019","freq","img/orange_2bandit_b2.png","70","70","test","1","67","67","4","",""
"null","312929","pSARL_v2","pSARL_v2v643vty6","611f18c8da4156d7a97fa019","freq_resp","img/orange_2bandit_b.png","70","70","test","","","","4","",""
"null","313086","pSARL_v2","pSARL_v2v643vty6","611f18c8da4156d7a97fa019","fixation","img/fixation.png","null","","test","","","","","",""
"125.3999999910593","313215","pSARL_v2","pSARL_v2v643vty6","611f18c8da4156d7a97fa019","freq","img/orange_2bandit_b2.png","70","70","test","1","68","68","4","",""
"null","313900","pSARL_v2","pSARL_v2v643vty6","611f18c8da4156d7a97fa019","freq_resp","img/orange_2bandit_b.png","70","70","test","","","","4","",""
"null","314056","pSARL_v2","pSARL_v2v643vty6","611f18c8da4156d7a97fa019","fixation","img/fixation.png","null","","test","","","","","",""
"298.8999999910593","314358","pSARL_v2","pSARL_v2v643vty6","611f18c8da4156d7a97fa019","freq","img/orange_2bandit_b2.png","70","70","test","1","69","69","4","",""
"null","314871","pSARL_v2","pSARL_v2v643vty6","611f18c8da4156d7a97fa019","freq_resp","img/orange_2bandit_b.png","70","70","test","","","","4","",""
"null","315028","pSARL_v2","pSARL_v2v643vty6","611f18c8da4156d7a97fa019","fixation","img/fixation.png","null","","test","","","","","",""
"336","315367","pSARL_v2","pSARL_v2v643vty6","611f18c8da4156d7a97fa019","freq","img/orange_2bandit_b2.png","70","70","test","1","70","70","4","",""
"null","315846","pSARL_v2","pSARL_v2v643vty6","611f18c8da4156d7a97fa019","freq_resp","img/orange_2bandit_b.png","70","70","test","","","","4","",""
"null","316004","pSARL_v2","pSARL_v2v643vty6","611f18c8da4156d7a97fa019","fixation","img/fixation.png","null","","test","","","","","",""
"312.09999999403954","316319","pSARL_v2","pSARL_v2v643vty6","611f18c8da4156d7a97fa019","freq","img/orange_2bandit_b2.png","70","70","test","1","71","71","4","",""
"null","316821","pSARL_v2","pSARL_v2v643vty6","611f18c8da4156d7a97fa019","freq_resp","img/orange_2bandit_b.png","70","70","test","","","","4","",""
"null","316977","pSARL_v2","pSARL_v2v643vty6","611f18c8da4156d7a97fa019","fixation","img/fixation.png","null","","test","","","","","",""
"338","317318","pSARL_v2","pSARL_v2v643vty6","611f18c8da4156d7a97fa019","freq","img/orange_2bandit_b2.png","70","70","test","1","72","72","4","",""
"null","317792","pSARL_v2","pSARL_v2v643vty6","611f18c8da4156d7a97fa019","freq_resp","img/orange_2bandit_b.png","70","70","test","","","","4","",""
"null","317948","pSARL_v2","pSARL_v2v643vty6","611f18c8da4156d7a97fa019","fixation","img/fixation.png","null","","test","","","","","",""
"359.5","318311","pSARL_v2","pSARL_v2v643vty6","611f18c8da4156d7a97fa019","freq","img/orange_2bandit_b2.png","70","70","test","1","73","73","4","",""
"null","318762","pSARL_v2","pSARL_v2v643vty6","611f18c8da4156d7a97fa019","freq_resp","img/orange_2bandit_b.png","70","70","test","","","","4","",""
"null","318917","pSARL_v2","pSARL_v2v643vty6","611f18c8da4156d7a97fa019","fixation","img/fixation.png","null","","test","","","","","",""
"414","319334","pSARL_v2","pSARL_v2v643vty6","611f18c8da4156d7a97fa019","freq","img/orange_2bandit_b2.png","70","70","test","1","74","74","4","",""
"null","319731","pSARL_v2","pSARL_v2v643vty6","611f18c8da4156d7a97fa019","freq_resp","img/orange_2bandit_b.png","70","70","test","","","","4","",""
"null","319887","pSARL_v2","pSARL_v2v643vty6","611f18c8da4156d7a97fa019","fixation","img/fixation.png","null","","test","","","","","",""
"572.2000000029802","320463","pSARL_v2","pSARL_v2v643vty6","611f18c8da4156d7a97fa019","infreq","img/green_2bandit_b2.png","68","68","test","1","75","75","4","",""
"null","320700","pSARL_v2","pSARL_v2v643vty6","611f18c8da4156d7a97fa019","infreq_resp","img/green_2bandit_b.png","68","68","test","","","","4","",""
"null","320857","pSARL_v2","pSARL_v2v643vty6","611f18c8da4156d7a97fa019","fixation","img/fixation.png","null","","test","","","","","",""
"570.7000000029802","321431","pSARL_v2","pSARL_v2v643vty6","611f18c8da4156d7a97fa019","freq","img/orange_2bandit_b2.png","70","70","test","1","76","76","4","",""
"null","321668","pSARL_v2","pSARL_v2v643vty6","611f18c8da4156d7a97fa019","freq_resp","img/orange_2bandit_b.png","70","70","test","","","","4","",""
"null","321825","pSARL_v2","pSARL_v2v643vty6","611f18c8da4156d7a97fa019","fixation","img/fixation.png","null","","test","","","","","",""
"330.6000000089407","322159","pSARL_v2","pSARL_v2v643vty6","611f18c8da4156d7a97fa019","freq","img/orange_2bandit_b2.png","70","70","test","1","77","77","4","",""
"null","322643","pSARL_v2","pSARL_v2v643vty6","611f18c8da4156d7a97fa019","freq_resp","img/orange_2bandit_b.png","70","70","test","","","","4","",""
"null","322799","pSARL_v2","pSARL_v2v643vty6","611f18c8da4156d7a97fa019","fixation","img/fixation.png","null","","test","","","","","",""
"260.90000000596046","323063","pSARL_v2","pSARL_v2v643vty6","611f18c8da4156d7a97fa019","freq","img/orange_2bandit_b2.png","70","70","test","1","78","78","4","",""
"null","323617","pSARL_v2","pSARL_v2v643vty6","611f18c8da4156d7a97fa019","freq_resp","img/orange_2bandit_b.png","70","70","test","","","","4","",""
"null","323774","pSARL_v2","pSARL_v2v643vty6","611f18c8da4156d7a97fa019","fixation","img/fixation.png","null","","test","","","","","",""
"189.1000000089407","323967","pSARL_v2","pSARL_v2v643vty6","611f18c8da4156d7a97fa019","infreq","img/green_2bandit_b2.png","70","68","test","0","79","79","4","",""
"null","324589","pSARL_v2","pSARL_v2v643vty6","611f18c8da4156d7a97fa019","infreq_resp","img/green_2bandit_b.png","70","68","test","","","","4","",""
"null","324745","pSARL_v2","pSARL_v2v643vty6","611f18c8da4156d7a97fa019","fixation","img/fixation.png","null","","test","","","","","",""
"467","325215","pSARL_v2","pSARL_v2v643vty6","611f18c8da4156d7a97fa019","freq","img/orange_2bandit_b2.png","70","70","test","1","80","80","4","",""
"null","325560","pSARL_v2","pSARL_v2v643vty6","611f18c8da4156d7a97fa019","freq_resp","img/orange_2bandit_b.png","70","70","test","","","","4","",""
"null","325715","pSARL_v2","pSARL_v2v643vty6","611f18c8da4156d7a97fa019","fixation","img/fixation.png","null","","test","","","","","",""
"423.70000000298023","326142","pSARL_v2","pSARL_v2v643vty6","611f18c8da4156d7a97fa019","freq","img/orange_2bandit_b2.png","70","70","test","1","81","81","4","",""
"null","326527","pSARL_v2","pSARL_v2v643vty6","611f18c8da4156d7a97fa019","freq_resp","img/orange_2bandit_b.png","70","70","test","","","","4","",""
"null","326683","pSARL_v2","pSARL_v2v643vty6","611f18c8da4156d7a97fa019","fixation","img/fixation.png","null","","test","","","","","",""
"368.59999999403954","327054","pSARL_v2","pSARL_v2v643vty6","611f18c8da4156d7a97fa019","freq","img/orange_2bandit_b2.png","70","70","test","1","82","82","4","",""
"null","327499","pSARL_v2","pSARL_v2v643vty6","611f18c8da4156d7a97fa019","freq_resp","img/orange_2bandit_b.png","70","70","test","","","","4","",""
"null","327653","pSARL_v2","pSARL_v2v643vty6","611f18c8da4156d7a97fa019","fixation","img/fixation.png","null","","test","","","","","",""
"487.70000000298023","328144","pSARL_v2","pSARL_v2v643vty6","611f18c8da4156d7a97fa019","freq","img/orange_2bandit_b2.png","70","70","test","1","83","83","4","",""
"null","328469","pSARL_v2","pSARL_v2v643vty6","611f18c8da4156d7a97fa019","freq_resp","img/orange_2bandit_b.png","70","70","test","","","","4","",""
"null","328627","pSARL_v2","pSARL_v2v643vty6","611f18c8da4156d7a97fa019","fixation","img/fixation.png","null","","test","","","","","",""
"456.29999999701977","329087","pSARL_v2","pSARL_v2v643vty6","611f18c8da4156d7a97fa019","freq","img/orange_2bandit_b2.png","70","70","test","1","84","84","4","",""
"null","329445","pSARL_v2","pSARL_v2v643vty6","611f18c8da4156d7a97fa019","freq_resp","img/orange_2bandit_b.png","70","70","test","","","","4","",""
"null","329603","pSARL_v2","pSARL_v2v643vty6","611f18c8da4156d7a97fa019","fixation","img/fixation.png","null","","test","","","","","",""
"464.29999999701977","330070","pSARL_v2","pSARL_v2v643vty6","611f18c8da4156d7a97fa019","freq","img/orange_2bandit_b2.png","70","70","test","1","85","85","4","",""
"null","330422","pSARL_v2","pSARL_v2v643vty6","611f18c8da4156d7a97fa019","freq_resp","img/orange_2bandit_b.png","70","70","test","","","","4","",""
"null","330578","pSARL_v2","pSARL_v2v643vty6","611f18c8da4156d7a97fa019","fixation","img/fixation.png","null","","test","","","","","",""
"401.70000000298023","330983","pSARL_v2","pSARL_v2v643vty6","611f18c8da4156d7a97fa019","freq","img/orange_2bandit_b2.png","70","70","test","1","86","86","4","",""
"null","331391","pSARL_v2","pSARL_v2v643vty6","611f18c8da4156d7a97fa019","freq_resp","img/orange_2bandit_b.png","70","70","test","","","","4","",""
"null","331547","pSARL_v2","pSARL_v2v643vty6","611f18c8da4156d7a97fa019","fixation","img/fixation.png","null","","test","","","","","",""
"336.70000000298023","331886","pSARL_v2","pSARL_v2v643vty6","611f18c8da4156d7a97fa019","freq","img/orange_2bandit_b2.png","70","70","test","1","87","87","4","",""
"null","332363","pSARL_v2","pSARL_v2v643vty6","611f18c8da4156d7a97fa019","freq_resp","img/orange_2bandit_b.png","70","70","test","","","","4","",""
"null","332520","pSARL_v2","pSARL_v2v643vty6","611f18c8da4156d7a97fa019","fixation","img/fixation.png","null","","test","","","","","",""
"331.1000000089407","332855","pSARL_v2","pSARL_v2v643vty6","611f18c8da4156d7a97fa019","freq","img/orange_2bandit_b2.png","70","70","test","1","88","88","4","",""
"null","333331","pSARL_v2","pSARL_v2v643vty6","611f18c8da4156d7a97fa019","freq_resp","img/orange_2bandit_b.png","70","70","test","","","","4","",""
"null","333487","pSARL_v2","pSARL_v2v643vty6","611f18c8da4156d7a97fa019","fixation","img/fixation.png","null","","test","","","","","",""
"572.8999999910593","334063","pSARL_v2","pSARL_v2v643vty6","611f18c8da4156d7a97fa019","reward","img/slot.png","74","","test","","","","","",""
"null","334824","pSARL_v2","pSARL_v2v643vty6","611f18c8da4156d7a97fa019","points","<div class=""verylowPoints""> -3 </div>","null","na","test","","","","4","-3","3"
"442.70000000298023","335270","pSARL_v2","pSARL_v2v643vty6","611f18c8da4156d7a97fa019","freq","img/orange_2bandit_b2.png","70","70","test","1","89","89","5","",""
"null","335638","pSARL_v2","pSARL_v2v643vty6","611f18c8da4156d7a97fa019","freq_resp","img/orange_2bandit_b.png","70","70","test","","","","5","",""
"null","335795","pSARL_v2","pSARL_v2v643vty6","611f18c8da4156d7a97fa019","fixation","img/fixation.png","null","","test","","","","","",""
"377.1000000089407","336175","pSARL_v2","pSARL_v2v643vty6","611f18c8da4156d7a97fa019","freq","img/orange_2bandit_b2.png","70","70","test","1","90","90","5","",""
"null","336614","pSARL_v2","pSARL_v2v643vty6","611f18c8da4156d7a97fa019","freq_resp","img/orange_2bandit_b.png","70","70","test","","","","5","",""
"null","336773","pSARL_v2","pSARL_v2v643vty6","611f18c8da4156d7a97fa019","fixation","img/fixation.png","null","","test","","","","","",""
"286.20000000298023","337062","pSARL_v2","pSARL_v2v643vty6","611f18c8da4156d7a97fa019","freq","img/orange_2bandit_b2.png","70","70","test","1","91","91","5","",""
"null","337592","pSARL_v2","pSARL_v2v643vty6","611f18c8da4156d7a97fa019","freq_resp","img/orange_2bandit_b.png","70","70","test","","","","5","",""
"null","337749","pSARL_v2","pSARL_v2v643vty6","611f18c8da4156d7a97fa019","fixation","img/fixation.png","null","","test","","","","","",""
"334.1000000089407","338087","pSARL_v2","pSARL_v2v643vty6","611f18c8da4156d7a97fa019","freq","img/orange_2bandit_b2.png","70","70","test","1","92","92","5","",""
"null","338567","pSARL_v2","pSARL_v2v643vty6","611f18c8da4156d7a97fa019","freq_resp","img/orange_2bandit_b.png","70","70","test","","","","5","",""
"null","338723","pSARL_v2","pSARL_v2v643vty6","611f18c8da4156d7a97fa019","fixation","img/fixation.png","null","","test","","","","","",""
"353.59999999403954","339080","pSARL_v2","pSARL_v2v643vty6","611f18c8da4156d7a97fa019","freq","img/orange_2bandit_b2.png","70","70","test","1","93","93","5","",""
"null","339538","pSARL_v2","pSARL_v2v643vty6","611f18c8da4156d7a97fa019","freq_resp","img/orange_2bandit_b.png","70","70","test","","","","5","",""
"null","339695","pSARL_v2","pSARL_v2v643vty6","611f18c8da4156d7a97fa019","fixation","img/fixation.png","null","","test","","","","","",""
"325.29999999701977","340023","pSARL_v2","pSARL_v2v643vty6","611f18c8da4156d7a97fa019","freq","img/orange_2bandit_b2.png","70","70","test","1","94","94","5","",""
"null","340502","pSARL_v2","pSARL_v2v643vty6","611f18c8da4156d7a97fa019","freq_resp","img/orange_2bandit_b.png","70","70","test","","","","5","",""
"null","340659","pSARL_v2","pSARL_v2v643vty6","611f18c8da4156d7a97fa019","fixation","img/fixation.png","null","","test","","","","","",""
"329.20000000298023","340992","pSARL_v2","pSARL_v2v643vty6","611f18c8da4156d7a97fa019","freq","img/orange_2bandit_b2.png","70","70","test","1","95","95","5","",""
"null","341469","pSARL_v2","pSARL_v2v643vty6","611f18c8da4156d7a97fa019","freq_resp","img/orange_2bandit_b.png","70","70","test","","","","5","",""
"null","341626","pSARL_v2","pSARL_v2v643vty6","611f18c8da4156d7a97fa019","fixation","img/fixation.png","null","","test","","","","","",""
"289.70000000298023","341919","pSARL_v2","pSARL_v2v643vty6","611f18c8da4156d7a97fa019","freq","img/orange_2bandit_b2.png","70","70","test","1","96","96","5","",""
"null","342440","pSARL_v2","pSARL_v2v643vty6","611f18c8da4156d7a97fa019","freq_resp","img/orange_2bandit_b.png","70","70","test","","","","5","",""
"null","342595","pSARL_v2","pSARL_v2v643vty6","611f18c8da4156d7a97fa019","fixation","img/fixation.png","null","","test","","","","","",""
"304.79999999701977","342903","pSARL_v2","pSARL_v2v643vty6","611f18c8da4156d7a97fa019","freq","img/orange_2bandit_b2.png","70","70","test","1","97","97","5","",""
"null","343411","pSARL_v2","pSARL_v2v643vty6","611f18c8da4156d7a97fa019","freq_resp","img/orange_2bandit_b.png","70","70","test","","","","5","",""
"null","343573","pSARL_v2","pSARL_v2v643vty6","611f18c8da4156d7a97fa019","fixation","img/fixation.png","null","","test","","","","","",""
"135.29999999701977","343711","pSARL_v2","pSARL_v2v643vty6","611f18c8da4156d7a97fa019","freq","img/orange_2bandit_b2.png","70","70","test","1","98","98","5","",""
"null","344386","pSARL_v2","pSARL_v2v643vty6","611f18c8da4156d7a97fa019","freq_resp","img/orange_2bandit_b.png","70","70","test","","","","5","",""
"null","344542","pSARL_v2","pSARL_v2v643vty6","611f18c8da4156d7a97fa019","fixation","img/fixation.png","null","","test","","","","","",""
"397.70000000298023","344942","pSARL_v2","pSARL_v2v643vty6","611f18c8da4156d7a97fa019","infreq","img/green_2bandit_b2.png","68","68","test","1","99","99","5","",""
"null","345356","pSARL_v2","pSARL_v2v643vty6","611f18c8da4156d7a97fa019","infreq_resp","img/green_2bandit_b.png","68","68","test","","","","5","",""
"null","345514","pSARL_v2","pSARL_v2v643vty6","611f18c8da4156d7a97fa019","fixation","img/fixation.png","null","","test","","","","","",""
"554.9000000059605","346071","pSARL_v2","pSARL_v2v643vty6","611f18c8da4156d7a97fa019","infreq","img/green_2bandit_b2.png","68","68","test","1","100","100","5","",""
"null","346327","pSARL_v2","pSARL_v2v643vty6","611f18c8da4156d7a97fa019","infreq_resp","img/green_2bandit_b.png","68","68","test","","","","5","",""
"null","346483","pSARL_v2","pSARL_v2v643vty6","611f18c8da4156d7a97fa019","fixation","img/fixation.png","null","","test","","","","","",""
"409.3999999910593","346895","pSARL_v2","pSARL_v2v643vty6","611f18c8da4156d7a97fa019","freq","img/orange_2bandit_b2.png","70","70","test","1","101","101","5","",""
"null","347298","pSARL_v2","pSARL_v2v643vty6","611f18c8da4156d7a97fa019","freq_resp","img/orange_2bandit_b.png","70","70","test","","","","5","",""
"null","347456","pSARL_v2","pSARL_v2v643vty6","611f18c8da4156d7a97fa019","fixation","img/fixation.png","null","","test","","","","","",""
"380.59999999403954","347839","pSARL_v2","pSARL_v2v643vty6","611f18c8da4156d7a97fa019","freq","img/orange_2bandit_b2.png","70","70","test","1","102","102","5","",""
"null","348268","pSARL_v2","pSARL_v2v643vty6","611f18c8da4156d7a97fa019","freq_resp","img/orange_2bandit_b.png","70","70","test","","","","5","",""
"null","348425","pSARL_v2","pSARL_v2v643vty6","611f18c8da4156d7a97fa019","fixation","img/fixation.png","null","","test","","","","","",""
"355.5","348783","pSARL_v2","pSARL_v2v643vty6","611f18c8da4156d7a97fa019","freq","img/orange_2bandit_b2.png","70","70","test","1","103","103","5","",""
"null","349239","pSARL_v2","pSARL_v2v643vty6","611f18c8da4156d7a97fa019","freq_resp","img/orange_2bandit_b.png","70","70","test","","","","5","",""
"null","349396","pSARL_v2","pSARL_v2v643vty6","611f18c8da4156d7a97fa019","fixation","img/fixation.png","null","","test","","","","","",""
"336.69999998807907","349736","pSARL_v2","pSARL_v2v643vty6","611f18c8da4156d7a97fa019","freq","img/orange_2bandit_b2.png","70","70","test","1","104","104","5","",""
"null","350210","pSARL_v2","pSARL_v2v643vty6","611f18c8da4156d7a97fa019","freq_resp","img/orange_2bandit_b.png","70","70","test","","","","5","",""
"null","350367","pSARL_v2","pSARL_v2v643vty6","611f18c8da4156d7a97fa019","fixation","img/fixation.png","null","","test","","","","","",""
"332.3999999910593","350703","pSARL_v2","pSARL_v2v643vty6","611f18c8da4156d7a97fa019","freq","img/orange_2bandit_b2.png","70","70","test","1","105","105","5","",""
"null","351181","pSARL_v2","pSARL_v2v643vty6","611f18c8da4156d7a97fa019","freq_resp","img/orange_2bandit_b.png","70","70","test","","","","5","",""
"null","351338","pSARL_v2","pSARL_v2v643vty6","611f18c8da4156d7a97fa019","fixation","img/fixation.png","null","","test","","","","","",""
"345.79999999701977","351687","pSARL_v2","pSARL_v2v643vty6","611f18c8da4156d7a97fa019","freq","img/orange_2bandit_b2.png","70","70","test","1","106","106","5","",""
"null","352152","pSARL_v2","pSARL_v2v643vty6","611f18c8da4156d7a97fa019","freq_resp","img/orange_2bandit_b.png","70","70","test","","","","5","",""
"null","352308","pSARL_v2","pSARL_v2v643vty6","611f18c8da4156d7a97fa019","fixation","img/fixation.png","null","","test","","","","","",""
"320.20000000298023","352631","pSARL_v2","pSARL_v2v643vty6","611f18c8da4156d7a97fa019","freq","img/orange_2bandit_b2.png","70","70","test","1","107","107","5","",""
"null","353117","pSARL_v2","pSARL_v2v643vty6","611f18c8da4156d7a97fa019","freq_resp","img/orange_2bandit_b.png","70","70","test","","","","5","",""
"null","353274","pSARL_v2","pSARL_v2v643vty6","611f18c8da4156d7a97fa019","fixation","img/fixation.png","null","","test","","","","","",""
"324.29999999701977","353602","pSARL_v2","pSARL_v2v643vty6","611f18c8da4156d7a97fa019","freq","img/orange_2bandit_b2.png","70","70","test","1","108","108","5","",""
"null","354088","pSARL_v2","pSARL_v2v643vty6","611f18c8da4156d7a97fa019","freq_resp","img/orange_2bandit_b.png","70","70","test","","","","5","",""
"null","354245","pSARL_v2","pSARL_v2v643vty6","611f18c8da4156d7a97fa019","fixation","img/fixation.png","null","","test","","","","","",""
"319.5","354567","pSARL_v2","pSARL_v2v643vty6","611f18c8da4156d7a97fa019","freq","img/orange_2bandit_b2.png","70","70","test","1","109","109","5","",""
"null","355057","pSARL_v2","pSARL_v2v643vty6","611f18c8da4156d7a97fa019","freq_resp","img/orange_2bandit_b.png","70","70","test","","","","5","",""
"null","355213","pSARL_v2","pSARL_v2v643vty6","611f18c8da4156d7a97fa019","fixation","img/fixation.png","null","","test","","","","","",""
"359.79999999701977","355576","pSARL_v2","pSARL_v2v643vty6","611f18c8da4156d7a97fa019","freq","img/orange_2bandit_b2.png","70","70","test","1","110","110","5","",""
"null","356024","pSARL_v2","pSARL_v2v643vty6","611f18c8da4156d7a97fa019","freq_resp","img/orange_2bandit_b.png","70","70","test","","","","5","",""
"null","356181","pSARL_v2","pSARL_v2v643vty6","611f18c8da4156d7a97fa019","fixation","img/fixation.png","null","","test","","","","","",""
"319.20000000298023","356503","pSARL_v2","pSARL_v2v643vty6","611f18c8da4156d7a97fa019","freq","img/orange_2bandit_b2.png","70","70","test","1","111","111","5","",""
"null","356995","pSARL_v2","pSARL_v2v643vty6","611f18c8da4156d7a97fa019","freq_resp","img/orange_2bandit_b.png","70","70","test","","","","5","",""
"null","357152","pSARL_v2","pSARL_v2v643vty6","611f18c8da4156d7a97fa019","fixation","img/fixation.png","null","","test","","","","","",""
"531.5","357687","pSARL_v2","pSARL_v2v643vty6","611f18c8da4156d7a97fa019","reward","img/slot.png","74","","test","","","","","",""
"null","358447","pSARL_v2","pSARL_v2v643vty6","611f18c8da4156d7a97fa019","points","<div class=""veryhighPoints""> +1 </div>","null","na","test","","","","5","1","4"
"469.1000000089407","358920","pSARL_v2","pSARL_v2v643vty6","611f18c8da4156d7a97fa019","freq","img/orange_2bandit_b2.png","70","70","test","1","112","112","6","",""
"null","359265","pSARL_v2","pSARL_v2v643vty6","611f18c8da4156d7a97fa019","freq_resp","img/orange_2bandit_b.png","70","70","test","","","","6","",""
"null","359420","pSARL_v2","pSARL_v2v643vty6","611f18c8da4156d7a97fa019","fixation","img/fixation.png","null","","test","","","","","",""
"479.70000000298023","359903","pSARL_v2","pSARL_v2v643vty6","611f18c8da4156d7a97fa019","freq","img/orange_2bandit_b2.png","70","70","test","1","113","113","6","",""
"null","360234","pSARL_v2","pSARL_v2v643vty6","611f18c8da4156d7a97fa019","freq_resp","img/orange_2bandit_b.png","70","70","test","","","","6","",""
"null","360391","pSARL_v2","pSARL_v2v643vty6","611f18c8da4156d7a97fa019","fixation","img/fixation.png","null","","test","","","","","",""
"358.20000000298023","360752","pSARL_v2","pSARL_v2v643vty6","611f18c8da4156d7a97fa019","freq","img/orange_2bandit_b2.png","70","70","test","1","114","114","6","",""
"null","361206","pSARL_v2","pSARL_v2v643vty6","611f18c8da4156d7a97fa019","freq_resp","img/orange_2bandit_b.png","70","70","test","","","","6","",""
"null","361362","pSARL_v2","pSARL_v2v643vty6","611f18c8da4156d7a97fa019","fixation","img/fixation.png","null","","test","","","","","",""
"394.1000000089407","361759","pSARL_v2","pSARL_v2v643vty6","611f18c8da4156d7a97fa019","freq","img/orange_2bandit_b2.png","70","70","test","1","115","115","6","",""
"null","362180","pSARL_v2","pSARL_v2v643vty6","611f18c8da4156d7a97fa019","freq_resp","img/orange_2bandit_b.png","70","70","test","","","","6","",""
"null","362336","pSARL_v2","pSARL_v2v643vty6","611f18c8da4156d7a97fa019","fixation","img/fixation.png","null","","test","","","","","",""
"444.20000000298023","362784","pSARL_v2","pSARL_v2v643vty6","611f18c8da4156d7a97fa019","infreq","img/green_2bandit_b2.png","68","68","test","1","116","116","6","",""
"null","363150","pSARL_v2","pSARL_v2v643vty6","611f18c8da4156d7a97fa019","infreq_resp","img/green_2bandit_b.png","68","68","test","","","","6","",""
"null","363308","pSARL_v2","pSARL_v2v643vty6","611f18c8da4156d7a97fa019","fixation","img/fixation.png","null","","test","","","","","",""
"320.20000000298023","363632","pSARL_v2","pSARL_v2v643vty6","611f18c8da4156d7a97fa019","freq","img/orange_2bandit_b2.png","70","70","test","1","117","117","6","",""
"null","364125","pSARL_v2","pSARL_v2v643vty6","611f18c8da4156d7a97fa019","freq_resp","img/orange_2bandit_b.png","70","70","test","","","","6","",""
"null","364284","pSARL_v2","pSARL_v2v643vty6","611f18c8da4156d7a97fa019","fixation","img/fixation.png","null","","test","","","","","",""
"352.3999999910593","364640","pSARL_v2","pSARL_v2v643vty6","611f18c8da4156d7a97fa019","freq","img/orange_2bandit_b2.png","70","70","test","1","118","118","6","",""
"null","365097","pSARL_v2","pSARL_v2v643vty6","611f18c8da4156d7a97fa019","freq_resp","img/orange_2bandit_b.png","70","70","test","","","","6","",""
"null","365253","pSARL_v2","pSARL_v2v643vty6","611f18c8da4156d7a97fa019","fixation","img/fixation.png","null","","test","","","","","",""
"366.70000000298023","365623","pSARL_v2","pSARL_v2v643vty6","611f18c8da4156d7a97fa019","freq","img/orange_2bandit_b2.png","70","70","test","1","119","119","6","",""
"null","366066","pSARL_v2","pSARL_v2v643vty6","611f18c8da4156d7a97fa019","freq_resp","img/orange_2bandit_b.png","70","70","test","","","","6","",""
"null","366221","pSARL_v2","pSARL_v2v643vty6","611f18c8da4156d7a97fa019","fixation","img/fixation.png","null","","test","","","","","",""
"431.79999999701977","366656","pSARL_v2","pSARL_v2v643vty6","611f18c8da4156d7a97fa019","freq","img/orange_2bandit_b2.png","70","70","test","1","120","120","6","",""
"null","367035","pSARL_v2","pSARL_v2v643vty6","611f18c8da4156d7a97fa019","freq_resp","img/orange_2bandit_b.png","70","70","test","","","","6","",""
"null","367191","pSARL_v2","pSARL_v2v643vty6","611f18c8da4156d7a97fa019","fixation","img/fixation.png","null","","test","","","","","",""
"325.09999999403954","367520","pSARL_v2","pSARL_v2v643vty6","611f18c8da4156d7a97fa019","freq","img/orange_2bandit_b2.png","70","70","test","1","121","121","6","",""
"null","368007","pSARL_v2","pSARL_v2v643vty6","611f18c8da4156d7a97fa019","freq_resp","img/orange_2bandit_b.png","70","70","test","","","","6","",""
"null","368164","pSARL_v2","pSARL_v2v643vty6","611f18c8da4156d7a97fa019","fixation","img/fixation.png","null","","test","","","","","",""
"520","368687","pSARL_v2","pSARL_v2v643vty6","611f18c8da4156d7a97fa019","infreq","img/green_2bandit_b2.png","68","68","test","1","122","122","6","",""
"null","368980","pSARL_v2","pSARL_v2v643vty6","611f18c8da4156d7a97fa019","infreq_resp","img/green_2bandit_b.png","68","68","test","","","","6","",""
"null","369141","pSARL_v2","pSARL_v2v643vty6","611f18c8da4156d7a97fa019","fixation","img/fixation.png","null","","test","","","","","",""
"751.5","369896","pSARL_v2","pSARL_v2v643vty6","611f18c8da4156d7a97fa019","freq","img/orange_2bandit_b2.png","70","70","test","1","123","123","6","",""
"null","369955","pSARL_v2","pSARL_v2v643vty6","611f18c8da4156d7a97fa019","freq_resp","img/orange_2bandit_b.png","70","70","test","","","","6","",""
"null","370113","pSARL_v2","pSARL_v2v643vty6","611f18c8da4156d7a97fa019","fixation","img/fixation.png","null","","test","","","","","",""
"603.2000000029802","370720","pSARL_v2","pSARL_v2v643vty6","611f18c8da4156d7a97fa019","infreq","img/green_2bandit_b2.png","68","68","test","1","124","124","6","",""
"null","370929","pSARL_v2","pSARL_v2v643vty6","611f18c8da4156d7a97fa019","infreq_resp","img/green_2bandit_b.png","68","68","test","","","","6","",""
"null","371087","pSARL_v2","pSARL_v2v643vty6","611f18c8da4156d7a97fa019","fixation","img/fixation.png","null","","test","","","","","",""
"395.90000000596046","371487","pSARL_v2","pSARL_v2v643vty6","611f18c8da4156d7a97fa019","freq","img/orange_2bandit_b2.png","70","70","test","1","125","125","6","",""
"null","371902","pSARL_v2","pSARL_v2v643vty6","611f18c8da4156d7a97fa019","freq_resp","img/orange_2bandit_b.png","70","70","test","","","","6","",""
"null","372057","pSARL_v2","pSARL_v2v643vty6","611f18c8da4156d7a97fa019","fixation","img/fixation.png","null","","test","","","","","",""
"554.9000000059605","372615","pSARL_v2","pSARL_v2v643vty6","611f18c8da4156d7a97fa019","freq","img/orange_2bandit_b2.png","68","70","test","0","126","126","6","",""
"null","372874","pSARL_v2","pSARL_v2v643vty6","611f18c8da4156d7a97fa019","freq_resp","img/orange_2bandit_b.png","68","70","test","","","","6","",""
"null","373032","pSARL_v2","pSARL_v2v643vty6","611f18c8da4156d7a97fa019","fixation","img/fixation.png","null","","test","","","","","",""
"507.40000000596046","373542","pSARL_v2","pSARL_v2v643vty6","611f18c8da4156d7a97fa019","freq","img/orange_2bandit_b2.png","68","70","test","0","127","127","6","",""
"null","373843","pSARL_v2","pSARL_v2v643vty6","611f18c8da4156d7a97fa019","freq_resp","img/orange_2bandit_b.png","68","70","test","","","","6","",""
"null","373999","pSARL_v2","pSARL_v2v643vty6","611f18c8da4156d7a97fa019","fixation","img/fixation.png","null","","test","","","","","",""
"348.70000000298023","374351","pSARL_v2","pSARL_v2v643vty6","611f18c8da4156d7a97fa019","freq","img/orange_2bandit_b2.png","70","70","test","1","128","128","6","",""
"null","374819","pSARL_v2","pSARL_v2v643vty6","611f18c8da4156d7a97fa019","freq_resp","img/orange_2bandit_b.png","70","70","test","","","","6","",""
"null","374976","pSARL_v2","pSARL_v2v643vty6","611f18c8da4156d7a97fa019","fixation","img/fixation.png","null","","test","","","","","",""
"356.09999999403954","375335","pSARL_v2","pSARL_v2v643vty6","611f18c8da4156d7a97fa019","freq","img/orange_2bandit_b2.png","70","70","test","1","129","129","6","",""
"null","375789","pSARL_v2","pSARL_v2v643vty6","611f18c8da4156d7a97fa019","freq_resp","img/orange_2bandit_b.png","70","70","test","","","","6","",""
"null","375946","pSARL_v2","pSARL_v2v643vty6","611f18c8da4156d7a97fa019","fixation","img/fixation.png","null","","test","","","","","",""
"434","376383","pSARL_v2","pSARL_v2v643vty6","611f18c8da4156d7a97fa019","freq","img/orange_2bandit_b2.png","70","70","test","1","130","130","6","",""
"null","376760","pSARL_v2","pSARL_v2v643vty6","611f18c8da4156d7a97fa019","freq_resp","img/orange_2bandit_b.png","70","70","test","","","","6","",""
"null","376917","pSARL_v2","pSARL_v2v643vty6","611f18c8da4156d7a97fa019","fixation","img/fixation.png","null","","test","","","","","",""
"406.90000000596046","377327","pSARL_v2","pSARL_v2v643vty6","611f18c8da4156d7a97fa019","freq","img/orange_2bandit_b2.png","70","70","test","1","131","131","6","",""
"null","377728","pSARL_v2","pSARL_v2v643vty6","611f18c8da4156d7a97fa019","freq_resp","img/orange_2bandit_b.png","70","70","test","","","","6","",""
"null","377886","pSARL_v2","pSARL_v2v643vty6","611f18c8da4156d7a97fa019","fixation","img/fixation.png","null","","test","","","","","",""
"430.59999999403954","378320","pSARL_v2","pSARL_v2v643vty6","611f18c8da4156d7a97fa019","freq","img/orange_2bandit_b2.png","70","70","test","1","132","132","6","",""
"null","378700","pSARL_v2","pSARL_v2v643vty6","611f18c8da4156d7a97fa019","freq_resp","img/orange_2bandit_b.png","70","70","test","","","","6","",""
"null","378856","pSARL_v2","pSARL_v2v643vty6","611f18c8da4156d7a97fa019","fixation","img/fixation.png","null","","test","","","","","",""
"421.20000000298023","379280","pSARL_v2","pSARL_v2v643vty6","611f18c8da4156d7a97fa019","freq","img/orange_2bandit_b2.png","70","70","test","1","133","133","6","",""
"null","379669","pSARL_v2","pSARL_v2v643vty6","611f18c8da4156d7a97fa019","freq_resp","img/orange_2bandit_b.png","70","70","test","","","","6","",""
"null","379824","pSARL_v2","pSARL_v2v643vty6","611f18c8da4156d7a97fa019","fixation","img/fixation.png","null","","test","","","","","",""
"523.7999999970198","380351","pSARL_v2","pSARL_v2v643vty6","611f18c8da4156d7a97fa019","reward","img/slot.png","74","","test","","","","","",""
"null","381106","pSARL_v2","pSARL_v2v643vty6","611f18c8da4156d7a97fa019","points","<div class=""verylowPoints""> -7 </div>","null","na","test","","","","6","-7","5"
"490.09999999403954","381599","pSARL_v2","pSARL_v2v643vty6","611f18c8da4156d7a97fa019","freq","img/orange_2bandit_b2.png","70","70","test","1","134","134","7","",""
"null","381915","pSARL_v2","pSARL_v2v643vty6","611f18c8da4156d7a97fa019","freq_resp","img/orange_2bandit_b.png","70","70","test","","","","7","",""
"null","382070","pSARL_v2","pSARL_v2v643vty6","611f18c8da4156d7a97fa019","fixation","img/fixation.png","null","","test","","","","","",""
"374.59999999403954","382448","pSARL_v2","pSARL_v2v643vty6","611f18c8da4156d7a97fa019","freq","img/orange_2bandit_b2.png","70","70","test","1","135","135","7","",""
"null","382884","pSARL_v2","pSARL_v2v643vty6","611f18c8da4156d7a97fa019","freq_resp","img/orange_2bandit_b.png","70","70","test","","","","7","",""
"null","383041","pSARL_v2","pSARL_v2v643vty6","611f18c8da4156d7a97fa019","fixation","img/fixation.png","null","","test","","","","","",""
"347.1000000089407","383391","pSARL_v2","pSARL_v2v643vty6","611f18c8da4156d7a97fa019","freq","img/orange_2bandit_b2.png","70","70","test","1","136","136","7","",""
"null","383853","pSARL_v2","pSARL_v2v643vty6","611f18c8da4156d7a97fa019","freq_resp","img/orange_2bandit_b.png","70","70","test","","","","7","",""
"null","384010","pSARL_v2","pSARL_v2v643vty6","611f18c8da4156d7a97fa019","fixation","img/fixation.png","null","","test","","","","","",""
"346","384359","pSARL_v2","pSARL_v2v643vty6","611f18c8da4156d7a97fa019","freq","img/orange_2bandit_b2.png","70","70","test","1","137","137","7","",""
"null","384824","pSARL_v2","pSARL_v2v643vty6","611f18c8da4156d7a97fa019","freq_resp","img/orange_2bandit_b.png","70","70","test","","","","7","",""
"null","384981","pSARL_v2","pSARL_v2v643vty6","611f18c8da4156d7a97fa019","fixation","img/fixation.png","null","","test","","","","","",""
"398.5","385383","pSARL_v2","pSARL_v2v643vty6","611f18c8da4156d7a97fa019","freq","img/orange_2bandit_b2.png","70","70","test","1","138","138","7","",""
"null","385797","pSARL_v2","pSARL_v2v643vty6","611f18c8da4156d7a97fa019","freq_resp","img/orange_2bandit_b.png","70","70","test","","","","7","",""
"null","385953","pSARL_v2","pSARL_v2v643vty6","611f18c8da4156d7a97fa019","fixation","img/fixation.png","null","","test","","","","","",""
"395.1000000089407","386351","pSARL_v2","pSARL_v2v643vty6","611f18c8da4156d7a97fa019","freq","img/orange_2bandit_b2.png","70","70","test","1","139","139","7","",""
"null","386769","pSARL_v2","pSARL_v2v643vty6","611f18c8da4156d7a97fa019","freq_resp","img/orange_2bandit_b.png","70","70","test","","","","7","",""
"null","386927","pSARL_v2","pSARL_v2v643vty6","611f18c8da4156d7a97fa019","fixation","img/fixation.png","null","","test","","","","","",""
"348.79999999701977","387279","pSARL_v2","pSARL_v2v643vty6","611f18c8da4156d7a97fa019","freq","img/orange_2bandit_b2.png","70","70","test","1","140","140","7","",""
"null","387741","pSARL_v2","pSARL_v2v643vty6","611f18c8da4156d7a97fa019","freq_resp","img/orange_2bandit_b.png","70","70","test","","","","7","",""
"null","387897","pSARL_v2","pSARL_v2v643vty6","611f18c8da4156d7a97fa019","fixation","img/fixation.png","null","","test","","","","","",""
"403.29999999701977","388303","pSARL_v2","pSARL_v2v643vty6","611f18c8da4156d7a97fa019","freq","img/orange_2bandit_b2.png","70","70","test","1","141","141","7","",""
"null","388713","pSARL_v2","pSARL_v2v643vty6","611f18c8da4156d7a97fa019","freq_resp","img/orange_2bandit_b.png","70","70","test","","","","7","",""
"null","388871","pSARL_v2","pSARL_v2v643vty6","611f18c8da4156d7a97fa019","fixation","img/fixation.png","null","","test","","","","","",""
"380.29999999701977","389255","pSARL_v2","pSARL_v2v643vty6","611f18c8da4156d7a97fa019","freq","img/orange_2bandit_b2.png","70","70","test","1","142","142","7","",""
"null","389685","pSARL_v2","pSARL_v2v643vty6","611f18c8da4156d7a97fa019","freq_resp","img/orange_2bandit_b.png","70","70","test","","","","7","",""
"null","389841","pSARL_v2","pSARL_v2v643vty6","611f18c8da4156d7a97fa019","fixation","img/fixation.png","null","","test","","","","","",""
"419.29999999701977","390263","pSARL_v2","pSARL_v2v643vty6","611f18c8da4156d7a97fa019","freq","img/orange_2bandit_b2.png","70","70","test","1","143","143","7","",""
"null","390658","pSARL_v2","pSARL_v2v643vty6","611f18c8da4156d7a97fa019","freq_resp","img/orange_2bandit_b.png","70","70","test","","","","7","",""
"null","390816","pSARL_v2","pSARL_v2v643vty6","611f18c8da4156d7a97fa019","fixation","img/fixation.png","null","","test","","","","","",""
"610.5","391431","pSARL_v2","pSARL_v2v643vty6","611f18c8da4156d7a97fa019","freq","img/orange_2bandit_b2.png","70","70","test","1","144","144","7","",""
"null","391635","pSARL_v2","pSARL_v2v643vty6","611f18c8da4156d7a97fa019","freq_resp","img/orange_2bandit_b.png","70","70","test","","","","7","",""
"null","391793","pSARL_v2","pSARL_v2v643vty6","611f18c8da4156d7a97fa019","fixation","img/fixation.png","null","","test","","","","","",""
"395.5","392191","pSARL_v2","pSARL_v2v643vty6","611f18c8da4156d7a97fa019","freq","img/orange_2bandit_b2.png","70","70","test","1","145","145","7","",""
"null","392608","pSARL_v2","pSARL_v2v643vty6","611f18c8da4156d7a97fa019","freq_resp","img/orange_2bandit_b.png","70","70","test","","","","7","",""
"null","392765","pSARL_v2","pSARL_v2v643vty6","611f18c8da4156d7a97fa019","fixation","img/fixation.png","null","","test","","","","","",""
"415.59999999403954","393184","pSARL_v2","pSARL_v2v643vty6","611f18c8da4156d7a97fa019","freq","img/orange_2bandit_b2.png","70","70","test","1","146","146","7","",""
"null","393580","pSARL_v2","pSARL_v2v643vty6","611f18c8da4156d7a97fa019","freq_resp","img/orange_2bandit_b.png","70","70","test","","","","7","",""
"null","393735","pSARL_v2","pSARL_v2v643vty6","611f18c8da4156d7a97fa019","fixation","img/fixation.png","null","","test","","","","","",""
"412.5","394151","pSARL_v2","pSARL_v2v643vty6","611f18c8da4156d7a97fa019","freq","img/orange_2bandit_b2.png","70","70","test","1","147","147","7","",""
"null","394548","pSARL_v2","pSARL_v2v643vty6","611f18c8da4156d7a97fa019","freq_resp","img/orange_2bandit_b.png","70","70","test","","","","7","",""
"null","394704","pSARL_v2","pSARL_v2v643vty6","611f18c8da4156d7a97fa019","fixation","img/fixation.png","null","","test","","","","","",""
"428.3999999910593","395135","pSARL_v2","pSARL_v2v643vty6","611f18c8da4156d7a97fa019","freq","img/orange_2bandit_b2.png","70","70","test","1","148","148","7","",""
"null","395523","pSARL_v2","pSARL_v2v643vty6","611f18c8da4156d7a97fa019","freq_resp","img/orange_2bandit_b.png","70","70","test","","","","7","",""
"null","395680","pSARL_v2","pSARL_v2v643vty6","611f18c8da4156d7a97fa019","fixation","img/fixation.png","null","","test","","","","","",""
"540.3999999910593","396223","pSARL_v2","pSARL_v2v643vty6","611f18c8da4156d7a97fa019","infreq","img/green_2bandit_b2.png","68","68","test","1","149","149","7","",""
"null","396491","pSARL_v2","pSARL_v2v643vty6","611f18c8da4156d7a97fa019","infreq_resp","img/green_2bandit_b.png","68","68","test","","","","7","",""
"null","396648","pSARL_v2","pSARL_v2v643vty6","611f18c8da4156d7a97fa019","fixation","img/fixation.png","null","","test","","","","","",""
"660","397311","pSARL_v2","pSARL_v2v643vty6","611f18c8da4156d7a97fa019","infreq","img/green_2bandit_b2.png","68","68","test","1","150","150","7","",""
"null","397463","pSARL_v2","pSARL_v2v643vty6","611f18c8da4156d7a97fa019","infreq_resp","img/green_2bandit_b.png","68","68","test","","","","7","",""
"null","397619","pSARL_v2","pSARL_v2v643vty6","611f18c8da4156d7a97fa019","fixation","img/fixation.png","null","","test","","","","","",""
"753.2999999970198","398375","pSARL_v2","pSARL_v2v643vty6","611f18c8da4156d7a97fa019","freq","img/orange_2bandit_b2.png","70","70","test","1","151","151","7","",""
"null","398433","pSARL_v2","pSARL_v2v643vty6","611f18c8da4156d7a97fa019","freq_resp","img/orange_2bandit_b.png","70","70","test","","","","7","",""
"null","398589","pSARL_v2","pSARL_v2v643vty6","611f18c8da4156d7a97fa019","fixation","img/fixation.png","null","","test","","","","","",""
"732.6000000089407","399325","pSARL_v2","pSARL_v2v643vty6","611f18c8da4156d7a97fa019","freq","img/orange_2bandit_b2.png","70","70","test","1","152","152","7","",""
"null","399404","pSARL_v2","pSARL_v2v643vty6","611f18c8da4156d7a97fa019","freq_resp","img/orange_2bandit_b.png","70","70","test","","","","7","",""
"null","399560","pSARL_v2","pSARL_v2v643vty6","611f18c8da4156d7a97fa019","fixation","img/fixation.png","null","","test","","","","","",""
"483.79999999701977","400048","pSARL_v2","pSARL_v2v643vty6","611f18c8da4156d7a97fa019","freq","img/orange_2bandit_b2.png","70","70","test","1","153","153","7","",""
"null","400377","pSARL_v2","pSARL_v2v643vty6","611f18c8da4156d7a97fa019","freq_resp","img/orange_2bandit_b.png","70","70","test","","","","7","",""
"null","400535","pSARL_v2","pSARL_v2v643vty6","611f18c8da4156d7a97fa019","fixation","img/fixation.png","null","","test","","","","","",""
"474.79999999701977","401013","pSARL_v2","pSARL_v2v643vty6","611f18c8da4156d7a97fa019","freq","img/orange_2bandit_b2.png","70","70","test","1","154","154","7","",""
"null","401351","pSARL_v2","pSARL_v2v643vty6","611f18c8da4156d7a97fa019","freq_resp","img/orange_2bandit_b.png","70","70","test","","","","7","",""
"null","401508","pSARL_v2","pSARL_v2v643vty6","611f18c8da4156d7a97fa019","fixation","img/fixation.png","null","","test","","","","","",""
"430.59999999403954","401942","pSARL_v2","pSARL_v2v643vty6","611f18c8da4156d7a97fa019","freq","img/orange_2bandit_b2.png","70","70","test","1","155","155","7","",""
"null","402325","pSARL_v2","pSARL_v2v643vty6","611f18c8da4156d7a97fa019","freq_resp","img/orange_2bandit_b.png","70","70","test","","","","7","",""
"null","402482","pSARL_v2","pSARL_v2v643vty6","611f18c8da4156d7a97fa019","fixation","img/fixation.png","null","","test","","","","","",""
"425.59999999403954","402911","pSARL_v2","pSARL_v2v643vty6","611f18c8da4156d7a97fa019","freq","img/orange_2bandit_b2.png","70","70","test","1","156","156","7","",""
"null","403294","pSARL_v2","pSARL_v2v643vty6","611f18c8da4156d7a97fa019","freq_resp","img/orange_2bandit_b.png","70","70","test","","","","7","",""
"null","403451","pSARL_v2","pSARL_v2v643vty6","611f18c8da4156d7a97fa019","fixation","img/fixation.png","null","","test","","","","","",""
"400.6000000089407","403855","pSARL_v2","pSARL_v2v643vty6","611f18c8da4156d7a97fa019","freq","img/orange_2bandit_b2.png","70","70","test","1","157","157","7","",""
"null","404261","pSARL_v2","pSARL_v2v643vty6","611f18c8da4156d7a97fa019","freq_resp","img/orange_2bandit_b.png","70","70","test","","","","7","",""
"null","404419","pSARL_v2","pSARL_v2v643vty6","611f18c8da4156d7a97fa019","fixation","img/fixation.png","null","","test","","","","","",""
"504.79999999701977","404927","pSARL_v2","pSARL_v2v643vty6","611f18c8da4156d7a97fa019","reward","img/slot.png","74","","test","","","","","",""
"null","405686","pSARL_v2","pSARL_v2v643vty6","611f18c8da4156d7a97fa019","points","<div class=""verylowPoints""> -6 </div>","null","na","test","","","","7","-6","6"
"404.8999999910593","406095","pSARL_v2","pSARL_v2v643vty6","611f18c8da4156d7a97fa019","freq","img/orange_2bandit_b2.png","70","70","test","1","158","158","8","",""
"null","406501","pSARL_v2","pSARL_v2v643vty6","611f18c8da4156d7a97fa019","freq_resp","img/orange_2bandit_b.png","70","70","test","","","","8","",""
"null","406658","pSARL_v2","pSARL_v2v643vty6","611f18c8da4156d7a97fa019","fixation","img/fixation.png","null","","test","","","","","",""
"313","406974","pSARL_v2","pSARL_v2v643vty6","611f18c8da4156d7a97fa019","freq","img/orange_2bandit_b2.png","70","70","test","1","159","159","8","",""
"null","407475","pSARL_v2","pSARL_v2v643vty6","611f18c8da4156d7a97fa019","freq_resp","img/orange_2bandit_b.png","70","70","test","","","","8","",""
"null","407632","pSARL_v2","pSARL_v2v643vty6","611f18c8da4156d7a97fa019","fixation","img/fixation.png","null","","test","","","","","",""
"370.8999999910593","408006","pSARL_v2","pSARL_v2v643vty6","611f18c8da4156d7a97fa019","freq","img/orange_2bandit_b2.png","70","70","test","1","160","160","8","",""
"null","408449","pSARL_v2","pSARL_v2v643vty6","611f18c8da4156d7a97fa019","freq_resp","img/orange_2bandit_b.png","70","70","test","","","","8","",""
"null","408604","pSARL_v2","pSARL_v2v643vty6","611f18c8da4156d7a97fa019","fixation","img/fixation.png","null","","test","","","","","",""
"327.19999998807907","408934","pSARL_v2","pSARL_v2v643vty6","611f18c8da4156d7a97fa019","freq","img/orange_2bandit_b2.png","70","70","test","1","161","161","8","",""
"null","409422","pSARL_v2","pSARL_v2v643vty6","611f18c8da4156d7a97fa019","freq_resp","img/orange_2bandit_b.png","70","70","test","","","","8","",""
"null","409586","pSARL_v2","pSARL_v2v643vty6","611f18c8da4156d7a97fa019","fixation","img/fixation.png","null","","test","","","","","",""
"528.0999999940395","410118","pSARL_v2","pSARL_v2v643vty6","611f18c8da4156d7a97fa019","infreq","img/green_2bandit_b2.png","68","68","test","1","162","162","8","",""
"null","410404","pSARL_v2","pSARL_v2v643vty6","611f18c8da4156d7a97fa019","infreq_resp","img/green_2bandit_b.png","68","68","test","","","","8","",""
"null","410562","pSARL_v2","pSARL_v2v643vty6","611f18c8da4156d7a97fa019","fixation","img/fixation.png","null","","test","","","","","",""
"521.7000000029802","411087","pSARL_v2","pSARL_v2v643vty6","611f18c8da4156d7a97fa019","freq","img/orange_2bandit_b2.png","70","70","test","1","163","163","8","",""
"null","411377","pSARL_v2","pSARL_v2v643vty6","611f18c8da4156d7a97fa019","freq_resp","img/orange_2bandit_b.png","70","70","test","","","","8","",""
"null","411533","pSARL_v2","pSARL_v2v643vty6","611f18c8da4156d7a97fa019","fixation","img/fixation.png","null","","test","","","","","",""
"374.09999999403954","411910","pSARL_v2","pSARL_v2v643vty6","611f18c8da4156d7a97fa019","freq","img/orange_2bandit_b2.png","70","70","test","1","164","164","8","",""
"null","412347","pSARL_v2","pSARL_v2v643vty6","611f18c8da4156d7a97fa019","freq_resp","img/orange_2bandit_b.png","70","70","test","","","","8","",""
"null","412503","pSARL_v2","pSARL_v2v643vty6","611f18c8da4156d7a97fa019","fixation","img/fixation.png","null","","test","","","","","",""
"315.79999999701977","412822","pSARL_v2","pSARL_v2v643vty6","611f18c8da4156d7a97fa019","freq","img/orange_2bandit_b2.png","70","70","test","1","165","165","8","",""
"null","413316","pSARL_v2","pSARL_v2v643vty6","611f18c8da4156d7a97fa019","freq_resp","img/orange_2bandit_b.png","70","70","test","","","","8","",""
"null","413474","pSARL_v2","pSARL_v2v643vty6","611f18c8da4156d7a97fa019","fixation","img/fixation.png","null","","test","","","","","",""
"344.90000000596046","413823","pSARL_v2","pSARL_v2v643vty6","611f18c8da4156d7a97fa019","freq","img/orange_2bandit_b2.png","70","70","test","1","166","166","8","",""
"null","414290","pSARL_v2","pSARL_v2v643vty6","611f18c8da4156d7a97fa019","freq_resp","img/orange_2bandit_b.png","70","70","test","","","","8","",""
"null","414445","pSARL_v2","pSARL_v2v643vty6","611f18c8da4156d7a97fa019","fixation","img/fixation.png","null","","test","","","","","",""
"382","414831","pSARL_v2","pSARL_v2v643vty6","611f18c8da4156d7a97fa019","freq","img/orange_2bandit_b2.png","70","70","test","1","167","167","8","",""
"null","415260","pSARL_v2","pSARL_v2v643vty6","611f18c8da4156d7a97fa019","freq_resp","img/orange_2bandit_b.png","70","70","test","","","","8","",""
"null","415414","pSARL_v2","pSARL_v2v643vty6","611f18c8da4156d7a97fa019","fixation","img/fixation.png","null","","test","","","","","",""
"420.70000000298023","415839","pSARL_v2","pSARL_v2v643vty6","611f18c8da4156d7a97fa019","freq","img/orange_2bandit_b2.png","70","70","test","1","168","168","8","",""
"null","416233","pSARL_v2","pSARL_v2v643vty6","611f18c8da4156d7a97fa019","freq_resp","img/orange_2bandit_b.png","70","70","test","","","","8","",""
"null","416389","pSARL_v2","pSARL_v2v643vty6","611f18c8da4156d7a97fa019","fixation","img/fixation.png","null","","test","","","","","",""
"317.8999999910593","416710","pSARL_v2","pSARL_v2v643vty6","611f18c8da4156d7a97fa019","freq","img/orange_2bandit_b2.png","70","70","test","1","169","169","8","",""
"null","417205","pSARL_v2","pSARL_v2v643vty6","611f18c8da4156d7a97fa019","freq_resp","img/orange_2bandit_b.png","70","70","test","","","","8","",""
"null","417361","pSARL_v2","pSARL_v2v643vty6","611f18c8da4156d7a97fa019","fixation","img/fixation.png","null","","test","","","","","",""
"305.8999999910593","417671","pSARL_v2","pSARL_v2v643vty6","611f18c8da4156d7a97fa019","freq","img/orange_2bandit_b2.png","70","70","test","1","170","170","8","",""
"null","418173","pSARL_v2","pSARL_v2v643vty6","611f18c8da4156d7a97fa019","freq_resp","img/orange_2bandit_b.png","70","70","test","","","","8","",""
"null","418332","pSARL_v2","pSARL_v2v643vty6","611f18c8da4156d7a97fa019","fixation","img/fixation.png","null","","test","","","","","",""
"631.2000000029802","418967","pSARL_v2","pSARL_v2v643vty6","611f18c8da4156d7a97fa019","infreq","img/green_2bandit_b2.png","68","68","test","1","171","171","8","",""
"null","419148","pSARL_v2","pSARL_v2v643vty6","611f18c8da4156d7a97fa019","infreq_resp","img/green_2bandit_b.png","68","68","test","","","","8","",""
"null","419303","pSARL_v2","pSARL_v2v643vty6","611f18c8da4156d7a97fa019","fixation","img/fixation.png","null","","test","","","","","",""
"460.3999999910593","419766","pSARL_v2","pSARL_v2v643vty6","611f18c8da4156d7a97fa019","freq","img/orange_2bandit_b2.png","70","70","test","1","172","172","8","",""
"null","420114","pSARL_v2","pSARL_v2v643vty6","611f18c8da4156d7a97fa019","freq_resp","img/orange_2bandit_b.png","70","70","test","","","","8","",""
"null","420269","pSARL_v2","pSARL_v2v643vty6","611f18c8da4156d7a97fa019","fixation","img/fixation.png","null","","test","","","","","",""
"365.70000000298023","420638","pSARL_v2","pSARL_v2v643vty6","611f18c8da4156d7a97fa019","freq","img/orange_2bandit_b2.png","70","70","test","1","173","173","8","",""
"null","421085","pSARL_v2","pSARL_v2v643vty6","611f18c8da4156d7a97fa019","freq_resp","img/orange_2bandit_b.png","70","70","test","","","","8","",""
"null","421243","pSARL_v2","pSARL_v2v643vty6","611f18c8da4156d7a97fa019","fixation","img/fixation.png","null","","test","","","","","",""
"335.79999999701977","421582","pSARL_v2","pSARL_v2v643vty6","611f18c8da4156d7a97fa019","freq","img/orange_2bandit_b2.png","70","70","test","1","174","174","8","",""
"null","422060","pSARL_v2","pSARL_v2v643vty6","611f18c8da4156d7a97fa019","freq_resp","img/orange_2bandit_b.png","70","70","test","","","","8","",""
"null","422215","pSARL_v2","pSARL_v2v643vty6","611f18c8da4156d7a97fa019","fixation","img/fixation.png","null","","test","","","","","",""
"348.20000000298023","422567","pSARL_v2","pSARL_v2v643vty6","611f18c8da4156d7a97fa019","freq","img/orange_2bandit_b2.png","70","70","test","1","175","175","8","",""
"null","423034","pSARL_v2","pSARL_v2v643vty6","611f18c8da4156d7a97fa019","freq_resp","img/orange_2bandit_b.png","70","70","test","","","","8","",""
"null","423190","pSARL_v2","pSARL_v2v643vty6","611f18c8da4156d7a97fa019","fixation","img/fixation.png","null","","test","","","","","",""
"364.90000000596046","423558","pSARL_v2","pSARL_v2v643vty6","611f18c8da4156d7a97fa019","freq","img/orange_2bandit_b2.png","70","70","test","1","176","176","8","",""
"null","424007","pSARL_v2","pSARL_v2v643vty6","611f18c8da4156d7a97fa019","freq_resp","img/orange_2bandit_b.png","70","70","test","","","","8","",""
"null","424164","pSARL_v2","pSARL_v2v643vty6","611f18c8da4156d7a97fa019","fixation","img/fixation.png","null","","test","","","","","",""
"295.5","424463","pSARL_v2","pSARL_v2v643vty6","611f18c8da4156d7a97fa019","freq","img/orange_2bandit_b2.png","70","70","test","1","177","177","8","",""
"null","424980","pSARL_v2","pSARL_v2v643vty6","611f18c8da4156d7a97fa019","freq_resp","img/orange_2bandit_b.png","70","70","test","","","","8","",""
"null","425136","pSARL_v2","pSARL_v2v643vty6","611f18c8da4156d7a97fa019","fixation","img/fixation.png","null","","test","","","","","",""
"290.5","425430","pSARL_v2","pSARL_v2v643vty6","611f18c8da4156d7a97fa019","freq","img/orange_2bandit_b2.png","70","70","test","1","178","178","8","",""
"null","425947","pSARL_v2","pSARL_v2v643vty6","611f18c8da4156d7a97fa019","freq_resp","img/orange_2bandit_b.png","70","70","test","","","","8","",""
"null","426104","pSARL_v2","pSARL_v2v643vty6","611f18c8da4156d7a97fa019","fixation","img/fixation.png","null","","test","","","","","",""
"171.3999999910593","426279","pSARL_v2","pSARL_v2v643vty6","611f18c8da4156d7a97fa019","freq","img/orange_2bandit_b2.png","70","70","test","1","179","179","8","",""
"null","426917","pSARL_v2","pSARL_v2v643vty6","611f18c8da4156d7a97fa019","freq_resp","img/orange_2bandit_b.png","70","70","test","","","","8","",""
"null","427074","pSARL_v2","pSARL_v2v643vty6","611f18c8da4156d7a97fa019","fixation","img/fixation.png","null","","test","","","","","",""
"145.5","427223","pSARL_v2","pSARL_v2v643vty6","611f18c8da4156d7a97fa019","freq","img/orange_2bandit_b2.png","70","70","test","1","180","180","8","",""
"null","427889","pSARL_v2","pSARL_v2v643vty6","611f18c8da4156d7a97fa019","freq_resp","img/orange_2bandit_b.png","70","70","test","","","","8","",""
"null","428045","pSARL_v2","pSARL_v2v643vty6","611f18c8da4156d7a97fa019","fixation","img/fixation.png","null","","test","","","","","",""
"181.20000000298023","428230","pSARL_v2","pSARL_v2v643vty6","611f18c8da4156d7a97fa019","freq","img/orange_2bandit_b2.png","70","70","test","1","181","181","8","",""
"null","428861","pSARL_v2","pSARL_v2v643vty6","611f18c8da4156d7a97fa019","freq_resp","img/orange_2bandit_b.png","70","70","test","","","","8","",""
"null","429018","pSARL_v2","pSARL_v2v643vty6","611f18c8da4156d7a97fa019","fixation","img/fixation.png","null","","test","","","","","",""
"377","429399","pSARL_v2","pSARL_v2v643vty6","611f18c8da4156d7a97fa019","freq","img/orange_2bandit_b2.png","70","70","test","1","182","182","8","",""
"null","429834","pSARL_v2","pSARL_v2v643vty6","611f18c8da4156d7a97fa019","freq_resp","img/orange_2bandit_b.png","70","70","test","","","","8","",""
"null","429990","pSARL_v2","pSARL_v2v643vty6","611f18c8da4156d7a97fa019","fixation","img/fixation.png","null","","test","","","","","",""
"348.90000000596046","430342","pSARL_v2","pSARL_v2v643vty6","611f18c8da4156d7a97fa019","freq","img/orange_2bandit_b2.png","70","70","test","1","183","183","8","",""
"null","430803","pSARL_v2","pSARL_v2v643vty6","611f18c8da4156d7a97fa019","freq_resp","img/orange_2bandit_b.png","70","70","test","","","","8","",""
"null","430959","pSARL_v2","pSARL_v2v643vty6","611f18c8da4156d7a97fa019","fixation","img/fixation.png","null","","test","","","","","",""
"572.2999999970198","431535","pSARL_v2","pSARL_v2v643vty6","611f18c8da4156d7a97fa019","reward","img/slot.png","74","","test","","","","","",""
"null","432303","pSARL_v2","pSARL_v2v643vty6","611f18c8da4156d7a97fa019","points","<div class=""verylowPoints""> -4 </div>","null","na","test","","","","8","-4","7"
"411.20000000298023","432718","pSARL_v2","pSARL_v2v643vty6","611f18c8da4156d7a97fa019","freq","img/orange_2bandit_b2.png","70","70","test","1","184","184","9","",""
"null","433119","pSARL_v2","pSARL_v2v643vty6","611f18c8da4156d7a97fa019","freq_resp","img/orange_2bandit_b.png","70","70","test","","","","9","",""
"null","433277","pSARL_v2","pSARL_v2v643vty6","611f18c8da4156d7a97fa019","fixation","img/fixation.png","null","","test","","","","","",""
"430.79999999701977","433711","pSARL_v2","pSARL_v2v643vty6","611f18c8da4156d7a97fa019","freq","img/orange_2bandit_b2.png","70","70","test","1","185","185","9","",""
"null","434087","pSARL_v2","pSARL_v2v643vty6","611f18c8da4156d7a97fa019","freq_resp","img/orange_2bandit_b.png","70","70","test","","","","9","",""
"null","434245","pSARL_v2","pSARL_v2v643vty6","611f18c8da4156d7a97fa019","fixation","img/fixation.png","null","","test","","","","","",""
"406.79999999701977","434654","pSARL_v2","pSARL_v2v643vty6","611f18c8da4156d7a97fa019","freq","img/orange_2bandit_b2.png","70","70","test","1","186","186","9","",""
"null","435057","pSARL_v2","pSARL_v2v643vty6","611f18c8da4156d7a97fa019","freq_resp","img/orange_2bandit_b.png","70","70","test","","","","9","",""
"null","435215","pSARL_v2","pSARL_v2v643vty6","611f18c8da4156d7a97fa019","fixation","img/fixation.png","null","","test","","","","","",""
"380.09999999403954","435598","pSARL_v2","pSARL_v2v643vty6","611f18c8da4156d7a97fa019","freq","img/orange_2bandit_b2.png","70","70","test","1","187","187","9","",""
"null","436030","pSARL_v2","pSARL_v2v643vty6","611f18c8da4156d7a97fa019","freq_resp","img/orange_2bandit_b.png","70","70","test","","","","9","",""
"null","436186","pSARL_v2","pSARL_v2v643vty6","611f18c8da4156d7a97fa019","fixation","img/fixation.png","null","","test","","","","","",""
"296.6000000089407","436486","pSARL_v2","pSARL_v2v643vty6","611f18c8da4156d7a97fa019","infreq","img/green_2bandit_b2.png","70","68","test","0","188","188","9","",""
"null","437003","pSARL_v2","pSARL_v2v643vty6","611f18c8da4156d7a97fa019","infreq_resp","img/green_2bandit_b.png","70","68","test","","","","9","",""
"null","437160","pSARL_v2","pSARL_v2v643vty6","611f18c8da4156d7a97fa019","fixation","img/fixation.png","null","","test","","","","","",""
"371.6000000089407","437535","pSARL_v2","pSARL_v2v643vty6","611f18c8da4156d7a97fa019","freq","img/orange_2bandit_b2.png","70","70","test","1","189","189","9","",""
"null","437975","pSARL_v2","pSARL_v2v643vty6","611f18c8da4156d7a97fa019","freq_resp","img/orange_2bandit_b.png","70","70","test","","","","9","",""
"null","438131","pSARL_v2","pSARL_v2v643vty6","611f18c8da4156d7a97fa019","fixation","img/fixation.png","null","","test","","","","","",""
"527.5999999940395","438663","pSARL_v2","pSARL_v2v643vty6","611f18c8da4156d7a97fa019","infreq","img/green_2bandit_b2.png","68","68","test","1","190","190","9","",""
"null","438945","pSARL_v2","pSARL_v2v643vty6","611f18c8da4156d7a97fa019","infreq_resp","img/green_2bandit_b.png","68","68","test","","","","9","",""
"null","439101","pSARL_v2","pSARL_v2v643vty6","611f18c8da4156d7a97fa019","fixation","img/fixation.png","null","","test","","","","","",""
"405.79999999701977","439510","pSARL_v2","pSARL_v2v643vty6","611f18c8da4156d7a97fa019","freq","img/orange_2bandit_b2.png","70","70","test","1","191","191","9","",""
"null","439913","pSARL_v2","pSARL_v2v643vty6","611f18c8da4156d7a97fa019","freq_resp","img/orange_2bandit_b.png","70","70","test","","","","9","",""
"null","440070","pSARL_v2","pSARL_v2v643vty6","611f18c8da4156d7a97fa019","fixation","img/fixation.png","null","","test","","","","","",""
"340.79999999701977","440414","pSARL_v2","pSARL_v2v643vty6","611f18c8da4156d7a97fa019","freq","img/orange_2bandit_b2.png","70","70","test","1","192","192","9","",""
"null","440886","pSARL_v2","pSARL_v2v643vty6","611f18c8da4156d7a97fa019","freq_resp","img/orange_2bandit_b.png","70","70","test","","","","9","",""
"null","441041","pSARL_v2","pSARL_v2v643vty6","611f18c8da4156d7a97fa019","fixation","img/fixation.png","null","","test","","","","","",""
"313.5","441358","pSARL_v2","pSARL_v2v643vty6","611f18c8da4156d7a97fa019","freq","img/orange_2bandit_b2.png","70","70","test","1","193","193","9","",""
"null","441854","pSARL_v2","pSARL_v2v643vty6","611f18c8da4156d7a97fa019","freq_resp","img/orange_2bandit_b.png","70","70","test","","","","9","",""
"null","442011","pSARL_v2","pSARL_v2v643vty6","611f18c8da4156d7a97fa019","fixation","img/fixation.png","null","","test","","","","","",""
"352.6000000089407","442366","pSARL_v2","pSARL_v2v643vty6","611f18c8da4156d7a97fa019","freq","img/orange_2bandit_b2.png","70","70","test","1","194","194","9","",""
"null","442826","pSARL_v2","pSARL_v2v643vty6","611f18c8da4156d7a97fa019","freq_resp","img/orange_2bandit_b.png","70","70","test","","","","9","",""
"null","442981","pSARL_v2","pSARL_v2v643vty6","611f18c8da4156d7a97fa019","fixation","img/fixation.png","null","","test","","","","","",""
"375.20000000298023","443359","pSARL_v2","pSARL_v2v643vty6","611f18c8da4156d7a97fa019","freq","img/orange_2bandit_b2.png","70","70","test","1","195","195","9","",""
"null","443798","pSARL_v2","pSARL_v2v643vty6","611f18c8da4156d7a97fa019","freq_resp","img/orange_2bandit_b.png","70","70","test","","","","9","",""
"null","443956","pSARL_v2","pSARL_v2v643vty6","611f18c8da4156d7a97fa019","fixation","img/fixation.png","null","","test","","","","","",""
"344.5","444303","pSARL_v2","pSARL_v2v643vty6","611f18c8da4156d7a97fa019","freq","img/orange_2bandit_b2.png","70","70","test","1","196","196","9","",""
"null","444771","pSARL_v2","pSARL_v2v643vty6","611f18c8da4156d7a97fa019","freq_resp","img/orange_2bandit_b.png","70","70","test","","","","9","",""
"null","444928","pSARL_v2","pSARL_v2v643vty6","611f18c8da4156d7a97fa019","fixation","img/fixation.png","null","","test","","","","","",""
"379.29999999701977","445311","pSARL_v2","pSARL_v2v643vty6","611f18c8da4156d7a97fa019","freq","img/orange_2bandit_b2.png","70","70","test","1","197","197","9","",""
"null","445740","pSARL_v2","pSARL_v2v643vty6","611f18c8da4156d7a97fa019","freq_resp","img/orange_2bandit_b.png","70","70","test","","","","9","",""
"null","445897","pSARL_v2","pSARL_v2v643vty6","611f18c8da4156d7a97fa019","fixation","img/fixation.png","null","","test","","","","","",""
"458","446359","pSARL_v2","pSARL_v2v643vty6","611f18c8da4156d7a97fa019","freq","img/orange_2bandit_b2.png","70","70","test","1","198","198","9","",""
"null","446714","pSARL_v2","pSARL_v2v643vty6","611f18c8da4156d7a97fa019","freq_resp","img/orange_2bandit_b.png","70","70","test","","","","9","",""
"null","446870","pSARL_v2","pSARL_v2v643vty6","611f18c8da4156d7a97fa019","fixation","img/fixation.png","null","","test","","","","","",""
"373.90000000596046","447247","pSARL_v2","pSARL_v2v643vty6","611f18c8da4156d7a97fa019","freq","img/orange_2bandit_b2.png","70","70","test","1","199","199","9","",""
"null","447690","pSARL_v2","pSARL_v2v643vty6","611f18c8da4156d7a97fa019","freq_resp","img/orange_2bandit_b.png","70","70","test","","","","9","",""
"null","447847","pSARL_v2","pSARL_v2v643vty6","611f18c8da4156d7a97fa019","fixation","img/fixation.png","null","","test","","","","","",""
"340.40000000596046","448191","pSARL_v2","pSARL_v2v643vty6","611f18c8da4156d7a97fa019","freq","img/orange_2bandit_b2.png","70","70","test","1","200","200","9","",""
"null","448662","pSARL_v2","pSARL_v2v643vty6","611f18c8da4156d7a97fa019","freq_resp","img/orange_2bandit_b.png","70","70","test","","","","9","",""
"null","448819","pSARL_v2","pSARL_v2v643vty6","611f18c8da4156d7a97fa019","fixation","img/fixation.png","null","","test","","","","","",""
"336.5","449158","pSARL_v2","pSARL_v2v643vty6","611f18c8da4156d7a97fa019","freq","img/orange_2bandit_b2.png","70","70","test","1","201","201","9","",""
"null","449631","pSARL_v2","pSARL_v2v643vty6","611f18c8da4156d7a97fa019","freq_resp","img/orange_2bandit_b.png","70","70","test","","","","9","",""
"null","449789","pSARL_v2","pSARL_v2v643vty6","611f18c8da4156d7a97fa019","fixation","img/fixation.png","null","","test","","","","","",""
"414.20000000298023","450207","pSARL_v2","pSARL_v2v643vty6","611f18c8da4156d7a97fa019","freq","img/orange_2bandit_b2.png","70","70","test","1","202","202","9","",""
"null","450605","pSARL_v2","pSARL_v2v643vty6","611f18c8da4156d7a97fa019","freq_resp","img/orange_2bandit_b.png","70","70","test","","","","9","",""
"null","450761","pSARL_v2","pSARL_v2v643vty6","611f18c8da4156d7a97fa019","fixation","img/fixation.png","null","","test","","","","","",""
"609.6000000089407","451374","pSARL_v2","pSARL_v2v643vty6","611f18c8da4156d7a97fa019","freq","img/orange_2bandit_b2.png","70","70","test","1","203","203","9","",""
"null","451574","pSARL_v2","pSARL_v2v643vty6","611f18c8da4156d7a97fa019","freq_resp","img/orange_2bandit_b.png","70","70","test","","","","9","",""
"null","451732","pSARL_v2","pSARL_v2v643vty6","611f18c8da4156d7a97fa019","fixation","img/fixation.png","null","","test","","","","","",""
"607.0999999940395","452342","pSARL_v2","pSARL_v2v643vty6","611f18c8da4156d7a97fa019","infreq","img/green_2bandit_b2.png","68","68","test","1","204","204","9","",""
"null","452550","pSARL_v2","pSARL_v2v643vty6","611f18c8da4156d7a97fa019","infreq_resp","img/green_2bandit_b.png","68","68","test","","","","9","",""
"null","452707","pSARL_v2","pSARL_v2v643vty6","611f18c8da4156d7a97fa019","fixation","img/fixation.png","null","","test","","","","","",""
"376.3999999910593","453086","pSARL_v2","pSARL_v2v643vty6","611f18c8da4156d7a97fa019","freq","img/orange_2bandit_b2.png","70","70","test","1","205","205","9","",""
"null","453521","pSARL_v2","pSARL_v2v643vty6","611f18c8da4156d7a97fa019","freq_resp","img/orange_2bandit_b.png","70","70","test","","","","9","",""
"null","453680","pSARL_v2","pSARL_v2v643vty6","611f18c8da4156d7a97fa019","fixation","img/fixation.png","null","","test","","","","","",""
"530.9000000059605","454214","pSARL_v2","pSARL_v2v643vty6","611f18c8da4156d7a97fa019","freq","img/orange_2bandit_b2.png","70","70","test","1","206","206","9","",""
