"rt","time_elapsed","expId","subject","prolificID","trialType","stimulus","key_press","corrresp","phase","corr","trialNum","attentionRunNum","blockNum","points","rlNum"
"2785","2790","pSARL_v2","pSARL_v2lp3ksyf8","6000cefee380e61fa9bc5ae4","","","","","","","","","","",""
"","5005","pSARL_v2","pSARL_v2lp3ksyf8","6000cefee380e61fa9bc5ae4","fullscreen","","","","","","","","","",""
"55977","60984","pSARL_v2","pSARL_v2lp3ksyf8","6000cefee380e61fa9bc5ae4","","","","","","","","","","",""
"null","61790","pSARL_v2","pSARL_v2lp3ksyf8","6000cefee380e61fa9bc5ae4","freqPrac","img/orange_2bandit_a2.png","null","70","prac","0","","","","",""
"null","62801","pSARL_v2","pSARL_v2lp3ksyf8","6000cefee380e61fa9bc5ae4","feedback","img/tooSlow.png","null","na","prac","","","","","",""
"null","62961","pSARL_v2","pSARL_v2lp3ksyf8","6000cefee380e61fa9bc5ae4","fixation","img/fixation.png","null","","prac","","","","","",""
"492","63456","pSARL_v2","pSARL_v2lp3ksyf8","6000cefee380e61fa9bc5ae4","infreqPrac","img/green_2bandit_a2.png","68","68","prac","1","","","","",""
"492","63781","pSARL_v2","pSARL_v2lp3ksyf8","6000cefee380e61fa9bc5ae4","infreqPrac_resp","img/green_2bandit_a.png","68","68","prac","","","","","",""
"null","63938","pSARL_v2","pSARL_v2lp3ksyf8","6000cefee380e61fa9bc5ae4","fixation","img/fixation.png","null","","prac","","","","","",""
"355","64296","pSARL_v2","pSARL_v2lp3ksyf8","6000cefee380e61fa9bc5ae4","freqPrac","img/orange_2bandit_a2.png","70","70","prac","1","","","","",""
"355","64748","pSARL_v2","pSARL_v2lp3ksyf8","6000cefee380e61fa9bc5ae4","freqPrac_resp","img/orange_2bandit_a.png","70","70","prac","","","","","",""
"null","64903","pSARL_v2","pSARL_v2lp3ksyf8","6000cefee380e61fa9bc5ae4","fixation","img/fixation.png","null","","prac","","","","","",""
"374","65280","pSARL_v2","pSARL_v2lp3ksyf8","6000cefee380e61fa9bc5ae4","infreqPrac","img/green_2bandit_a2.png","68","68","prac","1","","","","",""
"374","65715","pSARL_v2","pSARL_v2lp3ksyf8","6000cefee380e61fa9bc5ae4","infreqPrac_resp","img/green_2bandit_a.png","68","68","prac","","","","","",""
"null","65873","pSARL_v2","pSARL_v2lp3ksyf8","6000cefee380e61fa9bc5ae4","fixation","img/fixation.png","null","","prac","","","","","",""
"411","66288","pSARL_v2","pSARL_v2lp3ksyf8","6000cefee380e61fa9bc5ae4","infreqPrac","img/green_2bandit_a2.png","68","68","prac","1","","","","",""
"411","66681","pSARL_v2","pSARL_v2lp3ksyf8","6000cefee380e61fa9bc5ae4","infreqPrac_resp","img/green_2bandit_a.png","68","68","prac","","","","","",""
"null","66838","pSARL_v2","pSARL_v2lp3ksyf8","6000cefee380e61fa9bc5ae4","fixation","img/fixation.png","null","","prac","","","","","",""
"350","67192","pSARL_v2","pSARL_v2lp3ksyf8","6000cefee380e61fa9bc5ae4","infreqPrac","img/green_2bandit_a2.png","68","68","prac","1","","","","",""
"350","67647","pSARL_v2","pSARL_v2lp3ksyf8","6000cefee380e61fa9bc5ae4","infreqPrac_resp","img/green_2bandit_a.png","68","68","prac","","","","","",""
"null","67806","pSARL_v2","pSARL_v2lp3ksyf8","6000cefee380e61fa9bc5ae4","fixation","img/fixation.png","null","","prac","","","","","",""
"383","68192","pSARL_v2","pSARL_v2lp3ksyf8","6000cefee380e61fa9bc5ae4","freqPrac","img/orange_2bandit_a2.png","70","70","prac","1","","","","",""
"383","68623","pSARL_v2","pSARL_v2lp3ksyf8","6000cefee380e61fa9bc5ae4","freqPrac_resp","img/orange_2bandit_a.png","70","70","prac","","","","","",""
"null","68782","pSARL_v2","pSARL_v2lp3ksyf8","6000cefee380e61fa9bc5ae4","fixation","img/fixation.png","null","","prac","","","","","",""
"326","69112","pSARL_v2","pSARL_v2lp3ksyf8","6000cefee380e61fa9bc5ae4","infreqPrac","img/green_2bandit_a2.png","68","68","prac","1","","","","",""
"326","69591","pSARL_v2","pSARL_v2lp3ksyf8","6000cefee380e61fa9bc5ae4","infreqPrac_resp","img/green_2bandit_a.png","68","68","prac","","","","","",""
"null","69748","pSARL_v2","pSARL_v2lp3ksyf8","6000cefee380e61fa9bc5ae4","fixation","img/fixation.png","null","","prac","","","","","",""
"409","70160","pSARL_v2","pSARL_v2lp3ksyf8","6000cefee380e61fa9bc5ae4","freqPrac","img/orange_2bandit_a2.png","70","70","prac","1","","","","",""
"409","70557","pSARL_v2","pSARL_v2lp3ksyf8","6000cefee380e61fa9bc5ae4","freqPrac_resp","img/orange_2bandit_a.png","70","70","prac","","","","","",""
"null","70713","pSARL_v2","pSARL_v2lp3ksyf8","6000cefee380e61fa9bc5ae4","fixation","img/fixation.png","null","","prac","","","","","",""
"428","71144","pSARL_v2","pSARL_v2lp3ksyf8","6000cefee380e61fa9bc5ae4","freqPrac","img/orange_2bandit_a2.png","70","70","prac","1","","","","",""
"428","71535","pSARL_v2","pSARL_v2lp3ksyf8","6000cefee380e61fa9bc5ae4","freqPrac_resp","img/orange_2bandit_a.png","70","70","prac","","","","","",""
"null","71695","pSARL_v2","pSARL_v2lp3ksyf8","6000cefee380e61fa9bc5ae4","fixation","img/fixation.png","null","","prac","","","","","",""
"25046","96744","pSARL_v2","pSARL_v2lp3ksyf8","6000cefee380e61fa9bc5ae4","","","","","prac","","","","","",""
"2420","99168","pSARL_v2","pSARL_v2lp3ksyf8","6000cefee380e61fa9bc5ae4","rewardPractice","img/slot.png","74","","prac","","","","","",""
"null","99928","pSARL_v2","pSARL_v2lp3ksyf8","6000cefee380e61fa9bc5ae4","feedback","<div class=""veryhighPoints""> +15 </div>","null","na","prac","","","","","",""
"null","100084","pSARL_v2","pSARL_v2lp3ksyf8","6000cefee380e61fa9bc5ae4","fixation","img/fixation.png","null","","prac","","","","","",""
"17499","117585","pSARL_v2","pSARL_v2lp3ksyf8","6000cefee380e61fa9bc5ae4","","","","","prac","","","","","",""
"604","118192","pSARL_v2","pSARL_v2lp3ksyf8","6000cefee380e61fa9bc5ae4","freq","img/orange_2bandit_a2.png","68","70","test","0","1","1","1","",""
"null","118405","pSARL_v2","pSARL_v2lp3ksyf8","6000cefee380e61fa9bc5ae4","freq_resp","img/orange_2bandit_a.png","68","70","test","","","","1","",""
"null","118563","pSARL_v2","pSARL_v2lp3ksyf8","6000cefee380e61fa9bc5ae4","fixation","img/fixation.png","null","","test","","","","","",""
"null","119372","pSARL_v2","pSARL_v2lp3ksyf8","6000cefee380e61fa9bc5ae4","freq","img/orange_2bandit_a2.png","null","70","test","0","2","2","1","",""
"null","119530","pSARL_v2","pSARL_v2lp3ksyf8","6000cefee380e61fa9bc5ae4","fixation","img/fixation.png","null","","test","","","","","",""
"null","120347","pSARL_v2","pSARL_v2lp3ksyf8","6000cefee380e61fa9bc5ae4","freq","img/orange_2bandit_a2.png","null","70","test","0","3","3","1","",""
"null","120505","pSARL_v2","pSARL_v2lp3ksyf8","6000cefee380e61fa9bc5ae4","fixation","img/fixation.png","null","","test","","","","","",""
"771","121280","pSARL_v2","pSARL_v2lp3ksyf8","6000cefee380e61fa9bc5ae4","freq","img/orange_2bandit_a2.png","70","70","test","1","4","4","1","",""
"null","121312","pSARL_v2","pSARL_v2lp3ksyf8","6000cefee380e61fa9bc5ae4","freq_resp","img/orange_2bandit_a.png","70","70","test","","","","1","",""
"null","121470","pSARL_v2","pSARL_v2lp3ksyf8","6000cefee380e61fa9bc5ae4","fixation","img/fixation.png","null","","test","","","","","",""
"416","121888","pSARL_v2","pSARL_v2lp3ksyf8","6000cefee380e61fa9bc5ae4","freq","img/orange_2bandit_a2.png","70","70","test","1","5","5","1","",""
"null","122276","pSARL_v2","pSARL_v2lp3ksyf8","6000cefee380e61fa9bc5ae4","freq_resp","img/orange_2bandit_a.png","70","70","test","","","","1","",""
"null","122436","pSARL_v2","pSARL_v2lp3ksyf8","6000cefee380e61fa9bc5ae4","fixation","img/fixation.png","null","","test","","","","","",""
"361","122800","pSARL_v2","pSARL_v2lp3ksyf8","6000cefee380e61fa9bc5ae4","freq","img/orange_2bandit_a2.png","70","70","test","1","6","6","1","",""
"null","123244","pSARL_v2","pSARL_v2lp3ksyf8","6000cefee380e61fa9bc5ae4","freq_resp","img/orange_2bandit_a.png","70","70","test","","","","1","",""
"null","123399","pSARL_v2","pSARL_v2lp3ksyf8","6000cefee380e61fa9bc5ae4","fixation","img/fixation.png","null","","test","","","","","",""
"374","123777","pSARL_v2","pSARL_v2lp3ksyf8","6000cefee380e61fa9bc5ae4","freq","img/orange_2bandit_a2.png","70","70","test","1","7","7","1","",""
"null","124216","pSARL_v2","pSARL_v2lp3ksyf8","6000cefee380e61fa9bc5ae4","freq_resp","img/orange_2bandit_a.png","70","70","test","","","","1","",""
"null","124372","pSARL_v2","pSARL_v2lp3ksyf8","6000cefee380e61fa9bc5ae4","fixation","img/fixation.png","null","","test","","","","","",""
"394","124768","pSARL_v2","pSARL_v2lp3ksyf8","6000cefee380e61fa9bc5ae4","freq","img/orange_2bandit_a2.png","70","70","test","1","8","8","1","",""
"null","125179","pSARL_v2","pSARL_v2lp3ksyf8","6000cefee380e61fa9bc5ae4","freq_resp","img/orange_2bandit_a.png","70","70","test","","","","1","",""
"null","125338","pSARL_v2","pSARL_v2lp3ksyf8","6000cefee380e61fa9bc5ae4","fixation","img/fixation.png","null","","test","","","","","",""
"371","125712","pSARL_v2","pSARL_v2lp3ksyf8","6000cefee380e61fa9bc5ae4","freq","img/orange_2bandit_a2.png","70","70","test","1","9","9","1","",""
"null","126159","pSARL_v2","pSARL_v2lp3ksyf8","6000cefee380e61fa9bc5ae4","freq_resp","img/orange_2bandit_a.png","70","70","test","","","","1","",""
"null","126320","pSARL_v2","pSARL_v2lp3ksyf8","6000cefee380e61fa9bc5ae4","fixation","img/fixation.png","null","","test","","","","","",""
"382","126704","pSARL_v2","pSARL_v2lp3ksyf8","6000cefee380e61fa9bc5ae4","freq","img/orange_2bandit_a2.png","70","70","test","1","10","10","1","",""
"null","127127","pSARL_v2","pSARL_v2lp3ksyf8","6000cefee380e61fa9bc5ae4","freq_resp","img/orange_2bandit_a.png","70","70","test","","","","1","",""
"null","127284","pSARL_v2","pSARL_v2lp3ksyf8","6000cefee380e61fa9bc5ae4","fixation","img/fixation.png","null","","test","","","","","",""
"393","127680","pSARL_v2","pSARL_v2lp3ksyf8","6000cefee380e61fa9bc5ae4","freq","img/orange_2bandit_a2.png","70","70","test","1","11","11","1","",""
"null","128103","pSARL_v2","pSARL_v2lp3ksyf8","6000cefee380e61fa9bc5ae4","freq_resp","img/orange_2bandit_a.png","70","70","test","","","","1","",""
"null","128258","pSARL_v2","pSARL_v2lp3ksyf8","6000cefee380e61fa9bc5ae4","fixation","img/fixation.png","null","","test","","","","","",""
"355","128616","pSARL_v2","pSARL_v2lp3ksyf8","6000cefee380e61fa9bc5ae4","freq","img/orange_2bandit_a2.png","70","70","test","1","12","12","1","",""
"null","129064","pSARL_v2","pSARL_v2lp3ksyf8","6000cefee380e61fa9bc5ae4","freq_resp","img/orange_2bandit_a.png","70","70","test","","","","1","",""
"null","129221","pSARL_v2","pSARL_v2lp3ksyf8","6000cefee380e61fa9bc5ae4","fixation","img/fixation.png","null","","test","","","","","",""
"249","129472","pSARL_v2","pSARL_v2lp3ksyf8","6000cefee380e61fa9bc5ae4","freq","img/orange_2bandit_a2.png","70","70","test","1","13","13","1","",""
"null","130027","pSARL_v2","pSARL_v2lp3ksyf8","6000cefee380e61fa9bc5ae4","freq_resp","img/orange_2bandit_a.png","70","70","test","","","","1","",""
"null","130185","pSARL_v2","pSARL_v2lp3ksyf8","6000cefee380e61fa9bc5ae4","fixation","img/fixation.png","null","","test","","","","","",""
"172","130360","pSARL_v2","pSARL_v2lp3ksyf8","6000cefee380e61fa9bc5ae4","freq","img/orange_2bandit_a2.png","70","70","test","1","14","14","1","",""
"null","131002","pSARL_v2","pSARL_v2lp3ksyf8","6000cefee380e61fa9bc5ae4","freq_resp","img/orange_2bandit_a.png","70","70","test","","","","1","",""
"null","131160","pSARL_v2","pSARL_v2lp3ksyf8","6000cefee380e61fa9bc5ae4","fixation","img/fixation.png","null","","test","","","","","",""
"212","131376","pSARL_v2","pSARL_v2lp3ksyf8","6000cefee380e61fa9bc5ae4","freq","img/orange_2bandit_a2.png","68","70","test","0","15","15","1","",""
"null","131972","pSARL_v2","pSARL_v2lp3ksyf8","6000cefee380e61fa9bc5ae4","freq_resp","img/orange_2bandit_a.png","68","70","test","","","","1","",""
"null","132130","pSARL_v2","pSARL_v2lp3ksyf8","6000cefee380e61fa9bc5ae4","fixation","img/fixation.png","null","","test","","","","","",""
"331","132464","pSARL_v2","pSARL_v2lp3ksyf8","6000cefee380e61fa9bc5ae4","freq","img/orange_2bandit_a2.png","70","70","test","1","16","16","1","",""
"null","132940","pSARL_v2","pSARL_v2lp3ksyf8","6000cefee380e61fa9bc5ae4","freq_resp","img/orange_2bandit_a.png","70","70","test","","","","1","",""
"null","133098","pSARL_v2","pSARL_v2lp3ksyf8","6000cefee380e61fa9bc5ae4","fixation","img/fixation.png","null","","test","","","","","",""
"460","133560","pSARL_v2","pSARL_v2lp3ksyf8","6000cefee380e61fa9bc5ae4","infreq","img/green_2bandit_a2.png","70","68","test","0","17","17","1","",""
"null","133908","pSARL_v2","pSARL_v2lp3ksyf8","6000cefee380e61fa9bc5ae4","infreq_resp","img/green_2bandit_a.png","70","68","test","","","","1","",""
"null","134067","pSARL_v2","pSARL_v2lp3ksyf8","6000cefee380e61fa9bc5ae4","fixation","img/fixation.png","null","","test","","","","","",""
"618","134688","pSARL_v2","pSARL_v2lp3ksyf8","6000cefee380e61fa9bc5ae4","infreq","img/green_2bandit_a2.png","68","68","test","1","18","18","1","",""
"null","134888","pSARL_v2","pSARL_v2lp3ksyf8","6000cefee380e61fa9bc5ae4","infreq_resp","img/green_2bandit_a.png","68","68","test","","","","1","",""
"null","135046","pSARL_v2","pSARL_v2lp3ksyf8","6000cefee380e61fa9bc5ae4","fixation","img/fixation.png","null","","test","","","","","",""
"607","135657","pSARL_v2","pSARL_v2lp3ksyf8","6000cefee380e61fa9bc5ae4","freq","img/orange_2bandit_a2.png","70","70","test","1","19","19","1","",""
"null","135859","pSARL_v2","pSARL_v2lp3ksyf8","6000cefee380e61fa9bc5ae4","freq_resp","img/orange_2bandit_a.png","70","70","test","","","","1","",""
"null","136018","pSARL_v2","pSARL_v2lp3ksyf8","6000cefee380e61fa9bc5ae4","fixation","img/fixation.png","null","","test","","","","","",""
"763","136784","pSARL_v2","pSARL_v2lp3ksyf8","6000cefee380e61fa9bc5ae4","reward","img/slot.png","74","","test","","","","","",""
"null","137551","pSARL_v2","pSARL_v2lp3ksyf8","6000cefee380e61fa9bc5ae4","points","<div class=""verylowPoints""> -6 </div>","null","na","test","","","","1","-6","0"
"null","138359","pSARL_v2","pSARL_v2lp3ksyf8","6000cefee380e61fa9bc5ae4","freq","img/orange_2bandit_a2.png","null","70","test","0","20","20","2","",""
"null","138515","pSARL_v2","pSARL_v2lp3ksyf8","6000cefee380e61fa9bc5ae4","fixation","img/fixation.png","null","","test","","","","","",""
"738","139256","pSARL_v2","pSARL_v2lp3ksyf8","6000cefee380e61fa9bc5ae4","freq","img/orange_2bandit_a2.png","68","70","test","0","21","21","2","",""
"null","139336","pSARL_v2","pSARL_v2lp3ksyf8","6000cefee380e61fa9bc5ae4","freq_resp","img/orange_2bandit_a.png","68","70","test","","","","2","",""
"null","139494","pSARL_v2","pSARL_v2lp3ksyf8","6000cefee380e61fa9bc5ae4","fixation","img/fixation.png","null","","test","","","","","",""
"646","140144","pSARL_v2","pSARL_v2lp3ksyf8","6000cefee380e61fa9bc5ae4","freq","img/orange_2bandit_a2.png","68","70","test","0","22","22","2","",""
"null","140303","pSARL_v2","pSARL_v2lp3ksyf8","6000cefee380e61fa9bc5ae4","freq_resp","img/orange_2bandit_a.png","68","70","test","","","","2","",""
"null","140462","pSARL_v2","pSARL_v2lp3ksyf8","6000cefee380e61fa9bc5ae4","fixation","img/fixation.png","null","","test","","","","","",""
"479","140944","pSARL_v2","pSARL_v2lp3ksyf8","6000cefee380e61fa9bc5ae4","freq","img/orange_2bandit_a2.png","68","70","test","0","23","23","2","",""
"null","141277","pSARL_v2","pSARL_v2lp3ksyf8","6000cefee380e61fa9bc5ae4","freq_resp","img/orange_2bandit_a.png","68","70","test","","","","2","",""
"null","141434","pSARL_v2","pSARL_v2lp3ksyf8","6000cefee380e61fa9bc5ae4","fixation","img/fixation.png","null","","test","","","","","",""
"null","142251","pSARL_v2","pSARL_v2lp3ksyf8","6000cefee380e61fa9bc5ae4","freq","img/orange_2bandit_a2.png","null","70","test","0","24","24","2","",""
"null","142412","pSARL_v2","pSARL_v2lp3ksyf8","6000cefee380e61fa9bc5ae4","fixation","img/fixation.png","null","","test","","","","","",""
"458","142872","pSARL_v2","pSARL_v2lp3ksyf8","6000cefee380e61fa9bc5ae4","freq","img/orange_2bandit_a2.png","70","70","test","1","25","25","2","",""
"null","143220","pSARL_v2","pSARL_v2lp3ksyf8","6000cefee380e61fa9bc5ae4","freq_resp","img/orange_2bandit_a.png","70","70","test","","","","2","",""
"null","143377","pSARL_v2","pSARL_v2lp3ksyf8","6000cefee380e61fa9bc5ae4","fixation","img/fixation.png","null","","test","","","","","",""
"244","143624","pSARL_v2","pSARL_v2lp3ksyf8","6000cefee380e61fa9bc5ae4","freq","img/orange_2bandit_a2.png","70","70","test","1","26","26","2","",""
"null","144198","pSARL_v2","pSARL_v2lp3ksyf8","6000cefee380e61fa9bc5ae4","freq_resp","img/orange_2bandit_a.png","70","70","test","","","","2","",""
"null","144357","pSARL_v2","pSARL_v2lp3ksyf8","6000cefee380e61fa9bc5ae4","fixation","img/fixation.png","null","","test","","","","","",""
"216","144577","pSARL_v2","pSARL_v2lp3ksyf8","6000cefee380e61fa9bc5ae4","freq","img/orange_2bandit_a2.png","70","70","test","1","27","27","2","",""
"null","145179","pSARL_v2","pSARL_v2lp3ksyf8","6000cefee380e61fa9bc5ae4","freq_resp","img/orange_2bandit_a.png","70","70","test","","","","2","",""
"null","145337","pSARL_v2","pSARL_v2lp3ksyf8","6000cefee380e61fa9bc5ae4","fixation","img/fixation.png","null","","test","","","","","",""
"236","145577","pSARL_v2","pSARL_v2lp3ksyf8","6000cefee380e61fa9bc5ae4","freq","img/orange_2bandit_a2.png","70","70","test","1","28","28","2","",""
"null","146157","pSARL_v2","pSARL_v2lp3ksyf8","6000cefee380e61fa9bc5ae4","freq_resp","img/orange_2bandit_a.png","70","70","test","","","","2","",""
"null","146315","pSARL_v2","pSARL_v2lp3ksyf8","6000cefee380e61fa9bc5ae4","fixation","img/fixation.png","null","","test","","","","","",""
"250","146568","pSARL_v2","pSARL_v2lp3ksyf8","6000cefee380e61fa9bc5ae4","infreq","img/green_2bandit_a2.png","70","68","test","0","29","29","2","",""
"null","147133","pSARL_v2","pSARL_v2lp3ksyf8","6000cefee380e61fa9bc5ae4","infreq_resp","img/green_2bandit_a.png","70","68","test","","","","2","",""
"null","147292","pSARL_v2","pSARL_v2lp3ksyf8","6000cefee380e61fa9bc5ae4","fixation","img/fixation.png","null","","test","","","","","",""
"368","147664","pSARL_v2","pSARL_v2lp3ksyf8","6000cefee380e61fa9bc5ae4","infreq","img/green_2bandit_a2.png","68","68","test","1","30","30","2","",""
"null","148111","pSARL_v2","pSARL_v2lp3ksyf8","6000cefee380e61fa9bc5ae4","infreq_resp","img/green_2bandit_a.png","68","68","test","","","","2","",""
"null","148268","pSARL_v2","pSARL_v2lp3ksyf8","6000cefee380e61fa9bc5ae4","fixation","img/fixation.png","null","","test","","","","","",""
"378","148648","pSARL_v2","pSARL_v2lp3ksyf8","6000cefee380e61fa9bc5ae4","freq","img/orange_2bandit_a2.png","70","70","test","1","31","31","2","",""
"null","149086","pSARL_v2","pSARL_v2lp3ksyf8","6000cefee380e61fa9bc5ae4","freq_resp","img/orange_2bandit_a.png","70","70","test","","","","2","",""
"null","149246","pSARL_v2","pSARL_v2lp3ksyf8","6000cefee380e61fa9bc5ae4","fixation","img/fixation.png","null","","test","","","","","",""
"336","149584","pSARL_v2","pSARL_v2lp3ksyf8","6000cefee380e61fa9bc5ae4","freq","img/orange_2bandit_a2.png","70","70","test","1","32","32","2","",""
"null","150053","pSARL_v2","pSARL_v2lp3ksyf8","6000cefee380e61fa9bc5ae4","freq_resp","img/orange_2bandit_a.png","70","70","test","","","","2","",""
"null","150212","pSARL_v2","pSARL_v2lp3ksyf8","6000cefee380e61fa9bc5ae4","fixation","img/fixation.png","null","","test","","","","","",""
"297","150512","pSARL_v2","pSARL_v2lp3ksyf8","6000cefee380e61fa9bc5ae4","freq","img/orange_2bandit_a2.png","70","70","test","1","33","33","2","",""
"null","151033","pSARL_v2","pSARL_v2lp3ksyf8","6000cefee380e61fa9bc5ae4","freq_resp","img/orange_2bandit_a.png","70","70","test","","","","2","",""
"null","151191","pSARL_v2","pSARL_v2lp3ksyf8","6000cefee380e61fa9bc5ae4","fixation","img/fixation.png","null","","test","","","","","",""
"438","151632","pSARL_v2","pSARL_v2lp3ksyf8","6000cefee380e61fa9bc5ae4","infreq","img/green_2bandit_a2.png","68","68","test","1","34","34","2","",""
"null","151997","pSARL_v2","pSARL_v2lp3ksyf8","6000cefee380e61fa9bc5ae4","infreq_resp","img/green_2bandit_a.png","68","68","test","","","","2","",""
"null","152156","pSARL_v2","pSARL_v2lp3ksyf8","6000cefee380e61fa9bc5ae4","fixation","img/fixation.png","null","","test","","","","","",""
"345","152503","pSARL_v2","pSARL_v2lp3ksyf8","6000cefee380e61fa9bc5ae4","freq","img/orange_2bandit_a2.png","70","70","test","1","35","35","2","",""
"null","152975","pSARL_v2","pSARL_v2lp3ksyf8","6000cefee380e61fa9bc5ae4","freq_resp","img/orange_2bandit_a.png","70","70","test","","","","2","",""
"null","153134","pSARL_v2","pSARL_v2lp3ksyf8","6000cefee380e61fa9bc5ae4","fixation","img/fixation.png","null","","test","","","","","",""
"240","153376","pSARL_v2","pSARL_v2lp3ksyf8","6000cefee380e61fa9bc5ae4","freq","img/orange_2bandit_a2.png","70","70","test","1","36","36","2","",""
"null","153942","pSARL_v2","pSARL_v2lp3ksyf8","6000cefee380e61fa9bc5ae4","freq_resp","img/orange_2bandit_a.png","70","70","test","","","","2","",""
"null","154100","pSARL_v2","pSARL_v2lp3ksyf8","6000cefee380e61fa9bc5ae4","fixation","img/fixation.png","null","","test","","","","","",""
"289","154393","pSARL_v2","pSARL_v2lp3ksyf8","6000cefee380e61fa9bc5ae4","freq","img/orange_2bandit_a2.png","70","70","test","1","37","37","2","",""
"null","154910","pSARL_v2","pSARL_v2lp3ksyf8","6000cefee380e61fa9bc5ae4","freq_resp","img/orange_2bandit_a.png","70","70","test","","","","2","",""
"null","155066","pSARL_v2","pSARL_v2lp3ksyf8","6000cefee380e61fa9bc5ae4","fixation","img/fixation.png","null","","test","","","","","",""
"266","155336","pSARL_v2","pSARL_v2lp3ksyf8","6000cefee380e61fa9bc5ae4","freq","img/orange_2bandit_a2.png","70","70","test","1","38","38","2","",""
"null","155874","pSARL_v2","pSARL_v2lp3ksyf8","6000cefee380e61fa9bc5ae4","freq_resp","img/orange_2bandit_a.png","70","70","test","","","","2","",""
"null","156031","pSARL_v2","pSARL_v2lp3ksyf8","6000cefee380e61fa9bc5ae4","fixation","img/fixation.png","null","","test","","","","","",""
"134","156168","pSARL_v2","pSARL_v2lp3ksyf8","6000cefee380e61fa9bc5ae4","freq","img/orange_2bandit_a2.png","70","70","test","1","39","39","2","",""
"null","156850","pSARL_v2","pSARL_v2lp3ksyf8","6000cefee380e61fa9bc5ae4","freq_resp","img/orange_2bandit_a.png","70","70","test","","","","2","",""
"null","157007","pSARL_v2","pSARL_v2lp3ksyf8","6000cefee380e61fa9bc5ae4","fixation","img/fixation.png","null","","test","","","","","",""
"222","157232","pSARL_v2","pSARL_v2lp3ksyf8","6000cefee380e61fa9bc5ae4","freq","img/orange_2bandit_a2.png","70","70","test","1","40","40","2","",""
"null","157829","pSARL_v2","pSARL_v2lp3ksyf8","6000cefee380e61fa9bc5ae4","freq_resp","img/orange_2bandit_a.png","70","70","test","","","","2","",""
"null","157987","pSARL_v2","pSARL_v2lp3ksyf8","6000cefee380e61fa9bc5ae4","fixation","img/fixation.png","null","","test","","","","","",""
"282","158272","pSARL_v2","pSARL_v2lp3ksyf8","6000cefee380e61fa9bc5ae4","freq","img/orange_2bandit_a2.png","70","70","test","1","41","41","2","",""
"null","158803","pSARL_v2","pSARL_v2lp3ksyf8","6000cefee380e61fa9bc5ae4","freq_resp","img/orange_2bandit_a.png","70","70","test","","","","2","",""
"null","158960","pSARL_v2","pSARL_v2lp3ksyf8","6000cefee380e61fa9bc5ae4","fixation","img/fixation.png","null","","test","","","","","",""
"645","159608","pSARL_v2","pSARL_v2lp3ksyf8","6000cefee380e61fa9bc5ae4","reward","img/slot.png","74","","test","","","","","",""
"null","160366","pSARL_v2","pSARL_v2lp3ksyf8","6000cefee380e61fa9bc5ae4","points","<div class=""verylowPoints""> -11 </div>","null","na","test","","","","2","-11","1"
"750","161120","pSARL_v2","pSARL_v2lp3ksyf8","6000cefee380e61fa9bc5ae4","freq","img/orange_2bandit_a2.png","70","70","test","1","42","42","3","",""
"null","161183","pSARL_v2","pSARL_v2lp3ksyf8","6000cefee380e61fa9bc5ae4","freq_resp","img/orange_2bandit_a.png","70","70","test","","","","3","",""
"null","161341","pSARL_v2","pSARL_v2lp3ksyf8","6000cefee380e61fa9bc5ae4","fixation","img/fixation.png","null","","test","","","","","",""
"335","161680","pSARL_v2","pSARL_v2lp3ksyf8","6000cefee380e61fa9bc5ae4","freq","img/orange_2bandit_a2.png","70","70","test","1","43","43","3","",""
"null","162161","pSARL_v2","pSARL_v2lp3ksyf8","6000cefee380e61fa9bc5ae4","freq_resp","img/orange_2bandit_a.png","70","70","test","","","","3","",""
"null","162319","pSARL_v2","pSARL_v2lp3ksyf8","6000cefee380e61fa9bc5ae4","fixation","img/fixation.png","null","","test","","","","","",""
"262","162584","pSARL_v2","pSARL_v2lp3ksyf8","6000cefee380e61fa9bc5ae4","freq","img/orange_2bandit_a2.png","70","70","test","1","44","44","3","",""
"null","163140","pSARL_v2","pSARL_v2lp3ksyf8","6000cefee380e61fa9bc5ae4","freq_resp","img/orange_2bandit_a.png","70","70","test","","","","3","",""
"null","163297","pSARL_v2","pSARL_v2lp3ksyf8","6000cefee380e61fa9bc5ae4","fixation","img/fixation.png","null","","test","","","","","",""
"243","163544","pSARL_v2","pSARL_v2lp3ksyf8","6000cefee380e61fa9bc5ae4","freq","img/orange_2bandit_a2.png","70","70","test","1","45","45","3","",""
"null","164118","pSARL_v2","pSARL_v2lp3ksyf8","6000cefee380e61fa9bc5ae4","freq_resp","img/orange_2bandit_a.png","70","70","test","","","","3","",""
"null","164275","pSARL_v2","pSARL_v2lp3ksyf8","6000cefee380e61fa9bc5ae4","fixation","img/fixation.png","null","","test","","","","","",""
"274","164552","pSARL_v2","pSARL_v2lp3ksyf8","6000cefee380e61fa9bc5ae4","freq","img/orange_2bandit_a2.png","70","70","test","1","46","46","3","",""
"null","165081","pSARL_v2","pSARL_v2lp3ksyf8","6000cefee380e61fa9bc5ae4","freq_resp","img/orange_2bandit_a.png","70","70","test","","","","3","",""
"null","165239","pSARL_v2","pSARL_v2lp3ksyf8","6000cefee380e61fa9bc5ae4","fixation","img/fixation.png","null","","test","","","","","",""
"246","165488","pSARL_v2","pSARL_v2lp3ksyf8","6000cefee380e61fa9bc5ae4","freq","img/orange_2bandit_a2.png","70","70","test","1","47","47","3","",""
"null","166058","pSARL_v2","pSARL_v2lp3ksyf8","6000cefee380e61fa9bc5ae4","freq_resp","img/orange_2bandit_a.png","70","70","test","","","","3","",""
"null","166215","pSARL_v2","pSARL_v2lp3ksyf8","6000cefee380e61fa9bc5ae4","fixation","img/fixation.png","null","","test","","","","","",""
"207","166424","pSARL_v2","pSARL_v2lp3ksyf8","6000cefee380e61fa9bc5ae4","freq","img/orange_2bandit_a2.png","70","70","test","1","48","48","3","",""
"null","167024","pSARL_v2","pSARL_v2lp3ksyf8","6000cefee380e61fa9bc5ae4","freq_resp","img/orange_2bandit_a.png","70","70","test","","","","3","",""
"null","167182","pSARL_v2","pSARL_v2lp3ksyf8","6000cefee380e61fa9bc5ae4","fixation","img/fixation.png","null","","test","","","","","",""
"254","167440","pSARL_v2","pSARL_v2lp3ksyf8","6000cefee380e61fa9bc5ae4","freq","img/orange_2bandit_a2.png","70","70","test","1","49","49","3","",""
"null","167990","pSARL_v2","pSARL_v2lp3ksyf8","6000cefee380e61fa9bc5ae4","freq_resp","img/orange_2bandit_a.png","70","70","test","","","","3","",""
"null","168149","pSARL_v2","pSARL_v2lp3ksyf8","6000cefee380e61fa9bc5ae4","fixation","img/fixation.png","null","","test","","","","","",""
"280","168432","pSARL_v2","pSARL_v2lp3ksyf8","6000cefee380e61fa9bc5ae4","freq","img/orange_2bandit_a2.png","70","70","test","1","50","50","3","",""
"null","168969","pSARL_v2","pSARL_v2lp3ksyf8","6000cefee380e61fa9bc5ae4","freq_resp","img/orange_2bandit_a.png","70","70","test","","","","3","",""
"null","169126","pSARL_v2","pSARL_v2lp3ksyf8","6000cefee380e61fa9bc5ae4","fixation","img/fixation.png","null","","test","","","","","",""
"271","169401","pSARL_v2","pSARL_v2lp3ksyf8","6000cefee380e61fa9bc5ae4","freq","img/orange_2bandit_a2.png","70","70","test","1","51","51","3","",""
"null","169933","pSARL_v2","pSARL_v2lp3ksyf8","6000cefee380e61fa9bc5ae4","freq_resp","img/orange_2bandit_a.png","70","70","test","","","","3","",""
"null","170091","pSARL_v2","pSARL_v2lp3ksyf8","6000cefee380e61fa9bc5ae4","fixation","img/fixation.png","null","","test","","","","","",""
"266","170360","pSARL_v2","pSARL_v2lp3ksyf8","6000cefee380e61fa9bc5ae4","freq","img/orange_2bandit_a2.png","70","70","test","1","52","52","3","",""
"null","170898","pSARL_v2","pSARL_v2lp3ksyf8","6000cefee380e61fa9bc5ae4","freq_resp","img/orange_2bandit_a.png","70","70","test","","","","3","",""
"null","171057","pSARL_v2","pSARL_v2lp3ksyf8","6000cefee380e61fa9bc5ae4","fixation","img/fixation.png","null","","test","","","","","",""
"236","171296","pSARL_v2","pSARL_v2lp3ksyf8","6000cefee380e61fa9bc5ae4","freq","img/orange_2bandit_a2.png","70","70","test","1","53","53","3","",""
"null","171875","pSARL_v2","pSARL_v2lp3ksyf8","6000cefee380e61fa9bc5ae4","freq_resp","img/orange_2bandit_a.png","70","70","test","","","","3","",""
"null","172029","pSARL_v2","pSARL_v2lp3ksyf8","6000cefee380e61fa9bc5ae4","fixation","img/fixation.png","null","","test","","","","","",""
"249","172280","pSARL_v2","pSARL_v2lp3ksyf8","6000cefee380e61fa9bc5ae4","infreq","img/green_2bandit_a2.png","70","68","test","0","54","54","3","",""
"null","172849","pSARL_v2","pSARL_v2lp3ksyf8","6000cefee380e61fa9bc5ae4","infreq_resp","img/green_2bandit_a.png","70","68","test","","","","3","",""
"null","173008","pSARL_v2","pSARL_v2lp3ksyf8","6000cefee380e61fa9bc5ae4","fixation","img/fixation.png","null","","test","","","","","",""
"270","173280","pSARL_v2","pSARL_v2lp3ksyf8","6000cefee380e61fa9bc5ae4","infreq","img/green_2bandit_a2.png","68","68","test","1","55","55","3","",""
"null","173826","pSARL_v2","pSARL_v2lp3ksyf8","6000cefee380e61fa9bc5ae4","infreq_resp","img/green_2bandit_a.png","68","68","test","","","","3","",""
"null","173984","pSARL_v2","pSARL_v2lp3ksyf8","6000cefee380e61fa9bc5ae4","fixation","img/fixation.png","null","","test","","","","","",""
"221","174208","pSARL_v2","pSARL_v2lp3ksyf8","6000cefee380e61fa9bc5ae4","freq","img/orange_2bandit_a2.png","68","70","test","0","56","56","3","",""
"null","174794","pSARL_v2","pSARL_v2lp3ksyf8","6000cefee380e61fa9bc5ae4","freq_resp","img/orange_2bandit_a.png","68","70","test","","","","3","",""
"null","174952","pSARL_v2","pSARL_v2lp3ksyf8","6000cefee380e61fa9bc5ae4","fixation","img/fixation.png","null","","test","","","","","",""
"294","175248","pSARL_v2","pSARL_v2lp3ksyf8","6000cefee380e61fa9bc5ae4","freq","img/orange_2bandit_a2.png","70","70","test","1","57","57","3","",""
"null","175759","pSARL_v2","pSARL_v2lp3ksyf8","6000cefee380e61fa9bc5ae4","freq_resp","img/orange_2bandit_a.png","70","70","test","","","","3","",""
"null","175916","pSARL_v2","pSARL_v2lp3ksyf8","6000cefee380e61fa9bc5ae4","fixation","img/fixation.png","null","","test","","","","","",""
"424","176344","pSARL_v2","pSARL_v2lp3ksyf8","6000cefee380e61fa9bc5ae4","infreq","img/green_2bandit_a2.png","68","68","test","1","58","58","3","",""
"null","176738","pSARL_v2","pSARL_v2lp3ksyf8","6000cefee380e61fa9bc5ae4","infreq_resp","img/green_2bandit_a.png","68","68","test","","","","3","",""
"null","176896","pSARL_v2","pSARL_v2lp3ksyf8","6000cefee380e61fa9bc5ae4","fixation","img/fixation.png","null","","test","","","","","",""
"373","177273","pSARL_v2","pSARL_v2lp3ksyf8","6000cefee380e61fa9bc5ae4","freq","img/orange_2bandit_a2.png","70","70","test","1","59","59","3","",""
"null","177717","pSARL_v2","pSARL_v2lp3ksyf8","6000cefee380e61fa9bc5ae4","freq_resp","img/orange_2bandit_a.png","70","70","test","","","","3","",""
"null","177875","pSARL_v2","pSARL_v2lp3ksyf8","6000cefee380e61fa9bc5ae4","fixation","img/fixation.png","null","","test","","","","","",""
"315","178192","pSARL_v2","pSARL_v2lp3ksyf8","6000cefee380e61fa9bc5ae4","freq","img/orange_2bandit_a2.png","70","70","test","1","60","60","3","",""
"null","178680","pSARL_v2","pSARL_v2lp3ksyf8","6000cefee380e61fa9bc5ae4","freq_resp","img/orange_2bandit_a.png","70","70","test","","","","3","",""
"null","178839","pSARL_v2","pSARL_v2lp3ksyf8","6000cefee380e61fa9bc5ae4","fixation","img/fixation.png","null","","test","","","","","",""
"270","179112","pSARL_v2","pSARL_v2lp3ksyf8","6000cefee380e61fa9bc5ae4","freq","img/orange_2bandit_a2.png","70","70","test","1","61","61","3","",""
"null","179658","pSARL_v2","pSARL_v2lp3ksyf8","6000cefee380e61fa9bc5ae4","freq_resp","img/orange_2bandit_a.png","70","70","test","","","","3","",""
"null","179812","pSARL_v2","pSARL_v2lp3ksyf8","6000cefee380e61fa9bc5ae4","fixation","img/fixation.png","null","","test","","","","","",""
"273","180088","pSARL_v2","pSARL_v2lp3ksyf8","6000cefee380e61fa9bc5ae4","freq","img/orange_2bandit_a2.png","70","70","test","1","62","62","3","",""
"null","180626","pSARL_v2","pSARL_v2lp3ksyf8","6000cefee380e61fa9bc5ae4","freq_resp","img/orange_2bandit_a.png","70","70","test","","","","3","",""
"null","180783","pSARL_v2","pSARL_v2lp3ksyf8","6000cefee380e61fa9bc5ae4","fixation","img/fixation.png","null","","test","","","","","",""
"670","181457","pSARL_v2","pSARL_v2lp3ksyf8","6000cefee380e61fa9bc5ae4","reward","img/slot.png","74","","test","","","","","",""
"null","182210","pSARL_v2","pSARL_v2lp3ksyf8","6000cefee380e61fa9bc5ae4","points","<div class=""verylowPoints""> -7 </div>","null","na","test","","","","3","-7","2"
"610","182824","pSARL_v2","pSARL_v2lp3ksyf8","6000cefee380e61fa9bc5ae4","freq","img/orange_2bandit_a2.png","70","70","test","1","63","63","4","",""
"null","183029","pSARL_v2","pSARL_v2lp3ksyf8","6000cefee380e61fa9bc5ae4","freq_resp","img/orange_2bandit_a.png","70","70","test","","","","4","",""
"null","183187","pSARL_v2","pSARL_v2lp3ksyf8","6000cefee380e61fa9bc5ae4","fixation","img/fixation.png","null","","test","","","","","",""
"322","183511","pSARL_v2","pSARL_v2lp3ksyf8","6000cefee380e61fa9bc5ae4","freq","img/orange_2bandit_a2.png","70","70","test","1","64","64","4","",""
"null","183992","pSARL_v2","pSARL_v2lp3ksyf8","6000cefee380e61fa9bc5ae4","freq_resp","img/orange_2bandit_a.png","70","70","test","","","","4","",""
"null","184152","pSARL_v2","pSARL_v2lp3ksyf8","6000cefee380e61fa9bc5ae4","fixation","img/fixation.png","null","","test","","","","","",""
"308","184463","pSARL_v2","pSARL_v2lp3ksyf8","6000cefee380e61fa9bc5ae4","freq","img/orange_2bandit_a2.png","70","70","test","1","65","65","4","",""
"null","184960","pSARL_v2","pSARL_v2lp3ksyf8","6000cefee380e61fa9bc5ae4","freq_resp","img/orange_2bandit_a.png","70","70","test","","","","4","",""
"null","185119","pSARL_v2","pSARL_v2lp3ksyf8","6000cefee380e61fa9bc5ae4","fixation","img/fixation.png","null","","test","","","","","",""
"262","185383","pSARL_v2","pSARL_v2lp3ksyf8","6000cefee380e61fa9bc5ae4","freq","img/orange_2bandit_a2.png","70","70","test","1","66","66","4","",""
"null","185935","pSARL_v2","pSARL_v2lp3ksyf8","6000cefee380e61fa9bc5ae4","freq_resp","img/orange_2bandit_a.png","70","70","test","","","","4","",""
"null","186089","pSARL_v2","pSARL_v2lp3ksyf8","6000cefee380e61fa9bc5ae4","fixation","img/fixation.png","null","","test","","","","","",""
"283","186376","pSARL_v2","pSARL_v2lp3ksyf8","6000cefee380e61fa9bc5ae4","freq","img/orange_2bandit_a2.png","70","70","test","1","67","67","4","",""
"null","186910","pSARL_v2","pSARL_v2lp3ksyf8","6000cefee380e61fa9bc5ae4","freq_resp","img/orange_2bandit_a.png","70","70","test","","","","4","",""
"null","187070","pSARL_v2","pSARL_v2lp3ksyf8","6000cefee380e61fa9bc5ae4","fixation","img/fixation.png","null","","test","","","","","",""
"271","187344","pSARL_v2","pSARL_v2lp3ksyf8","6000cefee380e61fa9bc5ae4","freq","img/orange_2bandit_a2.png","70","70","test","1","68","68","4","",""
"null","187891","pSARL_v2","pSARL_v2lp3ksyf8","6000cefee380e61fa9bc5ae4","freq_resp","img/orange_2bandit_a.png","70","70","test","","","","4","",""
"null","188048","pSARL_v2","pSARL_v2lp3ksyf8","6000cefee380e61fa9bc5ae4","fixation","img/fixation.png","null","","test","","","","","",""
"428","188480","pSARL_v2","pSARL_v2lp3ksyf8","6000cefee380e61fa9bc5ae4","infreq","img/green_2bandit_a2.png","68","68","test","1","69","69","4","",""
"null","188868","pSARL_v2","pSARL_v2lp3ksyf8","6000cefee380e61fa9bc5ae4","infreq_resp","img/green_2bandit_a.png","68","68","test","","","","4","",""
"null","189027","pSARL_v2","pSARL_v2lp3ksyf8","6000cefee380e61fa9bc5ae4","fixation","img/fixation.png","null","","test","","","","","",""
"386","189415","pSARL_v2","pSARL_v2lp3ksyf8","6000cefee380e61fa9bc5ae4","freq","img/orange_2bandit_a2.png","70","70","test","1","70","70","4","",""
"null","189833","pSARL_v2","pSARL_v2lp3ksyf8","6000cefee380e61fa9bc5ae4","freq_resp","img/orange_2bandit_a.png","70","70","test","","","","4","",""
"null","189992","pSARL_v2","pSARL_v2lp3ksyf8","6000cefee380e61fa9bc5ae4","fixation","img/fixation.png","null","","test","","","","","",""
"333","190329","pSARL_v2","pSARL_v2lp3ksyf8","6000cefee380e61fa9bc5ae4","infreq","img/green_2bandit_a2.png","70","68","test","0","71","71","4","",""
"null","190802","pSARL_v2","pSARL_v2lp3ksyf8","6000cefee380e61fa9bc5ae4","infreq_resp","img/green_2bandit_a.png","70","68","test","","","","4","",""
"null","190961","pSARL_v2","pSARL_v2lp3ksyf8","6000cefee380e61fa9bc5ae4","fixation","img/fixation.png","null","","test","","","","","",""
"372","191335","pSARL_v2","pSARL_v2lp3ksyf8","6000cefee380e61fa9bc5ae4","freq","img/orange_2bandit_a2.png","70","70","test","1","72","72","4","",""
"null","191769","pSARL_v2","pSARL_v2lp3ksyf8","6000cefee380e61fa9bc5ae4","freq_resp","img/orange_2bandit_a.png","70","70","test","","","","4","",""
"null","191928","pSARL_v2","pSARL_v2lp3ksyf8","6000cefee380e61fa9bc5ae4","fixation","img/fixation.png","null","","test","","","","","",""
"325","192256","pSARL_v2","pSARL_v2lp3ksyf8","6000cefee380e61fa9bc5ae4","freq","img/orange_2bandit_a2.png","70","70","test","1","73","73","4","",""
"null","192738","pSARL_v2","pSARL_v2lp3ksyf8","6000cefee380e61fa9bc5ae4","freq_resp","img/orange_2bandit_a.png","70","70","test","","","","4","",""
"null","192895","pSARL_v2","pSARL_v2lp3ksyf8","6000cefee380e61fa9bc5ae4","fixation","img/fixation.png","null","","test","","","","","",""
"293","193191","pSARL_v2","pSARL_v2lp3ksyf8","6000cefee380e61fa9bc5ae4","freq","img/orange_2bandit_a2.png","70","70","test","1","74","74","4","",""
"null","193703","pSARL_v2","pSARL_v2lp3ksyf8","6000cefee380e61fa9bc5ae4","freq_resp","img/orange_2bandit_a.png","70","70","test","","","","4","",""
"null","193861","pSARL_v2","pSARL_v2lp3ksyf8","6000cefee380e61fa9bc5ae4","fixation","img/fixation.png","null","","test","","","","","",""
"296","194160","pSARL_v2","pSARL_v2lp3ksyf8","6000cefee380e61fa9bc5ae4","freq","img/orange_2bandit_a2.png","70","70","test","1","75","75","4","",""
"null","194668","pSARL_v2","pSARL_v2lp3ksyf8","6000cefee380e61fa9bc5ae4","freq_resp","img/orange_2bandit_a.png","70","70","test","","","","4","",""
"null","194824","pSARL_v2","pSARL_v2lp3ksyf8","6000cefee380e61fa9bc5ae4","fixation","img/fixation.png","null","","test","","","","","",""
"317","195144","pSARL_v2","pSARL_v2lp3ksyf8","6000cefee380e61fa9bc5ae4","freq","img/orange_2bandit_a2.png","70","70","test","1","76","76","4","",""
"null","195631","pSARL_v2","pSARL_v2lp3ksyf8","6000cefee380e61fa9bc5ae4","freq_resp","img/orange_2bandit_a.png","70","70","test","","","","4","",""
"null","195790","pSARL_v2","pSARL_v2lp3ksyf8","6000cefee380e61fa9bc5ae4","fixation","img/fixation.png","null","","test","","","","","",""
"318","196113","pSARL_v2","pSARL_v2lp3ksyf8","6000cefee380e61fa9bc5ae4","freq","img/orange_2bandit_a2.png","70","70","test","1","77","77","4","",""
"null","196614","pSARL_v2","pSARL_v2lp3ksyf8","6000cefee380e61fa9bc5ae4","freq_resp","img/orange_2bandit_a.png","70","70","test","","","","4","",""
"null","196768","pSARL_v2","pSARL_v2lp3ksyf8","6000cefee380e61fa9bc5ae4","fixation","img/fixation.png","null","","test","","","","","",""
"292","197064","pSARL_v2","pSARL_v2lp3ksyf8","6000cefee380e61fa9bc5ae4","freq","img/orange_2bandit_a2.png","70","70","test","1","78","78","4","",""
"null","197590","pSARL_v2","pSARL_v2lp3ksyf8","6000cefee380e61fa9bc5ae4","freq_resp","img/orange_2bandit_a.png","70","70","test","","","","4","",""
"null","197748","pSARL_v2","pSARL_v2lp3ksyf8","6000cefee380e61fa9bc5ae4","fixation","img/fixation.png","null","","test","","","","","",""
"241","197993","pSARL_v2","pSARL_v2lp3ksyf8","6000cefee380e61fa9bc5ae4","freq","img/orange_2bandit_a2.png","70","70","test","1","79","79","4","",""
"null","198569","pSARL_v2","pSARL_v2lp3ksyf8","6000cefee380e61fa9bc5ae4","freq_resp","img/orange_2bandit_a.png","70","70","test","","","","4","",""
"null","198730","pSARL_v2","pSARL_v2lp3ksyf8","6000cefee380e61fa9bc5ae4","fixation","img/fixation.png","null","","test","","","","","",""
"266","198999","pSARL_v2","pSARL_v2lp3ksyf8","6000cefee380e61fa9bc5ae4","freq","img/orange_2bandit_a2.png","70","70","test","1","80","80","4","",""
"null","199551","pSARL_v2","pSARL_v2lp3ksyf8","6000cefee380e61fa9bc5ae4","freq_resp","img/orange_2bandit_a.png","70","70","test","","","","4","",""
"null","199708","pSARL_v2","pSARL_v2lp3ksyf8","6000cefee380e61fa9bc5ae4","fixation","img/fixation.png","null","","test","","","","","",""
"297","200008","pSARL_v2","pSARL_v2lp3ksyf8","6000cefee380e61fa9bc5ae4","freq","img/orange_2bandit_a2.png","70","70","test","1","81","81","4","",""
"null","200529","pSARL_v2","pSARL_v2lp3ksyf8","6000cefee380e61fa9bc5ae4","freq_resp","img/orange_2bandit_a.png","70","70","test","","","","4","",""
"null","200685","pSARL_v2","pSARL_v2lp3ksyf8","6000cefee380e61fa9bc5ae4","fixation","img/fixation.png","null","","test","","","","","",""
"320","201008","pSARL_v2","pSARL_v2lp3ksyf8","6000cefee380e61fa9bc5ae4","freq","img/orange_2bandit_a2.png","70","70","test","1","82","82","4","",""
"null","201491","pSARL_v2","pSARL_v2lp3ksyf8","6000cefee380e61fa9bc5ae4","freq_resp","img/orange_2bandit_a.png","70","70","test","","","","4","",""
"null","201651","pSARL_v2","pSARL_v2lp3ksyf8","6000cefee380e61fa9bc5ae4","fixation","img/fixation.png","null","","test","","","","","",""
"298","201951","pSARL_v2","pSARL_v2lp3ksyf8","6000cefee380e61fa9bc5ae4","freq","img/orange_2bandit_a2.png","70","70","test","1","83","83","4","",""
"null","202459","pSARL_v2","pSARL_v2lp3ksyf8","6000cefee380e61fa9bc5ae4","freq_resp","img/orange_2bandit_a.png","70","70","test","","","","4","",""
"null","202615","pSARL_v2","pSARL_v2lp3ksyf8","6000cefee380e61fa9bc5ae4","fixation","img/fixation.png","null","","test","","","","","",""
"278","202896","pSARL_v2","pSARL_v2lp3ksyf8","6000cefee380e61fa9bc5ae4","infreq","img/green_2bandit_a2.png","70","68","test","0","84","84","4","",""
"null","203421","pSARL_v2","pSARL_v2lp3ksyf8","6000cefee380e61fa9bc5ae4","infreq_resp","img/green_2bandit_a.png","70","68","test","","","","4","",""
"null","203581","pSARL_v2","pSARL_v2lp3ksyf8","6000cefee380e61fa9bc5ae4","fixation","img/fixation.png","null","","test","","","","","",""
"407","203992","pSARL_v2","pSARL_v2lp3ksyf8","6000cefee380e61fa9bc5ae4","freq","img/orange_2bandit_a2.png","70","70","test","1","85","85","4","",""
"null","204388","pSARL_v2","pSARL_v2lp3ksyf8","6000cefee380e61fa9bc5ae4","freq_resp","img/orange_2bandit_a.png","70","70","test","","","","4","",""
"null","204544","pSARL_v2","pSARL_v2lp3ksyf8","6000cefee380e61fa9bc5ae4","fixation","img/fixation.png","null","","test","","","","","",""
"364","204911","pSARL_v2","pSARL_v2lp3ksyf8","6000cefee380e61fa9bc5ae4","freq","img/orange_2bandit_a2.png","70","70","test","1","86","86","4","",""
"null","205351","pSARL_v2","pSARL_v2lp3ksyf8","6000cefee380e61fa9bc5ae4","freq_resp","img/orange_2bandit_a.png","70","70","test","","","","4","",""
"null","205512","pSARL_v2","pSARL_v2lp3ksyf8","6000cefee380e61fa9bc5ae4","fixation","img/fixation.png","null","","test","","","","","",""
"333","205848","pSARL_v2","pSARL_v2lp3ksyf8","6000cefee380e61fa9bc5ae4","freq","img/orange_2bandit_a2.png","70","70","test","1","87","87","4","",""
"null","206333","pSARL_v2","pSARL_v2lp3ksyf8","6000cefee380e61fa9bc5ae4","freq_resp","img/orange_2bandit_a.png","70","70","test","","","","4","",""
"null","206491","pSARL_v2","pSARL_v2lp3ksyf8","6000cefee380e61fa9bc5ae4","fixation","img/fixation.png","null","","test","","","","","",""
"298","206792","pSARL_v2","pSARL_v2lp3ksyf8","6000cefee380e61fa9bc5ae4","freq","img/orange_2bandit_a2.png","70","70","test","1","88","88","4","",""
"null","207299","pSARL_v2","pSARL_v2lp3ksyf8","6000cefee380e61fa9bc5ae4","freq_resp","img/orange_2bandit_a.png","70","70","test","","","","4","",""
"null","207458","pSARL_v2","pSARL_v2lp3ksyf8","6000cefee380e61fa9bc5ae4","fixation","img/fixation.png","null","","test","","","","","",""
"315","207775","pSARL_v2","pSARL_v2lp3ksyf8","6000cefee380e61fa9bc5ae4","freq","img/orange_2bandit_a2.png","70","70","test","1","89","89","4","",""
"null","208270","pSARL_v2","pSARL_v2lp3ksyf8","6000cefee380e61fa9bc5ae4","freq_resp","img/orange_2bandit_a.png","70","70","test","","","","4","",""
"null","208428","pSARL_v2","pSARL_v2lp3ksyf8","6000cefee380e61fa9bc5ae4","fixation","img/fixation.png","null","","test","","","","","",""
"657","209087","pSARL_v2","pSARL_v2lp3ksyf8","6000cefee380e61fa9bc5ae4","reward","img/slot.png","74","","test","","","","","",""
"null","209847","pSARL_v2","pSARL_v2lp3ksyf8","6000cefee380e61fa9bc5ae4","points","<div class=""verylowPoints""> -3 </div>","null","na","test","","","","4","-3","3"
"446","210296","pSARL_v2","pSARL_v2lp3ksyf8","6000cefee380e61fa9bc5ae4","freq","img/orange_2bandit_a2.png","70","70","test","1","90","90","5","",""
"null","210655","pSARL_v2","pSARL_v2lp3ksyf8","6000cefee380e61fa9bc5ae4","freq_resp","img/orange_2bandit_a.png","70","70","test","","","","5","",""
"null","210811","pSARL_v2","pSARL_v2lp3ksyf8","6000cefee380e61fa9bc5ae4","fixation","img/fixation.png","null","","test","","","","","",""
"306","211120","pSARL_v2","pSARL_v2lp3ksyf8","6000cefee380e61fa9bc5ae4","freq","img/orange_2bandit_a2.png","70","70","test","1","91","91","5","",""
"null","211630","pSARL_v2","pSARL_v2lp3ksyf8","6000cefee380e61fa9bc5ae4","freq_resp","img/orange_2bandit_a.png","70","70","test","","","","5","",""
"null","211787","pSARL_v2","pSARL_v2lp3ksyf8","6000cefee380e61fa9bc5ae4","fixation","img/fixation.png","null","","test","","","","","",""
"282","212071","pSARL_v2","pSARL_v2lp3ksyf8","6000cefee380e61fa9bc5ae4","freq","img/orange_2bandit_a2.png","70","70","test","1","92","92","5","",""
"null","212604","pSARL_v2","pSARL_v2lp3ksyf8","6000cefee380e61fa9bc5ae4","freq_resp","img/orange_2bandit_a.png","70","70","test","","","","5","",""
"null","212761","pSARL_v2","pSARL_v2lp3ksyf8","6000cefee380e61fa9bc5ae4","fixation","img/fixation.png","null","","test","","","","","",""
"314","213080","pSARL_v2","pSARL_v2lp3ksyf8","6000cefee380e61fa9bc5ae4","freq","img/orange_2bandit_a2.png","70","70","test","1","93","93","5","",""
"null","213581","pSARL_v2","pSARL_v2lp3ksyf8","6000cefee380e61fa9bc5ae4","freq_resp","img/orange_2bandit_a.png","70","70","test","","","","5","",""
"null","213737","pSARL_v2","pSARL_v2lp3ksyf8","6000cefee380e61fa9bc5ae4","fixation","img/fixation.png","null","","test","","","","","",""
"307","214048","pSARL_v2","pSARL_v2lp3ksyf8","6000cefee380e61fa9bc5ae4","freq","img/orange_2bandit_a2.png","70","70","test","1","94","94","5","",""
"null","214555","pSARL_v2","pSARL_v2lp3ksyf8","6000cefee380e61fa9bc5ae4","freq_resp","img/orange_2bandit_a.png","70","70","test","","","","5","",""
"null","214714","pSARL_v2","pSARL_v2lp3ksyf8","6000cefee380e61fa9bc5ae4","fixation","img/fixation.png","null","","test","","","","","",""
"433","215153","pSARL_v2","pSARL_v2lp3ksyf8","6000cefee380e61fa9bc5ae4","infreq","img/green_2bandit_a2.png","68","68","test","1","95","95","5","",""
"null","215537","pSARL_v2","pSARL_v2lp3ksyf8","6000cefee380e61fa9bc5ae4","infreq_resp","img/green_2bandit_a.png","68","68","test","","","","5","",""
"null","215694","pSARL_v2","pSARL_v2lp3ksyf8","6000cefee380e61fa9bc5ae4","fixation","img/fixation.png","null","","test","","","","","",""
"358","216056","pSARL_v2","pSARL_v2lp3ksyf8","6000cefee380e61fa9bc5ae4","freq","img/orange_2bandit_a2.png","70","70","test","1","96","96","5","",""
"null","216503","pSARL_v2","pSARL_v2lp3ksyf8","6000cefee380e61fa9bc5ae4","freq_resp","img/orange_2bandit_a.png","70","70","test","","","","5","",""
"null","216662","pSARL_v2","pSARL_v2lp3ksyf8","6000cefee380e61fa9bc5ae4","fixation","img/fixation.png","null","","test","","","","","",""
"295","216959","pSARL_v2","pSARL_v2lp3ksyf8","6000cefee380e61fa9bc5ae4","freq","img/orange_2bandit_a2.png","70","70","test","1","97","97","5","",""
"null","217470","pSARL_v2","pSARL_v2lp3ksyf8","6000cefee380e61fa9bc5ae4","freq_resp","img/orange_2bandit_a.png","70","70","test","","","","5","",""
"null","217626","pSARL_v2","pSARL_v2lp3ksyf8","6000cefee380e61fa9bc5ae4","fixation","img/fixation.png","null","","test","","","","","",""
"323","217952","pSARL_v2","pSARL_v2lp3ksyf8","6000cefee380e61fa9bc5ae4","freq","img/orange_2bandit_a2.png","70","70","test","1","98","98","5","",""
"null","218440","pSARL_v2","pSARL_v2lp3ksyf8","6000cefee380e61fa9bc5ae4","freq_resp","img/orange_2bandit_a.png","70","70","test","","","","5","",""
"null","218598","pSARL_v2","pSARL_v2lp3ksyf8","6000cefee380e61fa9bc5ae4","fixation","img/fixation.png","null","","test","","","","","",""
"295","218895","pSARL_v2","pSARL_v2lp3ksyf8","6000cefee380e61fa9bc5ae4","freq","img/orange_2bandit_a2.png","70","70","test","1","99","99","5","",""
"null","219417","pSARL_v2","pSARL_v2lp3ksyf8","6000cefee380e61fa9bc5ae4","freq_resp","img/orange_2bandit_a.png","70","70","test","","","","5","",""
"null","219573","pSARL_v2","pSARL_v2lp3ksyf8","6000cefee380e61fa9bc5ae4","fixation","img/fixation.png","null","","test","","","","","",""
"320","219895","pSARL_v2","pSARL_v2lp3ksyf8","6000cefee380e61fa9bc5ae4","freq","img/orange_2bandit_a2.png","70","70","test","1","100","100","5","",""
"null","220394","pSARL_v2","pSARL_v2lp3ksyf8","6000cefee380e61fa9bc5ae4","freq_resp","img/orange_2bandit_a.png","70","70","test","","","","5","",""
"null","220555","pSARL_v2","pSARL_v2lp3ksyf8","6000cefee380e61fa9bc5ae4","fixation","img/fixation.png","null","","test","","","","","",""
"394","220951","pSARL_v2","pSARL_v2lp3ksyf8","6000cefee380e61fa9bc5ae4","freq","img/orange_2bandit_a2.png","70","70","test","1","101","101","5","",""
"null","221376","pSARL_v2","pSARL_v2lp3ksyf8","6000cefee380e61fa9bc5ae4","freq_resp","img/orange_2bandit_a.png","70","70","test","","","","5","",""
"null","221534","pSARL_v2","pSARL_v2lp3ksyf8","6000cefee380e61fa9bc5ae4","fixation","img/fixation.png","null","","test","","","","","",""
"270","221808","pSARL_v2","pSARL_v2lp3ksyf8","6000cefee380e61fa9bc5ae4","freq","img/orange_2bandit_a2.png","70","70","test","1","102","102","5","",""
"null","222353","pSARL_v2","pSARL_v2lp3ksyf8","6000cefee380e61fa9bc5ae4","freq_resp","img/orange_2bandit_a.png","70","70","test","","","","5","",""
"null","222507","pSARL_v2","pSARL_v2lp3ksyf8","6000cefee380e61fa9bc5ae4","fixation","img/fixation.png","null","","test","","","","","",""
"218","222728","pSARL_v2","pSARL_v2lp3ksyf8","6000cefee380e61fa9bc5ae4","infreq","img/green_2bandit_a2.png","70","68","test","0","103","103","5","",""
"null","223329","pSARL_v2","pSARL_v2lp3ksyf8","6000cefee380e61fa9bc5ae4","infreq_resp","img/green_2bandit_a.png","70","68","test","","","","5","",""
"null","223485","pSARL_v2","pSARL_v2lp3ksyf8","6000cefee380e61fa9bc5ae4","fixation","img/fixation.png","null","","test","","","","","",""
"319","223808","pSARL_v2","pSARL_v2lp3ksyf8","6000cefee380e61fa9bc5ae4","freq","img/orange_2bandit_a2.png","70","70","test","1","104","104","5","",""
"null","224307","pSARL_v2","pSARL_v2lp3ksyf8","6000cefee380e61fa9bc5ae4","freq_resp","img/orange_2bandit_a.png","70","70","test","","","","5","",""
"null","224463","pSARL_v2","pSARL_v2lp3ksyf8","6000cefee380e61fa9bc5ae4","fixation","img/fixation.png","null","","test","","","","","",""
"302","224768","pSARL_v2","pSARL_v2lp3ksyf8","6000cefee380e61fa9bc5ae4","freq","img/orange_2bandit_a2.png","70","70","test","1","105","105","5","",""
"null","225270","pSARL_v2","pSARL_v2lp3ksyf8","6000cefee380e61fa9bc5ae4","freq_resp","img/orange_2bandit_a.png","70","70","test","","","","5","",""
"null","225428","pSARL_v2","pSARL_v2lp3ksyf8","6000cefee380e61fa9bc5ae4","fixation","img/fixation.png","null","","test","","","","","",""
"273","225703","pSARL_v2","pSARL_v2lp3ksyf8","6000cefee380e61fa9bc5ae4","freq","img/orange_2bandit_a2.png","70","70","test","1","106","106","5","",""
"null","226234","pSARL_v2","pSARL_v2lp3ksyf8","6000cefee380e61fa9bc5ae4","freq_resp","img/orange_2bandit_a.png","70","70","test","","","","5","",""
"null","226392","pSARL_v2","pSARL_v2lp3ksyf8","6000cefee380e61fa9bc5ae4","fixation","img/fixation.png","null","","test","","","","","",""
"253","226647","pSARL_v2","pSARL_v2lp3ksyf8","6000cefee380e61fa9bc5ae4","freq","img/orange_2bandit_a2.png","70","70","test","1","107","107","5","",""
"null","227198","pSARL_v2","pSARL_v2lp3ksyf8","6000cefee380e61fa9bc5ae4","freq_resp","img/orange_2bandit_a.png","70","70","test","","","","5","",""
"null","227357","pSARL_v2","pSARL_v2lp3ksyf8","6000cefee380e61fa9bc5ae4","fixation","img/fixation.png","null","","test","","","","","",""
"272","227632","pSARL_v2","pSARL_v2lp3ksyf8","6000cefee380e61fa9bc5ae4","freq","img/orange_2bandit_a2.png","70","70","test","1","108","108","5","",""
"null","228167","pSARL_v2","pSARL_v2lp3ksyf8","6000cefee380e61fa9bc5ae4","freq_resp","img/orange_2bandit_a.png","70","70","test","","","","5","",""
"null","228326","pSARL_v2","pSARL_v2lp3ksyf8","6000cefee380e61fa9bc5ae4","fixation","img/fixation.png","null","","test","","","","","",""
"310","228640","pSARL_v2","pSARL_v2lp3ksyf8","6000cefee380e61fa9bc5ae4","freq","img/orange_2bandit_a2.png","70","70","test","1","109","109","5","",""
"null","229148","pSARL_v2","pSARL_v2lp3ksyf8","6000cefee380e61fa9bc5ae4","freq_resp","img/orange_2bandit_a.png","70","70","test","","","","5","",""
"null","229305","pSARL_v2","pSARL_v2lp3ksyf8","6000cefee380e61fa9bc5ae4","fixation","img/fixation.png","null","","test","","","","","",""
"387","229696","pSARL_v2","pSARL_v2lp3ksyf8","6000cefee380e61fa9bc5ae4","freq","img/orange_2bandit_a2.png","70","70","test","1","110","110","5","",""
"null","230121","pSARL_v2","pSARL_v2lp3ksyf8","6000cefee380e61fa9bc5ae4","freq_resp","img/orange_2bandit_a.png","70","70","test","","","","5","",""
"null","230278","pSARL_v2","pSARL_v2lp3ksyf8","6000cefee380e61fa9bc5ae4","fixation","img/fixation.png","null","","test","","","","","",""
"311","230592","pSARL_v2","pSARL_v2lp3ksyf8","6000cefee380e61fa9bc5ae4","freq","img/orange_2bandit_a2.png","70","70","test","1","111","111","5","",""
"null","231087","pSARL_v2","pSARL_v2lp3ksyf8","6000cefee380e61fa9bc5ae4","freq_resp","img/orange_2bandit_a.png","70","70","test","","","","5","",""
"null","231244","pSARL_v2","pSARL_v2lp3ksyf8","6000cefee380e61fa9bc5ae4","fixation","img/fixation.png","null","","test","","","","","",""
"248","231495","pSARL_v2","pSARL_v2lp3ksyf8","6000cefee380e61fa9bc5ae4","freq","img/orange_2bandit_a2.png","70","70","test","1","112","112","5","",""
"null","232062","pSARL_v2","pSARL_v2lp3ksyf8","6000cefee380e61fa9bc5ae4","freq_resp","img/orange_2bandit_a.png","70","70","test","","","","5","",""
"null","232221","pSARL_v2","pSARL_v2lp3ksyf8","6000cefee380e61fa9bc5ae4","fixation","img/fixation.png","null","","test","","","","","",""
"264","232487","pSARL_v2","pSARL_v2lp3ksyf8","6000cefee380e61fa9bc5ae4","freq","img/orange_2bandit_a2.png","70","70","test","1","113","113","5","",""
"null","233027","pSARL_v2","pSARL_v2lp3ksyf8","6000cefee380e61fa9bc5ae4","freq_resp","img/orange_2bandit_a.png","70","70","test","","","","5","",""
"null","233182","pSARL_v2","pSARL_v2lp3ksyf8","6000cefee380e61fa9bc5ae4","fixation","img/fixation.png","null","","test","","","","","",""
"319","233504","pSARL_v2","pSARL_v2lp3ksyf8","6000cefee380e61fa9bc5ae4","freq","img/orange_2bandit_a2.png","70","70","test","1","114","114","5","",""
"null","233992","pSARL_v2","pSARL_v2lp3ksyf8","6000cefee380e61fa9bc5ae4","freq_resp","img/orange_2bandit_a.png","70","70","test","","","","5","",""
"null","234151","pSARL_v2","pSARL_v2lp3ksyf8","6000cefee380e61fa9bc5ae4","fixation","img/fixation.png","null","","test","","","","","",""
"277","234431","pSARL_v2","pSARL_v2lp3ksyf8","6000cefee380e61fa9bc5ae4","freq","img/orange_2bandit_a2.png","70","70","test","1","115","115","5","",""
"null","234962","pSARL_v2","pSARL_v2lp3ksyf8","6000cefee380e61fa9bc5ae4","freq_resp","img/orange_2bandit_a.png","70","70","test","","","","5","",""
"null","235121","pSARL_v2","pSARL_v2lp3ksyf8","6000cefee380e61fa9bc5ae4","fixation","img/fixation.png","null","","test","","","","","",""
"2083","237208","pSARL_v2","pSARL_v2lp3ksyf8","6000cefee380e61fa9bc5ae4","reward","img/slot.png","74","","test","","","","","",""
"null","237969","pSARL_v2","pSARL_v2lp3ksyf8","6000cefee380e61fa9bc5ae4","points","<div class=""veryhighPoints""> +1 </div>","null","na","test","","","","5","1","4"
"379","238351","pSARL_v2","pSARL_v2lp3ksyf8","6000cefee380e61fa9bc5ae4","freq","img/orange_2bandit_a2.png","70","70","test","1","116","116","6","",""
"null","238778","pSARL_v2","pSARL_v2lp3ksyf8","6000cefee380e61fa9bc5ae4","freq_resp","img/orange_2bandit_a.png","70","70","test","","","","6","",""
"null","238934","pSARL_v2","pSARL_v2lp3ksyf8","6000cefee380e61fa9bc5ae4","fixation","img/fixation.png","null","","test","","","","","",""
"263","239199","pSARL_v2","pSARL_v2lp3ksyf8","6000cefee380e61fa9bc5ae4","freq","img/orange_2bandit_a2.png","70","70","test","1","117","117","6","",""
"null","239755","pSARL_v2","pSARL_v2lp3ksyf8","6000cefee380e61fa9bc5ae4","freq_resp","img/orange_2bandit_a.png","70","70","test","","","","6","",""
"null","239914","pSARL_v2","pSARL_v2lp3ksyf8","6000cefee380e61fa9bc5ae4","fixation","img/fixation.png","null","","test","","","","","",""
"267","240184","pSARL_v2","pSARL_v2lp3ksyf8","6000cefee380e61fa9bc5ae4","infreq","img/green_2bandit_a2.png","70","68","test","0","118","118","6","",""
"null","240722","pSARL_v2","pSARL_v2lp3ksyf8","6000cefee380e61fa9bc5ae4","infreq_resp","img/green_2bandit_a.png","70","68","test","","","","6","",""
"null","240880","pSARL_v2","pSARL_v2lp3ksyf8","6000cefee380e61fa9bc5ae4","fixation","img/fixation.png","null","","test","","","","","",""
"348","241232","pSARL_v2","pSARL_v2lp3ksyf8","6000cefee380e61fa9bc5ae4","freq","img/orange_2bandit_a2.png","70","70","test","1","119","119","6","",""
"null","241703","pSARL_v2","pSARL_v2lp3ksyf8","6000cefee380e61fa9bc5ae4","freq_resp","img/orange_2bandit_a.png","70","70","test","","","","6","",""
"null","241864","pSARL_v2","pSARL_v2lp3ksyf8","6000cefee380e61fa9bc5ae4","fixation","img/fixation.png","null","","test","","","","","",""
"300","242167","pSARL_v2","pSARL_v2lp3ksyf8","6000cefee380e61fa9bc5ae4","freq","img/orange_2bandit_a2.png","70","70","test","1","120","120","6","",""
"null","242685","pSARL_v2","pSARL_v2lp3ksyf8","6000cefee380e61fa9bc5ae4","freq_resp","img/orange_2bandit_a.png","70","70","test","","","","6","",""
"null","242845","pSARL_v2","pSARL_v2lp3ksyf8","6000cefee380e61fa9bc5ae4","fixation","img/fixation.png","null","","test","","","","","",""
"271","243119","pSARL_v2","pSARL_v2lp3ksyf8","6000cefee380e61fa9bc5ae4","freq","img/orange_2bandit_a2.png","70","70","test","1","121","121","6","",""
"null","243651","pSARL_v2","pSARL_v2lp3ksyf8","6000cefee380e61fa9bc5ae4","freq_resp","img/orange_2bandit_a.png","70","70","test","","","","6","",""
"null","243807","pSARL_v2","pSARL_v2lp3ksyf8","6000cefee380e61fa9bc5ae4","fixation","img/fixation.png","null","","test","","","","","",""
"301","244113","pSARL_v2","pSARL_v2lp3ksyf8","6000cefee380e61fa9bc5ae4","freq","img/orange_2bandit_a2.png","70","70","test","1","122","122","6","",""
"null","244617","pSARL_v2","pSARL_v2lp3ksyf8","6000cefee380e61fa9bc5ae4","freq_resp","img/orange_2bandit_a.png","70","70","test","","","","6","",""
"null","244774","pSARL_v2","pSARL_v2lp3ksyf8","6000cefee380e61fa9bc5ae4","fixation","img/fixation.png","null","","test","","","","","",""
"303","245080","pSARL_v2","pSARL_v2lp3ksyf8","6000cefee380e61fa9bc5ae4","freq","img/orange_2bandit_a2.png","70","70","test","1","123","123","6","",""
"null","245593","pSARL_v2","pSARL_v2lp3ksyf8","6000cefee380e61fa9bc5ae4","freq_resp","img/orange_2bandit_a.png","70","70","test","","","","6","",""
"null","245752","pSARL_v2","pSARL_v2lp3ksyf8","6000cefee380e61fa9bc5ae4","fixation","img/fixation.png","null","","test","","","","","",""
"428","246183","pSARL_v2","pSARL_v2lp3ksyf8","6000cefee380e61fa9bc5ae4","infreq","img/green_2bandit_a2.png","68","68","test","1","124","124","6","",""
"null","246574","pSARL_v2","pSARL_v2lp3ksyf8","6000cefee380e61fa9bc5ae4","infreq_resp","img/green_2bandit_a.png","68","68","test","","","","6","",""
"null","246732","pSARL_v2","pSARL_v2lp3ksyf8","6000cefee380e61fa9bc5ae4","fixation","img/fixation.png","null","","test","","","","","",""
"401","247136","pSARL_v2","pSARL_v2lp3ksyf8","6000cefee380e61fa9bc5ae4","freq","img/orange_2bandit_a2.png","70","70","test","1","125","125","6","",""
"null","247552","pSARL_v2","pSARL_v2lp3ksyf8","6000cefee380e61fa9bc5ae4","freq_resp","img/orange_2bandit_a.png","70","70","test","","","","6","",""
"null","247709","pSARL_v2","pSARL_v2lp3ksyf8","6000cefee380e61fa9bc5ae4","fixation","img/fixation.png","null","","test","","","","","",""
"521","248232","pSARL_v2","pSARL_v2lp3ksyf8","6000cefee380e61fa9bc5ae4","freq","img/orange_2bandit_a2.png","70","70","test","1","126","126","6","",""
"null","248529","pSARL_v2","pSARL_v2lp3ksyf8","6000cefee380e61fa9bc5ae4","freq_resp","img/orange_2bandit_a.png","70","70","test","","","","6","",""
"null","248688","pSARL_v2","pSARL_v2lp3ksyf8","6000cefee380e61fa9bc5ae4","fixation","img/fixation.png","null","","test","","","","","",""
"373","249064","pSARL_v2","pSARL_v2lp3ksyf8","6000cefee380e61fa9bc5ae4","freq","img/orange_2bandit_a2.png","70","70","test","1","127","127","6","",""
"null","249509","pSARL_v2","pSARL_v2lp3ksyf8","6000cefee380e61fa9bc5ae4","freq_resp","img/orange_2bandit_a.png","70","70","test","","","","6","",""
"null","249667","pSARL_v2","pSARL_v2lp3ksyf8","6000cefee380e61fa9bc5ae4","fixation","img/fixation.png","null","","test","","","","","",""
"330","250000","pSARL_v2","pSARL_v2lp3ksyf8","6000cefee380e61fa9bc5ae4","freq","img/orange_2bandit_a2.png","70","70","test","1","128","128","6","",""
"null","250478","pSARL_v2","pSARL_v2lp3ksyf8","6000cefee380e61fa9bc5ae4","freq_resp","img/orange_2bandit_a.png","70","70","test","","","","6","",""
"null","250637","pSARL_v2","pSARL_v2lp3ksyf8","6000cefee380e61fa9bc5ae4","fixation","img/fixation.png","null","","test","","","","","",""
"351","250992","pSARL_v2","pSARL_v2lp3ksyf8","6000cefee380e61fa9bc5ae4","freq","img/orange_2bandit_a2.png","70","70","test","1","129","129","6","",""
"null","251457","pSARL_v2","pSARL_v2lp3ksyf8","6000cefee380e61fa9bc5ae4","freq_resp","img/orange_2bandit_a.png","70","70","test","","","","6","",""
"null","251612","pSARL_v2","pSARL_v2lp3ksyf8","6000cefee380e61fa9bc5ae4","fixation","img/fixation.png","null","","test","","","","","",""
"264","251879","pSARL_v2","pSARL_v2lp3ksyf8","6000cefee380e61fa9bc5ae4","freq","img/orange_2bandit_a2.png","70","70","test","1","130","130","6","",""
"null","252423","pSARL_v2","pSARL_v2lp3ksyf8","6000cefee380e61fa9bc5ae4","freq_resp","img/orange_2bandit_a.png","70","70","test","","","","6","",""
"null","252579","pSARL_v2","pSARL_v2lp3ksyf8","6000cefee380e61fa9bc5ae4","fixation","img/fixation.png","null","","test","","","","","",""
"337","252919","pSARL_v2","pSARL_v2lp3ksyf8","6000cefee380e61fa9bc5ae4","freq","img/orange_2bandit_a2.png","70","70","test","1","131","131","6","",""
"null","253396","pSARL_v2","pSARL_v2lp3ksyf8","6000cefee380e61fa9bc5ae4","freq_resp","img/orange_2bandit_a.png","70","70","test","","","","6","",""
"null","253552","pSARL_v2","pSARL_v2lp3ksyf8","6000cefee380e61fa9bc5ae4","fixation","img/fixation.png","null","","test","","","","","",""
"357","253912","pSARL_v2","pSARL_v2lp3ksyf8","6000cefee380e61fa9bc5ae4","freq","img/orange_2bandit_a2.png","70","70","test","1","132","132","6","",""
"null","254371","pSARL_v2","pSARL_v2lp3ksyf8","6000cefee380e61fa9bc5ae4","freq_resp","img/orange_2bandit_a.png","70","70","test","","","","6","",""
"null","254529","pSARL_v2","pSARL_v2lp3ksyf8","6000cefee380e61fa9bc5ae4","fixation","img/fixation.png","null","","test","","","","","",""
"268","254800","pSARL_v2","pSARL_v2lp3ksyf8","6000cefee380e61fa9bc5ae4","freq","img/orange_2bandit_a2.png","70","70","test","1","133","133","6","",""
"null","255351","pSARL_v2","pSARL_v2lp3ksyf8","6000cefee380e61fa9bc5ae4","freq_resp","img/orange_2bandit_a.png","70","70","test","","","","6","",""
"null","255504","pSARL_v2","pSARL_v2lp3ksyf8","6000cefee380e61fa9bc5ae4","fixation","img/fixation.png","null","","test","","","","","",""
"269","255775","pSARL_v2","pSARL_v2lp3ksyf8","6000cefee380e61fa9bc5ae4","freq","img/orange_2bandit_a2.png","70","70","test","1","134","134","6","",""
"null","256322","pSARL_v2","pSARL_v2lp3ksyf8","6000cefee380e61fa9bc5ae4","freq_resp","img/orange_2bandit_a.png","70","70","test","","","","6","",""
"null","256481","pSARL_v2","pSARL_v2lp3ksyf8","6000cefee380e61fa9bc5ae4","fixation","img/fixation.png","null","","test","","","","","",""
"275","256759","pSARL_v2","pSARL_v2lp3ksyf8","6000cefee380e61fa9bc5ae4","freq","img/orange_2bandit_a2.png","70","70","test","1","135","135","6","",""
"null","257288","pSARL_v2","pSARL_v2lp3ksyf8","6000cefee380e61fa9bc5ae4","freq_resp","img/orange_2bandit_a.png","70","70","test","","","","6","",""
"null","257445","pSARL_v2","pSARL_v2lp3ksyf8","6000cefee380e61fa9bc5ae4","fixation","img/fixation.png","null","","test","","","","","",""
"311","257759","pSARL_v2","pSARL_v2lp3ksyf8","6000cefee380e61fa9bc5ae4","freq","img/orange_2bandit_a2.png","70","70","test","1","136","136","6","",""
"null","258264","pSARL_v2","pSARL_v2lp3ksyf8","6000cefee380e61fa9bc5ae4","freq_resp","img/orange_2bandit_a.png","70","70","test","","","","6","",""
"null","258422","pSARL_v2","pSARL_v2lp3ksyf8","6000cefee380e61fa9bc5ae4","fixation","img/fixation.png","null","","test","","","","","",""
"271","258696","pSARL_v2","pSARL_v2lp3ksyf8","6000cefee380e61fa9bc5ae4","freq","img/orange_2bandit_a2.png","70","70","test","1","137","137","6","",""
"null","259238","pSARL_v2","pSARL_v2lp3ksyf8","6000cefee380e61fa9bc5ae4","freq_resp","img/orange_2bandit_a.png","70","70","test","","","","6","",""
"null","259398","pSARL_v2","pSARL_v2lp3ksyf8","6000cefee380e61fa9bc5ae4","fixation","img/fixation.png","null","","test","","","","","",""
"327","259727","pSARL_v2","pSARL_v2lp3ksyf8","6000cefee380e61fa9bc5ae4","freq","img/orange_2bandit_a2.png","70","70","test","1","138","138","6","",""
"null","260205","pSARL_v2","pSARL_v2lp3ksyf8","6000cefee380e61fa9bc5ae4","freq_resp","img/orange_2bandit_a.png","70","70","test","","","","6","",""
"null","260365","pSARL_v2","pSARL_v2lp3ksyf8","6000cefee380e61fa9bc5ae4","fixation","img/fixation.png","null","","test","","","","","",""
"295","260664","pSARL_v2","pSARL_v2lp3ksyf8","6000cefee380e61fa9bc5ae4","freq","img/orange_2bandit_a2.png","70","70","test","1","139","139","6","",""
"null","261184","pSARL_v2","pSARL_v2lp3ksyf8","6000cefee380e61fa9bc5ae4","freq_resp","img/orange_2bandit_a.png","70","70","test","","","","6","",""
"null","261342","pSARL_v2","pSARL_v2lp3ksyf8","6000cefee380e61fa9bc5ae4","fixation","img/fixation.png","null","","test","","","","","",""
"743","262088","pSARL_v2","pSARL_v2lp3ksyf8","6000cefee380e61fa9bc5ae4","reward","img/slot.png","74","","test","","","","","",""
"null","262854","pSARL_v2","pSARL_v2lp3ksyf8","6000cefee380e61fa9bc5ae4","points","<div class=""verylowPoints""> -7 </div>","null","na","test","","","","6","-7","5"
"383","263239","pSARL_v2","pSARL_v2lp3ksyf8","6000cefee380e61fa9bc5ae4","freq","img/orange_2bandit_a2.png","70","70","test","1","140","140","7","",""
"null","263671","pSARL_v2","pSARL_v2lp3ksyf8","6000cefee380e61fa9bc5ae4","freq_resp","img/orange_2bandit_a.png","70","70","test","","","","7","",""
"null","263830","pSARL_v2","pSARL_v2lp3ksyf8","6000cefee380e61fa9bc5ae4","fixation","img/fixation.png","null","","test","","","","","",""
"366","264199","pSARL_v2","pSARL_v2lp3ksyf8","6000cefee380e61fa9bc5ae4","freq","img/orange_2bandit_a2.png","70","70","test","1","141","141","7","",""
"null","264649","pSARL_v2","pSARL_v2lp3ksyf8","6000cefee380e61fa9bc5ae4","freq_resp","img/orange_2bandit_a.png","70","70","test","","","","7","",""
"null","264808","pSARL_v2","pSARL_v2lp3ksyf8","6000cefee380e61fa9bc5ae4","fixation","img/fixation.png","null","","test","","","","","",""
"277","265088","pSARL_v2","pSARL_v2lp3ksyf8","6000cefee380e61fa9bc5ae4","freq","img/orange_2bandit_a2.png","70","70","test","1","142","142","7","",""
"null","265627","pSARL_v2","pSARL_v2lp3ksyf8","6000cefee380e61fa9bc5ae4","freq_resp","img/orange_2bandit_a.png","70","70","test","","","","7","",""
"null","265787","pSARL_v2","pSARL_v2lp3ksyf8","6000cefee380e61fa9bc5ae4","fixation","img/fixation.png","null","","test","","","","","",""
"249","266040","pSARL_v2","pSARL_v2lp3ksyf8","6000cefee380e61fa9bc5ae4","infreq","img/green_2bandit_a2.png","70","68","test","0","143","143","7","",""
"null","266605","pSARL_v2","pSARL_v2lp3ksyf8","6000cefee380e61fa9bc5ae4","infreq_resp","img/green_2bandit_a.png","70","68","test","","","","7","",""
"null","266762","pSARL_v2","pSARL_v2lp3ksyf8","6000cefee380e61fa9bc5ae4","fixation","img/fixation.png","null","","test","","","","","",""
"362","267127","pSARL_v2","pSARL_v2lp3ksyf8","6000cefee380e61fa9bc5ae4","freq","img/orange_2bandit_a2.png","70","70","test","1","144","144","7","",""
"null","267572","pSARL_v2","pSARL_v2lp3ksyf8","6000cefee380e61fa9bc5ae4","freq_resp","img/orange_2bandit_a.png","70","70","test","","","","7","",""
"null","267729","pSARL_v2","pSARL_v2lp3ksyf8","6000cefee380e61fa9bc5ae4","fixation","img/fixation.png","null","","test","","","","","",""
"316","268047","pSARL_v2","pSARL_v2lp3ksyf8","6000cefee380e61fa9bc5ae4","freq","img/orange_2bandit_a2.png","70","70","test","1","145","145","7","",""
"null","268538","pSARL_v2","pSARL_v2lp3ksyf8","6000cefee380e61fa9bc5ae4","freq_resp","img/orange_2bandit_a.png","70","70","test","","","","7","",""
"null","268692","pSARL_v2","pSARL_v2lp3ksyf8","6000cefee380e61fa9bc5ae4","fixation","img/fixation.png","null","","test","","","","","",""
"280","268976","pSARL_v2","pSARL_v2lp3ksyf8","6000cefee380e61fa9bc5ae4","freq","img/orange_2bandit_a2.png","70","70","test","1","146","146","7","",""
"null","269500","pSARL_v2","pSARL_v2lp3ksyf8","6000cefee380e61fa9bc5ae4","freq_resp","img/orange_2bandit_a.png","70","70","test","","","","7","",""
"null","269658","pSARL_v2","pSARL_v2lp3ksyf8","6000cefee380e61fa9bc5ae4","fixation","img/fixation.png","null","","test","","","","","",""
"171","269832","pSARL_v2","pSARL_v2lp3ksyf8","6000cefee380e61fa9bc5ae4","infreq","img/green_2bandit_a2.png","70","68","test","0","147","147","7","",""
"null","270464","pSARL_v2","pSARL_v2lp3ksyf8","6000cefee380e61fa9bc5ae4","infreq_resp","img/green_2bandit_a.png","70","68","test","","","","7","",""
"null","270623","pSARL_v2","pSARL_v2lp3ksyf8","6000cefee380e61fa9bc5ae4","fixation","img/fixation.png","null","","test","","","","","",""
"309","270936","pSARL_v2","pSARL_v2lp3ksyf8","6000cefee380e61fa9bc5ae4","freq","img/orange_2bandit_a2.png","70","70","test","1","148","148","7","",""
"null","271441","pSARL_v2","pSARL_v2lp3ksyf8","6000cefee380e61fa9bc5ae4","freq_resp","img/orange_2bandit_a.png","70","70","test","","","","7","",""
"null","271599","pSARL_v2","pSARL_v2lp3ksyf8","6000cefee380e61fa9bc5ae4","fixation","img/fixation.png","null","","test","","","","","",""
"293","271895","pSARL_v2","pSARL_v2lp3ksyf8","6000cefee380e61fa9bc5ae4","freq","img/orange_2bandit_a2.png","70","70","test","1","149","149","7","",""
"null","272407","pSARL_v2","pSARL_v2lp3ksyf8","6000cefee380e61fa9bc5ae4","freq_resp","img/orange_2bandit_a.png","70","70","test","","","","7","",""
"null","272566","pSARL_v2","pSARL_v2lp3ksyf8","6000cefee380e61fa9bc5ae4","fixation","img/fixation.png","null","","test","","","","","",""
"255","272824","pSARL_v2","pSARL_v2lp3ksyf8","6000cefee380e61fa9bc5ae4","freq","img/orange_2bandit_a2.png","70","70","test","1","150","150","7","",""
"null","273387","pSARL_v2","pSARL_v2lp3ksyf8","6000cefee380e61fa9bc5ae4","freq_resp","img/orange_2bandit_a.png","70","70","test","","","","7","",""
"null","273547","pSARL_v2","pSARL_v2lp3ksyf8","6000cefee380e61fa9bc5ae4","fixation","img/fixation.png","null","","test","","","","","",""
"250","273799","pSARL_v2","pSARL_v2lp3ksyf8","6000cefee380e61fa9bc5ae4","freq","img/orange_2bandit_a2.png","70","70","test","1","151","151","7","",""
"null","274367","pSARL_v2","pSARL_v2lp3ksyf8","6000cefee380e61fa9bc5ae4","freq_resp","img/orange_2bandit_a.png","70","70","test","","","","7","",""
"null","274521","pSARL_v2","pSARL_v2lp3ksyf8","6000cefee380e61fa9bc5ae4","fixation","img/fixation.png","null","","test","","","","","",""
"267","274792","pSARL_v2","pSARL_v2lp3ksyf8","6000cefee380e61fa9bc5ae4","freq","img/orange_2bandit_a2.png","70","70","test","1","152","152","7","",""
"null","275340","pSARL_v2","pSARL_v2lp3ksyf8","6000cefee380e61fa9bc5ae4","freq_resp","img/orange_2bandit_a.png","70","70","test","","","","7","",""
"null","275498","pSARL_v2","pSARL_v2lp3ksyf8","6000cefee380e61fa9bc5ae4","fixation","img/fixation.png","null","","test","","","","","",""
"266","275768","pSARL_v2","pSARL_v2lp3ksyf8","6000cefee380e61fa9bc5ae4","freq","img/orange_2bandit_a2.png","70","70","test","1","153","153","7","",""
"null","276308","pSARL_v2","pSARL_v2lp3ksyf8","6000cefee380e61fa9bc5ae4","freq_resp","img/orange_2bandit_a.png","70","70","test","","","","7","",""
"null","276467","pSARL_v2","pSARL_v2lp3ksyf8","6000cefee380e61fa9bc5ae4","fixation","img/fixation.png","null","","test","","","","","",""
"297","276768","pSARL_v2","pSARL_v2lp3ksyf8","6000cefee380e61fa9bc5ae4","freq","img/orange_2bandit_a2.png","70","70","test","1","154","154","7","",""
"null","277287","pSARL_v2","pSARL_v2lp3ksyf8","6000cefee380e61fa9bc5ae4","freq_resp","img/orange_2bandit_a.png","70","70","test","","","","7","",""
"null","277447","pSARL_v2","pSARL_v2lp3ksyf8","6000cefee380e61fa9bc5ae4","fixation","img/fixation.png","null","","test","","","","","",""
"230","277679","pSARL_v2","pSARL_v2lp3ksyf8","6000cefee380e61fa9bc5ae4","freq","img/orange_2bandit_a2.png","70","70","test","1","155","155","7","",""
"null","278255","pSARL_v2","pSARL_v2lp3ksyf8","6000cefee380e61fa9bc5ae4","freq_resp","img/orange_2bandit_a.png","70","70","test","","","","7","",""
"null","278415","pSARL_v2","pSARL_v2lp3ksyf8","6000cefee380e61fa9bc5ae4","fixation","img/fixation.png","null","","test","","","","","",""
"286","278704","pSARL_v2","pSARL_v2lp3ksyf8","6000cefee380e61fa9bc5ae4","freq","img/orange_2bandit_a2.png","70","70","test","1","156","156","7","",""
"null","279222","pSARL_v2","pSARL_v2lp3ksyf8","6000cefee380e61fa9bc5ae4","freq_resp","img/orange_2bandit_a.png","70","70","test","","","","7","",""
"null","279382","pSARL_v2","pSARL_v2lp3ksyf8","6000cefee380e61fa9bc5ae4","fixation","img/fixation.png","null","","test","","","","","",""
"255","279639","pSARL_v2","pSARL_v2lp3ksyf8","6000cefee380e61fa9bc5ae4","freq","img/orange_2bandit_a2.png","70","70","test","1","157","157","7","",""
"null","280202","pSARL_v2","pSARL_v2lp3ksyf8","6000cefee380e61fa9bc5ae4","freq_resp","img/orange_2bandit_a.png","70","70","test","","","","7","",""
"null","280360","pSARL_v2","pSARL_v2lp3ksyf8","6000cefee380e61fa9bc5ae4","fixation","img/fixation.png","null","","test","","","","","",""
"237","280599","pSARL_v2","pSARL_v2lp3ksyf8","6000cefee380e61fa9bc5ae4","infreq","img/green_2bandit_a2.png","70","68","test","0","158","158","7","",""
"null","281179","pSARL_v2","pSARL_v2lp3ksyf8","6000cefee380e61fa9bc5ae4","infreq_resp","img/green_2bandit_a.png","70","68","test","","","","7","",""
"null","281335","pSARL_v2","pSARL_v2lp3ksyf8","6000cefee380e61fa9bc5ae4","fixation","img/fixation.png","null","","test","","","","","",""
"252","281592","pSARL_v2","pSARL_v2lp3ksyf8","6000cefee380e61fa9bc5ae4","freq","img/orange_2bandit_a2.png","70","70","test","1","159","159","7","",""
"null","282159","pSARL_v2","pSARL_v2lp3ksyf8","6000cefee380e61fa9bc5ae4","freq_resp","img/orange_2bandit_a.png","70","70","test","","","","7","",""
"null","282318","pSARL_v2","pSARL_v2lp3ksyf8","6000cefee380e61fa9bc5ae4","fixation","img/fixation.png","null","","test","","","","","",""
"310","282631","pSARL_v2","pSARL_v2lp3ksyf8","6000cefee380e61fa9bc5ae4","freq","img/orange_2bandit_a2.png","70","70","test","1","160","160","7","",""
"null","283127","pSARL_v2","pSARL_v2lp3ksyf8","6000cefee380e61fa9bc5ae4","freq_resp","img/orange_2bandit_a.png","70","70","test","","","","7","",""
"null","283284","pSARL_v2","pSARL_v2lp3ksyf8","6000cefee380e61fa9bc5ae4","fixation","img/fixation.png","null","","test","","","","","",""
"265","283551","pSARL_v2","pSARL_v2lp3ksyf8","6000cefee380e61fa9bc5ae4","freq","img/orange_2bandit_a2.png","70","70","test","1","161","161","7","",""
"null","284094","pSARL_v2","pSARL_v2lp3ksyf8","6000cefee380e61fa9bc5ae4","freq_resp","img/orange_2bandit_a.png","70","70","test","","","","7","",""
"null","284254","pSARL_v2","pSARL_v2lp3ksyf8","6000cefee380e61fa9bc5ae4","fixation","img/fixation.png","null","","test","","","","","",""
"311","284567","pSARL_v2","pSARL_v2lp3ksyf8","6000cefee380e61fa9bc5ae4","freq","img/orange_2bandit_a2.png","70","70","test","1","162","162","7","",""
"null","285063","pSARL_v2","pSARL_v2lp3ksyf8","6000cefee380e61fa9bc5ae4","freq_resp","img/orange_2bandit_a.png","70","70","test","","","","7","",""
"null","285222","pSARL_v2","pSARL_v2lp3ksyf8","6000cefee380e61fa9bc5ae4","fixation","img/fixation.png","null","","test","","","","","",""
"583","285808","pSARL_v2","pSARL_v2lp3ksyf8","6000cefee380e61fa9bc5ae4","reward","img/slot.png","74","","test","","","","","",""
"null","286577","pSARL_v2","pSARL_v2lp3ksyf8","6000cefee380e61fa9bc5ae4","points","<div class=""verylowPoints""> -6 </div>","null","na","test","","","","7","-6","6"
"468","287048","pSARL_v2","pSARL_v2lp3ksyf8","6000cefee380e61fa9bc5ae4","freq","img/orange_2bandit_a2.png","70","70","test","1","163","163","8","",""
"null","287387","pSARL_v2","pSARL_v2lp3ksyf8","6000cefee380e61fa9bc5ae4","freq_resp","img/orange_2bandit_a.png","70","70","test","","","","8","",""
"null","287546","pSARL_v2","pSARL_v2lp3ksyf8","6000cefee380e61fa9bc5ae4","fixation","img/fixation.png","null","","test","","","","","",""
"435","287983","pSARL_v2","pSARL_v2lp3ksyf8","6000cefee380e61fa9bc5ae4","freq","img/orange_2bandit_a2.png","70","70","test","1","164","164","8","",""
"null","288353","pSARL_v2","pSARL_v2lp3ksyf8","6000cefee380e61fa9bc5ae4","freq_resp","img/orange_2bandit_a.png","70","70","test","","","","8","",""
"null","288509","pSARL_v2","pSARL_v2lp3ksyf8","6000cefee380e61fa9bc5ae4","fixation","img/fixation.png","null","","test","","","","","",""
"393","288903","pSARL_v2","pSARL_v2lp3ksyf8","6000cefee380e61fa9bc5ae4","freq","img/orange_2bandit_a2.png","70","70","test","1","165","165","8","",""
"null","289328","pSARL_v2","pSARL_v2lp3ksyf8","6000cefee380e61fa9bc5ae4","freq_resp","img/orange_2bandit_a.png","70","70","test","","","","8","",""
"null","289486","pSARL_v2","pSARL_v2lp3ksyf8","6000cefee380e61fa9bc5ae4","fixation","img/fixation.png","null","","test","","","","","",""
"390","289880","pSARL_v2","pSARL_v2lp3ksyf8","6000cefee380e61fa9bc5ae4","freq","img/orange_2bandit_a2.png","70","70","test","1","166","166","8","",""
"null","290306","pSARL_v2","pSARL_v2lp3ksyf8","6000cefee380e61fa9bc5ae4","freq_resp","img/orange_2bandit_a.png","70","70","test","","","","8","",""
"null","290465","pSARL_v2","pSARL_v2lp3ksyf8","6000cefee380e61fa9bc5ae4","fixation","img/fixation.png","null","","test","","","","","",""
"379","290848","pSARL_v2","pSARL_v2lp3ksyf8","6000cefee380e61fa9bc5ae4","freq","img/orange_2bandit_a2.png","70","70","test","1","167","167","8","",""
"null","291286","pSARL_v2","pSARL_v2lp3ksyf8","6000cefee380e61fa9bc5ae4","freq_resp","img/orange_2bandit_a.png","70","70","test","","","","8","",""
"null","291444","pSARL_v2","pSARL_v2lp3ksyf8","6000cefee380e61fa9bc5ae4","fixation","img/fixation.png","null","","test","","","","","",""
"344","291792","pSARL_v2","pSARL_v2lp3ksyf8","6000cefee380e61fa9bc5ae4","freq","img/orange_2bandit_a2.png","70","70","test","1","168","168","8","",""
"null","292263","pSARL_v2","pSARL_v2lp3ksyf8","6000cefee380e61fa9bc5ae4","freq_resp","img/orange_2bandit_a.png","70","70","test","","","","8","",""
"null","292422","pSARL_v2","pSARL_v2lp3ksyf8","6000cefee380e61fa9bc5ae4","fixation","img/fixation.png","null","","test","","","","","",""
"279","292703","pSARL_v2","pSARL_v2lp3ksyf8","6000cefee380e61fa9bc5ae4","freq","img/orange_2bandit_a2.png","70","70","test","1","169","169","8","",""
"null","293228","pSARL_v2","pSARL_v2lp3ksyf8","6000cefee380e61fa9bc5ae4","freq_resp","img/orange_2bandit_a.png","70","70","test","","","","8","",""
"null","293387","pSARL_v2","pSARL_v2lp3ksyf8","6000cefee380e61fa9bc5ae4","fixation","img/fixation.png","null","","test","","","","","",""
"338","293728","pSARL_v2","pSARL_v2lp3ksyf8","6000cefee380e61fa9bc5ae4","freq","img/orange_2bandit_a2.png","70","70","test","1","170","170","8","",""
"null","294209","pSARL_v2","pSARL_v2lp3ksyf8","6000cefee380e61fa9bc5ae4","freq_resp","img/orange_2bandit_a.png","70","70","test","","","","8","",""
"null","294367","pSARL_v2","pSARL_v2lp3ksyf8","6000cefee380e61fa9bc5ae4","fixation","img/fixation.png","null","","test","","","","","",""
"470","294839","pSARL_v2","pSARL_v2lp3ksyf8","6000cefee380e61fa9bc5ae4","freq","img/orange_2bandit_a2.png","70","70","test","1","171","171","8","",""
"null","295173","pSARL_v2","pSARL_v2lp3ksyf8","6000cefee380e61fa9bc5ae4","freq_resp","img/orange_2bandit_a.png","70","70","test","","","","8","",""
"null","295333","pSARL_v2","pSARL_v2lp3ksyf8","6000cefee380e61fa9bc5ae4","fixation","img/fixation.png","null","","test","","","","","",""
"415","295752","pSARL_v2","pSARL_v2lp3ksyf8","6000cefee380e61fa9bc5ae4","freq","img/orange_2bandit_a2.png","70","70","test","1","172","172","8","",""
"null","296151","pSARL_v2","pSARL_v2lp3ksyf8","6000cefee380e61fa9bc5ae4","freq_resp","img/orange_2bandit_a.png","70","70","test","","","","8","",""
"null","296310","pSARL_v2","pSARL_v2lp3ksyf8","6000cefee380e61fa9bc5ae4","fixation","img/fixation.png","null","","test","","","","","",""
"447","296760","pSARL_v2","pSARL_v2lp3ksyf8","6000cefee380e61fa9bc5ae4","infreq","img/green_2bandit_a2.png","68","68","test","1","173","173","8","",""
"null","297131","pSARL_v2","pSARL_v2lp3ksyf8","6000cefee380e61fa9bc5ae4","infreq_resp","img/green_2bandit_a.png","68","68","test","","","","8","",""
"null","297289","pSARL_v2","pSARL_v2lp3ksyf8","6000cefee380e61fa9bc5ae4","fixation","img/fixation.png","null","","test","","","","","",""
"396","297688","pSARL_v2","pSARL_v2lp3ksyf8","6000cefee380e61fa9bc5ae4","freq","img/orange_2bandit_a2.png","70","70","test","1","174","174","8","",""
"null","298106","pSARL_v2","pSARL_v2lp3ksyf8","6000cefee380e61fa9bc5ae4","freq_resp","img/orange_2bandit_a.png","70","70","test","","","","8","",""
"null","298266","pSARL_v2","pSARL_v2lp3ksyf8","6000cefee380e61fa9bc5ae4","fixation","img/fixation.png","null","","test","","","","","",""
"307","298576","pSARL_v2","pSARL_v2lp3ksyf8","6000cefee380e61fa9bc5ae4","freq","img/orange_2bandit_a2.png","70","70","test","1","175","175","8","",""
"null","299074","pSARL_v2","pSARL_v2lp3ksyf8","6000cefee380e61fa9bc5ae4","freq_resp","img/orange_2bandit_a.png","70","70","test","","","","8","",""
"null","299232","pSARL_v2","pSARL_v2lp3ksyf8","6000cefee380e61fa9bc5ae4","fixation","img/fixation.png","null","","test","","","","","",""
"285","299519","pSARL_v2","pSARL_v2lp3ksyf8","6000cefee380e61fa9bc5ae4","freq","img/orange_2bandit_a2.png","70","70","test","1","176","176","8","",""
"null","300041","pSARL_v2","pSARL_v2lp3ksyf8","6000cefee380e61fa9bc5ae4","freq_resp","img/orange_2bandit_a.png","70","70","test","","","","8","",""
"null","300200","pSARL_v2","pSARL_v2lp3ksyf8","6000cefee380e61fa9bc5ae4","fixation","img/fixation.png","null","","test","","","","","",""
"349","300552","pSARL_v2","pSARL_v2lp3ksyf8","6000cefee380e61fa9bc5ae4","freq","img/orange_2bandit_a2.png","70","70","test","1","177","177","8","",""
"null","301018","pSARL_v2","pSARL_v2lp3ksyf8","6000cefee380e61fa9bc5ae4","freq_resp","img/orange_2bandit_a.png","70","70","test","","","","8","",""
"null","301175","pSARL_v2","pSARL_v2lp3ksyf8","6000cefee380e61fa9bc5ae4","fixation","img/fixation.png","null","","test","","","","","",""
"294","301471","pSARL_v2","pSARL_v2lp3ksyf8","6000cefee380e61fa9bc5ae4","infreq","img/green_2bandit_a2.png","70","68","test","0","178","178","8","",""
"null","301982","pSARL_v2","pSARL_v2lp3ksyf8","6000cefee380e61fa9bc5ae4","infreq_resp","img/green_2bandit_a.png","70","68","test","","","","8","",""
"null","302140","pSARL_v2","pSARL_v2lp3ksyf8","6000cefee380e61fa9bc5ae4","fixation","img/fixation.png","null","","test","","","","","",""
"369","302512","pSARL_v2","pSARL_v2lp3ksyf8","6000cefee380e61fa9bc5ae4","freq","img/orange_2bandit_a2.png","70","70","test","1","179","179","8","",""
"null","302960","pSARL_v2","pSARL_v2lp3ksyf8","6000cefee380e61fa9bc5ae4","freq_resp","img/orange_2bandit_a.png","70","70","test","","","","8","",""
"null","303119","pSARL_v2","pSARL_v2lp3ksyf8","6000cefee380e61fa9bc5ae4","fixation","img/fixation.png","null","","test","","","","","",""
"398","303520","pSARL_v2","pSARL_v2lp3ksyf8","6000cefee380e61fa9bc5ae4","freq","img/orange_2bandit_a2.png","70","70","test","1","180","180","8","",""
"null","303939","pSARL_v2","pSARL_v2lp3ksyf8","6000cefee380e61fa9bc5ae4","freq_resp","img/orange_2bandit_a.png","70","70","test","","","","8","",""
"null","304097","pSARL_v2","pSARL_v2lp3ksyf8","6000cefee380e61fa9bc5ae4","fixation","img/fixation.png","null","","test","","","","","",""
"347","304448","pSARL_v2","pSARL_v2lp3ksyf8","6000cefee380e61fa9bc5ae4","freq","img/orange_2bandit_a2.png","70","70","test","1","181","181","8","",""
"null","304918","pSARL_v2","pSARL_v2lp3ksyf8","6000cefee380e61fa9bc5ae4","freq_resp","img/orange_2bandit_a.png","70","70","test","","","","8","",""
"null","305078","pSARL_v2","pSARL_v2lp3ksyf8","6000cefee380e61fa9bc5ae4","fixation","img/fixation.png","null","","test","","","","","",""
"335","305417","pSARL_v2","pSARL_v2lp3ksyf8","6000cefee380e61fa9bc5ae4","freq","img/orange_2bandit_a2.png","70","70","test","1","182","182","8","",""
"null","305897","pSARL_v2","pSARL_v2lp3ksyf8","6000cefee380e61fa9bc5ae4","freq_resp","img/orange_2bandit_a.png","70","70","test","","","","8","",""
"null","306057","pSARL_v2","pSARL_v2lp3ksyf8","6000cefee380e61fa9bc5ae4","fixation","img/fixation.png","null","","test","","","","","",""
"348","306408","pSARL_v2","pSARL_v2lp3ksyf8","6000cefee380e61fa9bc5ae4","freq","img/orange_2bandit_a2.png","70","70","test","1","183","183","8","",""
"null","306879","pSARL_v2","pSARL_v2lp3ksyf8","6000cefee380e61fa9bc5ae4","freq_resp","img/orange_2bandit_a.png","70","70","test","","","","8","",""
"null","307035","pSARL_v2","pSARL_v2lp3ksyf8","6000cefee380e61fa9bc5ae4","fixation","img/fixation.png","null","","test","","","","","",""
"346","307384","pSARL_v2","pSARL_v2lp3ksyf8","6000cefee380e61fa9bc5ae4","freq","img/orange_2bandit_a2.png","70","70","test","1","184","184","8","",""
"null","307855","pSARL_v2","pSARL_v2lp3ksyf8","6000cefee380e61fa9bc5ae4","freq_resp","img/orange_2bandit_a.png","70","70","test","","","","8","",""
"null","308013","pSARL_v2","pSARL_v2lp3ksyf8","6000cefee380e61fa9bc5ae4","fixation","img/fixation.png","null","","test","","","","","",""
"416","308432","pSARL_v2","pSARL_v2lp3ksyf8","6000cefee380e61fa9bc5ae4","freq","img/orange_2bandit_a2.png","70","70","test","1","185","185","8","",""
"null","308830","pSARL_v2","pSARL_v2lp3ksyf8","6000cefee380e61fa9bc5ae4","freq_resp","img/orange_2bandit_a.png","70","70","test","","","","8","",""
"null","308988","pSARL_v2","pSARL_v2lp3ksyf8","6000cefee380e61fa9bc5ae4","fixation","img/fixation.png","null","","test","","","","","",""
"417","309408","pSARL_v2","pSARL_v2lp3ksyf8","6000cefee380e61fa9bc5ae4","freq","img/orange_2bandit_a2.png","70","70","test","1","186","186","8","",""
"null","309794","pSARL_v2","pSARL_v2lp3ksyf8","6000cefee380e61fa9bc5ae4","freq_resp","img/orange_2bandit_a.png","70","70","test","","","","8","",""
"null","309953","pSARL_v2","pSARL_v2lp3ksyf8","6000cefee380e61fa9bc5ae4","fixation","img/fixation.png","null","","test","","","","","",""
"460","310416","pSARL_v2","pSARL_v2lp3ksyf8","6000cefee380e61fa9bc5ae4","freq","img/orange_2bandit_a2.png","70","70","test","1","187","187","8","",""
"null","310761","pSARL_v2","pSARL_v2lp3ksyf8","6000cefee380e61fa9bc5ae4","freq_resp","img/orange_2bandit_a.png","70","70","test","","","","8","",""
"null","310919","pSARL_v2","pSARL_v2lp3ksyf8","6000cefee380e61fa9bc5ae4","fixation","img/fixation.png","null","","test","","","","","",""
"2007","312928","pSARL_v2","pSARL_v2lp3ksyf8","6000cefee380e61fa9bc5ae4","reward","img/slot.png","74","","test","","","","","",""
"null","313693","pSARL_v2","pSARL_v2lp3ksyf8","6000cefee380e61fa9bc5ae4","points","<div class=""verylowPoints""> -4 </div>","null","na","test","","","","8","-4","7"
"440","314136","pSARL_v2","pSARL_v2lp3ksyf8","6000cefee380e61fa9bc5ae4","freq","img/orange_2bandit_a2.png","70","70","test","1","188","188","9","",""
"null","314512","pSARL_v2","pSARL_v2lp3ksyf8","6000cefee380e61fa9bc5ae4","freq_resp","img/orange_2bandit_a.png","70","70","test","","","","9","",""
"null","314671","pSARL_v2","pSARL_v2lp3ksyf8","6000cefee380e61fa9bc5ae4","fixation","img/fixation.png","null","","test","","","","","",""
"318","314992","pSARL_v2","pSARL_v2lp3ksyf8","6000cefee380e61fa9bc5ae4","freq","img/orange_2bandit_a2.png","70","70","test","1","189","189","9","",""
"null","315479","pSARL_v2","pSARL_v2lp3ksyf8","6000cefee380e61fa9bc5ae4","freq_resp","img/orange_2bandit_a.png","70","70","test","","","","9","",""
"null","315636","pSARL_v2","pSARL_v2lp3ksyf8","6000cefee380e61fa9bc5ae4","fixation","img/fixation.png","null","","test","","","","","",""
"321","315960","pSARL_v2","pSARL_v2lp3ksyf8","6000cefee380e61fa9bc5ae4","freq","img/orange_2bandit_a2.png","70","70","test","1","190","190","9","",""
"null","316457","pSARL_v2","pSARL_v2lp3ksyf8","6000cefee380e61fa9bc5ae4","freq_resp","img/orange_2bandit_a.png","70","70","test","","","","9","",""
"null","316613","pSARL_v2","pSARL_v2lp3ksyf8","6000cefee380e61fa9bc5ae4","fixation","img/fixation.png","null","","test","","","","","",""
"319","316936","pSARL_v2","pSARL_v2lp3ksyf8","6000cefee380e61fa9bc5ae4","freq","img/orange_2bandit_a2.png","70","70","test","1","191","191","9","",""
"null","317421","pSARL_v2","pSARL_v2lp3ksyf8","6000cefee380e61fa9bc5ae4","freq_resp","img/orange_2bandit_a.png","70","70","test","","","","9","",""
"null","317580","pSARL_v2","pSARL_v2lp3ksyf8","6000cefee380e61fa9bc5ae4","fixation","img/fixation.png","null","","test","","","","","",""
"273","317857","pSARL_v2","pSARL_v2lp3ksyf8","6000cefee380e61fa9bc5ae4","freq","img/orange_2bandit_a2.png","70","70","test","1","192","192","9","",""
"null","318398","pSARL_v2","pSARL_v2lp3ksyf8","6000cefee380e61fa9bc5ae4","freq_resp","img/orange_2bandit_a.png","70","70","test","","","","9","",""
"null","318554","pSARL_v2","pSARL_v2lp3ksyf8","6000cefee380e61fa9bc5ae4","fixation","img/fixation.png","null","","test","","","","","",""
"298","318857","pSARL_v2","pSARL_v2lp3ksyf8","6000cefee380e61fa9bc5ae4","freq","img/orange_2bandit_a2.png","70","70","test","1","193","193","9","",""
"null","319377","pSARL_v2","pSARL_v2lp3ksyf8","6000cefee380e61fa9bc5ae4","freq_resp","img/orange_2bandit_a.png","70","70","test","","","","9","",""
"null","319535","pSARL_v2","pSARL_v2lp3ksyf8","6000cefee380e61fa9bc5ae4","fixation","img/fixation.png","null","","test","","","","","",""
"326","319864","pSARL_v2","pSARL_v2lp3ksyf8","6000cefee380e61fa9bc5ae4","freq","img/orange_2bandit_a2.png","70","70","test","1","194","194","9","",""
"null","320342","pSARL_v2","pSARL_v2lp3ksyf8","6000cefee380e61fa9bc5ae4","freq_resp","img/orange_2bandit_a.png","70","70","test","","","","9","",""
"null","320500","pSARL_v2","pSARL_v2lp3ksyf8","6000cefee380e61fa9bc5ae4","fixation","img/fixation.png","null","","test","","","","","",""
"281","320784","pSARL_v2","pSARL_v2lp3ksyf8","6000cefee380e61fa9bc5ae4","freq","img/orange_2bandit_a2.png","70","70","test","1","195","195","9","",""
"null","321308","pSARL_v2","pSARL_v2lp3ksyf8","6000cefee380e61fa9bc5ae4","freq_resp","img/orange_2bandit_a.png","70","70","test","","","","9","",""
"null","321468","pSARL_v2","pSARL_v2lp3ksyf8","6000cefee380e61fa9bc5ae4","fixation","img/fixation.png","null","","test","","","","","",""
"314","321784","pSARL_v2","pSARL_v2lp3ksyf8","6000cefee380e61fa9bc5ae4","freq","img/orange_2bandit_a2.png","70","70","test","1","196","196","9","",""
"null","322287","pSARL_v2","pSARL_v2lp3ksyf8","6000cefee380e61fa9bc5ae4","freq_resp","img/orange_2bandit_a.png","70","70","test","","","","9","",""
"null","322446","pSARL_v2","pSARL_v2lp3ksyf8","6000cefee380e61fa9bc5ae4","fixation","img/fixation.png","null","","test","","","","","",""
"279","322728","pSARL_v2","pSARL_v2lp3ksyf8","6000cefee380e61fa9bc5ae4","freq","img/orange_2bandit_a2.png","70","70","test","1","197","197","9","",""
"null","323254","pSARL_v2","pSARL_v2lp3ksyf8","6000cefee380e61fa9bc5ae4","freq_resp","img/orange_2bandit_a.png","70","70","test","","","","9","",""
"null","323412","pSARL_v2","pSARL_v2lp3ksyf8","6000cefee380e61fa9bc5ae4","fixation","img/fixation.png","null","","test","","","","","",""
"304","323720","pSARL_v2","pSARL_v2lp3ksyf8","6000cefee380e61fa9bc5ae4","freq","img/orange_2bandit_a2.png","70","70","test","1","198","198","9","",""
"null","324221","pSARL_v2","pSARL_v2lp3ksyf8","6000cefee380e61fa9bc5ae4","freq_resp","img/orange_2bandit_a.png","70","70","test","","","","9","",""
"null","324380","pSARL_v2","pSARL_v2lp3ksyf8","6000cefee380e61fa9bc5ae4","fixation","img/fixation.png","null","","test","","","","","",""
"457","324840","pSARL_v2","pSARL_v2lp3ksyf8","6000cefee380e61fa9bc5ae4","infreq","img/green_2bandit_a2.png","68","68","test","1","199","199","9","",""
"null","325188","pSARL_v2","pSARL_v2lp3ksyf8","6000cefee380e61fa9bc5ae4","infreq_resp","img/green_2bandit_a.png","68","68","test","","","","9","",""
"null","325348","pSARL_v2","pSARL_v2lp3ksyf8","6000cefee380e61fa9bc5ae4","fixation","img/fixation.png","null","","test","","","","","",""
"369","325720","pSARL_v2","pSARL_v2lp3ksyf8","6000cefee380e61fa9bc5ae4","freq","img/orange_2bandit_a2.png","70","70","test","1","200","200","9","",""
"null","326162","pSARL_v2","pSARL_v2lp3ksyf8","6000cefee380e61fa9bc5ae4","freq_resp","img/orange_2bandit_a.png","70","70","test","","","","9","",""
"null","326319","pSARL_v2","pSARL_v2lp3ksyf8","6000cefee380e61fa9bc5ae4","fixation","img/fixation.png","null","","test","","","","","",""
"318","326640","pSARL_v2","pSARL_v2lp3ksyf8","6000cefee380e61fa9bc5ae4","freq","img/orange_2bandit_a2.png","70","70","test","1","201","201","9","",""
"null","327140","pSARL_v2","pSARL_v2lp3ksyf8","6000cefee380e61fa9bc5ae4","freq_resp","img/orange_2bandit_a.png","70","70","test","","","","9","",""
"null","327296","pSARL_v2","pSARL_v2lp3ksyf8","6000cefee380e61fa9bc5ae4","fixation","img/fixation.png","null","","test","","","","","",""
"237","327536","pSARL_v2","pSARL_v2lp3ksyf8","6000cefee380e61fa9bc5ae4","freq","img/orange_2bandit_a2.png","70","70","test","1","202","202","9","",""
"null","328105","pSARL_v2","pSARL_v2lp3ksyf8","6000cefee380e61fa9bc5ae4","freq_resp","img/orange_2bandit_a.png","70","70","test","","","","9","",""
"null","328263","pSARL_v2","pSARL_v2lp3ksyf8","6000cefee380e61fa9bc5ae4","fixation","img/fixation.png","null","","test","","","","","",""
"302","328568","pSARL_v2","pSARL_v2lp3ksyf8","6000cefee380e61fa9bc5ae4","freq","img/orange_2bandit_a2.png","70","70","test","1","203","203","9","",""
"null","329070","pSARL_v2","pSARL_v2lp3ksyf8","6000cefee380e61fa9bc5ae4","freq_resp","img/orange_2bandit_a.png","70","70","test","","","","9","",""
"null","329228","pSARL_v2","pSARL_v2lp3ksyf8","6000cefee380e61fa9bc5ae4","fixation","img/fixation.png","null","","test","","","","","",""
"336","329568","pSARL_v2","pSARL_v2lp3ksyf8","6000cefee380e61fa9bc5ae4","freq","img/orange_2bandit_a2.png","70","70","test","1","204","204","9","",""
"null","330036","pSARL_v2","pSARL_v2lp3ksyf8","6000cefee380e61fa9bc5ae4","freq_resp","img/orange_2bandit_a.png","70","70","test","","","","9","",""
"null","330195","pSARL_v2","pSARL_v2lp3ksyf8","6000cefee380e61fa9bc5ae4","fixation","img/fixation.png","null","","test","","","","","",""
"459","330656","pSARL_v2","pSARL_v2lp3ksyf8","6000cefee380e61fa9bc5ae4","infreq","img/green_2bandit_a2.png","68","68","test","1","205","205","9","",""
"null","331015","pSARL_v2","pSARL_v2lp3ksyf8","6000cefee380e61fa9bc5ae4","infreq_resp","img/green_2bandit_a.png","68","68","test","","","","9","",""
"null","331172","pSARL_v2","pSARL_v2lp3ksyf8","6000cefee380e61fa9bc5ae4","fixation","img/fixation.png","null","","test","","","","","",""
"321","331497","pSARL_v2","pSARL_v2lp3ksyf8","6000cefee380e61fa9bc5ae4","freq","img/orange_2bandit_a2.png","70","70","test","1","206","206","9","",""
"null","331991","pSARL_v2","pSARL_v2lp3ksyf8","6000cefee380e61fa9bc5ae4","freq_resp","img/orange_2bandit_a.png","70","70","test","","","","9","",""
"null","332149","pSARL_v2","pSARL_v2lp3ksyf8","6000cefee380e61fa9bc5ae4","fixation","img/fixation.png","null","","test","","","","","",""
"288","332441","pSARL_v2","pSARL_v2lp3ksyf8","6000cefee380e61fa9bc5ae4","freq","img/orange_2bandit_a2.png","70","70","test","1","207","207","9","",""
"null","332963","pSARL_v2","pSARL_v2lp3ksyf8","6000cefee380e61fa9bc5ae4","freq_resp","img/orange_2bandit_a.png","70","70","test","","","","9","",""
"null","333121","pSARL_v2","pSARL_v2lp3ksyf8","6000cefee380e61fa9bc5ae4","fixation","img/fixation.png","null","","test","","","","","",""
"316","333440","pSARL_v2","pSARL_v2lp3ksyf8","6000cefee380e61fa9bc5ae4","freq","img/orange_2bandit_a2.png","70","70","test","1","208","208","9","",""
"null","333930","pSARL_v2","pSARL_v2lp3ksyf8","6000cefee380e61fa9bc5ae4","freq_resp","img/orange_2bandit_a.png","70","70","test","","","","9","",""
"null","334088","pSARL_v2","pSARL_v2lp3ksyf8","6000cefee380e61fa9bc5ae4","fixation","img/fixation.png","null","","test","","","","","",""
"397","334488","pSARL_v2","pSARL_v2lp3ksyf8","6000cefee380e61fa9bc5ae4","freq","img/orange_2bandit_a2.png","70","70","test","1","209","209","9","",""
"null","334895","pSARL_v2","pSARL_v2lp3ksyf8","6000cefee380e61fa9bc5ae4","freq_resp","img/orange_2bandit_a.png","70","70","test","","","","9","",""
"null","335051","pSARL_v2","pSARL_v2lp3ksyf8","6000cefee380e61fa9bc5ae4","fixation","img/fixation.png","null","","test","","","","","",""
"1602","336656","pSARL_v2","pSARL_v2lp3ksyf8","6000cefee380e61fa9bc5ae4","reward","img/slot.png","74","","test","","","","","",""
"null","337410","pSARL_v2","pSARL_v2lp3ksyf8","6000cefee380e61fa9bc5ae4","points","<div class=""verylowPoints""> -3 </div>","null","na","test","","","","9","-3","8"
"420","337832","pSARL_v2","pSARL_v2lp3ksyf8","6000cefee380e61fa9bc5ae4","freq","img/orange_2bandit_a2.png","70","70","test","1","210","210","10","",""
"null","338229","pSARL_v2","pSARL_v2lp3ksyf8","6000cefee380e61fa9bc5ae4","freq_resp","img/orange_2bandit_a.png","70","70","test","","","","10","",""
"null","338383","pSARL_v2","pSARL_v2lp3ksyf8","6000cefee380e61fa9bc5ae4","fixation","img/fixation.png","null","","test","","","","","",""
"326","338713","pSARL_v2","pSARL_v2lp3ksyf8","6000cefee380e61fa9bc5ae4","freq","img/orange_2bandit_a2.png","70","70","test","1","211","211","10","",""
"null","339202","pSARL_v2","pSARL_v2lp3ksyf8","6000cefee380e61fa9bc5ae4","freq_resp","img/orange_2bandit_a.png","70","70","test","","","","10","",""
"null","339360","pSARL_v2","pSARL_v2lp3ksyf8","6000cefee380e61fa9bc5ae4","fixation","img/fixation.png","null","","test","","","","","",""
"365","339728","pSARL_v2","pSARL_v2lp3ksyf8","6000cefee380e61fa9bc5ae4","freq","img/orange_2bandit_a2.png","70","70","test","1","212","212","10","",""
"null","340169","pSARL_v2","pSARL_v2lp3ksyf8","6000cefee380e61fa9bc5ae4","freq_resp","img/orange_2bandit_a.png","70","70","test","","","","10","",""
"null","340326","pSARL_v2","pSARL_v2lp3ksyf8","6000cefee380e61fa9bc5ae4","fixation","img/fixation.png","null","","test","","","","","",""
"503","340833","pSARL_v2","pSARL_v2lp3ksyf8","6000cefee380e61fa9bc5ae4","infreq","img/green_2bandit_a2.png","68","68","test","1","213","213","10","",""
