"rt","time_elapsed","expId","subject","prolificID","trialType","stimulus","key_press","corrresp","phase","corr","trialNum","attentionRunNum","blockNum","points","rlNum"
"10290.700000017881","10306","pSARL_v2","pSARL_v2fny0rket","63d2eec88a81e2462be70762","","","","","","","","","","",""
"","13905","pSARL_v2","pSARL_v2fny0rket","63d2eec88a81e2462be70762","fullscreen","","","","","","","","","",""
"2485.699999988079","16404","pSARL_v2","pSARL_v2fny0rket","63d2eec88a81e2462be70762","","","","","","","","","","",""
"null","17224","pSARL_v2","pSARL_v2fny0rket","63d2eec88a81e2462be70762","freqPrac","img/green_2bandit_b2.png","null","70","prac","0","","","","",""
"null","18246","pSARL_v2","pSARL_v2fny0rket","63d2eec88a81e2462be70762","feedback","img/tooSlow.png","null","na","prac","","","","","",""
"null","18419","pSARL_v2","pSARL_v2fny0rket","63d2eec88a81e2462be70762","fixation","img/fixation.png","null","","prac","","","","","",""
"349.30000001192093","18781","pSARL_v2","pSARL_v2fny0rket","63d2eec88a81e2462be70762","infreqPrac","img/orange_2bandit_b2.png","68","68","prac","1","","","","",""
"349.30000001192093","19249","pSARL_v2","pSARL_v2fny0rket","63d2eec88a81e2462be70762","infreqPrac_resp","img/orange_2bandit_b.png","68","68","prac","","","","","",""
"null","19424","pSARL_v2","pSARL_v2fny0rket","63d2eec88a81e2462be70762","fixation","img/fixation.png","null","","prac","","","","","",""
"648.7999999821186","20085","pSARL_v2","pSARL_v2fny0rket","63d2eec88a81e2462be70762","freqPrac","img/green_2bandit_b2.png","70","70","prac","1","","","","",""
"648.7999999821186","20262","pSARL_v2","pSARL_v2fny0rket","63d2eec88a81e2462be70762","freqPrac_resp","img/green_2bandit_b.png","70","70","prac","","","","","",""
"null","20435","pSARL_v2","pSARL_v2fny0rket","63d2eec88a81e2462be70762","fixation","img/fixation.png","null","","prac","","","","","",""
"458.90000000596046","20905","pSARL_v2","pSARL_v2fny0rket","63d2eec88a81e2462be70762","infreqPrac","img/orange_2bandit_b2.png","68","68","prac","1","","","","",""
"458.90000000596046","21271","pSARL_v2","pSARL_v2fny0rket","63d2eec88a81e2462be70762","infreqPrac_resp","img/orange_2bandit_b.png","68","68","prac","","","","","",""
"null","21444","pSARL_v2","pSARL_v2fny0rket","63d2eec88a81e2462be70762","fixation","img/fixation.png","null","","prac","","","","","",""
"365.90000000596046","21822","pSARL_v2","pSARL_v2fny0rket","63d2eec88a81e2462be70762","infreqPrac","img/orange_2bandit_b2.png","68","68","prac","1","","","","",""
"365.90000000596046","22281","pSARL_v2","pSARL_v2fny0rket","63d2eec88a81e2462be70762","infreqPrac_resp","img/orange_2bandit_b.png","68","68","prac","","","","","",""
"null","22455","pSARL_v2","pSARL_v2fny0rket","63d2eec88a81e2462be70762","fixation","img/fixation.png","null","","prac","","","","","",""
"348.90000000596046","22815","pSARL_v2","pSARL_v2fny0rket","63d2eec88a81e2462be70762","infreqPrac","img/orange_2bandit_b2.png","68","68","prac","1","","","","",""
"348.90000000596046","23291","pSARL_v2","pSARL_v2fny0rket","63d2eec88a81e2462be70762","infreqPrac_resp","img/orange_2bandit_b.png","68","68","prac","","","","","",""
"null","23463","pSARL_v2","pSARL_v2fny0rket","63d2eec88a81e2462be70762","fixation","img/fixation.png","null","","prac","","","","","",""
"453.89999997615814","23928","pSARL_v2","pSARL_v2fny0rket","63d2eec88a81e2462be70762","freqPrac","img/green_2bandit_b2.png","70","70","prac","1","","","","",""
"453.89999997615814","24299","pSARL_v2","pSARL_v2fny0rket","63d2eec88a81e2462be70762","freqPrac_resp","img/green_2bandit_b.png","70","70","prac","","","","","",""
"null","24472","pSARL_v2","pSARL_v2fny0rket","63d2eec88a81e2462be70762","fixation","img/fixation.png","null","","prac","","","","","",""
"396.59999999403954","24880","pSARL_v2","pSARL_v2fny0rket","63d2eec88a81e2462be70762","infreqPrac","img/orange_2bandit_b2.png","68","68","prac","1","","","","",""
"396.59999999403954","25309","pSARL_v2","pSARL_v2fny0rket","63d2eec88a81e2462be70762","infreqPrac_resp","img/orange_2bandit_b.png","68","68","prac","","","","","",""
"null","25482","pSARL_v2","pSARL_v2fny0rket","63d2eec88a81e2462be70762","fixation","img/fixation.png","null","","prac","","","","","",""
"501.40000000596046","25995","pSARL_v2","pSARL_v2fny0rket","63d2eec88a81e2462be70762","freqPrac","img/green_2bandit_b2.png","70","70","prac","1","","","","",""
"501.40000000596046","26319","pSARL_v2","pSARL_v2fny0rket","63d2eec88a81e2462be70762","freqPrac_resp","img/green_2bandit_b.png","70","70","prac","","","","","",""
"null","26492","pSARL_v2","pSARL_v2fny0rket","63d2eec88a81e2462be70762","fixation","img/fixation.png","null","","prac","","","","","",""
"454.10000002384186","26958","pSARL_v2","pSARL_v2fny0rket","63d2eec88a81e2462be70762","freqPrac","img/green_2bandit_b2.png","70","70","prac","1","","","","",""
"454.10000002384186","27317","pSARL_v2","pSARL_v2fny0rket","63d2eec88a81e2462be70762","freqPrac_resp","img/green_2bandit_b.png","70","70","prac","","","","","",""
"null","27489","pSARL_v2","pSARL_v2fny0rket","63d2eec88a81e2462be70762","fixation","img/fixation.png","null","","prac","","","","","",""
"34899.09999999404","62399","pSARL_v2","pSARL_v2fny0rket","63d2eec88a81e2462be70762","","","","","prac","","","","","",""
"611.4000000059605","63023","pSARL_v2","pSARL_v2fny0rket","63d2eec88a81e2462be70762","rewardPractice","img/slot.png","74","","prac","","","","","",""
"null","63792","pSARL_v2","pSARL_v2fny0rket","63d2eec88a81e2462be70762","feedback","<div class=""veryhighPoints""> +15 </div>","null","na","prac","","","","","",""
"null","63964","pSARL_v2","pSARL_v2fny0rket","63d2eec88a81e2462be70762","fixation","img/fixation.png","null","","prac","","","","","",""
"17053.30000001192","81028","pSARL_v2","pSARL_v2fny0rket","63d2eec88a81e2462be70762","","","","","prac","","","","","",""
"619.6999999880791","81659","pSARL_v2","pSARL_v2fny0rket","63d2eec88a81e2462be70762","freq","img/green_2bandit_b2.png","70","70","test","1","1","1","1","",""
"null","81858","pSARL_v2","pSARL_v2fny0rket","63d2eec88a81e2462be70762","freq_resp","img/green_2bandit_b.png","70","70","test","","","","1","",""
"null","82031","pSARL_v2","pSARL_v2fny0rket","63d2eec88a81e2462be70762","fixation","img/fixation.png","null","","test","","","","","",""
"425.09999999403954","82469","pSARL_v2","pSARL_v2fny0rket","63d2eec88a81e2462be70762","freq","img/green_2bandit_b2.png","70","70","test","1","2","2","1","",""
"null","82866","pSARL_v2","pSARL_v2fny0rket","63d2eec88a81e2462be70762","freq_resp","img/green_2bandit_b.png","70","70","test","","","","1","",""
"null","83040","pSARL_v2","pSARL_v2fny0rket","63d2eec88a81e2462be70762","fixation","img/fixation.png","null","","test","","","","","",""
"345.69999998807907","83397","pSARL_v2","pSARL_v2fny0rket","63d2eec88a81e2462be70762","infreq","img/orange_2bandit_b2.png","68","68","test","1","3","3","1","",""
"null","83874","pSARL_v2","pSARL_v2fny0rket","63d2eec88a81e2462be70762","infreq_resp","img/orange_2bandit_b.png","68","68","test","","","","1","",""
"null","84046","pSARL_v2","pSARL_v2fny0rket","63d2eec88a81e2462be70762","fixation","img/fixation.png","null","","test","","","","","",""
"377.09999999403954","84436","pSARL_v2","pSARL_v2fny0rket","63d2eec88a81e2462be70762","freq","img/green_2bandit_b2.png","70","70","test","1","4","4","1","",""
"null","84882","pSARL_v2","pSARL_v2fny0rket","63d2eec88a81e2462be70762","freq_resp","img/green_2bandit_b.png","70","70","test","","","","1","",""
"null","85056","pSARL_v2","pSARL_v2fny0rket","63d2eec88a81e2462be70762","fixation","img/fixation.png","null","","test","","","","","",""
"398.30000001192093","85466","pSARL_v2","pSARL_v2fny0rket","63d2eec88a81e2462be70762","freq","img/green_2bandit_b2.png","70","70","test","1","5","5","1","",""
"null","85889","pSARL_v2","pSARL_v2fny0rket","63d2eec88a81e2462be70762","freq_resp","img/green_2bandit_b.png","70","70","test","","","","1","",""
"null","86063","pSARL_v2","pSARL_v2fny0rket","63d2eec88a81e2462be70762","fixation","img/fixation.png","null","","test","","","","","",""
"404.90000000596046","86480","pSARL_v2","pSARL_v2fny0rket","63d2eec88a81e2462be70762","freq","img/green_2bandit_b2.png","70","70","test","1","6","6","1","",""
"null","86899","pSARL_v2","pSARL_v2fny0rket","63d2eec88a81e2462be70762","freq_resp","img/green_2bandit_b.png","70","70","test","","","","1","",""
"null","87073","pSARL_v2","pSARL_v2fny0rket","63d2eec88a81e2462be70762","fixation","img/fixation.png","null","","test","","","","","",""
"340.39999997615814","87425","pSARL_v2","pSARL_v2fny0rket","63d2eec88a81e2462be70762","infreq","img/orange_2bandit_b2.png","68","68","test","1","7","7","1","",""
"null","87910","pSARL_v2","pSARL_v2fny0rket","63d2eec88a81e2462be70762","infreq_resp","img/orange_2bandit_b.png","68","68","test","","","","1","",""
"null","88083","pSARL_v2","pSARL_v2fny0rket","63d2eec88a81e2462be70762","fixation","img/fixation.png","null","","test","","","","","",""
"388.7999999821186","88484","pSARL_v2","pSARL_v2fny0rket","63d2eec88a81e2462be70762","freq","img/green_2bandit_b2.png","70","70","test","1","8","8","1","",""
"null","88918","pSARL_v2","pSARL_v2fny0rket","63d2eec88a81e2462be70762","freq_resp","img/green_2bandit_b.png","70","70","test","","","","1","",""
"null","89090","pSARL_v2","pSARL_v2fny0rket","63d2eec88a81e2462be70762","fixation","img/fixation.png","null","","test","","","","","",""
"368.30000001192093","89470","pSARL_v2","pSARL_v2fny0rket","63d2eec88a81e2462be70762","freq","img/green_2bandit_b2.png","70","70","test","1","9","9","1","",""
"null","89927","pSARL_v2","pSARL_v2fny0rket","63d2eec88a81e2462be70762","freq_resp","img/green_2bandit_b.png","70","70","test","","","","1","",""
"null","90102","pSARL_v2","pSARL_v2fny0rket","63d2eec88a81e2462be70762","fixation","img/fixation.png","null","","test","","","","","",""
"349.09999999403954","90463","pSARL_v2","pSARL_v2fny0rket","63d2eec88a81e2462be70762","freq","img/green_2bandit_b2.png","70","70","test","1","10","10","1","",""
"null","90938","pSARL_v2","pSARL_v2fny0rket","63d2eec88a81e2462be70762","freq_resp","img/green_2bandit_b.png","70","70","test","","","","1","",""
"null","91112","pSARL_v2","pSARL_v2fny0rket","63d2eec88a81e2462be70762","fixation","img/fixation.png","null","","test","","","","","",""
"300.2999999821186","91424","pSARL_v2","pSARL_v2fny0rket","63d2eec88a81e2462be70762","freq","img/green_2bandit_b2.png","70","70","test","1","11","11","1","",""
"null","91948","pSARL_v2","pSARL_v2fny0rket","63d2eec88a81e2462be70762","freq_resp","img/green_2bandit_b.png","70","70","test","","","","1","",""
"null","92121","pSARL_v2","pSARL_v2fny0rket","63d2eec88a81e2462be70762","fixation","img/fixation.png","null","","test","","","","","",""
"319.2000000178814","92452","pSARL_v2","pSARL_v2fny0rket","63d2eec88a81e2462be70762","freq","img/green_2bandit_b2.png","70","70","test","1","12","12","1","",""
"null","92958","pSARL_v2","pSARL_v2fny0rket","63d2eec88a81e2462be70762","freq_resp","img/green_2bandit_b.png","70","70","test","","","","1","",""
"null","93133","pSARL_v2","pSARL_v2fny0rket","63d2eec88a81e2462be70762","fixation","img/fixation.png","null","","test","","","","","",""
"268.80000001192093","93413","pSARL_v2","pSARL_v2fny0rket","63d2eec88a81e2462be70762","freq","img/green_2bandit_b2.png","70","70","test","1","13","13","1","",""
"null","93968","pSARL_v2","pSARL_v2fny0rket","63d2eec88a81e2462be70762","freq_resp","img/green_2bandit_b.png","70","70","test","","","","1","",""
"null","94142","pSARL_v2","pSARL_v2fny0rket","63d2eec88a81e2462be70762","fixation","img/fixation.png","null","","test","","","","","",""
"262.5","94417","pSARL_v2","pSARL_v2fny0rket","63d2eec88a81e2462be70762","freq","img/green_2bandit_b2.png","70","70","test","1","14","14","1","",""
"null","94978","pSARL_v2","pSARL_v2fny0rket","63d2eec88a81e2462be70762","freq_resp","img/green_2bandit_b.png","70","70","test","","","","1","",""
"null","95151","pSARL_v2","pSARL_v2fny0rket","63d2eec88a81e2462be70762","fixation","img/fixation.png","null","","test","","","","","",""
"280.09999999403954","95442","pSARL_v2","pSARL_v2fny0rket","63d2eec88a81e2462be70762","freq","img/green_2bandit_b2.png","70","70","test","1","15","15","1","",""
"null","95989","pSARL_v2","pSARL_v2fny0rket","63d2eec88a81e2462be70762","freq_resp","img/green_2bandit_b.png","70","70","test","","","","1","",""
"null","96161","pSARL_v2","pSARL_v2fny0rket","63d2eec88a81e2462be70762","fixation","img/fixation.png","null","","test","","","","","",""
"271.59999999403954","96445","pSARL_v2","pSARL_v2fny0rket","63d2eec88a81e2462be70762","freq","img/green_2bandit_b2.png","70","70","test","1","16","16","1","",""
"null","96999","pSARL_v2","pSARL_v2fny0rket","63d2eec88a81e2462be70762","freq_resp","img/green_2bandit_b.png","70","70","test","","","","1","",""
"null","97172","pSARL_v2","pSARL_v2fny0rket","63d2eec88a81e2462be70762","fixation","img/fixation.png","null","","test","","","","","",""
"237.59999999403954","97422","pSARL_v2","pSARL_v2fny0rket","63d2eec88a81e2462be70762","infreq","img/orange_2bandit_b2.png","70","68","test","0","17","17","1","",""
"null","98011","pSARL_v2","pSARL_v2fny0rket","63d2eec88a81e2462be70762","infreq_resp","img/orange_2bandit_b.png","70","68","test","","","","1","",""
"null","98183","pSARL_v2","pSARL_v2fny0rket","63d2eec88a81e2462be70762","fixation","img/fixation.png","null","","test","","","","","",""
"523.2000000178814","98719","pSARL_v2","pSARL_v2fny0rket","63d2eec88a81e2462be70762","freq","img/green_2bandit_b2.png","70","70","test","1","18","18","1","",""
"null","99016","pSARL_v2","pSARL_v2fny0rket","63d2eec88a81e2462be70762","freq_resp","img/green_2bandit_b.png","70","70","test","","","","1","",""
"null","99189","pSARL_v2","pSARL_v2fny0rket","63d2eec88a81e2462be70762","fixation","img/fixation.png","null","","test","","","","","",""
"497.7999999821186","99699","pSARL_v2","pSARL_v2fny0rket","63d2eec88a81e2462be70762","freq","img/green_2bandit_b2.png","70","70","test","1","19","19","1","",""
"null","100023","pSARL_v2","pSARL_v2fny0rket","63d2eec88a81e2462be70762","freq_resp","img/green_2bandit_b.png","70","70","test","","","","1","",""
"null","100196","pSARL_v2","pSARL_v2fny0rket","63d2eec88a81e2462be70762","fixation","img/fixation.png","null","","test","","","","","",""
"337.09999999403954","100545","pSARL_v2","pSARL_v2fny0rket","63d2eec88a81e2462be70762","freq","img/green_2bandit_b2.png","70","70","test","1","20","20","1","",""
"null","101032","pSARL_v2","pSARL_v2fny0rket","63d2eec88a81e2462be70762","freq_resp","img/green_2bandit_b.png","70","70","test","","","","1","",""
"null","101205","pSARL_v2","pSARL_v2fny0rket","63d2eec88a81e2462be70762","fixation","img/fixation.png","null","","test","","","","","",""
"533.8000000119209","101750","pSARL_v2","pSARL_v2fny0rket","63d2eec88a81e2462be70762","reward","img/slot.png","74","","test","","","","","",""
"null","102517","pSARL_v2","pSARL_v2fny0rket","63d2eec88a81e2462be70762","points","<div class=""verylowPoints""> -6 </div>","null","na","test","","","","1","-6","0"
"null","103334","pSARL_v2","pSARL_v2fny0rket","63d2eec88a81e2462be70762","freq","img/green_2bandit_b2.png","null","70","test","0","21","21","2","",""
"null","103509","pSARL_v2","pSARL_v2fny0rket","63d2eec88a81e2462be70762","fixation","img/fixation.png","null","","test","","","","","",""
"557.6000000238419","104078","pSARL_v2","pSARL_v2fny0rket","63d2eec88a81e2462be70762","freq","img/green_2bandit_b2.png","70","70","test","1","22","22","2","",""
"null","104344","pSARL_v2","pSARL_v2fny0rket","63d2eec88a81e2462be70762","freq_resp","img/green_2bandit_b.png","70","70","test","","","","2","",""
"null","104516","pSARL_v2","pSARL_v2fny0rket","63d2eec88a81e2462be70762","fixation","img/fixation.png","null","","test","","","","","",""
"385","104913","pSARL_v2","pSARL_v2fny0rket","63d2eec88a81e2462be70762","freq","img/green_2bandit_b2.png","70","70","test","1","23","23","2","",""
"null","105350","pSARL_v2","pSARL_v2fny0rket","63d2eec88a81e2462be70762","freq_resp","img/green_2bandit_b.png","70","70","test","","","","2","",""
"null","105523","pSARL_v2","pSARL_v2fny0rket","63d2eec88a81e2462be70762","fixation","img/fixation.png","null","","test","","","","","",""
"352.30000001192093","105887","pSARL_v2","pSARL_v2fny0rket","63d2eec88a81e2462be70762","freq","img/green_2bandit_b2.png","70","70","test","1","24","24","2","",""
"null","106359","pSARL_v2","pSARL_v2fny0rket","63d2eec88a81e2462be70762","freq_resp","img/green_2bandit_b.png","70","70","test","","","","2","",""
"null","106531","pSARL_v2","pSARL_v2fny0rket","63d2eec88a81e2462be70762","fixation","img/fixation.png","null","","test","","","","","",""
"499","107042","pSARL_v2","pSARL_v2fny0rket","63d2eec88a81e2462be70762","freq","img/green_2bandit_b2.png","70","70","test","1","25","25","2","",""
"null","107361","pSARL_v2","pSARL_v2fny0rket","63d2eec88a81e2462be70762","freq_resp","img/green_2bandit_b.png","70","70","test","","","","2","",""
"null","107531","pSARL_v2","pSARL_v2fny0rket","63d2eec88a81e2462be70762","fixation","img/fixation.png","null","","test","","","","","",""
"369","107912","pSARL_v2","pSARL_v2fny0rket","63d2eec88a81e2462be70762","freq","img/green_2bandit_b2.png","70","70","test","1","26","26","2","",""
"null","108363","pSARL_v2","pSARL_v2fny0rket","63d2eec88a81e2462be70762","freq_resp","img/green_2bandit_b.png","70","70","test","","","","2","",""
"null","108536","pSARL_v2","pSARL_v2fny0rket","63d2eec88a81e2462be70762","fixation","img/fixation.png","null","","test","","","","","",""
"273.5","108821","pSARL_v2","pSARL_v2fny0rket","63d2eec88a81e2462be70762","freq","img/green_2bandit_b2.png","70","70","test","1","27","27","2","",""
"null","109371","pSARL_v2","pSARL_v2fny0rket","63d2eec88a81e2462be70762","freq_resp","img/green_2bandit_b.png","70","70","test","","","","2","",""
"null","109544","pSARL_v2","pSARL_v2fny0rket","63d2eec88a81e2462be70762","fixation","img/fixation.png","null","","test","","","","","",""
"471.90000000596046","110028","pSARL_v2","pSARL_v2fny0rket","63d2eec88a81e2462be70762","infreq","img/orange_2bandit_b2.png","68","68","test","1","28","28","2","",""
"null","110382","pSARL_v2","pSARL_v2fny0rket","63d2eec88a81e2462be70762","infreq_resp","img/orange_2bandit_b.png","68","68","test","","","","2","",""
"null","110558","pSARL_v2","pSARL_v2fny0rket","63d2eec88a81e2462be70762","fixation","img/fixation.png","null","","test","","","","","",""
"288.7000000178814","110858","pSARL_v2","pSARL_v2fny0rket","63d2eec88a81e2462be70762","infreq","img/orange_2bandit_b2.png","68","68","test","1","29","29","2","",""
"null","111389","pSARL_v2","pSARL_v2fny0rket","63d2eec88a81e2462be70762","infreq_resp","img/orange_2bandit_b.png","68","68","test","","","","2","",""
"null","111564","pSARL_v2","pSARL_v2fny0rket","63d2eec88a81e2462be70762","fixation","img/fixation.png","null","","test","","","","","",""
"190.7999999821186","111766","pSARL_v2","pSARL_v2fny0rket","63d2eec88a81e2462be70762","freq","img/green_2bandit_b2.png","68","70","test","0","30","30","2","",""
"null","112394","pSARL_v2","pSARL_v2fny0rket","63d2eec88a81e2462be70762","freq_resp","img/green_2bandit_b.png","68","70","test","","","","2","",""
"null","112567","pSARL_v2","pSARL_v2fny0rket","63d2eec88a81e2462be70762","fixation","img/fixation.png","null","","test","","","","","",""
"513.8000000119209","113092","pSARL_v2","pSARL_v2fny0rket","63d2eec88a81e2462be70762","infreq","img/orange_2bandit_b2.png","68","68","test","1","31","31","2","",""
"null","113403","pSARL_v2","pSARL_v2fny0rket","63d2eec88a81e2462be70762","infreq_resp","img/orange_2bandit_b.png","68","68","test","","","","2","",""
"null","113577","pSARL_v2","pSARL_v2fny0rket","63d2eec88a81e2462be70762","fixation","img/fixation.png","null","","test","","","","","",""
"445.10000002384186","114033","pSARL_v2","pSARL_v2fny0rket","63d2eec88a81e2462be70762","freq","img/green_2bandit_b2.png","70","70","test","1","32","32","2","",""
"null","114409","pSARL_v2","pSARL_v2fny0rket","63d2eec88a81e2462be70762","freq_resp","img/green_2bandit_b.png","70","70","test","","","","2","",""
"null","114582","pSARL_v2","pSARL_v2fny0rket","63d2eec88a81e2462be70762","fixation","img/fixation.png","null","","test","","","","","",""
"391.2000000178814","114984","pSARL_v2","pSARL_v2fny0rket","63d2eec88a81e2462be70762","freq","img/green_2bandit_b2.png","70","70","test","1","33","33","2","",""
"null","115420","pSARL_v2","pSARL_v2fny0rket","63d2eec88a81e2462be70762","freq_resp","img/green_2bandit_b.png","70","70","test","","","","2","",""
"null","115591","pSARL_v2","pSARL_v2fny0rket","63d2eec88a81e2462be70762","fixation","img/fixation.png","null","","test","","","","","",""
"356.90000000596046","115960","pSARL_v2","pSARL_v2fny0rket","63d2eec88a81e2462be70762","freq","img/green_2bandit_b2.png","70","70","test","1","34","34","2","",""
"null","116415","pSARL_v2","pSARL_v2fny0rket","63d2eec88a81e2462be70762","freq_resp","img/green_2bandit_b.png","70","70","test","","","","2","",""
"null","116588","pSARL_v2","pSARL_v2fny0rket","63d2eec88a81e2462be70762","fixation","img/fixation.png","null","","test","","","","","",""
"297.7000000178814","116898","pSARL_v2","pSARL_v2fny0rket","63d2eec88a81e2462be70762","freq","img/green_2bandit_b2.png","70","70","test","1","35","35","2","",""
"null","117421","pSARL_v2","pSARL_v2fny0rket","63d2eec88a81e2462be70762","freq_resp","img/green_2bandit_b.png","70","70","test","","","","2","",""
"null","117594","pSARL_v2","pSARL_v2fny0rket","63d2eec88a81e2462be70762","fixation","img/fixation.png","null","","test","","","","","",""
"282.40000000596046","117889","pSARL_v2","pSARL_v2fny0rket","63d2eec88a81e2462be70762","freq","img/green_2bandit_b2.png","70","70","test","1","36","36","2","",""
"null","118431","pSARL_v2","pSARL_v2fny0rket","63d2eec88a81e2462be70762","freq_resp","img/green_2bandit_b.png","70","70","test","","","","2","",""
"null","118603","pSARL_v2","pSARL_v2fny0rket","63d2eec88a81e2462be70762","fixation","img/fixation.png","null","","test","","","","","",""
"232.09999999403954","118847","pSARL_v2","pSARL_v2fny0rket","63d2eec88a81e2462be70762","freq","img/green_2bandit_b2.png","70","70","test","1","37","37","2","",""
"null","119438","pSARL_v2","pSARL_v2fny0rket","63d2eec88a81e2462be70762","freq_resp","img/green_2bandit_b.png","70","70","test","","","","2","",""
"null","119612","pSARL_v2","pSARL_v2fny0rket","63d2eec88a81e2462be70762","fixation","img/fixation.png","null","","test","","","","","",""
"305.2000000178814","119928","pSARL_v2","pSARL_v2fny0rket","63d2eec88a81e2462be70762","freq","img/green_2bandit_b2.png","70","70","test","1","38","38","2","",""
"null","120445","pSARL_v2","pSARL_v2fny0rket","63d2eec88a81e2462be70762","freq_resp","img/green_2bandit_b.png","70","70","test","","","","2","",""
"null","120618","pSARL_v2","pSARL_v2fny0rket","63d2eec88a81e2462be70762","fixation","img/fixation.png","null","","test","","","","","",""
"248.40000000596046","120878","pSARL_v2","pSARL_v2fny0rket","63d2eec88a81e2462be70762","freq","img/green_2bandit_b2.png","70","70","test","1","39","39","2","",""
"null","121453","pSARL_v2","pSARL_v2fny0rket","63d2eec88a81e2462be70762","freq_resp","img/green_2bandit_b.png","70","70","test","","","","2","",""
"null","121628","pSARL_v2","pSARL_v2fny0rket","63d2eec88a81e2462be70762","fixation","img/fixation.png","null","","test","","","","","",""
"251.69999998807907","121891","pSARL_v2","pSARL_v2fny0rket","63d2eec88a81e2462be70762","freq","img/green_2bandit_b2.png","70","70","test","1","40","40","2","",""
"null","122465","pSARL_v2","pSARL_v2fny0rket","63d2eec88a81e2462be70762","freq_resp","img/green_2bandit_b.png","70","70","test","","","","2","",""
"null","122639","pSARL_v2","pSARL_v2fny0rket","63d2eec88a81e2462be70762","fixation","img/fixation.png","null","","test","","","","","",""
"221","122872","pSARL_v2","pSARL_v2fny0rket","63d2eec88a81e2462be70762","freq","img/green_2bandit_b2.png","70","70","test","1","41","41","2","",""
"null","123475","pSARL_v2","pSARL_v2fny0rket","63d2eec88a81e2462be70762","freq_resp","img/green_2bandit_b.png","70","70","test","","","","2","",""
"null","123647","pSARL_v2","pSARL_v2fny0rket","63d2eec88a81e2462be70762","fixation","img/fixation.png","null","","test","","","","","",""
"191.60000002384186","123850","pSARL_v2","pSARL_v2fny0rket","63d2eec88a81e2462be70762","freq","img/green_2bandit_b2.png","70","70","test","1","42","42","2","",""
"null","124485","pSARL_v2","pSARL_v2fny0rket","63d2eec88a81e2462be70762","freq_resp","img/green_2bandit_b.png","70","70","test","","","","2","",""
"null","124658","pSARL_v2","pSARL_v2fny0rket","63d2eec88a81e2462be70762","fixation","img/fixation.png","null","","test","","","","","",""
"566.6000000238419","125237","pSARL_v2","pSARL_v2fny0rket","63d2eec88a81e2462be70762","reward","img/slot.png","74","","test","","","","","",""
"null","126012","pSARL_v2","pSARL_v2fny0rket","63d2eec88a81e2462be70762","points","<div class=""verylowPoints""> -11 </div>","null","na","test","","","","2","-11","1"
"702.1999999880791","126726","pSARL_v2","pSARL_v2fny0rket","63d2eec88a81e2462be70762","freq","img/green_2bandit_b2.png","70","70","test","1","43","43","3","",""
"null","126849","pSARL_v2","pSARL_v2fny0rket","63d2eec88a81e2462be70762","freq_resp","img/green_2bandit_b.png","70","70","test","","","","3","",""
"null","127022","pSARL_v2","pSARL_v2fny0rket","63d2eec88a81e2462be70762","fixation","img/fixation.png","null","","test","","","","","",""
"504.5","127538","pSARL_v2","pSARL_v2fny0rket","63d2eec88a81e2462be70762","freq","img/green_2bandit_b2.png","70","70","test","1","44","44","3","",""
"null","127855","pSARL_v2","pSARL_v2fny0rket","63d2eec88a81e2462be70762","freq_resp","img/green_2bandit_b.png","70","70","test","","","","3","",""
"null","128029","pSARL_v2","pSARL_v2fny0rket","63d2eec88a81e2462be70762","fixation","img/fixation.png","null","","test","","","","","",""
"296.5","128338","pSARL_v2","pSARL_v2fny0rket","63d2eec88a81e2462be70762","freq","img/green_2bandit_b2.png","70","70","test","1","45","45","3","",""
"null","128865","pSARL_v2","pSARL_v2fny0rket","63d2eec88a81e2462be70762","freq_resp","img/green_2bandit_b.png","70","70","test","","","","3","",""
"null","129039","pSARL_v2","pSARL_v2fny0rket","63d2eec88a81e2462be70762","fixation","img/fixation.png","null","","test","","","","","",""
"271.80000001192093","129322","pSARL_v2","pSARL_v2fny0rket","63d2eec88a81e2462be70762","freq","img/green_2bandit_b2.png","70","70","test","1","46","46","3","",""
"null","129863","pSARL_v2","pSARL_v2fny0rket","63d2eec88a81e2462be70762","freq_resp","img/green_2bandit_b.png","70","70","test","","","","3","",""
"null","130039","pSARL_v2","pSARL_v2fny0rket","63d2eec88a81e2462be70762","fixation","img/fixation.png","null","","test","","","","","",""
"241.80000001192093","130292","pSARL_v2","pSARL_v2fny0rket","63d2eec88a81e2462be70762","freq","img/green_2bandit_b2.png","70","70","test","1","47","47","3","",""
"null","130875","pSARL_v2","pSARL_v2fny0rket","63d2eec88a81e2462be70762","freq_resp","img/green_2bandit_b.png","70","70","test","","","","3","",""
"null","131051","pSARL_v2","pSARL_v2fny0rket","63d2eec88a81e2462be70762","fixation","img/fixation.png","null","","test","","","","","",""
"121.80000001192093","131184","pSARL_v2","pSARL_v2fny0rket","63d2eec88a81e2462be70762","infreq","img/orange_2bandit_b2.png","70","68","test","0","48","48","3","",""
"null","131887","pSARL_v2","pSARL_v2fny0rket","63d2eec88a81e2462be70762","infreq_resp","img/orange_2bandit_b.png","70","68","test","","","","3","",""
"null","132064","pSARL_v2","pSARL_v2fny0rket","63d2eec88a81e2462be70762","fixation","img/fixation.png","null","","test","","","","","",""
"481.69999998807907","132557","pSARL_v2","pSARL_v2fny0rket","63d2eec88a81e2462be70762","freq","img/green_2bandit_b2.png","70","70","test","1","49","49","3","",""
"null","132903","pSARL_v2","pSARL_v2fny0rket","63d2eec88a81e2462be70762","freq_resp","img/green_2bandit_b.png","70","70","test","","","","3","",""
"null","133072","pSARL_v2","pSARL_v2fny0rket","63d2eec88a81e2462be70762","fixation","img/fixation.png","null","","test","","","","","",""
"403.7999999821186","133488","pSARL_v2","pSARL_v2fny0rket","63d2eec88a81e2462be70762","infreq","img/orange_2bandit_b2.png","68","68","test","1","50","50","3","",""
"null","133907","pSARL_v2","pSARL_v2fny0rket","63d2eec88a81e2462be70762","infreq_resp","img/orange_2bandit_b.png","68","68","test","","","","3","",""
"null","134080","pSARL_v2","pSARL_v2fny0rket","63d2eec88a81e2462be70762","fixation","img/fixation.png","null","","test","","","","","",""
"350.30000001192093","134442","pSARL_v2","pSARL_v2fny0rket","63d2eec88a81e2462be70762","freq","img/green_2bandit_b2.png","70","70","test","1","51","51","3","",""
"null","134916","pSARL_v2","pSARL_v2fny0rket","63d2eec88a81e2462be70762","freq_resp","img/green_2bandit_b.png","70","70","test","","","","3","",""
"null","135090","pSARL_v2","pSARL_v2fny0rket","63d2eec88a81e2462be70762","fixation","img/fixation.png","null","","test","","","","","",""
"440.19999998807907","135542","pSARL_v2","pSARL_v2fny0rket","63d2eec88a81e2462be70762","freq","img/green_2bandit_b2.png","70","70","test","1","52","52","3","",""
"null","135926","pSARL_v2","pSARL_v2fny0rket","63d2eec88a81e2462be70762","freq_resp","img/green_2bandit_b.png","70","70","test","","","","3","",""
"null","136100","pSARL_v2","pSARL_v2fny0rket","63d2eec88a81e2462be70762","fixation","img/fixation.png","null","","test","","","","","",""
"290.69999998807907","136403","pSARL_v2","pSARL_v2fny0rket","63d2eec88a81e2462be70762","freq","img/green_2bandit_b2.png","70","70","test","1","53","53","3","",""
"null","136937","pSARL_v2","pSARL_v2fny0rket","63d2eec88a81e2462be70762","freq_resp","img/green_2bandit_b.png","70","70","test","","","","3","",""
"null","137110","pSARL_v2","pSARL_v2fny0rket","63d2eec88a81e2462be70762","fixation","img/fixation.png","null","","test","","","","","",""
"289.80000001192093","137413","pSARL_v2","pSARL_v2fny0rket","63d2eec88a81e2462be70762","freq","img/green_2bandit_b2.png","70","70","test","1","54","54","3","",""
"null","137940","pSARL_v2","pSARL_v2fny0rket","63d2eec88a81e2462be70762","freq_resp","img/green_2bandit_b.png","70","70","test","","","","3","",""
"null","138113","pSARL_v2","pSARL_v2fny0rket","63d2eec88a81e2462be70762","fixation","img/fixation.png","null","","test","","","","","",""
"244.7000000178814","138370","pSARL_v2","pSARL_v2fny0rket","63d2eec88a81e2462be70762","freq","img/green_2bandit_b2.png","70","70","test","1","55","55","3","",""
"null","138950","pSARL_v2","pSARL_v2fny0rket","63d2eec88a81e2462be70762","freq_resp","img/green_2bandit_b.png","70","70","test","","","","3","",""
"null","139122","pSARL_v2","pSARL_v2fny0rket","63d2eec88a81e2462be70762","fixation","img/fixation.png","null","","test","","","","","",""
"271.09999999403954","139404","pSARL_v2","pSARL_v2fny0rket","63d2eec88a81e2462be70762","freq","img/green_2bandit_b2.png","70","70","test","1","56","56","3","",""
"null","139957","pSARL_v2","pSARL_v2fny0rket","63d2eec88a81e2462be70762","freq_resp","img/green_2bandit_b.png","70","70","test","","","","3","",""
"null","140132","pSARL_v2","pSARL_v2fny0rket","63d2eec88a81e2462be70762","fixation","img/fixation.png","null","","test","","","","","",""
"219.40000000596046","140364","pSARL_v2","pSARL_v2fny0rket","63d2eec88a81e2462be70762","freq","img/green_2bandit_b2.png","70","70","test","1","57","57","3","",""
"null","140969","pSARL_v2","pSARL_v2fny0rket","63d2eec88a81e2462be70762","freq_resp","img/green_2bandit_b.png","70","70","test","","","","3","",""
"null","141141","pSARL_v2","pSARL_v2fny0rket","63d2eec88a81e2462be70762","fixation","img/fixation.png","null","","test","","","","","",""
"232.90000000596046","141385","pSARL_v2","pSARL_v2fny0rket","63d2eec88a81e2462be70762","freq","img/green_2bandit_b2.png","70","70","test","1","58","58","3","",""
"null","141978","pSARL_v2","pSARL_v2fny0rket","63d2eec88a81e2462be70762","freq_resp","img/green_2bandit_b.png","70","70","test","","","","3","",""
"null","142151","pSARL_v2","pSARL_v2fny0rket","63d2eec88a81e2462be70762","fixation","img/fixation.png","null","","test","","","","","",""
"92.69999998807907","142256","pSARL_v2","pSARL_v2fny0rket","63d2eec88a81e2462be70762","freq","img/green_2bandit_b2.png","70","70","test","1","59","59","3","",""
"null","142984","pSARL_v2","pSARL_v2fny0rket","63d2eec88a81e2462be70762","freq_resp","img/green_2bandit_b.png","70","70","test","","","","3","",""
"null","143157","pSARL_v2","pSARL_v2fny0rket","63d2eec88a81e2462be70762","fixation","img/fixation.png","null","","test","","","","","",""
"71.5","143240","pSARL_v2","pSARL_v2fny0rket","63d2eec88a81e2462be70762","freq","img/green_2bandit_b2.png","70","70","test","1","60","60","3","",""
"null","143994","pSARL_v2","pSARL_v2fny0rket","63d2eec88a81e2462be70762","freq_resp","img/green_2bandit_b.png","70","70","test","","","","3","",""
"null","144168","pSARL_v2","pSARL_v2fny0rket","63d2eec88a81e2462be70762","fixation","img/fixation.png","null","","test","","","","","",""
"87.80000001192093","144267","pSARL_v2","pSARL_v2fny0rket","63d2eec88a81e2462be70762","freq","img/green_2bandit_b2.png","70","70","test","1","61","61","3","",""
"null","145004","pSARL_v2","pSARL_v2fny0rket","63d2eec88a81e2462be70762","freq_resp","img/green_2bandit_b.png","70","70","test","","","","3","",""
"null","145177","pSARL_v2","pSARL_v2fny0rket","63d2eec88a81e2462be70762","fixation","img/fixation.png","null","","test","","","","","",""
"40.5","145230","pSARL_v2","pSARL_v2fny0rket","63d2eec88a81e2462be70762","freq","img/green_2bandit_b2.png","70","70","test","1","62","62","3","",""
"null","146010","pSARL_v2","pSARL_v2fny0rket","63d2eec88a81e2462be70762","freq_resp","img/green_2bandit_b.png","70","70","test","","","","3","",""
"null","146184","pSARL_v2","pSARL_v2fny0rket","63d2eec88a81e2462be70762","fixation","img/fixation.png","null","","test","","","","","",""
"60.400000005960464","146255","pSARL_v2","pSARL_v2fny0rket","63d2eec88a81e2462be70762","freq","img/green_2bandit_b2.png","70","70","test","1","63","63","3","",""
"null","147020","pSARL_v2","pSARL_v2fny0rket","63d2eec88a81e2462be70762","freq_resp","img/green_2bandit_b.png","70","70","test","","","","3","",""
"null","147194","pSARL_v2","pSARL_v2fny0rket","63d2eec88a81e2462be70762","fixation","img/fixation.png","null","","test","","","","","",""
"0.29999998211860657","147205","pSARL_v2","pSARL_v2fny0rket","63d2eec88a81e2462be70762","freq","img/green_2bandit_b2.png","70","70","test","1","64","64","3","",""
"null","148031","pSARL_v2","pSARL_v2fny0rket","63d2eec88a81e2462be70762","freq_resp","img/green_2bandit_b.png","70","70","test","","","","3","",""
"null","148204","pSARL_v2","pSARL_v2fny0rket","63d2eec88a81e2462be70762","fixation","img/fixation.png","null","","test","","","","","",""
"null","149029","pSARL_v2","pSARL_v2fny0rket","63d2eec88a81e2462be70762","freq","img/green_2bandit_b2.png","null","70","test","0","65","65","3","",""
"null","149203","pSARL_v2","pSARL_v2fny0rket","63d2eec88a81e2462be70762","fixation","img/fixation.png","null","","test","","","","","",""
"85.40000000596046","149300","pSARL_v2","pSARL_v2fny0rket","63d2eec88a81e2462be70762","freq","img/green_2bandit_b2.png","70","70","test","1","66","66","3","",""
"null","150038","pSARL_v2","pSARL_v2fny0rket","63d2eec88a81e2462be70762","freq_resp","img/green_2bandit_b.png","70","70","test","","","","3","",""
"null","150211","pSARL_v2","pSARL_v2fny0rket","63d2eec88a81e2462be70762","fixation","img/fixation.png","null","","test","","","","","",""
"526.0999999940395","150749","pSARL_v2","pSARL_v2fny0rket","63d2eec88a81e2462be70762","reward","img/slot.png","74","","test","","","","","",""
"null","151519","pSARL_v2","pSARL_v2fny0rket","63d2eec88a81e2462be70762","points","<div class=""verylowPoints""> -7 </div>","null","na","test","","","","3","-7","2"
"531","152062","pSARL_v2","pSARL_v2fny0rket","63d2eec88a81e2462be70762","freq","img/green_2bandit_b2.png","70","70","test","1","67","67","4","",""
"null","152358","pSARL_v2","pSARL_v2fny0rket","63d2eec88a81e2462be70762","freq_resp","img/green_2bandit_b.png","70","70","test","","","","4","",""
"null","152530","pSARL_v2","pSARL_v2fny0rket","63d2eec88a81e2462be70762","fixation","img/fixation.png","null","","test","","","","","",""
"279.2999999821186","152821","pSARL_v2","pSARL_v2fny0rket","63d2eec88a81e2462be70762","freq","img/green_2bandit_b2.png","70","70","test","1","68","68","4","",""
"null","153364","pSARL_v2","pSARL_v2fny0rket","63d2eec88a81e2462be70762","freq_resp","img/green_2bandit_b.png","70","70","test","","","","4","",""
"null","153537","pSARL_v2","pSARL_v2fny0rket","63d2eec88a81e2462be70762","fixation","img/fixation.png","null","","test","","","","","",""
"91.40000000596046","153641","pSARL_v2","pSARL_v2fny0rket","63d2eec88a81e2462be70762","freq","img/green_2bandit_b2.png","70","70","test","1","69","69","4","",""
"null","154375","pSARL_v2","pSARL_v2fny0rket","63d2eec88a81e2462be70762","freq_resp","img/green_2bandit_b.png","70","70","test","","","","4","",""
"null","154547","pSARL_v2","pSARL_v2fny0rket","63d2eec88a81e2462be70762","fixation","img/fixation.png","null","","test","","","","","",""
"67.5","154626","pSARL_v2","pSARL_v2fny0rket","63d2eec88a81e2462be70762","infreq","img/orange_2bandit_b2.png","70","68","test","0","70","70","4","",""
"null","155385","pSARL_v2","pSARL_v2fny0rket","63d2eec88a81e2462be70762","infreq_resp","img/orange_2bandit_b.png","70","68","test","","","","4","",""
"null","155557","pSARL_v2","pSARL_v2fny0rket","63d2eec88a81e2462be70762","fixation","img/fixation.png","null","","test","","","","","",""
"59.80000001192093","155629","pSARL_v2","pSARL_v2fny0rket","63d2eec88a81e2462be70762","freq","img/green_2bandit_b2.png","68","70","test","0","71","71","4","",""
"null","156390","pSARL_v2","pSARL_v2fny0rket","63d2eec88a81e2462be70762","freq_resp","img/green_2bandit_b.png","68","70","test","","","","4","",""
"null","156562","pSARL_v2","pSARL_v2fny0rket","63d2eec88a81e2462be70762","fixation","img/fixation.png","null","","test","","","","","",""
"null","157378","pSARL_v2","pSARL_v2fny0rket","63d2eec88a81e2462be70762","freq","img/green_2bandit_b2.png","null","70","test","0","72","72","4","",""
"null","157551","pSARL_v2","pSARL_v2fny0rket","63d2eec88a81e2462be70762","fixation","img/fixation.png","null","","test","","","","","",""
"785.5","158348","pSARL_v2","pSARL_v2fny0rket","63d2eec88a81e2462be70762","freq","img/green_2bandit_b2.png","70","70","test","1","73","73","4","",""
"null","158375","pSARL_v2","pSARL_v2fny0rket","63d2eec88a81e2462be70762","freq_resp","img/green_2bandit_b.png","70","70","test","","","","4","",""
"null","158546","pSARL_v2","pSARL_v2fny0rket","63d2eec88a81e2462be70762","fixation","img/fixation.png","null","","test","","","","","",""
"711.6999999880791","159269","pSARL_v2","pSARL_v2fny0rket","63d2eec88a81e2462be70762","freq","img/green_2bandit_b2.png","70","70","test","1","74","74","4","",""
"null","159381","pSARL_v2","pSARL_v2fny0rket","63d2eec88a81e2462be70762","freq_resp","img/green_2bandit_b.png","70","70","test","","","","4","",""
"null","159555","pSARL_v2","pSARL_v2fny0rket","63d2eec88a81e2462be70762","fixation","img/fixation.png","null","","test","","","","","",""
"659.0999999940395","160226","pSARL_v2","pSARL_v2fny0rket","63d2eec88a81e2462be70762","freq","img/green_2bandit_b2.png","70","70","test","1","75","75","4","",""
"null","160390","pSARL_v2","pSARL_v2fny0rket","63d2eec88a81e2462be70762","freq_resp","img/green_2bandit_b.png","70","70","test","","","","4","",""
"null","160564","pSARL_v2","pSARL_v2fny0rket","63d2eec88a81e2462be70762","fixation","img/fixation.png","null","","test","","","","","",""
"524","161100","pSARL_v2","pSARL_v2fny0rket","63d2eec88a81e2462be70762","freq","img/green_2bandit_b2.png","70","70","test","1","76","76","4","",""
"null","161402","pSARL_v2","pSARL_v2fny0rket","63d2eec88a81e2462be70762","freq_resp","img/green_2bandit_b.png","70","70","test","","","","4","",""
"null","161574","pSARL_v2","pSARL_v2fny0rket","63d2eec88a81e2462be70762","fixation","img/fixation.png","null","","test","","","","","",""
"628.8000000119209","162215","pSARL_v2","pSARL_v2fny0rket","63d2eec88a81e2462be70762","infreq","img/orange_2bandit_b2.png","68","68","test","1","77","77","4","",""
"null","162410","pSARL_v2","pSARL_v2fny0rket","63d2eec88a81e2462be70762","infreq_resp","img/orange_2bandit_b.png","68","68","test","","","","4","",""
"null","162583","pSARL_v2","pSARL_v2fny0rket","63d2eec88a81e2462be70762","fixation","img/fixation.png","null","","test","","","","","",""
"354.10000002384186","162948","pSARL_v2","pSARL_v2fny0rket","63d2eec88a81e2462be70762","infreq","img/orange_2bandit_b2.png","68","68","test","1","78","78","4","",""
"null","163406","pSARL_v2","pSARL_v2fny0rket","63d2eec88a81e2462be70762","infreq_resp","img/orange_2bandit_b.png","68","68","test","","","","4","",""
"null","163580","pSARL_v2","pSARL_v2fny0rket","63d2eec88a81e2462be70762","fixation","img/fixation.png","null","","test","","","","","",""
"481.5","164073","pSARL_v2","pSARL_v2fny0rket","63d2eec88a81e2462be70762","freq","img/green_2bandit_b2.png","70","70","test","1","79","79","4","",""
"null","164413","pSARL_v2","pSARL_v2fny0rket","63d2eec88a81e2462be70762","freq_resp","img/green_2bandit_b.png","70","70","test","","","","4","",""
"null","164585","pSARL_v2","pSARL_v2fny0rket","63d2eec88a81e2462be70762","fixation","img/fixation.png","null","","test","","","","","",""
"320.40000000596046","164917","pSARL_v2","pSARL_v2fny0rket","63d2eec88a81e2462be70762","freq","img/green_2bandit_b2.png","70","70","test","1","80","80","4","",""
"null","165425","pSARL_v2","pSARL_v2fny0rket","63d2eec88a81e2462be70762","freq_resp","img/green_2bandit_b.png","70","70","test","","","","4","",""
"null","165597","pSARL_v2","pSARL_v2fny0rket","63d2eec88a81e2462be70762","fixation","img/fixation.png","null","","test","","","","","",""
"274.7999999821186","165884","pSARL_v2","pSARL_v2fny0rket","63d2eec88a81e2462be70762","freq","img/green_2bandit_b2.png","70","70","test","1","81","81","4","",""
"null","166429","pSARL_v2","pSARL_v2fny0rket","63d2eec88a81e2462be70762","freq_resp","img/green_2bandit_b.png","70","70","test","","","","4","",""
"null","166603","pSARL_v2","pSARL_v2fny0rket","63d2eec88a81e2462be70762","fixation","img/fixation.png","null","","test","","","","","",""
"246.40000000596046","166861","pSARL_v2","pSARL_v2fny0rket","63d2eec88a81e2462be70762","freq","img/green_2bandit_b2.png","70","70","test","1","82","82","4","",""
"null","167429","pSARL_v2","pSARL_v2fny0rket","63d2eec88a81e2462be70762","freq_resp","img/green_2bandit_b.png","70","70","test","","","","4","",""
"null","167601","pSARL_v2","pSARL_v2fny0rket","63d2eec88a81e2462be70762","fixation","img/fixation.png","null","","test","","","","","",""
"253.09999999403954","167867","pSARL_v2","pSARL_v2fny0rket","63d2eec88a81e2462be70762","freq","img/green_2bandit_b2.png","70","70","test","1","83","83","4","",""
"null","168429","pSARL_v2","pSARL_v2fny0rket","63d2eec88a81e2462be70762","freq_resp","img/green_2bandit_b.png","70","70","test","","","","4","",""
"null","168604","pSARL_v2","pSARL_v2fny0rket","63d2eec88a81e2462be70762","fixation","img/fixation.png","null","","test","","","","","",""
"249.89999997615814","168866","pSARL_v2","pSARL_v2fny0rket","63d2eec88a81e2462be70762","freq","img/green_2bandit_b2.png","70","70","test","1","84","84","4","",""
"null","169432","pSARL_v2","pSARL_v2fny0rket","63d2eec88a81e2462be70762","freq_resp","img/green_2bandit_b.png","70","70","test","","","","4","",""
"null","169602","pSARL_v2","pSARL_v2fny0rket","63d2eec88a81e2462be70762","fixation","img/fixation.png","null","","test","","","","","",""
"159.69999998807907","169774","pSARL_v2","pSARL_v2fny0rket","63d2eec88a81e2462be70762","freq","img/green_2bandit_b2.png","70","70","test","1","85","85","4","",""
"null","170436","pSARL_v2","pSARL_v2fny0rket","63d2eec88a81e2462be70762","freq_resp","img/green_2bandit_b.png","70","70","test","","","","4","",""
"null","170609","pSARL_v2","pSARL_v2fny0rket","63d2eec88a81e2462be70762","fixation","img/fixation.png","null","","test","","","","","",""
"109.2999999821186","170730","pSARL_v2","pSARL_v2fny0rket","63d2eec88a81e2462be70762","freq","img/green_2bandit_b2.png","70","70","test","1","86","86","4","",""
"null","171446","pSARL_v2","pSARL_v2fny0rket","63d2eec88a81e2462be70762","freq_resp","img/green_2bandit_b.png","70","70","test","","","","4","",""
"null","171620","pSARL_v2","pSARL_v2fny0rket","63d2eec88a81e2462be70762","fixation","img/fixation.png","null","","test","","","","","",""
"560","172191","pSARL_v2","pSARL_v2fny0rket","63d2eec88a81e2462be70762","reward","img/slot.png","74","","test","","","","","",""
"null","172962","pSARL_v2","pSARL_v2fny0rket","63d2eec88a81e2462be70762","points","<div class=""verylowPoints""> -3 </div>","null","na","test","","","","4","-3","3"
"609.1000000238419","173584","pSARL_v2","pSARL_v2fny0rket","63d2eec88a81e2462be70762","freq","img/green_2bandit_b2.png","70","70","test","1","87","87","5","",""
"null","173798","pSARL_v2","pSARL_v2fny0rket","63d2eec88a81e2462be70762","freq_resp","img/green_2bandit_b.png","70","70","test","","","","5","",""
"null","173972","pSARL_v2","pSARL_v2fny0rket","63d2eec88a81e2462be70762","fixation","img/fixation.png","null","","test","","","","","",""
"313.40000000596046","174297","pSARL_v2","pSARL_v2fny0rket","63d2eec88a81e2462be70762","freq","img/green_2bandit_b2.png","70","70","test","1","88","88","5","",""
"null","174807","pSARL_v2","pSARL_v2fny0rket","63d2eec88a81e2462be70762","freq_resp","img/green_2bandit_b.png","70","70","test","","","","5","",""
"null","174981","pSARL_v2","pSARL_v2fny0rket","63d2eec88a81e2462be70762","fixation","img/fixation.png","null","","test","","","","","",""
"216.40000000596046","175209","pSARL_v2","pSARL_v2fny0rket","63d2eec88a81e2462be70762","infreq","img/orange_2bandit_b2.png","70","68","test","0","89","89","5","",""
"null","175815","pSARL_v2","pSARL_v2fny0rket","63d2eec88a81e2462be70762","infreq_resp","img/orange_2bandit_b.png","70","68","test","","","","5","",""
"null","175988","pSARL_v2","pSARL_v2fny0rket","63d2eec88a81e2462be70762","fixation","img/fixation.png","null","","test","","","","","",""
"282.40000000596046","176283","pSARL_v2","pSARL_v2fny0rket","63d2eec88a81e2462be70762","freq","img/green_2bandit_b2.png","68","70","test","0","90","90","5","",""
"null","176824","pSARL_v2","pSARL_v2fny0rket","63d2eec88a81e2462be70762","freq_resp","img/green_2bandit_b.png","68","70","test","","","","5","",""
"null","176997","pSARL_v2","pSARL_v2fny0rket","63d2eec88a81e2462be70762","fixation","img/fixation.png","null","","test","","","","","",""
"590.2999999821186","177600","pSARL_v2","pSARL_v2fny0rket","63d2eec88a81e2462be70762","freq","img/green_2bandit_b2.png","70","70","test","1","91","91","5","",""
"null","177832","pSARL_v2","pSARL_v2fny0rket","63d2eec88a81e2462be70762","freq_resp","img/green_2bandit_b.png","70","70","test","","","","5","",""
"null","178003","pSARL_v2","pSARL_v2fny0rket","63d2eec88a81e2462be70762","fixation","img/fixation.png","null","","test","","","","","",""
"346.09999999403954","178361","pSARL_v2","pSARL_v2fny0rket","63d2eec88a81e2462be70762","freq","img/green_2bandit_b2.png","70","70","test","1","92","92","5","",""
"null","178837","pSARL_v2","pSARL_v2fny0rket","63d2eec88a81e2462be70762","freq_resp","img/green_2bandit_b.png","70","70","test","","","","5","",""
"null","179011","pSARL_v2","pSARL_v2fny0rket","63d2eec88a81e2462be70762","fixation","img/fixation.png","null","","test","","","","","",""
"259.10000002384186","179282","pSARL_v2","pSARL_v2fny0rket","63d2eec88a81e2462be70762","freq","img/green_2bandit_b2.png","70","70","test","1","93","93","5","",""
"null","179848","pSARL_v2","pSARL_v2fny0rket","63d2eec88a81e2462be70762","freq_resp","img/green_2bandit_b.png","70","70","test","","","","5","",""
"null","180022","pSARL_v2","pSARL_v2fny0rket","63d2eec88a81e2462be70762","fixation","img/fixation.png","null","","test","","","","","",""
"289.69999998807907","180324","pSARL_v2","pSARL_v2fny0rket","63d2eec88a81e2462be70762","freq","img/green_2bandit_b2.png","70","70","test","1","94","94","5","",""
"null","180858","pSARL_v2","pSARL_v2fny0rket","63d2eec88a81e2462be70762","freq_resp","img/green_2bandit_b.png","70","70","test","","","","5","",""
"null","181033","pSARL_v2","pSARL_v2fny0rket","63d2eec88a81e2462be70762","fixation","img/fixation.png","null","","test","","","","","",""
"225.09999999403954","181270","pSARL_v2","pSARL_v2fny0rket","63d2eec88a81e2462be70762","freq","img/green_2bandit_b2.png","70","70","test","1","95","95","5","",""
"null","181868","pSARL_v2","pSARL_v2fny0rket","63d2eec88a81e2462be70762","freq_resp","img/green_2bandit_b.png","70","70","test","","","","5","",""
"null","182041","pSARL_v2","pSARL_v2fny0rket","63d2eec88a81e2462be70762","fixation","img/fixation.png","null","","test","","","","","",""
"185.69999998807907","182238","pSARL_v2","pSARL_v2fny0rket","63d2eec88a81e2462be70762","freq","img/green_2bandit_b2.png","70","70","test","1","96","96","5","",""
"null","182876","pSARL_v2","pSARL_v2fny0rket","63d2eec88a81e2462be70762","freq_resp","img/green_2bandit_b.png","70","70","test","","","","5","",""
"null","183049","pSARL_v2","pSARL_v2fny0rket","63d2eec88a81e2462be70762","fixation","img/fixation.png","null","","test","","","","","",""
"262","183322","pSARL_v2","pSARL_v2fny0rket","63d2eec88a81e2462be70762","freq","img/green_2bandit_b2.png","70","70","test","1","97","97","5","",""
"null","183885","pSARL_v2","pSARL_v2fny0rket","63d2eec88a81e2462be70762","freq_resp","img/green_2bandit_b.png","70","70","test","","","","5","",""
"null","184057","pSARL_v2","pSARL_v2fny0rket","63d2eec88a81e2462be70762","fixation","img/fixation.png","null","","test","","","","","",""
"256.40000000596046","184325","pSARL_v2","pSARL_v2fny0rket","63d2eec88a81e2462be70762","freq","img/green_2bandit_b2.png","70","70","test","1","98","98","5","",""
"null","184895","pSARL_v2","pSARL_v2fny0rket","63d2eec88a81e2462be70762","freq_resp","img/green_2bandit_b.png","70","70","test","","","","5","",""
"null","185069","pSARL_v2","pSARL_v2fny0rket","63d2eec88a81e2462be70762","fixation","img/fixation.png","null","","test","","","","","",""
"253.90000000596046","185335","pSARL_v2","pSARL_v2fny0rket","63d2eec88a81e2462be70762","freq","img/green_2bandit_b2.png","70","70","test","1","99","99","5","",""
"null","185904","pSARL_v2","pSARL_v2fny0rket","63d2eec88a81e2462be70762","freq_resp","img/green_2bandit_b.png","70","70","test","","","","5","",""
"null","186078","pSARL_v2","pSARL_v2fny0rket","63d2eec88a81e2462be70762","fixation","img/fixation.png","null","","test","","","","","",""
"267.59999999403954","186358","pSARL_v2","pSARL_v2fny0rket","63d2eec88a81e2462be70762","freq","img/green_2bandit_b2.png","70","70","test","1","100","100","5","",""
"null","186914","pSARL_v2","pSARL_v2fny0rket","63d2eec88a81e2462be70762","freq_resp","img/green_2bandit_b.png","70","70","test","","","","5","",""
"null","187087","pSARL_v2","pSARL_v2fny0rket","63d2eec88a81e2462be70762","fixation","img/fixation.png","null","","test","","","","","",""
"263.5","187363","pSARL_v2","pSARL_v2fny0rket","63d2eec88a81e2462be70762","freq","img/green_2bandit_b2.png","70","70","test","1","101","101","5","",""
"null","187922","pSARL_v2","pSARL_v2fny0rket","63d2eec88a81e2462be70762","freq_resp","img/green_2bandit_b.png","70","70","test","","","","5","",""
"null","188097","pSARL_v2","pSARL_v2fny0rket","63d2eec88a81e2462be70762","fixation","img/fixation.png","null","","test","","","","","",""
"226.69999998807907","188336","pSARL_v2","pSARL_v2fny0rket","63d2eec88a81e2462be70762","freq","img/green_2bandit_b2.png","70","70","test","1","102","102","5","",""
"null","188923","pSARL_v2","pSARL_v2fny0rket","63d2eec88a81e2462be70762","freq_resp","img/green_2bandit_b.png","70","70","test","","","","5","",""
"null","189098","pSARL_v2","pSARL_v2fny0rket","63d2eec88a81e2462be70762","fixation","img/fixation.png","null","","test","","","","","",""
"219.7000000178814","189329","pSARL_v2","pSARL_v2fny0rket","63d2eec88a81e2462be70762","freq","img/green_2bandit_b2.png","70","70","test","1","103","103","5","",""
"null","189935","pSARL_v2","pSARL_v2fny0rket","63d2eec88a81e2462be70762","freq_resp","img/green_2bandit_b.png","70","70","test","","","","5","",""
"null","190107","pSARL_v2","pSARL_v2fny0rket","63d2eec88a81e2462be70762","fixation","img/fixation.png","null","","test","","","","","",""
"156.7999999821186","190276","pSARL_v2","pSARL_v2fny0rket","63d2eec88a81e2462be70762","infreq","img/orange_2bandit_b2.png","70","68","test","0","104","104","5","",""
"null","190932","pSARL_v2","pSARL_v2fny0rket","63d2eec88a81e2462be70762","infreq_resp","img/orange_2bandit_b.png","70","68","test","","","","5","",""
"null","191105","pSARL_v2","pSARL_v2fny0rket","63d2eec88a81e2462be70762","fixation","img/fixation.png","null","","test","","","","","",""
"572.7000000178814","191689","pSARL_v2","pSARL_v2fny0rket","63d2eec88a81e2462be70762","freq","img/green_2bandit_b2.png","70","70","test","1","105","105","5","",""
"null","191943","pSARL_v2","pSARL_v2fny0rket","63d2eec88a81e2462be70762","freq_resp","img/green_2bandit_b.png","70","70","test","","","","5","",""
"null","192114","pSARL_v2","pSARL_v2fny0rket","63d2eec88a81e2462be70762","fixation","img/fixation.png","null","","test","","","","","",""
"381.2000000178814","192506","pSARL_v2","pSARL_v2fny0rket","63d2eec88a81e2462be70762","freq","img/green_2bandit_b2.png","70","70","test","1","106","106","5","",""
"null","192951","pSARL_v2","pSARL_v2fny0rket","63d2eec88a81e2462be70762","freq_resp","img/green_2bandit_b.png","70","70","test","","","","5","",""
"null","193123","pSARL_v2","pSARL_v2fny0rket","63d2eec88a81e2462be70762","fixation","img/fixation.png","null","","test","","","","","",""
"268.5","193404","pSARL_v2","pSARL_v2fny0rket","63d2eec88a81e2462be70762","freq","img/green_2bandit_b2.png","70","70","test","1","107","107","5","",""
"null","193959","pSARL_v2","pSARL_v2fny0rket","63d2eec88a81e2462be70762","freq_resp","img/green_2bandit_b.png","70","70","test","","","","5","",""
"null","194131","pSARL_v2","pSARL_v2fny0rket","63d2eec88a81e2462be70762","fixation","img/fixation.png","null","","test","","","","","",""
"64.69999998807907","194208","pSARL_v2","pSARL_v2fny0rket","63d2eec88a81e2462be70762","freq","img/green_2bandit_b2.png","70","70","test","1","108","108","5","",""
"null","194961","pSARL_v2","pSARL_v2fny0rket","63d2eec88a81e2462be70762","freq_resp","img/green_2bandit_b.png","70","70","test","","","","5","",""
"null","195134","pSARL_v2","pSARL_v2fny0rket","63d2eec88a81e2462be70762","fixation","img/fixation.png","null","","test","","","","","",""
"551.5999999940395","195697","pSARL_v2","pSARL_v2fny0rket","63d2eec88a81e2462be70762","reward","img/slot.png","74","","test","","","","","",""
"null","196460","pSARL_v2","pSARL_v2fny0rket","63d2eec88a81e2462be70762","points","<div class=""veryhighPoints""> +1 </div>","null","na","test","","","","5","1","4"
"null","197279","pSARL_v2","pSARL_v2fny0rket","63d2eec88a81e2462be70762","freq","img/green_2bandit_b2.png","null","70","test","0","109","109","6","",""
"null","197451","pSARL_v2","pSARL_v2fny0rket","63d2eec88a81e2462be70762","fixation","img/fixation.png","null","","test","","","","","",""
"null","198275","pSARL_v2","pSARL_v2fny0rket","63d2eec88a81e2462be70762","freq","img/green_2bandit_b2.png","null","70","test","0","110","110","6","",""
"null","198448","pSARL_v2","pSARL_v2fny0rket","63d2eec88a81e2462be70762","fixation","img/fixation.png","null","","test","","","","","",""
"633","199093","pSARL_v2","pSARL_v2fny0rket","63d2eec88a81e2462be70762","freq","img/green_2bandit_b2.png","70","70","test","1","111","111","6","",""
"null","199280","pSARL_v2","pSARL_v2fny0rket","63d2eec88a81e2462be70762","freq_resp","img/green_2bandit_b.png","70","70","test","","","","6","",""
"null","199453","pSARL_v2","pSARL_v2fny0rket","63d2eec88a81e2462be70762","fixation","img/fixation.png","null","","test","","","","","",""
"500","199965","pSARL_v2","pSARL_v2fny0rket","63d2eec88a81e2462be70762","infreq","img/orange_2bandit_b2.png","70","68","test","0","112","112","6","",""
"null","200284","pSARL_v2","pSARL_v2fny0rket","63d2eec88a81e2462be70762","infreq_resp","img/orange_2bandit_b.png","70","68","test","","","","6","",""
"null","200458","pSARL_v2","pSARL_v2fny0rket","63d2eec88a81e2462be70762","fixation","img/fixation.png","null","","test","","","","","",""
"555.7000000178814","201026","pSARL_v2","pSARL_v2fny0rket","63d2eec88a81e2462be70762","freq","img/green_2bandit_b2.png","70","70","test","1","113","113","6","",""
"null","201285","pSARL_v2","pSARL_v2fny0rket","63d2eec88a81e2462be70762","freq_resp","img/green_2bandit_b.png","70","70","test","","","","6","",""
"null","201459","pSARL_v2","pSARL_v2fny0rket","63d2eec88a81e2462be70762","fixation","img/fixation.png","null","","test","","","","","",""
"373.5","201844","pSARL_v2","pSARL_v2fny0rket","63d2eec88a81e2462be70762","freq","img/green_2bandit_b2.png","70","70","test","1","114","114","6","",""
"null","202296","pSARL_v2","pSARL_v2fny0rket","63d2eec88a81e2462be70762","freq_resp","img/green_2bandit_b.png","70","70","test","","","","6","",""
"null","202469","pSARL_v2","pSARL_v2fny0rket","63d2eec88a81e2462be70762","fixation","img/fixation.png","null","","test","","","","","",""
"245.2999999821186","202726","pSARL_v2","pSARL_v2fny0rket","63d2eec88a81e2462be70762","freq","img/green_2bandit_b2.png","70","70","test","1","115","115","6","",""
"null","203303","pSARL_v2","pSARL_v2fny0rket","63d2eec88a81e2462be70762","freq_resp","img/green_2bandit_b.png","70","70","test","","","","6","",""
"null","203477","pSARL_v2","pSARL_v2fny0rket","63d2eec88a81e2462be70762","fixation","img/fixation.png","null","","test","","","","","",""
"58.400000005960464","203548","pSARL_v2","pSARL_v2fny0rket","63d2eec88a81e2462be70762","freq","img/green_2bandit_b2.png","70","70","test","1","116","116","6","",""
"null","204310","pSARL_v2","pSARL_v2fny0rket","63d2eec88a81e2462be70762","freq_resp","img/green_2bandit_b.png","70","70","test","","","","6","",""
"null","204482","pSARL_v2","pSARL_v2fny0rket","63d2eec88a81e2462be70762","fixation","img/fixation.png","null","","test","","","","","",""
"0.29999998211860657","204494","pSARL_v2","pSARL_v2fny0rket","63d2eec88a81e2462be70762","freq","img/green_2bandit_b2.png","70","70","test","1","117","117","6","",""
"null","205318","pSARL_v2","pSARL_v2fny0rket","63d2eec88a81e2462be70762","freq_resp","img/green_2bandit_b.png","70","70","test","","","","6","",""
"null","205493","pSARL_v2","pSARL_v2fny0rket","63d2eec88a81e2462be70762","fixation","img/fixation.png","null","","test","","","","","",""
"177.90000000596046","205682","pSARL_v2","pSARL_v2fny0rket","63d2eec88a81e2462be70762","freq","img/green_2bandit_b2.png","70","70","test","1","118","118","6","",""
"null","206325","pSARL_v2","pSARL_v2fny0rket","63d2eec88a81e2462be70762","freq_resp","img/green_2bandit_b.png","70","70","test","","","","6","",""
"null","206499","pSARL_v2","pSARL_v2fny0rket","63d2eec88a81e2462be70762","fixation","img/fixation.png","null","","test","","","","","",""
"74.7999999821186","206585","pSARL_v2","pSARL_v2fny0rket","63d2eec88a81e2462be70762","freq","img/green_2bandit_b2.png","70","70","test","1","119","119","6","",""
"null","207333","pSARL_v2","pSARL_v2fny0rket","63d2eec88a81e2462be70762","freq_resp","img/green_2bandit_b.png","70","70","test","","","","6","",""
"null","207508","pSARL_v2","pSARL_v2fny0rket","63d2eec88a81e2462be70762","fixation","img/fixation.png","null","","test","","","","","",""
"54.29999998211861","207574","pSARL_v2","pSARL_v2fny0rket","63d2eec88a81e2462be70762","freq","img/green_2bandit_b2.png","70","70","test","1","120","120","6","",""
"null","208343","pSARL_v2","pSARL_v2fny0rket","63d2eec88a81e2462be70762","freq_resp","img/green_2bandit_b.png","70","70","test","","","","6","",""
"null","208516","pSARL_v2","pSARL_v2fny0rket","63d2eec88a81e2462be70762","fixation","img/fixation.png","null","","test","","","","","",""
"54","208582","pSARL_v2","pSARL_v2fny0rket","63d2eec88a81e2462be70762","freq","img/green_2bandit_b2.png","70","70","test","1","121","121","6","",""
"null","209349","pSARL_v2","pSARL_v2fny0rket","63d2eec88a81e2462be70762","freq_resp","img/green_2bandit_b.png","70","70","test","","","","6","",""
"null","209523","pSARL_v2","pSARL_v2fny0rket","63d2eec88a81e2462be70762","fixation","img/fixation.png","null","","test","","","","","",""
"32.19999998807907","209567","pSARL_v2","pSARL_v2fny0rket","63d2eec88a81e2462be70762","freq","img/green_2bandit_b2.png","70","70","test","1","122","122","6","",""
"null","210354","pSARL_v2","pSARL_v2fny0rket","63d2eec88a81e2462be70762","freq_resp","img/green_2bandit_b.png","70","70","test","","","","6","",""
"null","210526","pSARL_v2","pSARL_v2fny0rket","63d2eec88a81e2462be70762","fixation","img/fixation.png","null","","test","","","","","",""
"49.599999994039536","210588","pSARL_v2","pSARL_v2fny0rket","63d2eec88a81e2462be70762","infreq","img/orange_2bandit_b2.png","70","68","test","0","123","123","6","",""
"null","211361","pSARL_v2","pSARL_v2fny0rket","63d2eec88a81e2462be70762","infreq_resp","img/orange_2bandit_b.png","70","68","test","","","","6","",""
"null","211535","pSARL_v2","pSARL_v2fny0rket","63d2eec88a81e2462be70762","fixation","img/fixation.png","null","","test","","","","","",""
"481.89999997615814","212028","pSARL_v2","pSARL_v2fny0rket","63d2eec88a81e2462be70762","freq","img/green_2bandit_b2.png","70","70","test","1","124","124","6","",""
"null","212373","pSARL_v2","pSARL_v2fny0rket","63d2eec88a81e2462be70762","freq_resp","img/green_2bandit_b.png","70","70","test","","","","6","",""
"null","212548","pSARL_v2","pSARL_v2fny0rket","63d2eec88a81e2462be70762","fixation","img/fixation.png","null","","test","","","","","",""
"310.19999998807907","212870","pSARL_v2","pSARL_v2fny0rket","63d2eec88a81e2462be70762","freq","img/green_2bandit_b2.png","70","70","test","1","125","125","6","",""
"null","213381","pSARL_v2","pSARL_v2fny0rket","63d2eec88a81e2462be70762","freq_resp","img/green_2bandit_b.png","70","70","test","","","","6","",""
"null","213555","pSARL_v2","pSARL_v2fny0rket","63d2eec88a81e2462be70762","fixation","img/fixation.png","null","","test","","","","","",""
"203.30000001192093","213770","pSARL_v2","pSARL_v2fny0rket","63d2eec88a81e2462be70762","freq","img/green_2bandit_b2.png","70","70","test","1","126","126","6","",""
"null","214388","pSARL_v2","pSARL_v2fny0rket","63d2eec88a81e2462be70762","freq_resp","img/green_2bandit_b.png","70","70","test","","","","6","",""
"null","214560","pSARL_v2","pSARL_v2fny0rket","63d2eec88a81e2462be70762","fixation","img/fixation.png","null","","test","","","","","",""
"178.19999998807907","214750","pSARL_v2","pSARL_v2fny0rket","63d2eec88a81e2462be70762","freq","img/green_2bandit_b2.png","70","70","test","1","127","127","6","",""
"null","215393","pSARL_v2","pSARL_v2fny0rket","63d2eec88a81e2462be70762","freq_resp","img/green_2bandit_b.png","70","70","test","","","","6","",""
"null","215569","pSARL_v2","pSARL_v2fny0rket","63d2eec88a81e2462be70762","fixation","img/fixation.png","null","","test","","","","","",""
"59.5","215641","pSARL_v2","pSARL_v2fny0rket","63d2eec88a81e2462be70762","freq","img/green_2bandit_b2.png","70","70","test","1","128","128","6","",""
"null","216404","pSARL_v2","pSARL_v2fny0rket","63d2eec88a81e2462be70762","freq_resp","img/green_2bandit_b.png","70","70","test","","","","6","",""
"null","216577","pSARL_v2","pSARL_v2fny0rket","63d2eec88a81e2462be70762","fixation","img/fixation.png","null","","test","","","","","",""
"469.40000000596046","217058","pSARL_v2","pSARL_v2fny0rket","63d2eec88a81e2462be70762","reward","img/slot.png","74","","test","","","","","",""
"null","217822","pSARL_v2","pSARL_v2fny0rket","63d2eec88a81e2462be70762","points","<div class=""verylowPoints""> -7 </div>","null","na","test","","","","6","-7","5"
"601.1000000238419","218436","pSARL_v2","pSARL_v2fny0rket","63d2eec88a81e2462be70762","freq","img/green_2bandit_b2.png","70","70","test","1","129","129","7","",""
"null","218657","pSARL_v2","pSARL_v2fny0rket","63d2eec88a81e2462be70762","freq_resp","img/green_2bandit_b.png","70","70","test","","","","7","",""
"null","218829","pSARL_v2","pSARL_v2fny0rket","63d2eec88a81e2462be70762","fixation","img/fixation.png","null","","test","","","","","",""
"236.40000000596046","219077","pSARL_v2","pSARL_v2fny0rket","63d2eec88a81e2462be70762","freq","img/green_2bandit_b2.png","70","70","test","1","130","130","7","",""
"null","219663","pSARL_v2","pSARL_v2fny0rket","63d2eec88a81e2462be70762","freq_resp","img/green_2bandit_b.png","70","70","test","","","","7","",""
"null","219838","pSARL_v2","pSARL_v2fny0rket","63d2eec88a81e2462be70762","fixation","img/fixation.png","null","","test","","","","","",""
"726.0999999940395","220576","pSARL_v2","pSARL_v2fny0rket","63d2eec88a81e2462be70762","freq","img/green_2bandit_b2.png","70","70","test","1","131","131","7","",""
"null","220673","pSARL_v2","pSARL_v2fny0rket","63d2eec88a81e2462be70762","freq_resp","img/green_2bandit_b.png","70","70","test","","","","7","",""
"null","220845","pSARL_v2","pSARL_v2fny0rket","63d2eec88a81e2462be70762","fixation","img/fixation.png","null","","test","","","","","",""
"318","221175","pSARL_v2","pSARL_v2fny0rket","63d2eec88a81e2462be70762","freq","img/green_2bandit_b2.png","70","70","test","1","132","132","7","",""
"null","221680","pSARL_v2","pSARL_v2fny0rket","63d2eec88a81e2462be70762","freq_resp","img/green_2bandit_b.png","70","70","test","","","","7","",""
"null","221854","pSARL_v2","pSARL_v2fny0rket","63d2eec88a81e2462be70762","fixation","img/fixation.png","null","","test","","","","","",""
"56.70000001788139","221923","pSARL_v2","pSARL_v2fny0rket","63d2eec88a81e2462be70762","freq","img/green_2bandit_b2.png","70","70","test","1","133","133","7","",""
"null","222694","pSARL_v2","pSARL_v2fny0rket","63d2eec88a81e2462be70762","freq_resp","img/green_2bandit_b.png","70","70","test","","","","7","",""
"null","222858","pSARL_v2","pSARL_v2fny0rket","63d2eec88a81e2462be70762","fixation","img/fixation.png","null","","test","","","","","",""
"null","223674","pSARL_v2","pSARL_v2fny0rket","63d2eec88a81e2462be70762","freq","img/green_2bandit_b2.png","null","70","test","0","134","134","7","",""
"null","223848","pSARL_v2","pSARL_v2fny0rket","63d2eec88a81e2462be70762","fixation","img/fixation.png","null","","test","","","","","",""
"627.4000000059605","224488","pSARL_v2","pSARL_v2fny0rket","63d2eec88a81e2462be70762","freq","img/green_2bandit_b2.png","70","70","test","1","135","135","7","",""
"null","224684","pSARL_v2","pSARL_v2fny0rket","63d2eec88a81e2462be70762","freq_resp","img/green_2bandit_b.png","70","70","test","","","","7","",""
"null","224859","pSARL_v2","pSARL_v2fny0rket","63d2eec88a81e2462be70762","fixation","img/fixation.png","null","","test","","","","","",""
"437.89999997615814","225308","pSARL_v2","pSARL_v2fny0rket","63d2eec88a81e2462be70762","freq","img/green_2bandit_b2.png","70","70","test","1","136","136","7","",""
"null","225683","pSARL_v2","pSARL_v2fny0rket","63d2eec88a81e2462be70762","freq_resp","img/green_2bandit_b.png","70","70","test","","","","7","",""
"null","225855","pSARL_v2","pSARL_v2fny0rket","63d2eec88a81e2462be70762","fixation","img/fixation.png","null","","test","","","","","",""
"373","226240","pSARL_v2","pSARL_v2fny0rket","63d2eec88a81e2462be70762","freq","img/green_2bandit_b2.png","70","70","test","1","137","137","7","",""
"null","226690","pSARL_v2","pSARL_v2fny0rket","63d2eec88a81e2462be70762","freq_resp","img/green_2bandit_b.png","70","70","test","","","","7","",""
"null","226864","pSARL_v2","pSARL_v2fny0rket","63d2eec88a81e2462be70762","fixation","img/fixation.png","null","","test","","","","","",""
"302","227178","pSARL_v2","pSARL_v2fny0rket","63d2eec88a81e2462be70762","freq","img/green_2bandit_b2.png","70","70","test","1","138","138","7","",""
"null","227698","pSARL_v2","pSARL_v2fny0rket","63d2eec88a81e2462be70762","freq_resp","img/green_2bandit_b.png","70","70","test","","","","7","",""
"null","227871","pSARL_v2","pSARL_v2fny0rket","63d2eec88a81e2462be70762","fixation","img/fixation.png","null","","test","","","","","",""
"225.30000001192093","228107","pSARL_v2","pSARL_v2fny0rket","63d2eec88a81e2462be70762","freq","img/green_2bandit_b2.png","70","70","test","1","139","139","7","",""
"null","228702","pSARL_v2","pSARL_v2fny0rket","63d2eec88a81e2462be70762","freq_resp","img/green_2bandit_b.png","70","70","test","","","","7","",""
"null","228874","pSARL_v2","pSARL_v2fny0rket","63d2eec88a81e2462be70762","fixation","img/fixation.png","null","","test","","","","","",""
"181.80000001192093","229068","pSARL_v2","pSARL_v2fny0rket","63d2eec88a81e2462be70762","freq","img/green_2bandit_b2.png","70","70","test","1","140","140","7","",""
"null","229712","pSARL_v2","pSARL_v2fny0rket","63d2eec88a81e2462be70762","freq_resp","img/green_2bandit_b.png","70","70","test","","","","7","",""
"null","229884","pSARL_v2","pSARL_v2fny0rket","63d2eec88a81e2462be70762","fixation","img/fixation.png","null","","test","","","","","",""
"64.40000000596046","229960","pSARL_v2","pSARL_v2fny0rket","63d2eec88a81e2462be70762","freq","img/green_2bandit_b2.png","70","70","test","1","141","141","7","",""
"null","230715","pSARL_v2","pSARL_v2fny0rket","63d2eec88a81e2462be70762","freq_resp","img/green_2bandit_b.png","70","70","test","","","","7","",""
"null","230889","pSARL_v2","pSARL_v2fny0rket","63d2eec88a81e2462be70762","fixation","img/fixation.png","null","","test","","","","","",""
"79.69999998807907","230981","pSARL_v2","pSARL_v2fny0rket","63d2eec88a81e2462be70762","freq","img/green_2bandit_b2.png","70","70","test","1","142","142","7","",""
"null","231720","pSARL_v2","pSARL_v2fny0rket","63d2eec88a81e2462be70762","freq_resp","img/green_2bandit_b.png","70","70","test","","","","7","",""
"null","231892","pSARL_v2","pSARL_v2fny0rket","63d2eec88a81e2462be70762","fixation","img/fixation.png","null","","test","","","","","",""
"44.19999998807907","231949","pSARL_v2","pSARL_v2fny0rket","63d2eec88a81e2462be70762","infreq","img/orange_2bandit_b2.png","70","68","test","0","143","143","7","",""
"null","232726","pSARL_v2","pSARL_v2fny0rket","63d2eec88a81e2462be70762","infreq_resp","img/orange_2bandit_b.png","70","68","test","","","","7","",""
"null","232899","pSARL_v2","pSARL_v2fny0rket","63d2eec88a81e2462be70762","fixation","img/fixation.png","null","","test","","","","","",""
"343.10000002384186","233254","pSARL_v2","pSARL_v2fny0rket","63d2eec88a81e2462be70762","freq","img/green_2bandit_b2.png","70","70","test","1","144","144","7","",""
"null","233732","pSARL_v2","pSARL_v2fny0rket","63d2eec88a81e2462be70762","freq_resp","img/green_2bandit_b.png","70","70","test","","","","7","",""
"null","233905","pSARL_v2","pSARL_v2fny0rket","63d2eec88a81e2462be70762","fixation","img/fixation.png","null","","test","","","","","",""
"127.5","234045","pSARL_v2","pSARL_v2fny0rket","63d2eec88a81e2462be70762","freq","img/green_2bandit_b2.png","70","70","test","1","145","145","7","",""
"null","234745","pSARL_v2","pSARL_v2fny0rket","63d2eec88a81e2462be70762","freq_resp","img/green_2bandit_b.png","70","70","test","","","","7","",""
"null","234918","pSARL_v2","pSARL_v2fny0rket","63d2eec88a81e2462be70762","fixation","img/fixation.png","null","","test","","","","","",""
"60.70000001788139","234990","pSARL_v2","pSARL_v2fny0rket","63d2eec88a81e2462be70762","freq","img/green_2bandit_b2.png","70","70","test","1","146","146","7","",""
"null","235753","pSARL_v2","pSARL_v2fny0rket","63d2eec88a81e2462be70762","freq_resp","img/green_2bandit_b.png","70","70","test","","","","7","",""
"null","235925","pSARL_v2","pSARL_v2fny0rket","63d2eec88a81e2462be70762","fixation","img/fixation.png","null","","test","","","","","",""
"105.5","236043","pSARL_v2","pSARL_v2fny0rket","63d2eec88a81e2462be70762","freq","img/green_2bandit_b2.png","70","70","test","1","147","147","7","",""
"null","236761","pSARL_v2","pSARL_v2fny0rket","63d2eec88a81e2462be70762","freq_resp","img/green_2bandit_b.png","70","70","test","","","","7","",""
"null","236933","pSARL_v2","pSARL_v2fny0rket","63d2eec88a81e2462be70762","fixation","img/fixation.png","null","","test","","","","","",""
"230.59999999403954","237176","pSARL_v2","pSARL_v2fny0rket","63d2eec88a81e2462be70762","freq","img/green_2bandit_b2.png","70","70","test","1","148","148","7","",""
"null","237768","pSARL_v2","pSARL_v2fny0rket","63d2eec88a81e2462be70762","freq_resp","img/green_2bandit_b.png","70","70","test","","","","7","",""
"null","237941","pSARL_v2","pSARL_v2fny0rket","63d2eec88a81e2462be70762","fixation","img/fixation.png","null","","test","","","","","",""
"467.30000001192093","238420","pSARL_v2","pSARL_v2fny0rket","63d2eec88a81e2462be70762","infreq","img/orange_2bandit_b2.png","68","68","test","1","149","149","7","",""
"null","238780","pSARL_v2","pSARL_v2fny0rket","63d2eec88a81e2462be70762","infreq_resp","img/orange_2bandit_b.png","68","68","test","","","","7","",""
"null","238952","pSARL_v2","pSARL_v2fny0rket","63d2eec88a81e2462be70762","fixation","img/fixation.png","null","","test","","","","","",""
"419.30000001192093","239384","pSARL_v2","pSARL_v2fny0rket","63d2eec88a81e2462be70762","freq","img/green_2bandit_b2.png","70","70","test","1","150","150","7","",""
"null","239790","pSARL_v2","pSARL_v2fny0rket","63d2eec88a81e2462be70762","freq_resp","img/green_2bandit_b.png","70","70","test","","","","7","",""
"null","239963","pSARL_v2","pSARL_v2fny0rket","63d2eec88a81e2462be70762","fixation","img/fixation.png","null","","test","","","","","",""
"297.7000000178814","240272","pSARL_v2","pSARL_v2fny0rket","63d2eec88a81e2462be70762","freq","img/green_2bandit_b2.png","70","70","test","1","151","151","7","",""
"null","240801","pSARL_v2","pSARL_v2fny0rket","63d2eec88a81e2462be70762","freq_resp","img/green_2bandit_b.png","70","70","test","","","","7","",""
"null","240974","pSARL_v2","pSARL_v2fny0rket","63d2eec88a81e2462be70762","fixation","img/fixation.png","null","","test","","","","","",""
"282.5","241269","pSARL_v2","pSARL_v2fny0rket","63d2eec88a81e2462be70762","freq","img/green_2bandit_b2.png","70","70","test","1","152","152","7","",""
"null","241809","pSARL_v2","pSARL_v2fny0rket","63d2eec88a81e2462be70762","freq_resp","img/green_2bandit_b.png","70","70","test","","","","7","",""
"null","241983","pSARL_v2","pSARL_v2fny0rket","63d2eec88a81e2462be70762","fixation","img/fixation.png","null","","test","","","","","",""
"292.69999998807907","242288","pSARL_v2","pSARL_v2fny0rket","63d2eec88a81e2462be70762","freq","img/green_2bandit_b2.png","70","70","test","1","153","153","7","",""
"null","242817","pSARL_v2","pSARL_v2fny0rket","63d2eec88a81e2462be70762","freq_resp","img/green_2bandit_b.png","70","70","test","","","","7","",""
"null","242989","pSARL_v2","pSARL_v2fny0rket","63d2eec88a81e2462be70762","fixation","img/fixation.png","null","","test","","","","","",""
"275.09999999403954","243276","pSARL_v2","pSARL_v2fny0rket","63d2eec88a81e2462be70762","freq","img/green_2bandit_b2.png","70","70","test","1","154","154","7","",""
"null","243823","pSARL_v2","pSARL_v2fny0rket","63d2eec88a81e2462be70762","freq_resp","img/green_2bandit_b.png","70","70","test","","","","7","",""
"null","243996","pSARL_v2","pSARL_v2fny0rket","63d2eec88a81e2462be70762","fixation","img/fixation.png","null","","test","","","","","",""
"523.6999999880791","244531","pSARL_v2","pSARL_v2fny0rket","63d2eec88a81e2462be70762","reward","img/slot.png","74","","test","","","","","",""
"null","245307","pSARL_v2","pSARL_v2fny0rket","63d2eec88a81e2462be70762","points","<div class=""verylowPoints""> -6 </div>","null","na","test","","","","7","-6","6"
"392.59999999403954","245712","pSARL_v2","pSARL_v2fny0rket","63d2eec88a81e2462be70762","freq","img/green_2bandit_b2.png","70","70","test","1","155","155","8","",""
"null","246145","pSARL_v2","pSARL_v2fny0rket","63d2eec88a81e2462be70762","freq_resp","img/green_2bandit_b.png","70","70","test","","","","8","",""
"null","246318","pSARL_v2","pSARL_v2fny0rket","63d2eec88a81e2462be70762","fixation","img/fixation.png","null","","test","","","","","",""
"250.09999999403954","246580","pSARL_v2","pSARL_v2fny0rket","63d2eec88a81e2462be70762","freq","img/green_2bandit_b2.png","70","70","test","1","156","156","8","",""
"null","247156","pSARL_v2","pSARL_v2fny0rket","63d2eec88a81e2462be70762","freq_resp","img/green_2bandit_b.png","70","70","test","","","","8","",""
"null","247329","pSARL_v2","pSARL_v2fny0rket","63d2eec88a81e2462be70762","fixation","img/fixation.png","null","","test","","","","","",""
"189.30000001192093","247530","pSARL_v2","pSARL_v2fny0rket","63d2eec88a81e2462be70762","freq","img/green_2bandit_b2.png","70","70","test","1","157","157","8","",""
"null","248158","pSARL_v2","pSARL_v2fny0rket","63d2eec88a81e2462be70762","freq_resp","img/green_2bandit_b.png","70","70","test","","","","8","",""
"null","248331","pSARL_v2","pSARL_v2fny0rket","63d2eec88a81e2462be70762","fixation","img/fixation.png","null","","test","","","","","",""
"60.400000005960464","248403","pSARL_v2","pSARL_v2fny0rket","63d2eec88a81e2462be70762","freq","img/green_2bandit_b2.png","70","70","test","1","158","158","8","",""
"null","249163","pSARL_v2","pSARL_v2fny0rket","63d2eec88a81e2462be70762","freq_resp","img/green_2bandit_b.png","70","70","test","","","","8","",""
"null","249336","pSARL_v2","pSARL_v2fny0rket","63d2eec88a81e2462be70762","fixation","img/fixation.png","null","","test","","","","","",""
"null","250156","pSARL_v2","pSARL_v2fny0rket","63d2eec88a81e2462be70762","freq","img/green_2bandit_b2.png","null","70","test","0","159","159","8","",""
"null","250329","pSARL_v2","pSARL_v2fny0rket","63d2eec88a81e2462be70762","fixation","img/fixation.png","null","","test","","","","","",""
"0.699999988079071","250341","pSARL_v2","pSARL_v2fny0rket","63d2eec88a81e2462be70762","infreq","img/orange_2bandit_b2.png","70","68","test","0","160","160","8","",""
"null","251163","pSARL_v2","pSARL_v2fny0rket","63d2eec88a81e2462be70762","infreq_resp","img/orange_2bandit_b.png","70","68","test","","","","8","",""
"null","251338","pSARL_v2","pSARL_v2fny0rket","63d2eec88a81e2462be70762","fixation","img/fixation.png","null","","test","","","","","",""
"58.900000005960464","251408","pSARL_v2","pSARL_v2fny0rket","63d2eec88a81e2462be70762","freq","img/green_2bandit_b2.png","70","70","test","1","161","161","8","",""
"null","252162","pSARL_v2","pSARL_v2fny0rket","63d2eec88a81e2462be70762","freq_resp","img/green_2bandit_b.png","70","70","test","","","","8","",""
"null","252337","pSARL_v2","pSARL_v2fny0rket","63d2eec88a81e2462be70762","fixation","img/fixation.png","null","","test","","","","","",""
"null","253156","pSARL_v2","pSARL_v2fny0rket","63d2eec88a81e2462be70762","freq","img/green_2bandit_b2.png","null","70","test","0","162","162","8","",""
"null","253329","pSARL_v2","pSARL_v2fny0rket","63d2eec88a81e2462be70762","fixation","img/fixation.png","null","","test","","","","","",""
"null","254150","pSARL_v2","pSARL_v2fny0rket","63d2eec88a81e2462be70762","freq","img/green_2bandit_b2.png","null","70","test","0","163","163","8","",""
"null","254326","pSARL_v2","pSARL_v2fny0rket","63d2eec88a81e2462be70762","fixation","img/fixation.png","null","","test","","","","","",""
"null","255144","pSARL_v2","pSARL_v2fny0rket","63d2eec88a81e2462be70762","freq","img/green_2bandit_b2.png","null","70","test","0","164","164","8","",""
"null","255318","pSARL_v2","pSARL_v2fny0rket","63d2eec88a81e2462be70762","fixation","img/fixation.png","null","","test","","","","","",""
"673.5","256004","pSARL_v2","pSARL_v2fny0rket","63d2eec88a81e2462be70762","freq","img/green_2bandit_b2.png","70","70","test","1","165","165","8","",""
"null","256152","pSARL_v2","pSARL_v2fny0rket","63d2eec88a81e2462be70762","freq_resp","img/green_2bandit_b.png","70","70","test","","","","8","",""
"null","256325","pSARL_v2","pSARL_v2fny0rket","63d2eec88a81e2462be70762","fixation","img/fixation.png","null","","test","","","","","",""
"512.9000000059605","256850","pSARL_v2","pSARL_v2fny0rket","63d2eec88a81e2462be70762","freq","img/green_2bandit_b2.png","70","70","test","1","166","166","8","",""
"null","257157","pSARL_v2","pSARL_v2fny0rket","63d2eec88a81e2462be70762","freq_resp","img/green_2bandit_b.png","70","70","test","","","","8","",""
"null","257329","pSARL_v2","pSARL_v2fny0rket","63d2eec88a81e2462be70762","fixation","img/fixation.png","null","","test","","","","","",""
"383.60000002384186","257724","pSARL_v2","pSARL_v2fny0rket","63d2eec88a81e2462be70762","freq","img/green_2bandit_b2.png","70","70","test","1","167","167","8","",""
"null","258166","pSARL_v2","pSARL_v2fny0rket","63d2eec88a81e2462be70762","freq_resp","img/green_2bandit_b.png","70","70","test","","","","8","",""
"null","258339","pSARL_v2","pSARL_v2fny0rket","63d2eec88a81e2462be70762","fixation","img/fixation.png","null","","test","","","","","",""
"219.40000000596046","258571","pSARL_v2","pSARL_v2fny0rket","63d2eec88a81e2462be70762","freq","img/green_2bandit_b2.png","70","70","test","1","168","168","8","",""
"null","259171","pSARL_v2","pSARL_v2fny0rket","63d2eec88a81e2462be70762","freq_resp","img/green_2bandit_b.png","70","70","test","","","","8","",""
"null","259345","pSARL_v2","pSARL_v2fny0rket","63d2eec88a81e2462be70762","fixation","img/fixation.png","null","","test","","","","","",""
"254.69999998807907","259611","pSARL_v2","pSARL_v2fny0rket","63d2eec88a81e2462be70762","freq","img/green_2bandit_b2.png","70","70","test","1","169","169","8","",""
"null","260183","pSARL_v2","pSARL_v2fny0rket","63d2eec88a81e2462be70762","freq_resp","img/green_2bandit_b.png","70","70","test","","","","8","",""
"null","260356","pSARL_v2","pSARL_v2fny0rket","63d2eec88a81e2462be70762","fixation","img/fixation.png","null","","test","","","","","",""
"133.80000001192093","260501","pSARL_v2","pSARL_v2fny0rket","63d2eec88a81e2462be70762","freq","img/green_2bandit_b2.png","70","70","test","1","170","170","8","",""
"null","261195","pSARL_v2","pSARL_v2fny0rket","63d2eec88a81e2462be70762","freq_resp","img/green_2bandit_b.png","70","70","test","","","","8","",""
"null","261369","pSARL_v2","pSARL_v2fny0rket","63d2eec88a81e2462be70762","fixation","img/fixation.png","null","","test","","","","","",""
"88.40000000596046","261469","pSARL_v2","pSARL_v2fny0rket","63d2eec88a81e2462be70762","infreq","img/orange_2bandit_b2.png","70","68","test","0","171","171","8","",""
"null","262197","pSARL_v2","pSARL_v2fny0rket","63d2eec88a81e2462be70762","infreq_resp","img/orange_2bandit_b.png","70","68","test","","","","8","",""
"null","262371","pSARL_v2","pSARL_v2fny0rket","63d2eec88a81e2462be70762","fixation","img/fixation.png","null","","test","","","","","",""
"99.80000001192093","262484","pSARL_v2","pSARL_v2fny0rket","63d2eec88a81e2462be70762","freq","img/green_2bandit_b2.png","70","70","test","1","172","172","8","",""
"null","263203","pSARL_v2","pSARL_v2fny0rket","63d2eec88a81e2462be70762","freq_resp","img/green_2bandit_b.png","70","70","test","","","","8","",""
"null","263376","pSARL_v2","pSARL_v2fny0rket","63d2eec88a81e2462be70762","fixation","img/fixation.png","null","","test","","","","","",""
"null","264195","pSARL_v2","pSARL_v2fny0rket","63d2eec88a81e2462be70762","freq","img/green_2bandit_b2.png","null","70","test","0","173","173","8","",""
"null","264368","pSARL_v2","pSARL_v2fny0rket","63d2eec88a81e2462be70762","fixation","img/fixation.png","null","","test","","","","","",""
"590.9000000059605","264971","pSARL_v2","pSARL_v2fny0rket","63d2eec88a81e2462be70762","freq","img/green_2bandit_b2.png","70","70","test","1","174","174","8","",""
"null","265200","pSARL_v2","pSARL_v2fny0rket","63d2eec88a81e2462be70762","freq_resp","img/green_2bandit_b.png","70","70","test","","","","8","",""
"null","265373","pSARL_v2","pSARL_v2fny0rket","63d2eec88a81e2462be70762","fixation","img/fixation.png","null","","test","","","","","",""
"397","265782","pSARL_v2","pSARL_v2fny0rket","63d2eec88a81e2462be70762","freq","img/green_2bandit_b2.png","70","70","test","1","175","175","8","",""
"null","266205","pSARL_v2","pSARL_v2fny0rket","63d2eec88a81e2462be70762","freq_resp","img/green_2bandit_b.png","70","70","test","","","","8","",""
"null","266377","pSARL_v2","pSARL_v2fny0rket","63d2eec88a81e2462be70762","fixation","img/fixation.png","null","","test","","","","","",""
"352.7000000178814","266741","pSARL_v2","pSARL_v2fny0rket","63d2eec88a81e2462be70762","freq","img/green_2bandit_b2.png","70","70","test","1","176","176","8","",""
"null","267210","pSARL_v2","pSARL_v2fny0rket","63d2eec88a81e2462be70762","freq_resp","img/green_2bandit_b.png","70","70","test","","","","8","",""
"null","267384","pSARL_v2","pSARL_v2fny0rket","63d2eec88a81e2462be70762","fixation","img/fixation.png","null","","test","","","","","",""
"474.09999999403954","267870","pSARL_v2","pSARL_v2fny0rket","63d2eec88a81e2462be70762","reward","img/slot.png","74","","test","","","","","",""
"null","268645","pSARL_v2","pSARL_v2fny0rket","63d2eec88a81e2462be70762","points","<div class=""verylowPoints""> -4 </div>","null","na","test","","","","8","-4","7"
"550.5","269207","pSARL_v2","pSARL_v2fny0rket","63d2eec88a81e2462be70762","freq","img/green_2bandit_b2.png","70","70","test","1","177","177","9","",""
"null","269485","pSARL_v2","pSARL_v2fny0rket","63d2eec88a81e2462be70762","freq_resp","img/green_2bandit_b.png","70","70","test","","","","9","",""
"null","269657","pSARL_v2","pSARL_v2fny0rket","63d2eec88a81e2462be70762","fixation","img/fixation.png","null","","test","","","","","",""
"200.40000000596046","269869","pSARL_v2","pSARL_v2fny0rket","63d2eec88a81e2462be70762","infreq","img/orange_2bandit_b2.png","70","68","test","0","178","178","9","",""
"null","270490","pSARL_v2","pSARL_v2fny0rket","63d2eec88a81e2462be70762","infreq_resp","img/orange_2bandit_b.png","70","68","test","","","","9","",""
"null","270665","pSARL_v2","pSARL_v2fny0rket","63d2eec88a81e2462be70762","fixation","img/fixation.png","null","","test","","","","","",""
"151.2000000178814","270828","pSARL_v2","pSARL_v2fny0rket","63d2eec88a81e2462be70762","freq","img/green_2bandit_b2.png","70","70","test","1","179","179","9","",""
"null","271489","pSARL_v2","pSARL_v2fny0rket","63d2eec88a81e2462be70762","freq_resp","img/green_2bandit_b.png","70","70","test","","","","9","",""
"null","271654","pSARL_v2","pSARL_v2fny0rket","63d2eec88a81e2462be70762","fixation","img/fixation.png","null","","test","","","","","",""
"684.7000000178814","272351","pSARL_v2","pSARL_v2fny0rket","63d2eec88a81e2462be70762","freq","img/green_2bandit_b2.png","70","70","test","1","180","180","9","",""
"null","272481","pSARL_v2","pSARL_v2fny0rket","63d2eec88a81e2462be70762","freq_resp","img/green_2bandit_b.png","70","70","test","","","","9","",""
"null","272653","pSARL_v2","pSARL_v2fny0rket","63d2eec88a81e2462be70762","fixation","img/fixation.png","null","","test","","","","","",""
"610","273275","pSARL_v2","pSARL_v2fny0rket","63d2eec88a81e2462be70762","freq","img/green_2bandit_b2.png","70","70","test","1","181","181","9","",""
"null","273491","pSARL_v2","pSARL_v2fny0rket","63d2eec88a81e2462be70762","freq_resp","img/green_2bandit_b.png","70","70","test","","","","9","",""
"null","273666","pSARL_v2","pSARL_v2fny0rket","63d2eec88a81e2462be70762","fixation","img/fixation.png","null","","test","","","","","",""
"401.69999998807907","274079","pSARL_v2","pSARL_v2fny0rket","63d2eec88a81e2462be70762","freq","img/green_2bandit_b2.png","70","70","test","1","182","182","9","",""
"null","274503","pSARL_v2","pSARL_v2fny0rket","63d2eec88a81e2462be70762","freq_resp","img/green_2bandit_b.png","70","70","test","","","","9","",""
"null","274677","pSARL_v2","pSARL_v2fny0rket","63d2eec88a81e2462be70762","fixation","img/fixation.png","null","","test","","","","","",""
"258.09999999403954","274948","pSARL_v2","pSARL_v2fny0rket","63d2eec88a81e2462be70762","infreq","img/orange_2bandit_b2.png","70","68","test","0","183","183","9","",""
"null","275516","pSARL_v2","pSARL_v2fny0rket","63d2eec88a81e2462be70762","infreq_resp","img/orange_2bandit_b.png","70","68","test","","","","9","",""
"null","275689","pSARL_v2","pSARL_v2fny0rket","63d2eec88a81e2462be70762","fixation","img/fixation.png","null","","test","","","","","",""
"147.80000001192093","275849","pSARL_v2","pSARL_v2fny0rket","63d2eec88a81e2462be70762","freq","img/green_2bandit_b2.png","70","70","test","1","184","184","9","",""
"null","276523","pSARL_v2","pSARL_v2fny0rket","63d2eec88a81e2462be70762","freq_resp","img/green_2bandit_b.png","70","70","test","","","","9","",""
"null","276698","pSARL_v2","pSARL_v2fny0rket","63d2eec88a81e2462be70762","fixation","img/fixation.png","null","","test","","","","","",""
"78.09999999403954","276788","pSARL_v2","pSARL_v2fny0rket","63d2eec88a81e2462be70762","freq","img/green_2bandit_b2.png","70","70","test","1","185","185","9","",""
"null","277531","pSARL_v2","pSARL_v2fny0rket","63d2eec88a81e2462be70762","freq_resp","img/green_2bandit_b.png","70","70","test","","","","9","",""
"null","277706","pSARL_v2","pSARL_v2fny0rket","63d2eec88a81e2462be70762","fixation","img/fixation.png","null","","test","","","","","",""
"549.6999999880791","278268","pSARL_v2","pSARL_v2fny0rket","63d2eec88a81e2462be70762","freq","img/green_2bandit_b2.png","70","70","test","1","186","186","9","",""
"null","278541","pSARL_v2","pSARL_v2fny0rket","63d2eec88a81e2462be70762","freq_resp","img/green_2bandit_b.png","70","70","test","","","","9","",""
"null","278716","pSARL_v2","pSARL_v2fny0rket","63d2eec88a81e2462be70762","fixation","img/fixation.png","null","","test","","","","","",""
"300.90000000596046","279029","pSARL_v2","pSARL_v2fny0rket","63d2eec88a81e2462be70762","freq","img/green_2bandit_b2.png","70","70","test","1","187","187","9","",""
"null","279553","pSARL_v2","pSARL_v2fny0rket","63d2eec88a81e2462be70762","freq_resp","img/green_2bandit_b.png","70","70","test","","","","9","",""
"null","279726","pSARL_v2","pSARL_v2fny0rket","63d2eec88a81e2462be70762","fixation","img/fixation.png","null","","test","","","","","",""
"205.90000000596046","279944","pSARL_v2","pSARL_v2fny0rket","63d2eec88a81e2462be70762","freq","img/green_2bandit_b2.png","70","70","test","1","188","188","9","",""
"null","280560","pSARL_v2","pSARL_v2fny0rket","63d2eec88a81e2462be70762","freq_resp","img/green_2bandit_b.png","70","70","test","","","","9","",""
"null","280734","pSARL_v2","pSARL_v2fny0rket","63d2eec88a81e2462be70762","fixation","img/fixation.png","null","","test","","","","","",""
"130","280875","pSARL_v2","pSARL_v2fny0rket","63d2eec88a81e2462be70762","freq","img/green_2bandit_b2.png","70","70","test","1","189","189","9","",""
"null","281569","pSARL_v2","pSARL_v2fny0rket","63d2eec88a81e2462be70762","freq_resp","img/green_2bandit_b.png","70","70","test","","","","9","",""
"null","281741","pSARL_v2","pSARL_v2fny0rket","63d2eec88a81e2462be70762","fixation","img/fixation.png","null","","test","","","","","",""
"98.80000001192093","281852","pSARL_v2","pSARL_v2fny0rket","63d2eec88a81e2462be70762","freq","img/green_2bandit_b2.png","70","70","test","1","190","190","9","",""
"null","282576","pSARL_v2","pSARL_v2fny0rket","63d2eec88a81e2462be70762","freq_resp","img/green_2bandit_b.png","70","70","test","","","","9","",""
"null","282750","pSARL_v2","pSARL_v2fny0rket","63d2eec88a81e2462be70762","fixation","img/fixation.png","null","","test","","","","","",""
"43.400000005960464","282805","pSARL_v2","pSARL_v2fny0rket","63d2eec88a81e2462be70762","freq","img/green_2bandit_b2.png","70","70","test","1","191","191","9","",""
"null","283583","pSARL_v2","pSARL_v2fny0rket","63d2eec88a81e2462be70762","freq_resp","img/green_2bandit_b.png","70","70","test","","","","9","",""
"null","283758","pSARL_v2","pSARL_v2fny0rket","63d2eec88a81e2462be70762","fixation","img/fixation.png","null","","test","","","","","",""
"89.40000000596046","283860","pSARL_v2","pSARL_v2fny0rket","63d2eec88a81e2462be70762","freq","img/green_2bandit_b2.png","70","70","test","1","192","192","9","",""
"null","284597","pSARL_v2","pSARL_v2fny0rket","63d2eec88a81e2462be70762","freq_resp","img/green_2bandit_b.png","70","70","test","","","","9","",""
"null","284769","pSARL_v2","pSARL_v2fny0rket","63d2eec88a81e2462be70762","fixation","img/fixation.png","null","","test","","","","","",""
"48.69999998807907","284830","pSARL_v2","pSARL_v2fny0rket","63d2eec88a81e2462be70762","freq","img/green_2bandit_b2.png","70","70","test","1","193","193","9","",""
"null","285605","pSARL_v2","pSARL_v2fny0rket","63d2eec88a81e2462be70762","freq_resp","img/green_2bandit_b.png","70","70","test","","","","9","",""
"null","285779","pSARL_v2","pSARL_v2fny0rket","63d2eec88a81e2462be70762","fixation","img/fixation.png","null","","test","","","","","",""
"37.400000005960464","285829","pSARL_v2","pSARL_v2fny0rket","63d2eec88a81e2462be70762","freq","img/green_2bandit_b2.png","70","70","test","1","194","194","9","",""
"null","286612","pSARL_v2","pSARL_v2fny0rket","63d2eec88a81e2462be70762","freq_resp","img/green_2bandit_b.png","70","70","test","","","","9","",""
"null","286784","pSARL_v2","pSARL_v2fny0rket","63d2eec88a81e2462be70762","fixation","img/fixation.png","null","","test","","","","","",""
"68.30000001192093","286865","pSARL_v2","pSARL_v2fny0rket","63d2eec88a81e2462be70762","freq","img/green_2bandit_b2.png","70","70","test","1","195","195","9","",""
"null","287620","pSARL_v2","pSARL_v2fny0rket","63d2eec88a81e2462be70762","freq_resp","img/green_2bandit_b.png","70","70","test","","","","9","",""
"null","287793","pSARL_v2","pSARL_v2fny0rket","63d2eec88a81e2462be70762","fixation","img/fixation.png","null","","test","","","","","",""
"126.2999999821186","287932","pSARL_v2","pSARL_v2fny0rket","63d2eec88a81e2462be70762","freq","img/green_2bandit_b2.png","70","70","test","1","196","196","9","",""
"null","288628","pSARL_v2","pSARL_v2fny0rket","63d2eec88a81e2462be70762","freq_resp","img/green_2bandit_b.png","70","70","test","","","","9","",""
"null","288801","pSARL_v2","pSARL_v2fny0rket","63d2eec88a81e2462be70762","fixation","img/fixation.png","null","","test","","","","","",""
"109.90000000596046","288922","pSARL_v2","pSARL_v2fny0rket","63d2eec88a81e2462be70762","freq","img/green_2bandit_b2.png","70","70","test","1","197","197","9","",""
"null","289638","pSARL_v2","pSARL_v2fny0rket","63d2eec88a81e2462be70762","freq_resp","img/green_2bandit_b.png","70","70","test","","","","9","",""
"null","289813","pSARL_v2","pSARL_v2fny0rket","63d2eec88a81e2462be70762","fixation","img/fixation.png","null","","test","","","","","",""
"198.19999998807907","290022","pSARL_v2","pSARL_v2fny0rket","63d2eec88a81e2462be70762","freq","img/green_2bandit_b2.png","70","70","test","1","198","198","9","",""
"null","290643","pSARL_v2","pSARL_v2fny0rket","63d2eec88a81e2462be70762","freq_resp","img/green_2bandit_b.png","70","70","test","","","","9","",""
"null","290817","pSARL_v2","pSARL_v2fny0rket","63d2eec88a81e2462be70762","fixation","img/fixation.png","null","","test","","","","","",""
"166.69999998807907","290995","pSARL_v2","pSARL_v2fny0rket","63d2eec88a81e2462be70762","freq","img/green_2bandit_b2.png","70","70","test","1","199","199","9","",""
"null","291654","pSARL_v2","pSARL_v2fny0rket","63d2eec88a81e2462be70762","freq_resp","img/green_2bandit_b.png","70","70","test","","","","9","",""
"null","291829","pSARL_v2","pSARL_v2fny0rket","63d2eec88a81e2462be70762","fixation","img/fixation.png","null","","test","","","","","",""
"126.5","291967","pSARL_v2","pSARL_v2fny0rket","63d2eec88a81e2462be70762","infreq","img/orange_2bandit_b2.png","70","68","test","0","200","200","9","",""
"null","292663","pSARL_v2","pSARL_v2fny0rket","63d2eec88a81e2462be70762","infreq_resp","img/orange_2bandit_b.png","70","68","test","","","","9","",""
"null","292835","pSARL_v2","pSARL_v2fny0rket","63d2eec88a81e2462be70762","fixation","img/fixation.png","null","","test","","","","","",""
"100","292947","pSARL_v2","pSARL_v2fny0rket","63d2eec88a81e2462be70762","freq","img/green_2bandit_b2.png","70","70","test","1","201","201","9","",""
"null","293663","pSARL_v2","pSARL_v2fny0rket","63d2eec88a81e2462be70762","freq_resp","img/green_2bandit_b.png","70","70","test","","","","9","",""
"null","293836","pSARL_v2","pSARL_v2fny0rket","63d2eec88a81e2462be70762","fixation","img/fixation.png","null","","test","","","","","",""
"110.80000001192093","293959","pSARL_v2","pSARL_v2fny0rket","63d2eec88a81e2462be70762","freq","img/green_2bandit_b2.png","70","70","test","1","202","202","9","",""
"null","294665","pSARL_v2","pSARL_v2fny0rket","63d2eec88a81e2462be70762","freq_resp","img/green_2bandit_b.png","70","70","test","","","","9","",""
"null","294838","pSARL_v2","pSARL_v2fny0rket","63d2eec88a81e2462be70762","fixation","img/fixation.png","null","","test","","","","","",""
"58.900000005960464","294909","pSARL_v2","pSARL_v2fny0rket","63d2eec88a81e2462be70762","freq","img/green_2bandit_b2.png","70","70","test","1","203","203","9","",""
"null","295673","pSARL_v2","pSARL_v2fny0rket","63d2eec88a81e2462be70762","freq_resp","img/green_2bandit_b.png","70","70","test","","","","9","",""
"null","295845","pSARL_v2","pSARL_v2fny0rket","63d2eec88a81e2462be70762","fixation","img/fixation.png","null","","test","","","","","",""
"439.7999999821186","296296","pSARL_v2","pSARL_v2fny0rket","63d2eec88a81e2462be70762","reward","img/slot.png","74","","test","","","","","",""
"null","297062","pSARL_v2","pSARL_v2fny0rket","63d2eec88a81e2462be70762","points","<div class=""verylowPoints""> -3 </div>","null","na","test","","","","9","-3","8"
"440.7999999821186","297514","pSARL_v2","pSARL_v2fny0rket","63d2eec88a81e2462be70762","freq","img/green_2bandit_b2.png","70","70","test","1","204","204","10","",""
"null","297897","pSARL_v2","pSARL_v2fny0rket","63d2eec88a81e2462be70762","freq_resp","img/green_2bandit_b.png","70","70","test","","","","10","",""
"null","298071","pSARL_v2","pSARL_v2fny0rket","63d2eec88a81e2462be70762","fixation","img/fixation.png","null","","test","","","","","",""
"352.40000000596046","298435","pSARL_v2","pSARL_v2fny0rket","63d2eec88a81e2462be70762","freq","img/green_2bandit_b2.png","70","70","test","1","205","205","10","",""
"null","298909","pSARL_v2","pSARL_v2fny0rket","63d2eec88a81e2462be70762","freq_resp","img/green_2bandit_b.png","70","70","test","","","","10","",""
"null","299082","pSARL_v2","pSARL_v2fny0rket","63d2eec88a81e2462be70762","fixation","img/fixation.png","null","","test","","","","","",""
"221.40000000596046","299315","pSARL_v2","pSARL_v2fny0rket","63d2eec88a81e2462be70762","infreq","img/orange_2bandit_b2.png","70","68","test","0","206","206","10","",""
"null","299916","pSARL_v2","pSARL_v2fny0rket","63d2eec88a81e2462be70762","infreq_resp","img/orange_2bandit_b.png","70","68","test","","","","10","",""
"null","300091","pSARL_v2","pSARL_v2fny0rket","63d2eec88a81e2462be70762","fixation","img/fixation.png","null","","test","","","","","",""
"69.69999998807907","300173","pSARL_v2","pSARL_v2fny0rket","63d2eec88a81e2462be70762","freq","img/green_2bandit_b2.png","70","70","test","1","207","207","10","",""
"null","300928","pSARL_v2","pSARL_v2fny0rket","63d2eec88a81e2462be70762","freq_resp","img/green_2bandit_b.png","70","70","test","","","","10","",""
"null","301101","pSARL_v2","pSARL_v2fny0rket","63d2eec88a81e2462be70762","fixation","img/fixation.png","null","","test","","","","","",""
"null","301922","pSARL_v2","pSARL_v2fny0rket","63d2eec88a81e2462be70762","infreq","img/orange_2bandit_b2.png","null","68","test","0","208","208","10","",""
"null","302095","pSARL_v2","pSARL_v2fny0rket","63d2eec88a81e2462be70762","fixation","img/fixation.png","null","","test","","","","","",""
"689.4000000059605","302796","pSARL_v2","pSARL_v2fny0rket","63d2eec88a81e2462be70762","freq","img/green_2bandit_b2.png","70","70","test","1","209","209","10","",""
"null","302929","pSARL_v2","pSARL_v2fny0rket","63d2eec88a81e2462be70762","freq_resp","img/green_2bandit_b.png","70","70","test","","","","10","",""
"null","303103","pSARL_v2","pSARL_v2fny0rket","63d2eec88a81e2462be70762","fixation","img/fixation.png","null","","test","","","","","",""
"442.10000002384186","303557","pSARL_v2","pSARL_v2fny0rket","63d2eec88a81e2462be70762","freq","img/green_2bandit_b2.png","70","70","test","1","210","210","10","",""
