"rt","time_elapsed","expId","subject","prolificID","trialType","stimulus","key_press","corrresp","phase","corr","trialNum","attentionRunNum","blockNum","points","rlNum"
"89056.5","89076","pSARL_v2","pSARL_v24ktdpwur","60147144ea1597492e5c6698","","","","","","","","","","",""
"","92130","pSARL_v2","pSARL_v24ktdpwur","60147144ea1597492e5c6698","fullscreen","","","","","","","","","",""
"255780.89999997616","347928","pSARL_v2","pSARL_v24ktdpwur","60147144ea1597492e5c6698","","","","","","","","","","",""
"null","348770","pSARL_v2","pSARL_v24ktdpwur","60147144ea1597492e5c6698","freqPrac","img/orange_2bandit_b2.png","null","70","prac","0","","","","",""
"null","349798","pSARL_v2","pSARL_v24ktdpwur","60147144ea1597492e5c6698","feedback","img/tooSlow.png","null","na","prac","","","","","",""
"null","349966","pSARL_v2","pSARL_v24ktdpwur","60147144ea1597492e5c6698","fixation","img/fixation.png","null","","prac","","","","","",""
"null","350790","pSARL_v2","pSARL_v24ktdpwur","60147144ea1597492e5c6698","infreqPrac","img/green_2bandit_b2.png","null","68","prac","0","","","","",""
"null","351810","pSARL_v2","pSARL_v24ktdpwur","60147144ea1597492e5c6698","feedback","img/tooSlow.png","null","na","prac","","","","","",""
"null","351982","pSARL_v2","pSARL_v24ktdpwur","60147144ea1597492e5c6698","fixation","img/fixation.png","null","","prac","","","","","",""
"493.89999997615814","352483","pSARL_v2","pSARL_v24ktdpwur","60147144ea1597492e5c6698","freqPrac","img/orange_2bandit_b2.png","68","70","prac","0","","","","",""
"493.89999997615814","352800","pSARL_v2","pSARL_v24ktdpwur","60147144ea1597492e5c6698","freqPrac_resp","img/orange_2bandit_b.png","68","70","prac","","","","","",""
"null","353816","pSARL_v2","pSARL_v24ktdpwur","60147144ea1597492e5c6698","feedback","img/wrongKey.png","null","na","prac","","","","","",""
"null","353982","pSARL_v2","pSARL_v24ktdpwur","60147144ea1597492e5c6698","fixation","img/fixation.png","null","","prac","","","","","",""
"null","354800","pSARL_v2","pSARL_v24ktdpwur","60147144ea1597492e5c6698","infreqPrac","img/green_2bandit_b2.png","null","68","prac","0","","","","",""
"null","355818","pSARL_v2","pSARL_v24ktdpwur","60147144ea1597492e5c6698","feedback","img/tooSlow.png","null","na","prac","","","","","",""
"null","355994","pSARL_v2","pSARL_v24ktdpwur","60147144ea1597492e5c6698","fixation","img/fixation.png","null","","prac","","","","","",""
"584","356584","pSARL_v2","pSARL_v24ktdpwur","60147144ea1597492e5c6698","infreqPrac","img/green_2bandit_b2.png","70","68","prac","0","","","","",""
"584","356817","pSARL_v2","pSARL_v24ktdpwur","60147144ea1597492e5c6698","infreqPrac_resp","img/green_2bandit_b.png","70","68","prac","","","","","",""
"null","357831","pSARL_v2","pSARL_v24ktdpwur","60147144ea1597492e5c6698","feedback","img/wrongKey.png","null","na","prac","","","","","",""
"null","357999","pSARL_v2","pSARL_v24ktdpwur","60147144ea1597492e5c6698","fixation","img/fixation.png","null","","prac","","","","","",""
"483.5","358494","pSARL_v2","pSARL_v24ktdpwur","60147144ea1597492e5c6698","infreqPrac","img/green_2bandit_b2.png","70","68","prac","0","","","","",""
"483.5","358838","pSARL_v2","pSARL_v24ktdpwur","60147144ea1597492e5c6698","infreqPrac_resp","img/green_2bandit_b.png","70","68","prac","","","","","",""
"null","359860","pSARL_v2","pSARL_v24ktdpwur","60147144ea1597492e5c6698","feedback","img/wrongKey.png","null","na","prac","","","","","",""
"null","360033","pSARL_v2","pSARL_v24ktdpwur","60147144ea1597492e5c6698","fixation","img/fixation.png","null","","prac","","","","","",""
"707.0999999642372","360749","pSARL_v2","pSARL_v24ktdpwur","60147144ea1597492e5c6698","freqPrac","img/orange_2bandit_b2.png","70","70","prac","1","","","","",""
"707.0999999642372","360848","pSARL_v2","pSARL_v24ktdpwur","60147144ea1597492e5c6698","freqPrac_resp","img/orange_2bandit_b.png","70","70","prac","","","","","",""
"null","361021","pSARL_v2","pSARL_v24ktdpwur","60147144ea1597492e5c6698","fixation","img/fixation.png","null","","prac","","","","","",""
"780.8000000119209","361816","pSARL_v2","pSARL_v24ktdpwur","60147144ea1597492e5c6698","infreqPrac","img/green_2bandit_b2.png","68","68","prac","1","","","","",""
"780.8000000119209","361851","pSARL_v2","pSARL_v24ktdpwur","60147144ea1597492e5c6698","infreqPrac_resp","img/green_2bandit_b.png","68","68","prac","","","","","",""
"null","362022","pSARL_v2","pSARL_v24ktdpwur","60147144ea1597492e5c6698","fixation","img/fixation.png","null","","prac","","","","","",""
"null","362853","pSARL_v2","pSARL_v24ktdpwur","60147144ea1597492e5c6698","freqPrac","img/orange_2bandit_b2.png","null","70","prac","0","","","","",""
"null","363879","pSARL_v2","pSARL_v24ktdpwur","60147144ea1597492e5c6698","feedback","img/tooSlow.png","null","na","prac","","","","","",""
"null","364048","pSARL_v2","pSARL_v24ktdpwur","60147144ea1597492e5c6698","fixation","img/fixation.png","null","","prac","","","","","",""
"569.5","364632","pSARL_v2","pSARL_v24ktdpwur","60147144ea1597492e5c6698","freqPrac","img/orange_2bandit_b2.png","70","70","prac","1","","","","",""
"569.5","364882","pSARL_v2","pSARL_v24ktdpwur","60147144ea1597492e5c6698","freqPrac_resp","img/orange_2bandit_b.png","70","70","prac","","","","","",""
"null","365057","pSARL_v2","pSARL_v24ktdpwur","60147144ea1597492e5c6698","fixation","img/fixation.png","null","","prac","","","","","",""
"282421","647487","pSARL_v2","pSARL_v24ktdpwur","60147144ea1597492e5c6698","","","","","prac","","","","","",""
"538.6999999880791","648038","pSARL_v2","pSARL_v24ktdpwur","60147144ea1597492e5c6698","rewardPractice","img/slot.png","74","","prac","","","","","",""
"null","648810","pSARL_v2","pSARL_v24ktdpwur","60147144ea1597492e5c6698","feedback","<div class=""veryhighPoints""> +15 </div>","null","na","prac","","","","","",""
"null","648967","pSARL_v2","pSARL_v24ktdpwur","60147144ea1597492e5c6698","fixation","img/fixation.png","null","","prac","","","","","",""
"106405.30000001192","755390","pSARL_v2","pSARL_v24ktdpwur","60147144ea1597492e5c6698","","","","","prac","","","","","",""
"null","756217","pSARL_v2","pSARL_v24ktdpwur","60147144ea1597492e5c6698","freq","img/orange_2bandit_b2.png","null","70","test","0","1","1","1","",""
"null","756389","pSARL_v2","pSARL_v24ktdpwur","60147144ea1597492e5c6698","fixation","img/fixation.png","null","","test","","","","","",""
"null","757202","pSARL_v2","pSARL_v24ktdpwur","60147144ea1597492e5c6698","freq","img/orange_2bandit_b2.png","null","70","test","0","2","2","1","",""
"null","757358","pSARL_v2","pSARL_v24ktdpwur","60147144ea1597492e5c6698","fixation","img/fixation.png","null","","test","","","","","",""
"573.6000000238419","757937","pSARL_v2","pSARL_v24ktdpwur","60147144ea1597492e5c6698","infreq","img/green_2bandit_b2.png","68","68","test","1","3","3","1","",""
"null","758175","pSARL_v2","pSARL_v24ktdpwur","60147144ea1597492e5c6698","infreq_resp","img/green_2bandit_b.png","68","68","test","","","","1","",""
"null","758331","pSARL_v2","pSARL_v24ktdpwur","60147144ea1597492e5c6698","fixation","img/fixation.png","null","","test","","","","","",""
"607.9000000357628","758943","pSARL_v2","pSARL_v24ktdpwur","60147144ea1597492e5c6698","freq","img/orange_2bandit_b2.png","70","70","test","1","4","4","1","",""
"null","759141","pSARL_v2","pSARL_v24ktdpwur","60147144ea1597492e5c6698","freq_resp","img/orange_2bandit_b.png","70","70","test","","","","1","",""
"null","759301","pSARL_v2","pSARL_v24ktdpwur","60147144ea1597492e5c6698","fixation","img/fixation.png","null","","test","","","","","",""
"366.39999997615814","759673","pSARL_v2","pSARL_v24ktdpwur","60147144ea1597492e5c6698","freq","img/orange_2bandit_b2.png","70","70","test","1","5","5","1","",""
"null","760123","pSARL_v2","pSARL_v24ktdpwur","60147144ea1597492e5c6698","freq_resp","img/orange_2bandit_b.png","70","70","test","","","","1","",""
"null","760294","pSARL_v2","pSARL_v24ktdpwur","60147144ea1597492e5c6698","fixation","img/fixation.png","null","","test","","","","","",""
"405.89999997615814","760706","pSARL_v2","pSARL_v24ktdpwur","60147144ea1597492e5c6698","freq","img/orange_2bandit_b2.png","70","70","test","1","6","6","1","",""
"null","761126","pSARL_v2","pSARL_v24ktdpwur","60147144ea1597492e5c6698","freq_resp","img/orange_2bandit_b.png","70","70","test","","","","1","",""
"null","761296","pSARL_v2","pSARL_v24ktdpwur","60147144ea1597492e5c6698","fixation","img/fixation.png","null","","test","","","","","",""
"411.0999999642372","761712","pSARL_v2","pSARL_v24ktdpwur","60147144ea1597492e5c6698","infreq","img/green_2bandit_b2.png","68","68","test","1","7","7","1","",""
"null","762113","pSARL_v2","pSARL_v24ktdpwur","60147144ea1597492e5c6698","infreq_resp","img/green_2bandit_b.png","68","68","test","","","","1","",""
"null","762289","pSARL_v2","pSARL_v24ktdpwur","60147144ea1597492e5c6698","fixation","img/fixation.png","null","","test","","","","","",""
"538.3999999761581","762838","pSARL_v2","pSARL_v24ktdpwur","60147144ea1597492e5c6698","freq","img/orange_2bandit_b2.png","70","70","test","1","8","8","1","",""
"null","763121","pSARL_v2","pSARL_v24ktdpwur","60147144ea1597492e5c6698","freq_resp","img/orange_2bandit_b.png","70","70","test","","","","1","",""
"null","763276","pSARL_v2","pSARL_v24ktdpwur","60147144ea1597492e5c6698","fixation","img/fixation.png","null","","test","","","","","",""
"400.5","763685","pSARL_v2","pSARL_v24ktdpwur","60147144ea1597492e5c6698","freq","img/orange_2bandit_b2.png","70","70","test","1","9","9","1","",""
"null","764106","pSARL_v2","pSARL_v24ktdpwur","60147144ea1597492e5c6698","freq_resp","img/orange_2bandit_b.png","70","70","test","","","","1","",""
"null","764272","pSARL_v2","pSARL_v24ktdpwur","60147144ea1597492e5c6698","fixation","img/fixation.png","null","","test","","","","","",""
"364.0999999642372","764640","pSARL_v2","pSARL_v24ktdpwur","60147144ea1597492e5c6698","freq","img/orange_2bandit_b2.png","70","70","test","1","10","10","1","",""
"null","765090","pSARL_v2","pSARL_v24ktdpwur","60147144ea1597492e5c6698","freq_resp","img/orange_2bandit_b.png","70","70","test","","","","1","",""
"null","765266","pSARL_v2","pSARL_v24ktdpwur","60147144ea1597492e5c6698","fixation","img/fixation.png","null","","test","","","","","",""
"394.69999998807907","765671","pSARL_v2","pSARL_v24ktdpwur","60147144ea1597492e5c6698","freq","img/orange_2bandit_b2.png","70","70","test","1","11","11","1","",""
"null","766087","pSARL_v2","pSARL_v24ktdpwur","60147144ea1597492e5c6698","freq_resp","img/orange_2bandit_b.png","70","70","test","","","","1","",""
"null","766249","pSARL_v2","pSARL_v24ktdpwur","60147144ea1597492e5c6698","fixation","img/fixation.png","null","","test","","","","","",""
"337.0999999642372","766591","pSARL_v2","pSARL_v24ktdpwur","60147144ea1597492e5c6698","freq","img/orange_2bandit_b2.png","70","70","test","1","12","12","1","",""
"null","767066","pSARL_v2","pSARL_v24ktdpwur","60147144ea1597492e5c6698","freq_resp","img/orange_2bandit_b.png","70","70","test","","","","1","",""
"null","767236","pSARL_v2","pSARL_v24ktdpwur","60147144ea1597492e5c6698","fixation","img/fixation.png","null","","test","","","","","",""
"376","767617","pSARL_v2","pSARL_v24ktdpwur","60147144ea1597492e5c6698","freq","img/orange_2bandit_b2.png","70","70","test","1","13","13","1","",""
"null","768058","pSARL_v2","pSARL_v24ktdpwur","60147144ea1597492e5c6698","freq_resp","img/orange_2bandit_b.png","70","70","test","","","","1","",""
"null","768228","pSARL_v2","pSARL_v24ktdpwur","60147144ea1597492e5c6698","fixation","img/fixation.png","null","","test","","","","","",""
"295.30000001192093","768527","pSARL_v2","pSARL_v24ktdpwur","60147144ea1597492e5c6698","freq","img/orange_2bandit_b2.png","70","70","test","1","14","14","1","",""
"null","769045","pSARL_v2","pSARL_v24ktdpwur","60147144ea1597492e5c6698","freq_resp","img/orange_2bandit_b.png","70","70","test","","","","1","",""
"null","769212","pSARL_v2","pSARL_v24ktdpwur","60147144ea1597492e5c6698","fixation","img/fixation.png","null","","test","","","","","",""
"383","769601","pSARL_v2","pSARL_v24ktdpwur","60147144ea1597492e5c6698","freq","img/orange_2bandit_b2.png","70","70","test","1","15","15","1","",""
"null","770029","pSARL_v2","pSARL_v24ktdpwur","60147144ea1597492e5c6698","freq_resp","img/orange_2bandit_b.png","70","70","test","","","","1","",""
"null","770186","pSARL_v2","pSARL_v24ktdpwur","60147144ea1597492e5c6698","fixation","img/fixation.png","null","","test","","","","","",""
"297.30000001192093","770487","pSARL_v2","pSARL_v24ktdpwur","60147144ea1597492e5c6698","freq","img/orange_2bandit_b2.png","70","70","test","1","16","16","1","",""
"null","770998","pSARL_v2","pSARL_v24ktdpwur","60147144ea1597492e5c6698","freq_resp","img/orange_2bandit_b.png","70","70","test","","","","1","",""
"null","771156","pSARL_v2","pSARL_v24ktdpwur","60147144ea1597492e5c6698","fixation","img/fixation.png","null","","test","","","","","",""
"383","771543","pSARL_v2","pSARL_v24ktdpwur","60147144ea1597492e5c6698","infreq","img/green_2bandit_b2.png","68","68","test","1","17","17","1","",""
"null","771974","pSARL_v2","pSARL_v24ktdpwur","60147144ea1597492e5c6698","infreq_resp","img/green_2bandit_b.png","68","68","test","","","","1","",""
"null","772144","pSARL_v2","pSARL_v24ktdpwur","60147144ea1597492e5c6698","fixation","img/fixation.png","null","","test","","","","","",""
"408","772556","pSARL_v2","pSARL_v24ktdpwur","60147144ea1597492e5c6698","freq","img/orange_2bandit_b2.png","70","70","test","1","18","18","1","",""
"null","772958","pSARL_v2","pSARL_v24ktdpwur","60147144ea1597492e5c6698","freq_resp","img/orange_2bandit_b.png","70","70","test","","","","1","",""
"null","773127","pSARL_v2","pSARL_v24ktdpwur","60147144ea1597492e5c6698","fixation","img/fixation.png","null","","test","","","","","",""
"309.5","773443","pSARL_v2","pSARL_v24ktdpwur","60147144ea1597492e5c6698","freq","img/orange_2bandit_b2.png","70","70","test","1","19","19","1","",""
"null","773947","pSARL_v2","pSARL_v24ktdpwur","60147144ea1597492e5c6698","freq_resp","img/orange_2bandit_b.png","70","70","test","","","","1","",""
"null","774102","pSARL_v2","pSARL_v24ktdpwur","60147144ea1597492e5c6698","fixation","img/fixation.png","null","","test","","","","","",""
"295.30000001192093","774407","pSARL_v2","pSARL_v24ktdpwur","60147144ea1597492e5c6698","freq","img/orange_2bandit_b2.png","70","70","test","1","20","20","1","",""
"null","774930","pSARL_v2","pSARL_v24ktdpwur","60147144ea1597492e5c6698","freq_resp","img/orange_2bandit_b.png","70","70","test","","","","1","",""
"null","775088","pSARL_v2","pSARL_v24ktdpwur","60147144ea1597492e5c6698","fixation","img/fixation.png","null","","test","","","","","",""
"555.6000000238419","775648","pSARL_v2","pSARL_v24ktdpwur","60147144ea1597492e5c6698","reward","img/slot.png","74","","test","","","","","",""
"null","776417","pSARL_v2","pSARL_v24ktdpwur","60147144ea1597492e5c6698","points","<div class=""verylowPoints""> -6 </div>","null","na","test","","","","1","-6","0"
"626.9000000357628","777051","pSARL_v2","pSARL_v24ktdpwur","60147144ea1597492e5c6698","freq","img/orange_2bandit_b2.png","70","70","test","1","21","21","2","",""
"null","777231","pSARL_v2","pSARL_v24ktdpwur","60147144ea1597492e5c6698","freq_resp","img/orange_2bandit_b.png","70","70","test","","","","2","",""
"null","777399","pSARL_v2","pSARL_v24ktdpwur","60147144ea1597492e5c6698","fixation","img/fixation.png","null","","test","","","","","",""
"356.39999997615814","777760","pSARL_v2","pSARL_v24ktdpwur","60147144ea1597492e5c6698","freq","img/orange_2bandit_b2.png","70","70","test","1","22","22","2","",""
"null","778215","pSARL_v2","pSARL_v24ktdpwur","60147144ea1597492e5c6698","freq_resp","img/orange_2bandit_b.png","70","70","test","","","","2","",""
"null","778371","pSARL_v2","pSARL_v24ktdpwur","60147144ea1597492e5c6698","fixation","img/fixation.png","null","","test","","","","","",""
"312.80000001192093","778690","pSARL_v2","pSARL_v24ktdpwur","60147144ea1597492e5c6698","freq","img/orange_2bandit_b2.png","70","70","test","1","23","23","2","",""
"null","779187","pSARL_v2","pSARL_v24ktdpwur","60147144ea1597492e5c6698","freq_resp","img/orange_2bandit_b.png","70","70","test","","","","2","",""
"null","779357","pSARL_v2","pSARL_v24ktdpwur","60147144ea1597492e5c6698","fixation","img/fixation.png","null","","test","","","","","",""
"326","779687","pSARL_v2","pSARL_v24ktdpwur","60147144ea1597492e5c6698","freq","img/orange_2bandit_b2.png","70","70","test","1","24","24","2","",""
"null","780175","pSARL_v2","pSARL_v24ktdpwur","60147144ea1597492e5c6698","freq_resp","img/orange_2bandit_b.png","70","70","test","","","","2","",""
"null","780348","pSARL_v2","pSARL_v24ktdpwur","60147144ea1597492e5c6698","fixation","img/fixation.png","null","","test","","","","","",""
"247","780600","pSARL_v2","pSARL_v24ktdpwur","60147144ea1597492e5c6698","freq","img/orange_2bandit_b2.png","70","70","test","1","25","25","2","",""
"null","781162","pSARL_v2","pSARL_v24ktdpwur","60147144ea1597492e5c6698","freq_resp","img/orange_2bandit_b.png","70","70","test","","","","2","",""
"null","781338","pSARL_v2","pSARL_v24ktdpwur","60147144ea1597492e5c6698","fixation","img/fixation.png","null","","test","","","","","",""
"305.5","781653","pSARL_v2","pSARL_v24ktdpwur","60147144ea1597492e5c6698","freq","img/orange_2bandit_b2.png","70","70","test","1","26","26","2","",""
"null","782161","pSARL_v2","pSARL_v24ktdpwur","60147144ea1597492e5c6698","freq_resp","img/orange_2bandit_b.png","70","70","test","","","","2","",""
"null","782332","pSARL_v2","pSARL_v24ktdpwur","60147144ea1597492e5c6698","fixation","img/fixation.png","null","","test","","","","","",""
"286.60000002384186","782624","pSARL_v2","pSARL_v24ktdpwur","60147144ea1597492e5c6698","freq","img/orange_2bandit_b2.png","70","70","test","1","27","27","2","",""
"null","783160","pSARL_v2","pSARL_v24ktdpwur","60147144ea1597492e5c6698","freq_resp","img/orange_2bandit_b.png","70","70","test","","","","2","",""
"null","783332","pSARL_v2","pSARL_v24ktdpwur","60147144ea1597492e5c6698","fixation","img/fixation.png","null","","test","","","","","",""
"null","784143","pSARL_v2","pSARL_v24ktdpwur","60147144ea1597492e5c6698","infreq","img/green_2bandit_b2.png","null","68","test","0","28","28","2","",""
"null","784312","pSARL_v2","pSARL_v24ktdpwur","60147144ea1597492e5c6698","fixation","img/fixation.png","null","","test","","","","","",""
"470.69999998807907","784791","pSARL_v2","pSARL_v24ktdpwur","60147144ea1597492e5c6698","infreq","img/green_2bandit_b2.png","68","68","test","1","29","29","2","",""
"null","785125","pSARL_v2","pSARL_v24ktdpwur","60147144ea1597492e5c6698","infreq_resp","img/green_2bandit_b.png","68","68","test","","","","2","",""
"null","785284","pSARL_v2","pSARL_v24ktdpwur","60147144ea1597492e5c6698","fixation","img/fixation.png","null","","test","","","","","",""
"624.5","785914","pSARL_v2","pSARL_v24ktdpwur","60147144ea1597492e5c6698","freq","img/orange_2bandit_b2.png","70","70","test","1","30","30","2","",""
"null","786096","pSARL_v2","pSARL_v24ktdpwur","60147144ea1597492e5c6698","freq_resp","img/orange_2bandit_b.png","70","70","test","","","","2","",""
"null","786252","pSARL_v2","pSARL_v24ktdpwur","60147144ea1597492e5c6698","fixation","img/fixation.png","null","","test","","","","","",""
"806.4000000357628","787066","pSARL_v2","pSARL_v24ktdpwur","60147144ea1597492e5c6698","infreq","img/green_2bandit_b2.png","68","68","test","1","31","31","2","",""
"null","787228","pSARL_v2","pSARL_v24ktdpwur","60147144ea1597492e5c6698","fixation","img/fixation.png","null","","test","","","","","",""
"583","787816","pSARL_v2","pSARL_v24ktdpwur","60147144ea1597492e5c6698","freq","img/orange_2bandit_b2.png","70","70","test","1","32","32","2","",""
"null","788038","pSARL_v2","pSARL_v24ktdpwur","60147144ea1597492e5c6698","freq_resp","img/orange_2bandit_b.png","70","70","test","","","","2","",""
"null","788193","pSARL_v2","pSARL_v24ktdpwur","60147144ea1597492e5c6698","fixation","img/fixation.png","null","","test","","","","","",""
"371.19999998807907","788569","pSARL_v2","pSARL_v24ktdpwur","60147144ea1597492e5c6698","freq","img/orange_2bandit_b2.png","70","70","test","1","33","33","2","",""
"null","789012","pSARL_v2","pSARL_v24ktdpwur","60147144ea1597492e5c6698","freq_resp","img/orange_2bandit_b.png","70","70","test","","","","2","",""
"null","789183","pSARL_v2","pSARL_v24ktdpwur","60147144ea1597492e5c6698","fixation","img/fixation.png","null","","test","","","","","",""
"317.5","789506","pSARL_v2","pSARL_v24ktdpwur","60147144ea1597492e5c6698","freq","img/orange_2bandit_b2.png","70","70","test","1","34","34","2","",""
"null","790000","pSARL_v2","pSARL_v24ktdpwur","60147144ea1597492e5c6698","freq_resp","img/orange_2bandit_b.png","70","70","test","","","","2","",""
"null","790161","pSARL_v2","pSARL_v24ktdpwur","60147144ea1597492e5c6698","fixation","img/fixation.png","null","","test","","","","","",""
"297.80000001192093","790465","pSARL_v2","pSARL_v24ktdpwur","60147144ea1597492e5c6698","freq","img/orange_2bandit_b2.png","70","70","test","1","35","35","2","",""
"null","790984","pSARL_v2","pSARL_v24ktdpwur","60147144ea1597492e5c6698","freq_resp","img/orange_2bandit_b.png","70","70","test","","","","2","",""
"null","791159","pSARL_v2","pSARL_v24ktdpwur","60147144ea1597492e5c6698","fixation","img/fixation.png","null","","test","","","","","",""
"309.69999998807907","791479","pSARL_v2","pSARL_v24ktdpwur","60147144ea1597492e5c6698","freq","img/orange_2bandit_b2.png","70","70","test","1","36","36","2","",""
"null","791989","pSARL_v2","pSARL_v24ktdpwur","60147144ea1597492e5c6698","freq_resp","img/orange_2bandit_b.png","70","70","test","","","","2","",""
"null","792151","pSARL_v2","pSARL_v24ktdpwur","60147144ea1597492e5c6698","fixation","img/fixation.png","null","","test","","","","","",""
"293.89999997615814","792455","pSARL_v2","pSARL_v24ktdpwur","60147144ea1597492e5c6698","freq","img/orange_2bandit_b2.png","70","70","test","1","37","37","2","",""
"null","792979","pSARL_v2","pSARL_v24ktdpwur","60147144ea1597492e5c6698","freq_resp","img/orange_2bandit_b.png","70","70","test","","","","2","",""
"null","793148","pSARL_v2","pSARL_v24ktdpwur","60147144ea1597492e5c6698","fixation","img/fixation.png","null","","test","","","","","",""
"321.69999998807907","793479","pSARL_v2","pSARL_v24ktdpwur","60147144ea1597492e5c6698","freq","img/orange_2bandit_b2.png","70","70","test","1","38","38","2","",""
"null","793976","pSARL_v2","pSARL_v24ktdpwur","60147144ea1597492e5c6698","freq_resp","img/orange_2bandit_b.png","70","70","test","","","","2","",""
"null","794145","pSARL_v2","pSARL_v24ktdpwur","60147144ea1597492e5c6698","fixation","img/fixation.png","null","","test","","","","","",""
"300","794456","pSARL_v2","pSARL_v24ktdpwur","60147144ea1597492e5c6698","freq","img/orange_2bandit_b2.png","70","70","test","1","39","39","2","",""
"null","794973","pSARL_v2","pSARL_v24ktdpwur","60147144ea1597492e5c6698","freq_resp","img/orange_2bandit_b.png","70","70","test","","","","2","",""
"null","795145","pSARL_v2","pSARL_v24ktdpwur","60147144ea1597492e5c6698","fixation","img/fixation.png","null","","test","","","","","",""
"326","795481","pSARL_v2","pSARL_v24ktdpwur","60147144ea1597492e5c6698","freq","img/orange_2bandit_b2.png","70","70","test","1","40","40","2","",""
"null","795973","pSARL_v2","pSARL_v24ktdpwur","60147144ea1597492e5c6698","freq_resp","img/orange_2bandit_b.png","70","70","test","","","","2","",""
"null","796140","pSARL_v2","pSARL_v24ktdpwur","60147144ea1597492e5c6698","fixation","img/fixation.png","null","","test","","","","","",""
"298","796444","pSARL_v2","pSARL_v24ktdpwur","60147144ea1597492e5c6698","freq","img/orange_2bandit_b2.png","70","70","test","1","41","41","2","",""
"null","796952","pSARL_v2","pSARL_v24ktdpwur","60147144ea1597492e5c6698","freq_resp","img/orange_2bandit_b.png","70","70","test","","","","2","",""
"null","797112","pSARL_v2","pSARL_v24ktdpwur","60147144ea1597492e5c6698","fixation","img/fixation.png","null","","test","","","","","",""
"306","797423","pSARL_v2","pSARL_v24ktdpwur","60147144ea1597492e5c6698","freq","img/orange_2bandit_b2.png","70","70","test","1","42","42","2","",""
"null","797951","pSARL_v2","pSARL_v24ktdpwur","60147144ea1597492e5c6698","freq_resp","img/orange_2bandit_b.png","70","70","test","","","","2","",""
"null","798107","pSARL_v2","pSARL_v24ktdpwur","60147144ea1597492e5c6698","fixation","img/fixation.png","null","","test","","","","","",""
"547.5","798664","pSARL_v2","pSARL_v24ktdpwur","60147144ea1597492e5c6698","reward","img/slot.png","74","","test","","","","","",""
"null","799430","pSARL_v2","pSARL_v24ktdpwur","60147144ea1597492e5c6698","points","<div class=""verylowPoints""> -11 </div>","null","na","test","","","","2","-11","1"
"null","800236","pSARL_v2","pSARL_v24ktdpwur","60147144ea1597492e5c6698","freq","img/orange_2bandit_b2.png","null","70","test","0","43","43","3","",""
"null","800396","pSARL_v2","pSARL_v24ktdpwur","60147144ea1597492e5c6698","fixation","img/fixation.png","null","","test","","","","","",""
"174.19999998807907","800575","pSARL_v2","pSARL_v24ktdpwur","60147144ea1597492e5c6698","freq","img/orange_2bandit_b2.png","70","70","test","1","44","44","3","",""
"null","801217","pSARL_v2","pSARL_v24ktdpwur","60147144ea1597492e5c6698","freq_resp","img/orange_2bandit_b.png","70","70","test","","","","3","",""
"null","801385","pSARL_v2","pSARL_v24ktdpwur","60147144ea1597492e5c6698","fixation","img/fixation.png","null","","test","","","","","",""
"11.199999988079071","801401","pSARL_v2","pSARL_v24ktdpwur","60147144ea1597492e5c6698","freq","img/orange_2bandit_b2.png","70","70","test","1","45","45","3","",""
"null","802197","pSARL_v2","pSARL_v24ktdpwur","60147144ea1597492e5c6698","freq_resp","img/orange_2bandit_b.png","70","70","test","","","","3","",""
"null","802359","pSARL_v2","pSARL_v24ktdpwur","60147144ea1597492e5c6698","fixation","img/fixation.png","null","","test","","","","","",""
"275.69999998807907","802639","pSARL_v2","pSARL_v24ktdpwur","60147144ea1597492e5c6698","freq","img/orange_2bandit_b2.png","70","70","test","1","46","46","3","",""
"null","803175","pSARL_v2","pSARL_v24ktdpwur","60147144ea1597492e5c6698","freq_resp","img/orange_2bandit_b.png","70","70","test","","","","3","",""
"null","803344","pSARL_v2","pSARL_v24ktdpwur","60147144ea1597492e5c6698","fixation","img/fixation.png","null","","test","","","","","",""
"188.60000002384186","803541","pSARL_v2","pSARL_v24ktdpwur","60147144ea1597492e5c6698","freq","img/orange_2bandit_b2.png","70","70","test","1","47","47","3","",""
"null","804164","pSARL_v2","pSARL_v24ktdpwur","60147144ea1597492e5c6698","freq_resp","img/orange_2bandit_b.png","70","70","test","","","","3","",""
"null","804332","pSARL_v2","pSARL_v24ktdpwur","60147144ea1597492e5c6698","fixation","img/fixation.png","null","","test","","","","","",""
"209.5","804553","pSARL_v2","pSARL_v24ktdpwur","60147144ea1597492e5c6698","infreq","img/green_2bandit_b2.png","70","68","test","0","48","48","3","",""
"null","805166","pSARL_v2","pSARL_v24ktdpwur","60147144ea1597492e5c6698","infreq_resp","img/green_2bandit_b.png","70","68","test","","","","3","",""
"null","805338","pSARL_v2","pSARL_v24ktdpwur","60147144ea1597492e5c6698","fixation","img/fixation.png","null","","test","","","","","",""
"488.7000000476837","805833","pSARL_v2","pSARL_v24ktdpwur","60147144ea1597492e5c6698","freq","img/orange_2bandit_b2.png","70","70","test","1","49","49","3","",""
"null","806164","pSARL_v2","pSARL_v24ktdpwur","60147144ea1597492e5c6698","freq_resp","img/orange_2bandit_b.png","70","70","test","","","","3","",""
"null","806322","pSARL_v2","pSARL_v24ktdpwur","60147144ea1597492e5c6698","fixation","img/fixation.png","null","","test","","","","","",""
"299.19999998807907","806630","pSARL_v2","pSARL_v24ktdpwur","60147144ea1597492e5c6698","infreq","img/green_2bandit_b2.png","70","68","test","0","50","50","3","",""
"null","807140","pSARL_v2","pSARL_v24ktdpwur","60147144ea1597492e5c6698","infreq_resp","img/green_2bandit_b.png","70","68","test","","","","3","",""
"null","807302","pSARL_v2","pSARL_v24ktdpwur","60147144ea1597492e5c6698","fixation","img/fixation.png","null","","test","","","","","",""
"390.69999998807907","807704","pSARL_v2","pSARL_v24ktdpwur","60147144ea1597492e5c6698","freq","img/orange_2bandit_b2.png","70","70","test","1","51","51","3","",""
"null","808135","pSARL_v2","pSARL_v24ktdpwur","60147144ea1597492e5c6698","freq_resp","img/orange_2bandit_b.png","70","70","test","","","","3","",""
"null","808306","pSARL_v2","pSARL_v24ktdpwur","60147144ea1597492e5c6698","fixation","img/fixation.png","null","","test","","","","","",""
"459.4000000357628","808771","pSARL_v2","pSARL_v24ktdpwur","60147144ea1597492e5c6698","freq","img/orange_2bandit_b2.png","70","70","test","1","52","52","3","",""
"null","809124","pSARL_v2","pSARL_v24ktdpwur","60147144ea1597492e5c6698","freq_resp","img/orange_2bandit_b.png","70","70","test","","","","3","",""
"null","809297","pSARL_v2","pSARL_v24ktdpwur","60147144ea1597492e5c6698","fixation","img/fixation.png","null","","test","","","","","",""
"402.0999999642372","809707","pSARL_v2","pSARL_v24ktdpwur","60147144ea1597492e5c6698","freq","img/orange_2bandit_b2.png","70","70","test","1","53","53","3","",""
"null","810125","pSARL_v2","pSARL_v24ktdpwur","60147144ea1597492e5c6698","freq_resp","img/orange_2bandit_b.png","70","70","test","","","","3","",""
"null","810297","pSARL_v2","pSARL_v24ktdpwur","60147144ea1597492e5c6698","fixation","img/fixation.png","null","","test","","","","","",""
"499.5999999642372","810807","pSARL_v2","pSARL_v24ktdpwur","60147144ea1597492e5c6698","freq","img/orange_2bandit_b2.png","70","70","test","1","54","54","3","",""
"null","811121","pSARL_v2","pSARL_v24ktdpwur","60147144ea1597492e5c6698","freq_resp","img/orange_2bandit_b.png","70","70","test","","","","3","",""
"null","811284","pSARL_v2","pSARL_v24ktdpwur","60147144ea1597492e5c6698","fixation","img/fixation.png","null","","test","","","","","",""
"497","811787","pSARL_v2","pSARL_v24ktdpwur","60147144ea1597492e5c6698","freq","img/orange_2bandit_b2.png","70","70","test","1","55","55","3","",""
"null","812109","pSARL_v2","pSARL_v24ktdpwur","60147144ea1597492e5c6698","freq_resp","img/orange_2bandit_b.png","70","70","test","","","","3","",""
"null","812281","pSARL_v2","pSARL_v24ktdpwur","60147144ea1597492e5c6698","fixation","img/fixation.png","null","","test","","","","","",""
"794.6999999880791","813080","pSARL_v2","pSARL_v24ktdpwur","60147144ea1597492e5c6698","freq","img/orange_2bandit_b2.png","70","70","test","1","56","56","3","",""
"null","813091","pSARL_v2","pSARL_v24ktdpwur","60147144ea1597492e5c6698","freq_resp","img/orange_2bandit_b.png","70","70","test","","","","3","",""
"null","813253","pSARL_v2","pSARL_v24ktdpwur","60147144ea1597492e5c6698","fixation","img/fixation.png","null","","test","","","","","",""
"647.3999999761581","813911","pSARL_v2","pSARL_v24ktdpwur","60147144ea1597492e5c6698","freq","img/orange_2bandit_b2.png","70","70","test","1","57","57","3","",""
"null","814081","pSARL_v2","pSARL_v24ktdpwur","60147144ea1597492e5c6698","freq_resp","img/orange_2bandit_b.png","70","70","test","","","","3","",""
"null","814237","pSARL_v2","pSARL_v24ktdpwur","60147144ea1597492e5c6698","fixation","img/fixation.png","null","","test","","","","","",""
"null","815057","pSARL_v2","pSARL_v24ktdpwur","60147144ea1597492e5c6698","freq","img/orange_2bandit_b2.png","null","70","test","0","58","58","3","",""
"null","815218","pSARL_v2","pSARL_v24ktdpwur","60147144ea1597492e5c6698","fixation","img/fixation.png","null","","test","","","","","",""
"530.1000000238419","815759","pSARL_v2","pSARL_v24ktdpwur","60147144ea1597492e5c6698","freq","img/orange_2bandit_b2.png","70","70","test","1","59","59","3","",""
"null","816049","pSARL_v2","pSARL_v24ktdpwur","60147144ea1597492e5c6698","freq_resp","img/orange_2bandit_b.png","70","70","test","","","","3","",""
"null","816217","pSARL_v2","pSARL_v24ktdpwur","60147144ea1597492e5c6698","fixation","img/fixation.png","null","","test","","","","","",""
"420.2000000476837","816646","pSARL_v2","pSARL_v24ktdpwur","60147144ea1597492e5c6698","freq","img/orange_2bandit_b2.png","70","70","test","1","60","60","3","",""
"null","817045","pSARL_v2","pSARL_v24ktdpwur","60147144ea1597492e5c6698","freq_resp","img/orange_2bandit_b.png","70","70","test","","","","3","",""
"null","817210","pSARL_v2","pSARL_v24ktdpwur","60147144ea1597492e5c6698","fixation","img/fixation.png","null","","test","","","","","",""
"337.10000002384186","817551","pSARL_v2","pSARL_v24ktdpwur","60147144ea1597492e5c6698","freq","img/orange_2bandit_b2.png","70","70","test","1","61","61","3","",""
"null","818031","pSARL_v2","pSARL_v24ktdpwur","60147144ea1597492e5c6698","freq_resp","img/orange_2bandit_b.png","70","70","test","","","","3","",""
"null","818193","pSARL_v2","pSARL_v24ktdpwur","60147144ea1597492e5c6698","fixation","img/fixation.png","null","","test","","","","","",""
"301","818501","pSARL_v2","pSARL_v24ktdpwur","60147144ea1597492e5c6698","freq","img/orange_2bandit_b2.png","70","70","test","1","62","62","3","",""
"null","819021","pSARL_v2","pSARL_v24ktdpwur","60147144ea1597492e5c6698","freq_resp","img/orange_2bandit_b.png","70","70","test","","","","3","",""
"null","819197","pSARL_v2","pSARL_v24ktdpwur","60147144ea1597492e5c6698","fixation","img/fixation.png","null","","test","","","","","",""
"322.19999998807907","819525","pSARL_v2","pSARL_v24ktdpwur","60147144ea1597492e5c6698","freq","img/orange_2bandit_b2.png","70","70","test","1","63","63","3","",""
"null","820026","pSARL_v2","pSARL_v24ktdpwur","60147144ea1597492e5c6698","freq_resp","img/orange_2bandit_b.png","70","70","test","","","","3","",""
"null","820197","pSARL_v2","pSARL_v24ktdpwur","60147144ea1597492e5c6698","fixation","img/fixation.png","null","","test","","","","","",""
"389.19999998807907","820591","pSARL_v2","pSARL_v24ktdpwur","60147144ea1597492e5c6698","freq","img/orange_2bandit_b2.png","70","70","test","1","64","64","3","",""
"null","821019","pSARL_v2","pSARL_v24ktdpwur","60147144ea1597492e5c6698","freq_resp","img/orange_2bandit_b.png","70","70","test","","","","3","",""
"null","821187","pSARL_v2","pSARL_v24ktdpwur","60147144ea1597492e5c6698","fixation","img/fixation.png","null","","test","","","","","",""
"483","821679","pSARL_v2","pSARL_v24ktdpwur","60147144ea1597492e5c6698","freq","img/orange_2bandit_b2.png","70","70","test","1","65","65","3","",""
"null","822011","pSARL_v2","pSARL_v24ktdpwur","60147144ea1597492e5c6698","freq_resp","img/orange_2bandit_b.png","70","70","test","","","","3","",""
"null","822181","pSARL_v2","pSARL_v24ktdpwur","60147144ea1597492e5c6698","fixation","img/fixation.png","null","","test","","","","","",""
"352.0999999642372","822539","pSARL_v2","pSARL_v24ktdpwur","60147144ea1597492e5c6698","freq","img/orange_2bandit_b2.png","70","70","test","1","66","66","3","",""
"null","822998","pSARL_v2","pSARL_v24ktdpwur","60147144ea1597492e5c6698","freq_resp","img/orange_2bandit_b.png","70","70","test","","","","3","",""
"null","823167","pSARL_v2","pSARL_v24ktdpwur","60147144ea1597492e5c6698","fixation","img/fixation.png","null","","test","","","","","",""
"471.4000000357628","823649","pSARL_v2","pSARL_v24ktdpwur","60147144ea1597492e5c6698","reward","img/slot.png","74","","test","","","","","",""
"null","824419","pSARL_v2","pSARL_v24ktdpwur","60147144ea1597492e5c6698","points","<div class=""verylowPoints""> -7 </div>","null","na","test","","","","3","-7","2"
"null","825237","pSARL_v2","pSARL_v24ktdpwur","60147144ea1597492e5c6698","freq","img/orange_2bandit_b2.png","null","70","test","0","67","67","4","",""
"null","825403","pSARL_v2","pSARL_v24ktdpwur","60147144ea1597492e5c6698","fixation","img/fixation.png","null","","test","","","","","",""
"312.69999998807907","825723","pSARL_v2","pSARL_v24ktdpwur","60147144ea1597492e5c6698","freq","img/orange_2bandit_b2.png","70","70","test","1","68","68","4","",""
"null","826226","pSARL_v2","pSARL_v24ktdpwur","60147144ea1597492e5c6698","freq_resp","img/orange_2bandit_b.png","70","70","test","","","","4","",""
"null","826400","pSARL_v2","pSARL_v24ktdpwur","60147144ea1597492e5c6698","fixation","img/fixation.png","null","","test","","","","","",""
"null","827228","pSARL_v2","pSARL_v24ktdpwur","60147144ea1597492e5c6698","freq","img/orange_2bandit_b2.png","null","70","test","0","69","69","4","",""
"null","827398","pSARL_v2","pSARL_v24ktdpwur","60147144ea1597492e5c6698","fixation","img/fixation.png","null","","test","","","","","",""
"669.7999999523163","828076","pSARL_v2","pSARL_v24ktdpwur","60147144ea1597492e5c6698","infreq","img/green_2bandit_b2.png","70","68","test","0","70","70","4","",""
"null","828228","pSARL_v2","pSARL_v24ktdpwur","60147144ea1597492e5c6698","infreq_resp","img/green_2bandit_b.png","70","68","test","","","","4","",""
"null","828401","pSARL_v2","pSARL_v24ktdpwur","60147144ea1597492e5c6698","fixation","img/fixation.png","null","","test","","","","","",""
"null","829216","pSARL_v2","pSARL_v24ktdpwur","60147144ea1597492e5c6698","freq","img/orange_2bandit_b2.png","null","70","test","0","71","71","4","",""
"null","829380","pSARL_v2","pSARL_v24ktdpwur","60147144ea1597492e5c6698","fixation","img/fixation.png","null","","test","","","","","",""
"552.2000000476837","829943","pSARL_v2","pSARL_v24ktdpwur","60147144ea1597492e5c6698","freq","img/orange_2bandit_b2.png","70","70","test","1","72","72","4","",""
"null","830208","pSARL_v2","pSARL_v24ktdpwur","60147144ea1597492e5c6698","freq_resp","img/orange_2bandit_b.png","70","70","test","","","","4","",""
"null","830381","pSARL_v2","pSARL_v24ktdpwur","60147144ea1597492e5c6698","fixation","img/fixation.png","null","","test","","","","","",""
"270.19999998807907","830656","pSARL_v2","pSARL_v24ktdpwur","60147144ea1597492e5c6698","freq","img/orange_2bandit_b2.png","70","70","test","1","73","73","4","",""
"null","831200","pSARL_v2","pSARL_v24ktdpwur","60147144ea1597492e5c6698","freq_resp","img/orange_2bandit_b.png","70","70","test","","","","4","",""
"null","831361","pSARL_v2","pSARL_v24ktdpwur","60147144ea1597492e5c6698","fixation","img/fixation.png","null","","test","","","","","",""
"281.19999998807907","831648","pSARL_v2","pSARL_v24ktdpwur","60147144ea1597492e5c6698","freq","img/orange_2bandit_b2.png","70","70","test","1","74","74","4","",""
"null","832187","pSARL_v2","pSARL_v24ktdpwur","60147144ea1597492e5c6698","freq_resp","img/orange_2bandit_b.png","70","70","test","","","","4","",""
"null","832359","pSARL_v2","pSARL_v24ktdpwur","60147144ea1597492e5c6698","fixation","img/fixation.png","null","","test","","","","","",""
"126.30000001192093","832496","pSARL_v2","pSARL_v24ktdpwur","60147144ea1597492e5c6698","freq","img/orange_2bandit_b2.png","68","70","test","0","75","75","4","",""
"null","833186","pSARL_v2","pSARL_v24ktdpwur","60147144ea1597492e5c6698","freq_resp","img/orange_2bandit_b.png","68","70","test","","","","4","",""
"null","833347","pSARL_v2","pSARL_v24ktdpwur","60147144ea1597492e5c6698","fixation","img/fixation.png","null","","test","","","","","",""
"274","833629","pSARL_v2","pSARL_v24ktdpwur","60147144ea1597492e5c6698","freq","img/orange_2bandit_b2.png","70","70","test","1","76","76","4","",""
"null","834173","pSARL_v2","pSARL_v24ktdpwur","60147144ea1597492e5c6698","freq_resp","img/orange_2bandit_b.png","70","70","test","","","","4","",""
"null","834344","pSARL_v2","pSARL_v24ktdpwur","60147144ea1597492e5c6698","fixation","img/fixation.png","null","","test","","","","","",""
"333.69999998807907","834686","pSARL_v2","pSARL_v24ktdpwur","60147144ea1597492e5c6698","infreq","img/green_2bandit_b2.png","68","68","test","1","77","77","4","",""
"null","835165","pSARL_v2","pSARL_v24ktdpwur","60147144ea1597492e5c6698","infreq_resp","img/green_2bandit_b.png","68","68","test","","","","4","",""
"null","835337","pSARL_v2","pSARL_v24ktdpwur","60147144ea1597492e5c6698","fixation","img/fixation.png","null","","test","","","","","",""
"347.69999998807907","835696","pSARL_v2","pSARL_v24ktdpwur","60147144ea1597492e5c6698","infreq","img/green_2bandit_b2.png","68","68","test","1","78","78","4","",""
"null","836160","pSARL_v2","pSARL_v24ktdpwur","60147144ea1597492e5c6698","infreq_resp","img/green_2bandit_b.png","68","68","test","","","","4","",""
"null","836322","pSARL_v2","pSARL_v24ktdpwur","60147144ea1597492e5c6698","fixation","img/fixation.png","null","","test","","","","","",""
"363.39999997615814","836695","pSARL_v2","pSARL_v24ktdpwur","60147144ea1597492e5c6698","freq","img/orange_2bandit_b2.png","70","70","test","1","79","79","4","",""
"null","837154","pSARL_v2","pSARL_v24ktdpwur","60147144ea1597492e5c6698","freq_resp","img/orange_2bandit_b.png","70","70","test","","","","4","",""
"null","837327","pSARL_v2","pSARL_v24ktdpwur","60147144ea1597492e5c6698","fixation","img/fixation.png","null","","test","","","","","",""
"334.2999999523163","837671","pSARL_v2","pSARL_v24ktdpwur","60147144ea1597492e5c6698","freq","img/orange_2bandit_b2.png","70","70","test","1","80","80","4","",""
"null","838149","pSARL_v2","pSARL_v24ktdpwur","60147144ea1597492e5c6698","freq_resp","img/orange_2bandit_b.png","70","70","test","","","","4","",""
"null","838312","pSARL_v2","pSARL_v24ktdpwur","60147144ea1597492e5c6698","fixation","img/fixation.png","null","","test","","","","","",""
"385.69999998807907","838703","pSARL_v2","pSARL_v24ktdpwur","60147144ea1597492e5c6698","freq","img/orange_2bandit_b2.png","70","70","test","1","81","81","4","",""
"null","839135","pSARL_v2","pSARL_v24ktdpwur","60147144ea1597492e5c6698","freq_resp","img/orange_2bandit_b.png","70","70","test","","","","4","",""
"null","839297","pSARL_v2","pSARL_v24ktdpwur","60147144ea1597492e5c6698","fixation","img/fixation.png","null","","test","","","","","",""
"404.5","839712","pSARL_v2","pSARL_v24ktdpwur","60147144ea1597492e5c6698","freq","img/orange_2bandit_b2.png","70","70","test","1","82","82","4","",""
"null","840124","pSARL_v2","pSARL_v24ktdpwur","60147144ea1597492e5c6698","freq_resp","img/orange_2bandit_b.png","70","70","test","","","","4","",""
"null","840287","pSARL_v2","pSARL_v24ktdpwur","60147144ea1597492e5c6698","fixation","img/fixation.png","null","","test","","","","","",""
"351.7999999523163","840647","pSARL_v2","pSARL_v24ktdpwur","60147144ea1597492e5c6698","freq","img/orange_2bandit_b2.png","70","70","test","1","83","83","4","",""
"null","841110","pSARL_v2","pSARL_v24ktdpwur","60147144ea1597492e5c6698","freq_resp","img/orange_2bandit_b.png","70","70","test","","","","4","",""
"null","841267","pSARL_v2","pSARL_v24ktdpwur","60147144ea1597492e5c6698","fixation","img/fixation.png","null","","test","","","","","",""
"330.10000002384186","841603","pSARL_v2","pSARL_v24ktdpwur","60147144ea1597492e5c6698","freq","img/orange_2bandit_b2.png","70","70","test","1","84","84","4","",""
"null","842082","pSARL_v2","pSARL_v24ktdpwur","60147144ea1597492e5c6698","freq_resp","img/orange_2bandit_b.png","70","70","test","","","","4","",""
"null","842244","pSARL_v2","pSARL_v24ktdpwur","60147144ea1597492e5c6698","fixation","img/fixation.png","null","","test","","","","","",""
"334.30000001192093","842583","pSARL_v2","pSARL_v24ktdpwur","60147144ea1597492e5c6698","freq","img/orange_2bandit_b2.png","70","70","test","1","85","85","4","",""
"null","843066","pSARL_v2","pSARL_v24ktdpwur","60147144ea1597492e5c6698","freq_resp","img/orange_2bandit_b.png","70","70","test","","","","4","",""
"null","843224","pSARL_v2","pSARL_v24ktdpwur","60147144ea1597492e5c6698","fixation","img/fixation.png","null","","test","","","","","",""
"332.80000001192093","843567","pSARL_v2","pSARL_v24ktdpwur","60147144ea1597492e5c6698","freq","img/orange_2bandit_b2.png","70","70","test","1","86","86","4","",""
"null","844051","pSARL_v2","pSARL_v24ktdpwur","60147144ea1597492e5c6698","freq_resp","img/orange_2bandit_b.png","70","70","test","","","","4","",""
"null","844212","pSARL_v2","pSARL_v24ktdpwur","60147144ea1597492e5c6698","fixation","img/fixation.png","null","","test","","","","","",""
"545.7000000476837","844770","pSARL_v2","pSARL_v24ktdpwur","60147144ea1597492e5c6698","reward","img/slot.png","74","","test","","","","","",""
"null","845533","pSARL_v2","pSARL_v24ktdpwur","60147144ea1597492e5c6698","points","<div class=""verylowPoints""> -3 </div>","null","na","test","","","","4","-3","3"
"null","846349","pSARL_v2","pSARL_v24ktdpwur","60147144ea1597492e5c6698","freq","img/orange_2bandit_b2.png","null","70","test","0","87","87","5","",""
"null","846508","pSARL_v2","pSARL_v24ktdpwur","60147144ea1597492e5c6698","fixation","img/fixation.png","null","","test","","","","","",""
"353.80000001192093","846868","pSARL_v2","pSARL_v24ktdpwur","60147144ea1597492e5c6698","freq","img/orange_2bandit_b2.png","70","70","test","1","88","88","5","",""
"null","847325","pSARL_v2","pSARL_v24ktdpwur","60147144ea1597492e5c6698","freq_resp","img/orange_2bandit_b.png","70","70","test","","","","5","",""
"null","847499","pSARL_v2","pSARL_v24ktdpwur","60147144ea1597492e5c6698","fixation","img/fixation.png","null","","test","","","","","",""
"114.30000001192093","847624","pSARL_v2","pSARL_v24ktdpwur","60147144ea1597492e5c6698","infreq","img/green_2bandit_b2.png","70","68","test","0","89","89","5","",""
"null","848325","pSARL_v2","pSARL_v24ktdpwur","60147144ea1597492e5c6698","infreq_resp","img/green_2bandit_b.png","70","68","test","","","","5","",""
"null","848496","pSARL_v2","pSARL_v24ktdpwur","60147144ea1597492e5c6698","fixation","img/fixation.png","null","","test","","","","","",""
"379.2000000476837","848880","pSARL_v2","pSARL_v24ktdpwur","60147144ea1597492e5c6698","freq","img/orange_2bandit_b2.png","70","70","test","1","90","90","5","",""
"null","849311","pSARL_v2","pSARL_v24ktdpwur","60147144ea1597492e5c6698","freq_resp","img/orange_2bandit_b.png","70","70","test","","","","5","",""
"null","849472","pSARL_v2","pSARL_v24ktdpwur","60147144ea1597492e5c6698","fixation","img/fixation.png","null","","test","","","","","",""
"489.60000002384186","849967","pSARL_v2","pSARL_v24ktdpwur","60147144ea1597492e5c6698","freq","img/orange_2bandit_b2.png","70","70","test","1","91","91","5","",""
"null","850291","pSARL_v2","pSARL_v24ktdpwur","60147144ea1597492e5c6698","freq_resp","img/orange_2bandit_b.png","70","70","test","","","","5","",""
"null","850457","pSARL_v2","pSARL_v24ktdpwur","60147144ea1597492e5c6698","fixation","img/fixation.png","null","","test","","","","","",""
"323.19999998807907","850793","pSARL_v2","pSARL_v24ktdpwur","60147144ea1597492e5c6698","freq","img/orange_2bandit_b2.png","70","70","test","1","92","92","5","",""
"null","851287","pSARL_v2","pSARL_v24ktdpwur","60147144ea1597492e5c6698","freq_resp","img/orange_2bandit_b.png","70","70","test","","","","5","",""
"null","851448","pSARL_v2","pSARL_v24ktdpwur","60147144ea1597492e5c6698","fixation","img/fixation.png","null","","test","","","","","",""
"134.4000000357628","851592","pSARL_v2","pSARL_v24ktdpwur","60147144ea1597492e5c6698","freq","img/orange_2bandit_b2.png","70","70","test","1","93","93","5","",""
"null","852278","pSARL_v2","pSARL_v24ktdpwur","60147144ea1597492e5c6698","freq_resp","img/orange_2bandit_b.png","70","70","test","","","","5","",""
"null","852447","pSARL_v2","pSARL_v24ktdpwur","60147144ea1597492e5c6698","fixation","img/fixation.png","null","","test","","","","","",""
"355.5999999642372","852808","pSARL_v2","pSARL_v24ktdpwur","60147144ea1597492e5c6698","freq","img/orange_2bandit_b2.png","70","70","test","1","94","94","5","",""
"null","853265","pSARL_v2","pSARL_v24ktdpwur","60147144ea1597492e5c6698","freq_resp","img/orange_2bandit_b.png","70","70","test","","","","5","",""
"null","853434","pSARL_v2","pSARL_v24ktdpwur","60147144ea1597492e5c6698","fixation","img/fixation.png","null","","test","","","","","",""
"300.19999998807907","853743","pSARL_v2","pSARL_v24ktdpwur","60147144ea1597492e5c6698","freq","img/orange_2bandit_b2.png","70","70","test","1","95","95","5","",""
"null","854268","pSARL_v2","pSARL_v24ktdpwur","60147144ea1597492e5c6698","freq_resp","img/orange_2bandit_b.png","70","70","test","","","","5","",""
"null","854438","pSARL_v2","pSARL_v24ktdpwur","60147144ea1597492e5c6698","fixation","img/fixation.png","null","","test","","","","","",""
"279","854725","pSARL_v2","pSARL_v24ktdpwur","60147144ea1597492e5c6698","freq","img/orange_2bandit_b2.png","70","70","test","1","96","96","5","",""
"null","855268","pSARL_v2","pSARL_v24ktdpwur","60147144ea1597492e5c6698","freq_resp","img/orange_2bandit_b.png","70","70","test","","","","5","",""
"null","855434","pSARL_v2","pSARL_v24ktdpwur","60147144ea1597492e5c6698","fixation","img/fixation.png","null","","test","","","","","",""
"267.2999999523163","855711","pSARL_v2","pSARL_v24ktdpwur","60147144ea1597492e5c6698","freq","img/orange_2bandit_b2.png","70","70","test","1","97","97","5","",""
"null","856265","pSARL_v2","pSARL_v24ktdpwur","60147144ea1597492e5c6698","freq_resp","img/orange_2bandit_b.png","70","70","test","","","","5","",""
"null","856420","pSARL_v2","pSARL_v24ktdpwur","60147144ea1597492e5c6698","fixation","img/fixation.png","null","","test","","","","","",""
"256.9000000357628","856687","pSARL_v2","pSARL_v24ktdpwur","60147144ea1597492e5c6698","freq","img/orange_2bandit_b2.png","70","70","test","1","98","98","5","",""
"null","857253","pSARL_v2","pSARL_v24ktdpwur","60147144ea1597492e5c6698","freq_resp","img/orange_2bandit_b.png","70","70","test","","","","5","",""
"null","857418","pSARL_v2","pSARL_v24ktdpwur","60147144ea1597492e5c6698","fixation","img/fixation.png","null","","test","","","","","",""
"475","857903","pSARL_v2","pSARL_v24ktdpwur","60147144ea1597492e5c6698","freq","img/orange_2bandit_b2.png","70","70","test","1","99","99","5","",""
"null","858252","pSARL_v2","pSARL_v24ktdpwur","60147144ea1597492e5c6698","freq_resp","img/orange_2bandit_b.png","70","70","test","","","","5","",""
"null","858426","pSARL_v2","pSARL_v24ktdpwur","60147144ea1597492e5c6698","fixation","img/fixation.png","null","","test","","","","","",""
"354.5","858791","pSARL_v2","pSARL_v24ktdpwur","60147144ea1597492e5c6698","freq","img/orange_2bandit_b2.png","70","70","test","1","100","100","5","",""
"null","859256","pSARL_v2","pSARL_v24ktdpwur","60147144ea1597492e5c6698","freq_resp","img/orange_2bandit_b.png","70","70","test","","","","5","",""
"null","859425","pSARL_v2","pSARL_v24ktdpwur","60147144ea1597492e5c6698","fixation","img/fixation.png","null","","test","","","","","",""
"316.60000002384186","859750","pSARL_v2","pSARL_v24ktdpwur","60147144ea1597492e5c6698","freq","img/orange_2bandit_b2.png","70","70","test","1","101","101","5","",""
"null","860259","pSARL_v2","pSARL_v24ktdpwur","60147144ea1597492e5c6698","freq_resp","img/orange_2bandit_b.png","70","70","test","","","","5","",""
"null","860430","pSARL_v2","pSARL_v24ktdpwur","60147144ea1597492e5c6698","fixation","img/fixation.png","null","","test","","","","","",""
"333.60000002384186","860769","pSARL_v2","pSARL_v24ktdpwur","60147144ea1597492e5c6698","freq","img/orange_2bandit_b2.png","70","70","test","1","102","102","5","",""
"null","861259","pSARL_v2","pSARL_v24ktdpwur","60147144ea1597492e5c6698","freq_resp","img/orange_2bandit_b.png","70","70","test","","","","5","",""
"null","861430","pSARL_v2","pSARL_v24ktdpwur","60147144ea1597492e5c6698","fixation","img/fixation.png","null","","test","","","","","",""
"413.69999998807907","861848","pSARL_v2","pSARL_v24ktdpwur","60147144ea1597492e5c6698","freq","img/orange_2bandit_b2.png","70","70","test","1","103","103","5","",""
"null","862249","pSARL_v2","pSARL_v24ktdpwur","60147144ea1597492e5c6698","freq_resp","img/orange_2bandit_b.png","70","70","test","","","","5","",""
"null","862420","pSARL_v2","pSARL_v24ktdpwur","60147144ea1597492e5c6698","fixation","img/fixation.png","null","","test","","","","","",""
"null","863235","pSARL_v2","pSARL_v24ktdpwur","60147144ea1597492e5c6698","infreq","img/green_2bandit_b2.png","null","68","test","0","104","104","5","",""
"null","863411","pSARL_v2","pSARL_v24ktdpwur","60147144ea1597492e5c6698","fixation","img/fixation.png","null","","test","","","","","",""
"null","864219","pSARL_v2","pSARL_v24ktdpwur","60147144ea1597492e5c6698","freq","img/orange_2bandit_b2.png","null","70","test","0","105","105","5","",""
"null","864389","pSARL_v2","pSARL_v24ktdpwur","60147144ea1597492e5c6698","fixation","img/fixation.png","null","","test","","","","","",""
"409.80000001192093","864808","pSARL_v2","pSARL_v24ktdpwur","60147144ea1597492e5c6698","freq","img/orange_2bandit_b2.png","70","70","test","1","106","106","5","",""
"null","865211","pSARL_v2","pSARL_v24ktdpwur","60147144ea1597492e5c6698","freq_resp","img/orange_2bandit_b.png","70","70","test","","","","5","",""
"null","865378","pSARL_v2","pSARL_v24ktdpwur","60147144ea1597492e5c6698","fixation","img/fixation.png","null","","test","","","","","",""
"289.9000000357628","865672","pSARL_v2","pSARL_v24ktdpwur","60147144ea1597492e5c6698","freq","img/orange_2bandit_b2.png","70","70","test","1","107","107","5","",""
"null","866200","pSARL_v2","pSARL_v24ktdpwur","60147144ea1597492e5c6698","freq_resp","img/orange_2bandit_b.png","70","70","test","","","","5","",""
"null","866372","pSARL_v2","pSARL_v24ktdpwur","60147144ea1597492e5c6698","fixation","img/fixation.png","null","","test","","","","","",""
"358.4000000357628","866736","pSARL_v2","pSARL_v24ktdpwur","60147144ea1597492e5c6698","freq","img/orange_2bandit_b2.png","70","70","test","1","108","108","5","",""
"null","867192","pSARL_v2","pSARL_v24ktdpwur","60147144ea1597492e5c6698","freq_resp","img/orange_2bandit_b.png","70","70","test","","","","5","",""
"null","867364","pSARL_v2","pSARL_v24ktdpwur","60147144ea1597492e5c6698","fixation","img/fixation.png","null","","test","","","","","",""
"577.1000000238419","867951","pSARL_v2","pSARL_v24ktdpwur","60147144ea1597492e5c6698","reward","img/slot.png","74","","test","","","","","",""
"null","868714","pSARL_v2","pSARL_v24ktdpwur","60147144ea1597492e5c6698","points","<div class=""veryhighPoints""> +1 </div>","null","na","test","","","","5","1","4"
"625.6999999880791","869344","pSARL_v2","pSARL_v24ktdpwur","60147144ea1597492e5c6698","freq","img/orange_2bandit_b2.png","70","70","test","1","109","109","6","",""
"null","869529","pSARL_v2","pSARL_v24ktdpwur","60147144ea1597492e5c6698","freq_resp","img/orange_2bandit_b.png","70","70","test","","","","6","",""
"null","869685","pSARL_v2","pSARL_v24ktdpwur","60147144ea1597492e5c6698","fixation","img/fixation.png","null","","test","","","","","",""
"328.5","870023","pSARL_v2","pSARL_v24ktdpwur","60147144ea1597492e5c6698","freq","img/orange_2bandit_b2.png","70","70","test","1","110","110","6","",""
"null","870515","pSARL_v2","pSARL_v24ktdpwur","60147144ea1597492e5c6698","freq_resp","img/orange_2bandit_b.png","70","70","test","","","","6","",""
"null","870682","pSARL_v2","pSARL_v24ktdpwur","60147144ea1597492e5c6698","fixation","img/fixation.png","null","","test","","","","","",""
"125.39999997615814","870817","pSARL_v2","pSARL_v24ktdpwur","60147144ea1597492e5c6698","freq","img/orange_2bandit_b2.png","70","70","test","1","111","111","6","",""
"null","871516","pSARL_v2","pSARL_v24ktdpwur","60147144ea1597492e5c6698","freq_resp","img/orange_2bandit_b.png","70","70","test","","","","6","",""
"null","871684","pSARL_v2","pSARL_v24ktdpwur","60147144ea1597492e5c6698","fixation","img/fixation.png","null","","test","","","","","",""
"80.39999997615814","871770","pSARL_v2","pSARL_v24ktdpwur","60147144ea1597492e5c6698","infreq","img/green_2bandit_b2.png","70","68","test","0","112","112","6","",""
"null","872502","pSARL_v2","pSARL_v24ktdpwur","60147144ea1597492e5c6698","infreq_resp","img/green_2bandit_b.png","70","68","test","","","","6","",""
"null","872671","pSARL_v2","pSARL_v24ktdpwur","60147144ea1597492e5c6698","fixation","img/fixation.png","null","","test","","","","","",""
"492.30000001192093","873172","pSARL_v2","pSARL_v24ktdpwur","60147144ea1597492e5c6698","freq","img/orange_2bandit_b2.png","70","70","test","1","113","113","6","",""
"null","873487","pSARL_v2","pSARL_v24ktdpwur","60147144ea1597492e5c6698","freq_resp","img/orange_2bandit_b.png","70","70","test","","","","6","",""
"null","873657","pSARL_v2","pSARL_v24ktdpwur","60147144ea1597492e5c6698","fixation","img/fixation.png","null","","test","","","","","",""
"373.19999998807907","874039","pSARL_v2","pSARL_v24ktdpwur","60147144ea1597492e5c6698","freq","img/orange_2bandit_b2.png","70","70","test","1","114","114","6","",""
"null","874490","pSARL_v2","pSARL_v24ktdpwur","60147144ea1597492e5c6698","freq_resp","img/orange_2bandit_b.png","70","70","test","","","","6","",""
"null","874657","pSARL_v2","pSARL_v24ktdpwur","60147144ea1597492e5c6698","fixation","img/fixation.png","null","","test","","","","","",""
"276.2999999523163","874940","pSARL_v2","pSARL_v24ktdpwur","60147144ea1597492e5c6698","freq","img/orange_2bandit_b2.png","70","70","test","1","115","115","6","",""
"null","875489","pSARL_v2","pSARL_v24ktdpwur","60147144ea1597492e5c6698","freq_resp","img/orange_2bandit_b.png","70","70","test","","","","6","",""
"null","875662","pSARL_v2","pSARL_v24ktdpwur","60147144ea1597492e5c6698","fixation","img/fixation.png","null","","test","","","","","",""
"252","875920","pSARL_v2","pSARL_v24ktdpwur","60147144ea1597492e5c6698","freq","img/orange_2bandit_b2.png","70","70","test","1","116","116","6","",""
"null","876489","pSARL_v2","pSARL_v24ktdpwur","60147144ea1597492e5c6698","freq_resp","img/orange_2bandit_b.png","70","70","test","","","","6","",""
"null","876662","pSARL_v2","pSARL_v24ktdpwur","60147144ea1597492e5c6698","fixation","img/fixation.png","null","","test","","","","","",""
"267.69999998807907","876935","pSARL_v2","pSARL_v24ktdpwur","60147144ea1597492e5c6698","freq","img/orange_2bandit_b2.png","70","70","test","1","117","117","6","",""
"null","877474","pSARL_v2","pSARL_v24ktdpwur","60147144ea1597492e5c6698","freq_resp","img/orange_2bandit_b.png","70","70","test","","","","6","",""
"null","877636","pSARL_v2","pSARL_v24ktdpwur","60147144ea1597492e5c6698","fixation","img/fixation.png","null","","test","","","","","",""
"277.5999999642372","877920","pSARL_v2","pSARL_v24ktdpwur","60147144ea1597492e5c6698","freq","img/orange_2bandit_b2.png","70","70","test","1","118","118","6","",""
"null","878449","pSARL_v2","pSARL_v24ktdpwur","60147144ea1597492e5c6698","freq_resp","img/orange_2bandit_b.png","70","70","test","","","","6","",""
"null","878613","pSARL_v2","pSARL_v24ktdpwur","60147144ea1597492e5c6698","fixation","img/fixation.png","null","","test","","","","","",""
"301","878921","pSARL_v2","pSARL_v24ktdpwur","60147144ea1597492e5c6698","freq","img/orange_2bandit_b2.png","70","70","test","1","119","119","6","",""
"null","879441","pSARL_v2","pSARL_v24ktdpwur","60147144ea1597492e5c6698","freq_resp","img/orange_2bandit_b.png","70","70","test","","","","6","",""
"null","879616","pSARL_v2","pSARL_v24ktdpwur","60147144ea1597492e5c6698","fixation","img/fixation.png","null","","test","","","","","",""
"281.5","879904","pSARL_v2","pSARL_v24ktdpwur","60147144ea1597492e5c6698","freq","img/orange_2bandit_b2.png","70","70","test","1","120","120","6","",""
"null","880432","pSARL_v2","pSARL_v24ktdpwur","60147144ea1597492e5c6698","freq_resp","img/orange_2bandit_b.png","70","70","test","","","","6","",""
"null","880605","pSARL_v2","pSARL_v24ktdpwur","60147144ea1597492e5c6698","fixation","img/fixation.png","null","","test","","","","","",""
"287.60000002384186","880903","pSARL_v2","pSARL_v24ktdpwur","60147144ea1597492e5c6698","freq","img/orange_2bandit_b2.png","70","70","test","1","121","121","6","",""
"null","881437","pSARL_v2","pSARL_v24ktdpwur","60147144ea1597492e5c6698","freq_resp","img/orange_2bandit_b.png","70","70","test","","","","6","",""
"null","881606","pSARL_v2","pSARL_v24ktdpwur","60147144ea1597492e5c6698","fixation","img/fixation.png","null","","test","","","","","",""
"239.20000004768372","881855","pSARL_v2","pSARL_v24ktdpwur","60147144ea1597492e5c6698","freq","img/orange_2bandit_b2.png","70","70","test","1","122","122","6","",""
"null","882429","pSARL_v2","pSARL_v24ktdpwur","60147144ea1597492e5c6698","freq_resp","img/orange_2bandit_b.png","70","70","test","","","","6","",""
"null","882597","pSARL_v2","pSARL_v24ktdpwur","60147144ea1597492e5c6698","fixation","img/fixation.png","null","","test","","","","","",""
"525.8000000119209","883130","pSARL_v2","pSARL_v24ktdpwur","60147144ea1597492e5c6698","infreq","img/green_2bandit_b2.png","68","68","test","1","123","123","6","",""
"null","883414","pSARL_v2","pSARL_v24ktdpwur","60147144ea1597492e5c6698","infreq_resp","img/green_2bandit_b.png","68","68","test","","","","6","",""
"null","883585","pSARL_v2","pSARL_v24ktdpwur","60147144ea1597492e5c6698","fixation","img/fixation.png","null","","test","","","","","",""
"484.80000001192093","884074","pSARL_v2","pSARL_v24ktdpwur","60147144ea1597492e5c6698","freq","img/orange_2bandit_b2.png","70","70","test","1","124","124","6","",""
"null","884413","pSARL_v2","pSARL_v24ktdpwur","60147144ea1597492e5c6698","freq_resp","img/orange_2bandit_b.png","70","70","test","","","","6","",""
"null","884584","pSARL_v2","pSARL_v24ktdpwur","60147144ea1597492e5c6698","fixation","img/fixation.png","null","","test","","","","","",""
"281.4000000357628","884874","pSARL_v2","pSARL_v24ktdpwur","60147144ea1597492e5c6698","freq","img/orange_2bandit_b2.png","70","70","test","1","125","125","6","",""
"null","885413","pSARL_v2","pSARL_v24ktdpwur","60147144ea1597492e5c6698","freq_resp","img/orange_2bandit_b.png","70","70","test","","","","6","",""
"null","885590","pSARL_v2","pSARL_v24ktdpwur","60147144ea1597492e5c6698","fixation","img/fixation.png","null","","test","","","","","",""
"357.10000002384186","885953","pSARL_v2","pSARL_v24ktdpwur","60147144ea1597492e5c6698","freq","img/orange_2bandit_b2.png","70","70","test","1","126","126","6","",""
"null","886404","pSARL_v2","pSARL_v24ktdpwur","60147144ea1597492e5c6698","freq_resp","img/orange_2bandit_b.png","70","70","test","","","","6","",""
"null","886566","pSARL_v2","pSARL_v24ktdpwur","60147144ea1597492e5c6698","fixation","img/fixation.png","null","","test","","","","","",""
"283","886855","pSARL_v2","pSARL_v24ktdpwur","60147144ea1597492e5c6698","freq","img/orange_2bandit_b2.png","70","70","test","1","127","127","6","",""
"null","887395","pSARL_v2","pSARL_v24ktdpwur","60147144ea1597492e5c6698","freq_resp","img/orange_2bandit_b.png","70","70","test","","","","6","",""
"null","887569","pSARL_v2","pSARL_v24ktdpwur","60147144ea1597492e5c6698","fixation","img/fixation.png","null","","test","","","","","",""
"265.10000002384186","887839","pSARL_v2","pSARL_v24ktdpwur","60147144ea1597492e5c6698","freq","img/orange_2bandit_b2.png","70","70","test","1","128","128","6","",""
"null","888386","pSARL_v2","pSARL_v24ktdpwur","60147144ea1597492e5c6698","freq_resp","img/orange_2bandit_b.png","70","70","test","","","","6","",""
"null","888560","pSARL_v2","pSARL_v24ktdpwur","60147144ea1597492e5c6698","fixation","img/fixation.png","null","","test","","","","","",""
"554.6000000238419","889120","pSARL_v2","pSARL_v24ktdpwur","60147144ea1597492e5c6698","reward","img/slot.png","74","","test","","","","","",""
"null","889887","pSARL_v2","pSARL_v24ktdpwur","60147144ea1597492e5c6698","points","<div class=""verylowPoints""> -7 </div>","null","na","test","","","","6","-7","5"
"358.5","890255","pSARL_v2","pSARL_v24ktdpwur","60147144ea1597492e5c6698","freq","img/orange_2bandit_b2.png","70","70","test","1","129","129","7","",""
"null","890709","pSARL_v2","pSARL_v24ktdpwur","60147144ea1597492e5c6698","freq_resp","img/orange_2bandit_b.png","70","70","test","","","","7","",""
"null","890874","pSARL_v2","pSARL_v24ktdpwur","60147144ea1597492e5c6698","fixation","img/fixation.png","null","","test","","","","","",""
"139","891023","pSARL_v2","pSARL_v24ktdpwur","60147144ea1597492e5c6698","freq","img/orange_2bandit_b2.png","70","70","test","1","130","130","7","",""
"null","891690","pSARL_v2","pSARL_v24ktdpwur","60147144ea1597492e5c6698","freq_resp","img/orange_2bandit_b.png","70","70","test","","","","7","",""
"null","891848","pSARL_v2","pSARL_v24ktdpwur","60147144ea1597492e5c6698","fixation","img/fixation.png","null","","test","","","","","",""
"106.09999996423721","891959","pSARL_v2","pSARL_v24ktdpwur","60147144ea1597492e5c6698","freq","img/orange_2bandit_b2.png","70","70","test","1","131","131","7","",""
"null","892668","pSARL_v2","pSARL_v24ktdpwur","60147144ea1597492e5c6698","freq_resp","img/orange_2bandit_b.png","70","70","test","","","","7","",""
"null","892842","pSARL_v2","pSARL_v24ktdpwur","60147144ea1597492e5c6698","fixation","img/fixation.png","null","","test","","","","","",""
"226.60000002384186","893076","pSARL_v2","pSARL_v24ktdpwur","60147144ea1597492e5c6698","freq","img/orange_2bandit_b2.png","70","70","test","1","132","132","7","",""
"null","893667","pSARL_v2","pSARL_v24ktdpwur","60147144ea1597492e5c6698","freq_resp","img/orange_2bandit_b.png","70","70","test","","","","7","",""
"null","893837","pSARL_v2","pSARL_v24ktdpwur","60147144ea1597492e5c6698","fixation","img/fixation.png","null","","test","","","","","",""
"149.80000001192093","893991","pSARL_v2","pSARL_v24ktdpwur","60147144ea1597492e5c6698","freq","img/orange_2bandit_b2.png","70","70","test","1","133","133","7","",""
"null","894653","pSARL_v2","pSARL_v24ktdpwur","60147144ea1597492e5c6698","freq_resp","img/orange_2bandit_b.png","70","70","test","","","","7","",""
"null","894813","pSARL_v2","pSARL_v24ktdpwur","60147144ea1597492e5c6698","fixation","img/fixation.png","null","","test","","","","","",""
"125","894944","pSARL_v2","pSARL_v24ktdpwur","60147144ea1597492e5c6698","freq","img/orange_2bandit_b2.png","70","70","test","1","134","134","7","",""
"null","895641","pSARL_v2","pSARL_v24ktdpwur","60147144ea1597492e5c6698","freq_resp","img/orange_2bandit_b.png","70","70","test","","","","7","",""
"null","895808","pSARL_v2","pSARL_v24ktdpwur","60147144ea1597492e5c6698","fixation","img/fixation.png","null","","test","","","","","",""
"125.70000004768372","895944","pSARL_v2","pSARL_v24ktdpwur","60147144ea1597492e5c6698","freq","img/orange_2bandit_b2.png","70","70","test","1","135","135","7","",""
"null","896637","pSARL_v2","pSARL_v24ktdpwur","60147144ea1597492e5c6698","freq_resp","img/orange_2bandit_b.png","70","70","test","","","","7","",""
"null","896799","pSARL_v2","pSARL_v24ktdpwur","60147144ea1597492e5c6698","fixation","img/fixation.png","null","","test","","","","","",""
"323.4000000357628","897127","pSARL_v2","pSARL_v24ktdpwur","60147144ea1597492e5c6698","freq","img/orange_2bandit_b2.png","70","70","test","1","136","136","7","",""
"null","897618","pSARL_v2","pSARL_v24ktdpwur","60147144ea1597492e5c6698","freq_resp","img/orange_2bandit_b.png","70","70","test","","","","7","",""
"null","897786","pSARL_v2","pSARL_v24ktdpwur","60147144ea1597492e5c6698","fixation","img/fixation.png","null","","test","","","","","",""
"259.19999998807907","898055","pSARL_v2","pSARL_v24ktdpwur","60147144ea1597492e5c6698","freq","img/orange_2bandit_b2.png","70","70","test","1","137","137","7","",""
"null","898615","pSARL_v2","pSARL_v24ktdpwur","60147144ea1597492e5c6698","freq_resp","img/orange_2bandit_b.png","70","70","test","","","","7","",""
"null","898777","pSARL_v2","pSARL_v24ktdpwur","60147144ea1597492e5c6698","fixation","img/fixation.png","null","","test","","","","","",""
"277.19999998807907","899064","pSARL_v2","pSARL_v24ktdpwur","60147144ea1597492e5c6698","freq","img/orange_2bandit_b2.png","70","70","test","1","138","138","7","",""
"null","899611","pSARL_v2","pSARL_v24ktdpwur","60147144ea1597492e5c6698","freq_resp","img/orange_2bandit_b.png","70","70","test","","","","7","",""
"null","899781","pSARL_v2","pSARL_v24ktdpwur","60147144ea1597492e5c6698","fixation","img/fixation.png","null","","test","","","","","",""
"309.80000001192093","900095","pSARL_v2","pSARL_v24ktdpwur","60147144ea1597492e5c6698","freq","img/orange_2bandit_b2.png","70","70","test","1","139","139","7","",""
"null","900596","pSARL_v2","pSARL_v24ktdpwur","60147144ea1597492e5c6698","freq_resp","img/orange_2bandit_b.png","70","70","test","","","","7","",""
"null","900758","pSARL_v2","pSARL_v24ktdpwur","60147144ea1597492e5c6698","fixation","img/fixation.png","null","","test","","","","","",""
"302.69999998807907","901072","pSARL_v2","pSARL_v24ktdpwur","60147144ea1597492e5c6698","freq","img/orange_2bandit_b2.png","70","70","test","1","140","140","7","",""
"null","901587","pSARL_v2","pSARL_v24ktdpwur","60147144ea1597492e5c6698","freq_resp","img/orange_2bandit_b.png","70","70","test","","","","7","",""
"null","901760","pSARL_v2","pSARL_v24ktdpwur","60147144ea1597492e5c6698","fixation","img/fixation.png","null","","test","","","","","",""
"356.80000001192093","902129","pSARL_v2","pSARL_v24ktdpwur","60147144ea1597492e5c6698","freq","img/orange_2bandit_b2.png","70","70","test","1","141","141","7","",""
"null","902587","pSARL_v2","pSARL_v24ktdpwur","60147144ea1597492e5c6698","freq_resp","img/orange_2bandit_b.png","70","70","test","","","","7","",""
"null","902750","pSARL_v2","pSARL_v24ktdpwur","60147144ea1597492e5c6698","fixation","img/fixation.png","null","","test","","","","","",""
"302.10000002384186","903065","pSARL_v2","pSARL_v24ktdpwur","60147144ea1597492e5c6698","freq","img/orange_2bandit_b2.png","70","70","test","1","142","142","7","",""
"null","903582","pSARL_v2","pSARL_v24ktdpwur","60147144ea1597492e5c6698","freq_resp","img/orange_2bandit_b.png","70","70","test","","","","7","",""
"null","903754","pSARL_v2","pSARL_v24ktdpwur","60147144ea1597492e5c6698","fixation","img/fixation.png","null","","test","","","","","",""
"412.0999999642372","904176","pSARL_v2","pSARL_v24ktdpwur","60147144ea1597492e5c6698","infreq","img/green_2bandit_b2.png","68","68","test","1","143","143","7","",""
"null","904590","pSARL_v2","pSARL_v24ktdpwur","60147144ea1597492e5c6698","infreq_resp","img/green_2bandit_b.png","68","68","test","","","","7","",""
"null","904755","pSARL_v2","pSARL_v24ktdpwur","60147144ea1597492e5c6698","fixation","img/fixation.png","null","","test","","","","","",""
"399.80000001192093","905159","pSARL_v2","pSARL_v24ktdpwur","60147144ea1597492e5c6698","freq","img/orange_2bandit_b2.png","70","70","test","1","144","144","7","",""
"null","905577","pSARL_v2","pSARL_v24ktdpwur","60147144ea1597492e5c6698","freq_resp","img/orange_2bandit_b.png","70","70","test","","","","7","",""
"null","905747","pSARL_v2","pSARL_v24ktdpwur","60147144ea1597492e5c6698","fixation","img/fixation.png","null","","test","","","","","",""
"313.5","906072","pSARL_v2","pSARL_v24ktdpwur","60147144ea1597492e5c6698","freq","img/orange_2bandit_b2.png","70","70","test","1","145","145","7","",""
"null","906572","pSARL_v2","pSARL_v24ktdpwur","60147144ea1597492e5c6698","freq_resp","img/orange_2bandit_b.png","70","70","test","","","","7","",""
"null","906738","pSARL_v2","pSARL_v24ktdpwur","60147144ea1597492e5c6698","fixation","img/fixation.png","null","","test","","","","","",""
"280.4000000357628","907023","pSARL_v2","pSARL_v24ktdpwur","60147144ea1597492e5c6698","freq","img/orange_2bandit_b2.png","70","70","test","1","146","146","7","",""
"null","907551","pSARL_v2","pSARL_v24ktdpwur","60147144ea1597492e5c6698","freq_resp","img/orange_2bandit_b.png","70","70","test","","","","7","",""
"null","907708","pSARL_v2","pSARL_v24ktdpwur","60147144ea1597492e5c6698","fixation","img/fixation.png","null","","test","","","","","",""
"330.4000000357628","908048","pSARL_v2","pSARL_v24ktdpwur","60147144ea1597492e5c6698","freq","img/orange_2bandit_b2.png","70","70","test","1","147","147","7","",""
"null","908537","pSARL_v2","pSARL_v24ktdpwur","60147144ea1597492e5c6698","freq_resp","img/orange_2bandit_b.png","70","70","test","","","","7","",""
"null","908699","pSARL_v2","pSARL_v24ktdpwur","60147144ea1597492e5c6698","fixation","img/fixation.png","null","","test","","","","","",""
"349.89999997615814","909055","pSARL_v2","pSARL_v24ktdpwur","60147144ea1597492e5c6698","freq","img/orange_2bandit_b2.png","70","70","test","1","148","148","7","",""
"null","909526","pSARL_v2","pSARL_v24ktdpwur","60147144ea1597492e5c6698","freq_resp","img/orange_2bandit_b.png","70","70","test","","","","7","",""
"null","909696","pSARL_v2","pSARL_v24ktdpwur","60147144ea1597492e5c6698","fixation","img/fixation.png","null","","test","","","","","",""
"372.80000001192093","910080","pSARL_v2","pSARL_v24ktdpwur","60147144ea1597492e5c6698","infreq","img/green_2bandit_b2.png","68","68","test","1","149","149","7","",""
"null","910522","pSARL_v2","pSARL_v24ktdpwur","60147144ea1597492e5c6698","infreq_resp","img/green_2bandit_b.png","68","68","test","","","","7","",""
"null","910678","pSARL_v2","pSARL_v24ktdpwur","60147144ea1597492e5c6698","fixation","img/fixation.png","null","","test","","","","","",""
"356.5","911040","pSARL_v2","pSARL_v24ktdpwur","60147144ea1597492e5c6698","freq","img/orange_2bandit_b2.png","70","70","test","1","150","150","7","",""
"null","911500","pSARL_v2","pSARL_v24ktdpwur","60147144ea1597492e5c6698","freq_resp","img/orange_2bandit_b.png","70","70","test","","","","7","",""
"null","911668","pSARL_v2","pSARL_v24ktdpwur","60147144ea1597492e5c6698","fixation","img/fixation.png","null","","test","","","","","",""
"338.2000000476837","912016","pSARL_v2","pSARL_v24ktdpwur","60147144ea1597492e5c6698","freq","img/orange_2bandit_b2.png","70","70","test","1","151","151","7","",""
"null","912503","pSARL_v2","pSARL_v24ktdpwur","60147144ea1597492e5c6698","freq_resp","img/orange_2bandit_b.png","70","70","test","","","","7","",""
"null","912673","pSARL_v2","pSARL_v24ktdpwur","60147144ea1597492e5c6698","fixation","img/fixation.png","null","","test","","","","","",""
"297.10000002384186","912975","pSARL_v2","pSARL_v24ktdpwur","60147144ea1597492e5c6698","freq","img/orange_2bandit_b2.png","70","70","test","1","152","152","7","",""
"null","913492","pSARL_v2","pSARL_v24ktdpwur","60147144ea1597492e5c6698","freq_resp","img/orange_2bandit_b.png","70","70","test","","","","7","",""
"null","913664","pSARL_v2","pSARL_v24ktdpwur","60147144ea1597492e5c6698","fixation","img/fixation.png","null","","test","","","","","",""
"346.5999999642372","914015","pSARL_v2","pSARL_v24ktdpwur","60147144ea1597492e5c6698","freq","img/orange_2bandit_b2.png","70","70","test","1","153","153","7","",""
"null","914486","pSARL_v2","pSARL_v24ktdpwur","60147144ea1597492e5c6698","freq_resp","img/orange_2bandit_b.png","70","70","test","","","","7","",""
"null","914651","pSARL_v2","pSARL_v24ktdpwur","60147144ea1597492e5c6698","fixation","img/fixation.png","null","","test","","","","","",""
"297.19999998807907","914954","pSARL_v2","pSARL_v24ktdpwur","60147144ea1597492e5c6698","freq","img/orange_2bandit_b2.png","70","70","test","1","154","154","7","",""
"null","915466","pSARL_v2","pSARL_v24ktdpwur","60147144ea1597492e5c6698","freq_resp","img/orange_2bandit_b.png","70","70","test","","","","7","",""
"null","915641","pSARL_v2","pSARL_v24ktdpwur","60147144ea1597492e5c6698","fixation","img/fixation.png","null","","test","","","","","",""
"499.5","916153","pSARL_v2","pSARL_v24ktdpwur","60147144ea1597492e5c6698","reward","img/slot.png","74","","test","","","","","",""
"null","916923","pSARL_v2","pSARL_v24ktdpwur","60147144ea1597492e5c6698","points","<div class=""verylowPoints""> -6 </div>","null","na","test","","","","7","-6","6"
"null","917743","pSARL_v2","pSARL_v24ktdpwur","60147144ea1597492e5c6698","freq","img/orange_2bandit_b2.png","null","70","test","0","155","155","8","",""
"null","917909","pSARL_v2","pSARL_v24ktdpwur","60147144ea1597492e5c6698","fixation","img/fixation.png","null","","test","","","","","",""
"358.60000002384186","918276","pSARL_v2","pSARL_v24ktdpwur","60147144ea1597492e5c6698","freq","img/orange_2bandit_b2.png","70","70","test","1","156","156","8","",""
"null","918723","pSARL_v2","pSARL_v24ktdpwur","60147144ea1597492e5c6698","freq_resp","img/orange_2bandit_b.png","70","70","test","","","","8","",""
"null","918888","pSARL_v2","pSARL_v24ktdpwur","60147144ea1597492e5c6698","fixation","img/fixation.png","null","","test","","","","","",""
"90.09999996423721","918983","pSARL_v2","pSARL_v24ktdpwur","60147144ea1597492e5c6698","freq","img/orange_2bandit_b2.png","70","70","test","1","157","157","8","",""
"null","919718","pSARL_v2","pSARL_v24ktdpwur","60147144ea1597492e5c6698","freq_resp","img/orange_2bandit_b.png","70","70","test","","","","8","",""
"null","919889","pSARL_v2","pSARL_v24ktdpwur","60147144ea1597492e5c6698","fixation","img/fixation.png","null","","test","","","","","",""
"193.69999998807907","920091","pSARL_v2","pSARL_v24ktdpwur","60147144ea1597492e5c6698","freq","img/orange_2bandit_b2.png","70","70","test","1","158","158","8","",""
"null","920715","pSARL_v2","pSARL_v24ktdpwur","60147144ea1597492e5c6698","freq_resp","img/orange_2bandit_b.png","70","70","test","","","","8","",""
"null","920878","pSARL_v2","pSARL_v24ktdpwur","60147144ea1597492e5c6698","fixation","img/fixation.png","null","","test","","","","","",""
"235.89999997615814","921120","pSARL_v2","pSARL_v24ktdpwur","60147144ea1597492e5c6698","freq","img/orange_2bandit_b2.png","70","70","test","1","159","159","8","",""
"null","921694","pSARL_v2","pSARL_v24ktdpwur","60147144ea1597492e5c6698","freq_resp","img/orange_2bandit_b.png","70","70","test","","","","8","",""
"null","921868","pSARL_v2","pSARL_v24ktdpwur","60147144ea1597492e5c6698","fixation","img/fixation.png","null","","test","","","","","",""
"269.89999997615814","922143","pSARL_v2","pSARL_v24ktdpwur","60147144ea1597492e5c6698","infreq","img/green_2bandit_b2.png","70","68","test","0","160","160","8","",""
"null","922692","pSARL_v2","pSARL_v24ktdpwur","60147144ea1597492e5c6698","infreq_resp","img/green_2bandit_b.png","70","68","test","","","","8","",""
"null","922849","pSARL_v2","pSARL_v24ktdpwur","60147144ea1597492e5c6698","fixation","img/fixation.png","null","","test","","","","","",""
"492.80000001192093","923351","pSARL_v2","pSARL_v24ktdpwur","60147144ea1597492e5c6698","freq","img/orange_2bandit_b2.png","70","70","test","1","161","161","8","",""
"null","923686","pSARL_v2","pSARL_v24ktdpwur","60147144ea1597492e5c6698","freq_resp","img/orange_2bandit_b.png","70","70","test","","","","8","",""
"null","923856","pSARL_v2","pSARL_v24ktdpwur","60147144ea1597492e5c6698","fixation","img/fixation.png","null","","test","","","","","",""
"475.80000001192093","924342","pSARL_v2","pSARL_v24ktdpwur","60147144ea1597492e5c6698","freq","img/orange_2bandit_b2.png","70","70","test","1","162","162","8","",""
"null","924687","pSARL_v2","pSARL_v24ktdpwur","60147144ea1597492e5c6698","freq_resp","img/orange_2bandit_b.png","70","70","test","","","","8","",""
"null","924855","pSARL_v2","pSARL_v24ktdpwur","60147144ea1597492e5c6698","fixation","img/fixation.png","null","","test","","","","","",""
"403.69999998807907","925263","pSARL_v2","pSARL_v24ktdpwur","60147144ea1597492e5c6698","freq","img/orange_2bandit_b2.png","70","70","test","1","163","163","8","",""
"null","925670","pSARL_v2","pSARL_v24ktdpwur","60147144ea1597492e5c6698","freq_resp","img/orange_2bandit_b.png","70","70","test","","","","8","",""
"null","925845","pSARL_v2","pSARL_v24ktdpwur","60147144ea1597492e5c6698","fixation","img/fixation.png","null","","test","","","","","",""
"367.39999997615814","926223","pSARL_v2","pSARL_v24ktdpwur","60147144ea1597492e5c6698","freq","img/orange_2bandit_b2.png","70","70","test","1","164","164","8","",""
"null","926672","pSARL_v2","pSARL_v24ktdpwur","60147144ea1597492e5c6698","freq_resp","img/orange_2bandit_b.png","70","70","test","","","","8","",""
"null","926843","pSARL_v2","pSARL_v24ktdpwur","60147144ea1597492e5c6698","fixation","img/fixation.png","null","","test","","","","","",""
"383.5999999642372","927234","pSARL_v2","pSARL_v24ktdpwur","60147144ea1597492e5c6698","freq","img/orange_2bandit_b2.png","70","70","test","1","165","165","8","",""
"null","927673","pSARL_v2","pSARL_v24ktdpwur","60147144ea1597492e5c6698","freq_resp","img/orange_2bandit_b.png","70","70","test","","","","8","",""
"null","927845","pSARL_v2","pSARL_v24ktdpwur","60147144ea1597492e5c6698","fixation","img/fixation.png","null","","test","","","","","",""
"311.0999999642372","928165","pSARL_v2","pSARL_v24ktdpwur","60147144ea1597492e5c6698","freq","img/orange_2bandit_b2.png","70","70","test","1","166","166","8","",""
"null","928672","pSARL_v2","pSARL_v24ktdpwur","60147144ea1597492e5c6698","freq_resp","img/orange_2bandit_b.png","70","70","test","","","","8","",""
"null","928833","pSARL_v2","pSARL_v24ktdpwur","60147144ea1597492e5c6698","fixation","img/fixation.png","null","","test","","","","","",""
"417.30000001192093","929257","pSARL_v2","pSARL_v24ktdpwur","60147144ea1597492e5c6698","freq","img/orange_2bandit_b2.png","70","70","test","1","167","167","8","",""
"null","929662","pSARL_v2","pSARL_v24ktdpwur","60147144ea1597492e5c6698","freq_resp","img/orange_2bandit_b.png","70","70","test","","","","8","",""
"null","929827","pSARL_v2","pSARL_v24ktdpwur","60147144ea1597492e5c6698","fixation","img/fixation.png","null","","test","","","","","",""
"330.0999999642372","930164","pSARL_v2","pSARL_v24ktdpwur","60147144ea1597492e5c6698","freq","img/orange_2bandit_b2.png","70","70","test","1","168","168","8","",""
"null","930645","pSARL_v2","pSARL_v24ktdpwur","60147144ea1597492e5c6698","freq_resp","img/orange_2bandit_b.png","70","70","test","","","","8","",""
"null","930817","pSARL_v2","pSARL_v24ktdpwur","60147144ea1597492e5c6698","fixation","img/fixation.png","null","","test","","","","","",""
"352.0999999642372","931175","pSARL_v2","pSARL_v24ktdpwur","60147144ea1597492e5c6698","freq","img/orange_2bandit_b2.png","70","70","test","1","169","169","8","",""
"null","931646","pSARL_v2","pSARL_v24ktdpwur","60147144ea1597492e5c6698","freq_resp","img/orange_2bandit_b.png","70","70","test","","","","8","",""
"null","931819","pSARL_v2","pSARL_v24ktdpwur","60147144ea1597492e5c6698","fixation","img/fixation.png","null","","test","","","","","",""
"273.30000001192093","932103","pSARL_v2","pSARL_v24ktdpwur","60147144ea1597492e5c6698","freq","img/orange_2bandit_b2.png","70","70","test","1","170","170","8","",""
"null","932652","pSARL_v2","pSARL_v24ktdpwur","60147144ea1597492e5c6698","freq_resp","img/orange_2bandit_b.png","70","70","test","","","","8","",""
"null","932823","pSARL_v2","pSARL_v24ktdpwur","60147144ea1597492e5c6698","fixation","img/fixation.png","null","","test","","","","","",""
"null","933636","pSARL_v2","pSARL_v24ktdpwur","60147144ea1597492e5c6698","infreq","img/green_2bandit_b2.png","null","68","test","0","171","171","8","",""
"null","933796","pSARL_v2","pSARL_v24ktdpwur","60147144ea1597492e5c6698","fixation","img/fixation.png","null","","test","","","","","",""
"585.6999999880791","934387","pSARL_v2","pSARL_v24ktdpwur","60147144ea1597492e5c6698","freq","img/orange_2bandit_b2.png","70","70","test","1","172","172","8","",""
"null","934607","pSARL_v2","pSARL_v24ktdpwur","60147144ea1597492e5c6698","freq_resp","img/orange_2bandit_b.png","70","70","test","","","","8","",""
"null","934763","pSARL_v2","pSARL_v24ktdpwur","60147144ea1597492e5c6698","fixation","img/fixation.png","null","","test","","","","","",""
"464.5","935232","pSARL_v2","pSARL_v24ktdpwur","60147144ea1597492e5c6698","freq","img/orange_2bandit_b2.png","70","70","test","1","173","173","8","",""
"null","935575","pSARL_v2","pSARL_v24ktdpwur","60147144ea1597492e5c6698","freq_resp","img/orange_2bandit_b.png","70","70","test","","","","8","",""
"null","935736","pSARL_v2","pSARL_v24ktdpwur","60147144ea1597492e5c6698","fixation","img/fixation.png","null","","test","","","","","",""
"null","936549","pSARL_v2","pSARL_v24ktdpwur","60147144ea1597492e5c6698","freq","img/orange_2bandit_b2.png","null","70","test","0","174","174","8","",""
"null","936718","pSARL_v2","pSARL_v24ktdpwur","60147144ea1597492e5c6698","fixation","img/fixation.png","null","","test","","","","","",""
"null","937540","pSARL_v2","pSARL_v24ktdpwur","60147144ea1597492e5c6698","freq","img/orange_2bandit_b2.png","null","70","test","0","175","175","8","",""
"null","937705","pSARL_v2","pSARL_v24ktdpwur","60147144ea1597492e5c6698","fixation","img/fixation.png","null","","test","","","","","",""
"467.60000002384186","938180","pSARL_v2","pSARL_v24ktdpwur","60147144ea1597492e5c6698","freq","img/orange_2bandit_b2.png","70","70","test","1","176","176","8","",""
"null","938525","pSARL_v2","pSARL_v24ktdpwur","60147144ea1597492e5c6698","freq_resp","img/orange_2bandit_b.png","70","70","test","","","","8","",""
"null","938697","pSARL_v2","pSARL_v24ktdpwur","60147144ea1597492e5c6698","fixation","img/fixation.png","null","","test","","","","","",""
"538.3999999761581","939241","pSARL_v2","pSARL_v24ktdpwur","60147144ea1597492e5c6698","reward","img/slot.png","74","","test","","","","","",""
"null","939997","pSARL_v2","pSARL_v24ktdpwur","60147144ea1597492e5c6698","points","<div class=""verylowPoints""> -4 </div>","null","na","test","","","","8","-4","7"
"622.6999999880791","940624","pSARL_v2","pSARL_v24ktdpwur","60147144ea1597492e5c6698","freq","img/orange_2bandit_b2.png","70","70","test","1","177","177","9","",""
"null","940808","pSARL_v2","pSARL_v24ktdpwur","60147144ea1597492e5c6698","freq_resp","img/orange_2bandit_b.png","70","70","test","","","","9","",""
"null","940970","pSARL_v2","pSARL_v24ktdpwur","60147144ea1597492e5c6698","fixation","img/fixation.png","null","","test","","","","","",""
"450.19999998807907","941431","pSARL_v2","pSARL_v24ktdpwur","60147144ea1597492e5c6698","infreq","img/green_2bandit_b2.png","68","68","test","1","178","178","9","",""
"null","941798","pSARL_v2","pSARL_v24ktdpwur","60147144ea1597492e5c6698","infreq_resp","img/green_2bandit_b.png","68","68","test","","","","9","",""
"null","941959","pSARL_v2","pSARL_v24ktdpwur","60147144ea1597492e5c6698","fixation","img/fixation.png","null","","test","","","","","",""
"397.19999998807907","942365","pSARL_v2","pSARL_v24ktdpwur","60147144ea1597492e5c6698","freq","img/orange_2bandit_b2.png","70","70","test","1","179","179","9","",""
"null","942785","pSARL_v2","pSARL_v24ktdpwur","60147144ea1597492e5c6698","freq_resp","img/orange_2bandit_b.png","70","70","test","","","","9","",""
"null","942954","pSARL_v2","pSARL_v24ktdpwur","60147144ea1597492e5c6698","fixation","img/fixation.png","null","","test","","","","","",""
"289.19999998807907","943248","pSARL_v2","pSARL_v24ktdpwur","60147144ea1597492e5c6698","freq","img/orange_2bandit_b2.png","70","70","test","1","180","180","9","",""
"null","943771","pSARL_v2","pSARL_v24ktdpwur","60147144ea1597492e5c6698","freq_resp","img/orange_2bandit_b.png","70","70","test","","","","9","",""
"null","943933","pSARL_v2","pSARL_v24ktdpwur","60147144ea1597492e5c6698","fixation","img/fixation.png","null","","test","","","","","",""
"304","944244","pSARL_v2","pSARL_v24ktdpwur","60147144ea1597492e5c6698","freq","img/orange_2bandit_b2.png","70","70","test","1","181","181","9","",""
"null","944750","pSARL_v2","pSARL_v24ktdpwur","60147144ea1597492e5c6698","freq_resp","img/orange_2bandit_b.png","70","70","test","","","","9","",""
"null","944915","pSARL_v2","pSARL_v24ktdpwur","60147144ea1597492e5c6698","fixation","img/fixation.png","null","","test","","","","","",""
"259.19999998807907","945184","pSARL_v2","pSARL_v24ktdpwur","60147144ea1597492e5c6698","freq","img/orange_2bandit_b2.png","70","70","test","1","182","182","9","",""
"null","945745","pSARL_v2","pSARL_v24ktdpwur","60147144ea1597492e5c6698","freq_resp","img/orange_2bandit_b.png","70","70","test","","","","9","",""
"null","945902","pSARL_v2","pSARL_v24ktdpwur","60147144ea1597492e5c6698","fixation","img/fixation.png","null","","test","","","","","",""
"412.5999999642372","946320","pSARL_v2","pSARL_v24ktdpwur","60147144ea1597492e5c6698","infreq","img/green_2bandit_b2.png","68","68","test","1","183","183","9","",""
"null","946719","pSARL_v2","pSARL_v24ktdpwur","60147144ea1597492e5c6698","infreq_resp","img/green_2bandit_b.png","68","68","test","","","","9","",""
"null","946881","pSARL_v2","pSARL_v24ktdpwur","60147144ea1597492e5c6698","fixation","img/fixation.png","null","","test","","","","","",""
"474.30000001192093","947364","pSARL_v2","pSARL_v24ktdpwur","60147144ea1597492e5c6698","freq","img/orange_2bandit_b2.png","70","70","test","1","184","184","9","",""
"null","947706","pSARL_v2","pSARL_v24ktdpwur","60147144ea1597492e5c6698","freq_resp","img/orange_2bandit_b.png","70","70","test","","","","9","",""
"null","947867","pSARL_v2","pSARL_v24ktdpwur","60147144ea1597492e5c6698","fixation","img/fixation.png","null","","test","","","","","",""
"408.89999997615814","948283","pSARL_v2","pSARL_v24ktdpwur","60147144ea1597492e5c6698","freq","img/orange_2bandit_b2.png","70","70","test","1","185","185","9","",""
"null","948690","pSARL_v2","pSARL_v24ktdpwur","60147144ea1597492e5c6698","freq_resp","img/orange_2bandit_b.png","70","70","test","","","","9","",""
"null","948851","pSARL_v2","pSARL_v24ktdpwur","60147144ea1597492e5c6698","fixation","img/fixation.png","null","","test","","","","","",""
"351.5","949208","pSARL_v2","pSARL_v24ktdpwur","60147144ea1597492e5c6698","freq","img/orange_2bandit_b2.png","70","70","test","1","186","186","9","",""
"null","949673","pSARL_v2","pSARL_v24ktdpwur","60147144ea1597492e5c6698","freq_resp","img/orange_2bandit_b.png","70","70","test","","","","9","",""
"null","949834","pSARL_v2","pSARL_v24ktdpwur","60147144ea1597492e5c6698","fixation","img/fixation.png","null","","test","","","","","",""
"392.69999998807907","950232","pSARL_v2","pSARL_v24ktdpwur","60147144ea1597492e5c6698","freq","img/orange_2bandit_b2.png","70","70","test","1","187","187","9","",""
"null","950646","pSARL_v2","pSARL_v24ktdpwur","60147144ea1597492e5c6698","freq_resp","img/orange_2bandit_b.png","70","70","test","","","","9","",""
"null","950802","pSARL_v2","pSARL_v24ktdpwur","60147144ea1597492e5c6698","fixation","img/fixation.png","null","","test","","","","","",""
"324.19999998807907","951135","pSARL_v2","pSARL_v24ktdpwur","60147144ea1597492e5c6698","freq","img/orange_2bandit_b2.png","70","70","test","1","188","188","9","",""
"null","951621","pSARL_v2","pSARL_v24ktdpwur","60147144ea1597492e5c6698","freq_resp","img/orange_2bandit_b.png","70","70","test","","","","9","",""
"null","951790","pSARL_v2","pSARL_v24ktdpwur","60147144ea1597492e5c6698","fixation","img/fixation.png","null","","test","","","","","",""
"349.69999998807907","952144","pSARL_v2","pSARL_v24ktdpwur","60147144ea1597492e5c6698","freq","img/orange_2bandit_b2.png","70","70","test","1","189","189","9","",""
"null","952601","pSARL_v2","pSARL_v24ktdpwur","60147144ea1597492e5c6698","freq_resp","img/orange_2bandit_b.png","70","70","test","","","","9","",""
"null","952760","pSARL_v2","pSARL_v24ktdpwur","60147144ea1597492e5c6698","fixation","img/fixation.png","null","","test","","","","","",""
"445.80000001192093","953215","pSARL_v2","pSARL_v24ktdpwur","60147144ea1597492e5c6698","freq","img/orange_2bandit_b2.png","70","70","test","1","190","190","9","",""
"null","953583","pSARL_v2","pSARL_v24ktdpwur","60147144ea1597492e5c6698","freq_resp","img/orange_2bandit_b.png","70","70","test","","","","9","",""
"null","953740","pSARL_v2","pSARL_v24ktdpwur","60147144ea1597492e5c6698","fixation","img/fixation.png","null","","test","","","","","",""
"542.5","954290","pSARL_v2","pSARL_v24ktdpwur","60147144ea1597492e5c6698","freq","img/orange_2bandit_b2.png","70","70","test","1","191","191","9","",""
"null","954564","pSARL_v2","pSARL_v24ktdpwur","60147144ea1597492e5c6698","freq_resp","img/orange_2bandit_b.png","70","70","test","","","","9","",""
"null","954721","pSARL_v2","pSARL_v24ktdpwur","60147144ea1597492e5c6698","fixation","img/fixation.png","null","","test","","","","","",""
"377.4000000357628","955104","pSARL_v2","pSARL_v24ktdpwur","60147144ea1597492e5c6698","freq","img/orange_2bandit_b2.png","70","70","test","1","192","192","9","",""
"null","955546","pSARL_v2","pSARL_v24ktdpwur","60147144ea1597492e5c6698","freq_resp","img/orange_2bandit_b.png","70","70","test","","","","9","",""
"null","955706","pSARL_v2","pSARL_v24ktdpwur","60147144ea1597492e5c6698","fixation","img/fixation.png","null","","test","","","","","",""
"338.30000001192093","956056","pSARL_v2","pSARL_v24ktdpwur","60147144ea1597492e5c6698","freq","img/orange_2bandit_b2.png","70","70","test","1","193","193","9","",""
"null","956535","pSARL_v2","pSARL_v24ktdpwur","60147144ea1597492e5c6698","freq_resp","img/orange_2bandit_b.png","70","70","test","","","","9","",""
"null","956695","pSARL_v2","pSARL_v24ktdpwur","60147144ea1597492e5c6698","fixation","img/fixation.png","null","","test","","","","","",""
"350.19999998807907","957055","pSARL_v2","pSARL_v24ktdpwur","60147144ea1597492e5c6698","freq","img/orange_2bandit_b2.png","70","70","test","1","194","194","9","",""
"null","957511","pSARL_v2","pSARL_v24ktdpwur","60147144ea1597492e5c6698","freq_resp","img/orange_2bandit_b.png","70","70","test","","","","9","",""
"null","957672","pSARL_v2","pSARL_v24ktdpwur","60147144ea1597492e5c6698","fixation","img/fixation.png","null","","test","","","","","",""
"357.5999999642372","958037","pSARL_v2","pSARL_v24ktdpwur","60147144ea1597492e5c6698","freq","img/orange_2bandit_b2.png","70","70","test","1","195","195","9","",""
"null","958485","pSARL_v2","pSARL_v24ktdpwur","60147144ea1597492e5c6698","freq_resp","img/orange_2bandit_b.png","70","70","test","","","","9","",""
"null","958642","pSARL_v2","pSARL_v24ktdpwur","60147144ea1597492e5c6698","fixation","img/fixation.png","null","","test","","","","","",""
"313.69999998807907","958960","pSARL_v2","pSARL_v24ktdpwur","60147144ea1597492e5c6698","freq","img/orange_2bandit_b2.png","70","70","test","1","196","196","9","",""
"null","959462","pSARL_v2","pSARL_v24ktdpwur","60147144ea1597492e5c6698","freq_resp","img/orange_2bandit_b.png","70","70","test","","","","9","",""
"null","959635","pSARL_v2","pSARL_v24ktdpwur","60147144ea1597492e5c6698","fixation","img/fixation.png","null","","test","","","","","",""
"327.30000001192093","959967","pSARL_v2","pSARL_v24ktdpwur","60147144ea1597492e5c6698","freq","img/orange_2bandit_b2.png","70","70","test","1","197","197","9","",""
"null","960452","pSARL_v2","pSARL_v24ktdpwur","60147144ea1597492e5c6698","freq_resp","img/orange_2bandit_b.png","70","70","test","","","","9","",""
"null","960622","pSARL_v2","pSARL_v24ktdpwur","60147144ea1597492e5c6698","fixation","img/fixation.png","null","","test","","","","","",""
"397.89999997615814","961030","pSARL_v2","pSARL_v24ktdpwur","60147144ea1597492e5c6698","freq","img/orange_2bandit_b2.png","70","70","test","1","198","198","9","",""
"null","961444","pSARL_v2","pSARL_v24ktdpwur","60147144ea1597492e5c6698","freq_resp","img/orange_2bandit_b.png","70","70","test","","","","9","",""
"null","961601","pSARL_v2","pSARL_v24ktdpwur","60147144ea1597492e5c6698","fixation","img/fixation.png","null","","test","","","","","",""
"375","961985","pSARL_v2","pSARL_v24ktdpwur","60147144ea1597492e5c6698","freq","img/orange_2bandit_b2.png","70","70","test","1","199","199","9","",""
"null","962429","pSARL_v2","pSARL_v24ktdpwur","60147144ea1597492e5c6698","freq_resp","img/orange_2bandit_b.png","70","70","test","","","","9","",""
"null","962585","pSARL_v2","pSARL_v24ktdpwur","60147144ea1597492e5c6698","fixation","img/fixation.png","null","","test","","","","","",""
"492.69999998807907","963086","pSARL_v2","pSARL_v24ktdpwur","60147144ea1597492e5c6698","infreq","img/green_2bandit_b2.png","68","68","test","1","200","200","9","",""
"null","963417","pSARL_v2","pSARL_v24ktdpwur","60147144ea1597492e5c6698","infreq_resp","img/green_2bandit_b.png","68","68","test","","","","9","",""
"null","963583","pSARL_v2","pSARL_v24ktdpwur","60147144ea1597492e5c6698","fixation","img/fixation.png","null","","test","","","","","",""
"406.10000002384186","964001","pSARL_v2","pSARL_v24ktdpwur","60147144ea1597492e5c6698","freq","img/orange_2bandit_b2.png","70","70","test","1","201","201","9","",""
"null","964410","pSARL_v2","pSARL_v24ktdpwur","60147144ea1597492e5c6698","freq_resp","img/orange_2bandit_b.png","70","70","test","","","","9","",""
"null","964568","pSARL_v2","pSARL_v24ktdpwur","60147144ea1597492e5c6698","fixation","img/fixation.png","null","","test","","","","","",""
"476.60000002384186","965055","pSARL_v2","pSARL_v24ktdpwur","60147144ea1597492e5c6698","freq","img/orange_2bandit_b2.png","70","70","test","1","202","202","9","",""
"null","965389","pSARL_v2","pSARL_v24ktdpwur","60147144ea1597492e5c6698","freq_resp","img/orange_2bandit_b.png","70","70","test","","","","9","",""
"null","965564","pSARL_v2","pSARL_v24ktdpwur","60147144ea1597492e5c6698","fixation","img/fixation.png","null","","test","","","","","",""
"432.2999999523163","966007","pSARL_v2","pSARL_v24ktdpwur","60147144ea1597492e5c6698","freq","img/orange_2bandit_b2.png","70","70","test","1","203","203","9","",""
"null","966384","pSARL_v2","pSARL_v24ktdpwur","60147144ea1597492e5c6698","freq_resp","img/orange_2bandit_b.png","70","70","test","","","","9","",""
"null","966547","pSARL_v2","pSARL_v24ktdpwur","60147144ea1597492e5c6698","fixation","img/fixation.png","null","","test","","","","","",""
"489","967047","pSARL_v2","pSARL_v24ktdpwur","60147144ea1597492e5c6698","reward","img/slot.png","74","","test","","","","","",""
"null","967819","pSARL_v2","pSARL_v24ktdpwur","60147144ea1597492e5c6698","points","<div class=""verylowPoints""> -3 </div>","null","na","test","","","","9","-3","8"
"null","968629","pSARL_v2","pSARL_v24ktdpwur","60147144ea1597492e5c6698","freq","img/orange_2bandit_b2.png","null","70","test","0","204","204","10","",""
"null","968784","pSARL_v2","pSARL_v24ktdpwur","60147144ea1597492e5c6698","fixation","img/fixation.png","null","","test","","","","","",""
"null","969602","pSARL_v2","pSARL_v24ktdpwur","60147144ea1597492e5c6698","freq","img/orange_2bandit_b2.png","null","70","test","0","205","205","10","",""
"null","969760","pSARL_v2","pSARL_v24ktdpwur","60147144ea1597492e5c6698","fixation","img/fixation.png","null","","test","","","","","",""
"117.89999997615814","969887","pSARL_v2","pSARL_v24ktdpwur","60147144ea1597492e5c6698","infreq","img/green_2bandit_b2.png","70","68","test","0","206","206","10","",""
"null","970594","pSARL_v2","pSARL_v24ktdpwur","60147144ea1597492e5c6698","infreq_resp","img/green_2bandit_b.png","70","68","test","","","","10","",""
"null","970764","pSARL_v2","pSARL_v24ktdpwur","60147144ea1597492e5c6698","fixation","img/fixation.png","null","","test","","","","","",""
"135.30000001192093","970907","pSARL_v2","pSARL_v24ktdpwur","60147144ea1597492e5c6698","freq","img/orange_2bandit_b2.png","70","70","test","1","207","207","10","",""
"null","971592","pSARL_v2","pSARL_v24ktdpwur","60147144ea1597492e5c6698","freq_resp","img/orange_2bandit_b.png","70","70","test","","","","10","",""
"null","971763","pSARL_v2","pSARL_v24ktdpwur","60147144ea1597492e5c6698","fixation","img/fixation.png","null","","test","","","","","",""
"259","972032","pSARL_v2","pSARL_v24ktdpwur","60147144ea1597492e5c6698","infreq","img/green_2bandit_b2.png","70","68","test","0","208","208","10","",""
"null","972593","pSARL_v2","pSARL_v24ktdpwur","60147144ea1597492e5c6698","infreq_resp","img/green_2bandit_b.png","70","68","test","","","","10","",""
"null","972756","pSARL_v2","pSARL_v24ktdpwur","60147144ea1597492e5c6698","fixation","img/fixation.png","null","","test","","","","","",""
"320.69999998807907","973088","pSARL_v2","pSARL_v24ktdpwur","60147144ea1597492e5c6698","freq","img/orange_2bandit_b2.png","70","70","test","1","209","209","10","",""
"null","973580","pSARL_v2","pSARL_v24ktdpwur","60147144ea1597492e5c6698","freq_resp","img/orange_2bandit_b.png","70","70","test","","","","10","",""
"null","973744","pSARL_v2","pSARL_v24ktdpwur","60147144ea1597492e5c6698","fixation","img/fixation.png","null","","test","","","","","",""
"290.80000001192093","974041","pSARL_v2","pSARL_v24ktdpwur","60147144ea1597492e5c6698","freq","img/orange_2bandit_b2.png","70","70","test","1","210","210","10","",""
"null","974571","pSARL_v2","pSARL_v24ktdpwur","60147144ea1597492e5c6698","freq_resp","img/orange_2bandit_b.png","70","70","test","","","","10","",""
"null","974735","pSARL_v2","pSARL_v24ktdpwur","60147144ea1597492e5c6698","fixation","img/fixation.png","null","","test","","","","","",""
"470","975215","pSARL_v2","pSARL_v24ktdpwur","60147144ea1597492e5c6698","freq","img/orange_2bandit_b2.png","70","70","test","1","211","211","10","",""
