"rt","time_elapsed","expId","subject","prolificID","trialType","stimulus","key_press","corrresp","phase","corr","trialNum","attentionRunNum","blockNum","points","rlNum"
"9739.400000000009","9748","pSARL_v2","pSARL_v23o6qq1ot","5cfecc1e96681500168a1799","","","","","","","","","","",""
"","11790","pSARL_v2","pSARL_v23o6qq1ot","5cfecc1e96681500168a1799","fullscreen","","","","","","","","","",""
"51974.100000000006","63776","pSARL_v2","pSARL_v23o6qq1ot","5cfecc1e96681500168a1799","","","","","","","","","","",""
"689.8999999999942","64472","pSARL_v2","pSARL_v23o6qq1ot","5cfecc1e96681500168a1799","freqPrac","img/green_2bandit_a2.png","70","70","prac","1","","","","",""
"689.8999999999942","64591","pSARL_v2","pSARL_v23o6qq1ot","5cfecc1e96681500168a1799","freqPrac_resp","img/green_2bandit_a.png","70","70","prac","","","","","",""
"null","64749","pSARL_v2","pSARL_v23o6qq1ot","5cfecc1e96681500168a1799","fixation","img/fixation.png","null","","prac","","","","","",""
"477.19999999998254","65232","pSARL_v2","pSARL_v23o6qq1ot","5cfecc1e96681500168a1799","infreqPrac","img/orange_2bandit_a2.png","68","68","prac","1","","","","",""
"477.19999999998254","65565","pSARL_v2","pSARL_v23o6qq1ot","5cfecc1e96681500168a1799","infreqPrac_resp","img/orange_2bandit_a.png","68","68","prac","","","","","",""
"null","65725","pSARL_v2","pSARL_v23o6qq1ot","5cfecc1e96681500168a1799","fixation","img/fixation.png","null","","prac","","","","","",""
"309","66039","pSARL_v2","pSARL_v23o6qq1ot","5cfecc1e96681500168a1799","freqPrac","img/green_2bandit_a2.png","70","70","prac","1","","","","",""
"309","66538","pSARL_v2","pSARL_v23o6qq1ot","5cfecc1e96681500168a1799","freqPrac_resp","img/green_2bandit_a.png","70","70","prac","","","","","",""
"null","66698","pSARL_v2","pSARL_v23o6qq1ot","5cfecc1e96681500168a1799","fixation","img/fixation.png","null","","prac","","","","","",""
"382.29999999998836","67085","pSARL_v2","pSARL_v23o6qq1ot","5cfecc1e96681500168a1799","infreqPrac","img/orange_2bandit_a2.png","68","68","prac","1","","","","",""
"382.29999999998836","67508","pSARL_v2","pSARL_v23o6qq1ot","5cfecc1e96681500168a1799","infreqPrac_resp","img/orange_2bandit_a.png","68","68","prac","","","","","",""
"null","67665","pSARL_v2","pSARL_v23o6qq1ot","5cfecc1e96681500168a1799","fixation","img/fixation.png","null","","prac","","","","","",""
"351","68019","pSARL_v2","pSARL_v23o6qq1ot","5cfecc1e96681500168a1799","infreqPrac","img/orange_2bandit_a2.png","68","68","prac","1","","","","",""
"351","68480","pSARL_v2","pSARL_v23o6qq1ot","5cfecc1e96681500168a1799","infreqPrac_resp","img/orange_2bandit_a.png","68","68","prac","","","","","",""
"null","68647","pSARL_v2","pSARL_v23o6qq1ot","5cfecc1e96681500168a1799","fixation","img/fixation.png","null","","prac","","","","","",""
"293.1000000000058","68944","pSARL_v2","pSARL_v23o6qq1ot","5cfecc1e96681500168a1799","infreqPrac","img/orange_2bandit_a2.png","68","68","prac","1","","","","",""
"293.1000000000058","69470","pSARL_v2","pSARL_v23o6qq1ot","5cfecc1e96681500168a1799","infreqPrac_resp","img/orange_2bandit_a.png","68","68","prac","","","","","",""
"null","69632","pSARL_v2","pSARL_v23o6qq1ot","5cfecc1e96681500168a1799","fixation","img/fixation.png","null","","prac","","","","","",""
"223.5","69859","pSARL_v2","pSARL_v23o6qq1ot","5cfecc1e96681500168a1799","freqPrac","img/green_2bandit_a2.png","68","70","prac","0","","","","",""
"223.5","70448","pSARL_v2","pSARL_v23o6qq1ot","5cfecc1e96681500168a1799","freqPrac_resp","img/green_2bandit_a.png","68","70","prac","","","","","",""
"null","71453","pSARL_v2","pSARL_v23o6qq1ot","5cfecc1e96681500168a1799","feedback","img/wrongKey.png","null","na","prac","","","","","",""
"null","71615","pSARL_v2","pSARL_v23o6qq1ot","5cfecc1e96681500168a1799","fixation","img/fixation.png","null","","prac","","","","","",""
"520","72140","pSARL_v2","pSARL_v23o6qq1ot","5cfecc1e96681500168a1799","infreqPrac","img/orange_2bandit_a2.png","68","68","prac","1","","","","",""
"520","72428","pSARL_v2","pSARL_v23o6qq1ot","5cfecc1e96681500168a1799","infreqPrac_resp","img/orange_2bandit_a.png","68","68","prac","","","","","",""
"null","72588","pSARL_v2","pSARL_v23o6qq1ot","5cfecc1e96681500168a1799","fixation","img/fixation.png","null","","prac","","","","","",""
"399.20000000001164","72992","pSARL_v2","pSARL_v23o6qq1ot","5cfecc1e96681500168a1799","freqPrac","img/green_2bandit_a2.png","70","70","prac","1","","","","",""
"399.20000000001164","73407","pSARL_v2","pSARL_v23o6qq1ot","5cfecc1e96681500168a1799","freqPrac_resp","img/green_2bandit_a.png","70","70","prac","","","","","",""
"null","73565","pSARL_v2","pSARL_v23o6qq1ot","5cfecc1e96681500168a1799","fixation","img/fixation.png","null","","prac","","","","","",""
"405.70000000001164","73975","pSARL_v2","pSARL_v23o6qq1ot","5cfecc1e96681500168a1799","freqPrac","img/green_2bandit_a2.png","70","70","prac","1","","","","",""
"405.70000000001164","74375","pSARL_v2","pSARL_v23o6qq1ot","5cfecc1e96681500168a1799","freqPrac_resp","img/green_2bandit_a.png","70","70","prac","","","","","",""
"null","74541","pSARL_v2","pSARL_v23o6qq1ot","5cfecc1e96681500168a1799","fixation","img/fixation.png","null","","prac","","","","","",""
"15415.399999999994","89961","pSARL_v2","pSARL_v23o6qq1ot","5cfecc1e96681500168a1799","","","","","prac","","","","","",""
"635.8000000000175","90601","pSARL_v2","pSARL_v23o6qq1ot","5cfecc1e96681500168a1799","rewardPractice","img/slot.png","74","","prac","","","","","",""
"null","91361","pSARL_v2","pSARL_v23o6qq1ot","5cfecc1e96681500168a1799","feedback","<div class=""veryhighPoints""> +15 </div>","null","na","prac","","","","","",""
"null","91523","pSARL_v2","pSARL_v23o6qq1ot","5cfecc1e96681500168a1799","fixation","img/fixation.png","null","","prac","","","","","",""
"11614.600000000006","103142","pSARL_v2","pSARL_v23o6qq1ot","5cfecc1e96681500168a1799","","","","","prac","","","","","",""
"529.2999999999884","103677","pSARL_v2","pSARL_v23o6qq1ot","5cfecc1e96681500168a1799","freq","img/green_2bandit_a2.png","70","70","test","1","1","1","1","",""
"null","103960","pSARL_v2","pSARL_v23o6qq1ot","5cfecc1e96681500168a1799","freq_resp","img/green_2bandit_a.png","70","70","test","","","","1","",""
"null","104124","pSARL_v2","pSARL_v23o6qq1ot","5cfecc1e96681500168a1799","fixation","img/fixation.png","null","","test","","","","","",""
"349","104480","pSARL_v2","pSARL_v23o6qq1ot","5cfecc1e96681500168a1799","freq","img/green_2bandit_a2.png","70","70","test","1","2","2","1","",""
"null","104950","pSARL_v2","pSARL_v23o6qq1ot","5cfecc1e96681500168a1799","freq_resp","img/green_2bandit_a.png","70","70","test","","","","1","",""
"null","105114","pSARL_v2","pSARL_v23o6qq1ot","5cfecc1e96681500168a1799","fixation","img/fixation.png","null","","test","","","","","",""
"350.29999999998836","105469","pSARL_v2","pSARL_v23o6qq1ot","5cfecc1e96681500168a1799","infreq","img/orange_2bandit_a2.png","68","68","test","1","3","3","1","",""
"null","105929","pSARL_v2","pSARL_v23o6qq1ot","5cfecc1e96681500168a1799","infreq_resp","img/orange_2bandit_a.png","68","68","test","","","","1","",""
"null","106092","pSARL_v2","pSARL_v23o6qq1ot","5cfecc1e96681500168a1799","fixation","img/fixation.png","null","","test","","","","","",""
"551.3999999999942","106650","pSARL_v2","pSARL_v23o6qq1ot","5cfecc1e96681500168a1799","freq","img/green_2bandit_a2.png","70","70","test","1","4","4","1","",""
"null","106908","pSARL_v2","pSARL_v23o6qq1ot","5cfecc1e96681500168a1799","freq_resp","img/green_2bandit_a.png","70","70","test","","","","1","",""
"null","107074","pSARL_v2","pSARL_v23o6qq1ot","5cfecc1e96681500168a1799","fixation","img/fixation.png","null","","test","","","","","",""
"429.3999999999942","107508","pSARL_v2","pSARL_v23o6qq1ot","5cfecc1e96681500168a1799","freq","img/green_2bandit_a2.png","70","70","test","1","5","5","1","",""
"null","107893","pSARL_v2","pSARL_v23o6qq1ot","5cfecc1e96681500168a1799","freq_resp","img/green_2bandit_a.png","70","70","test","","","","1","",""
"null","108066","pSARL_v2","pSARL_v23o6qq1ot","5cfecc1e96681500168a1799","fixation","img/fixation.png","null","","test","","","","","",""
"326.5","108397","pSARL_v2","pSARL_v23o6qq1ot","5cfecc1e96681500168a1799","freq","img/green_2bandit_a2.png","70","70","test","1","6","6","1","",""
"null","108888","pSARL_v2","pSARL_v23o6qq1ot","5cfecc1e96681500168a1799","freq_resp","img/green_2bandit_a.png","70","70","test","","","","1","",""
"null","109044","pSARL_v2","pSARL_v23o6qq1ot","5cfecc1e96681500168a1799","fixation","img/fixation.png","null","","test","","","","","",""
"285","109334","pSARL_v2","pSARL_v23o6qq1ot","5cfecc1e96681500168a1799","freq","img/green_2bandit_a2.png","70","70","test","1","7","7","1","",""
"null","109865","pSARL_v2","pSARL_v23o6qq1ot","5cfecc1e96681500168a1799","freq_resp","img/green_2bandit_a.png","70","70","test","","","","1","",""
"null","110031","pSARL_v2","pSARL_v23o6qq1ot","5cfecc1e96681500168a1799","fixation","img/fixation.png","null","","test","","","","","",""
"284.20000000001164","110320","pSARL_v2","pSARL_v23o6qq1ot","5cfecc1e96681500168a1799","freq","img/green_2bandit_a2.png","70","70","test","1","8","8","1","",""
"null","110847","pSARL_v2","pSARL_v23o6qq1ot","5cfecc1e96681500168a1799","freq_resp","img/green_2bandit_a.png","70","70","test","","","","1","",""
"null","111011","pSARL_v2","pSARL_v23o6qq1ot","5cfecc1e96681500168a1799","fixation","img/fixation.png","null","","test","","","","","",""
"323.5","111339","pSARL_v2","pSARL_v23o6qq1ot","5cfecc1e96681500168a1799","freq","img/green_2bandit_a2.png","70","70","test","1","9","9","1","",""
"null","111826","pSARL_v2","pSARL_v23o6qq1ot","5cfecc1e96681500168a1799","freq_resp","img/green_2bandit_a.png","70","70","test","","","","1","",""
"null","111995","pSARL_v2","pSARL_v23o6qq1ot","5cfecc1e96681500168a1799","fixation","img/fixation.png","null","","test","","","","","",""
"296.5","112295","pSARL_v2","pSARL_v23o6qq1ot","5cfecc1e96681500168a1799","freq","img/green_2bandit_a2.png","70","70","test","1","10","10","1","",""
"null","112817","pSARL_v2","pSARL_v23o6qq1ot","5cfecc1e96681500168a1799","freq_resp","img/green_2bandit_a.png","70","70","test","","","","1","",""
"null","112978","pSARL_v2","pSARL_v23o6qq1ot","5cfecc1e96681500168a1799","fixation","img/fixation.png","null","","test","","","","","",""
"256","113241","pSARL_v2","pSARL_v23o6qq1ot","5cfecc1e96681500168a1799","freq","img/green_2bandit_a2.png","70","70","test","1","11","11","1","",""
"null","113806","pSARL_v2","pSARL_v23o6qq1ot","5cfecc1e96681500168a1799","freq_resp","img/green_2bandit_a.png","70","70","test","","","","1","",""
"null","113962","pSARL_v2","pSARL_v23o6qq1ot","5cfecc1e96681500168a1799","fixation","img/fixation.png","null","","test","","","","","",""
"275.6000000000058","114242","pSARL_v2","pSARL_v23o6qq1ot","5cfecc1e96681500168a1799","freq","img/green_2bandit_a2.png","70","70","test","1","12","12","1","",""
"null","114776","pSARL_v2","pSARL_v23o6qq1ot","5cfecc1e96681500168a1799","freq_resp","img/green_2bandit_a.png","70","70","test","","","","1","",""
"null","114934","pSARL_v2","pSARL_v23o6qq1ot","5cfecc1e96681500168a1799","fixation","img/fixation.png","null","","test","","","","","",""
"364.8999999999942","115304","pSARL_v2","pSARL_v23o6qq1ot","5cfecc1e96681500168a1799","infreq","img/orange_2bandit_a2.png","68","68","test","1","13","13","1","",""
"null","115748","pSARL_v2","pSARL_v23o6qq1ot","5cfecc1e96681500168a1799","infreq_resp","img/orange_2bandit_a.png","68","68","test","","","","1","",""
"null","115911","pSARL_v2","pSARL_v23o6qq1ot","5cfecc1e96681500168a1799","fixation","img/fixation.png","null","","test","","","","","",""
"342.80000000001746","116259","pSARL_v2","pSARL_v23o6qq1ot","5cfecc1e96681500168a1799","freq","img/green_2bandit_a2.png","70","70","test","1","14","14","1","",""
"null","116726","pSARL_v2","pSARL_v23o6qq1ot","5cfecc1e96681500168a1799","freq_resp","img/green_2bandit_a.png","70","70","test","","","","1","",""
"null","116885","pSARL_v2","pSARL_v23o6qq1ot","5cfecc1e96681500168a1799","fixation","img/fixation.png","null","","test","","","","","",""
"277.5","117168","pSARL_v2","pSARL_v23o6qq1ot","5cfecc1e96681500168a1799","freq","img/green_2bandit_a2.png","70","70","test","1","15","15","1","",""
"null","117697","pSARL_v2","pSARL_v23o6qq1ot","5cfecc1e96681500168a1799","freq_resp","img/green_2bandit_a.png","70","70","test","","","","1","",""
"null","117852","pSARL_v2","pSARL_v23o6qq1ot","5cfecc1e96681500168a1799","fixation","img/fixation.png","null","","test","","","","","",""
"262.1000000000058","118119","pSARL_v2","pSARL_v23o6qq1ot","5cfecc1e96681500168a1799","freq","img/green_2bandit_a2.png","70","70","test","1","16","16","1","",""
"null","118671","pSARL_v2","pSARL_v23o6qq1ot","5cfecc1e96681500168a1799","freq_resp","img/green_2bandit_a.png","70","70","test","","","","1","",""
"null","118828","pSARL_v2","pSARL_v23o6qq1ot","5cfecc1e96681500168a1799","fixation","img/fixation.png","null","","test","","","","","",""
"263.1000000000058","119095","pSARL_v2","pSARL_v23o6qq1ot","5cfecc1e96681500168a1799","freq","img/green_2bandit_a2.png","70","70","test","1","17","17","1","",""
"null","119649","pSARL_v2","pSARL_v23o6qq1ot","5cfecc1e96681500168a1799","freq_resp","img/green_2bandit_a.png","70","70","test","","","","1","",""
"null","119811","pSARL_v2","pSARL_v23o6qq1ot","5cfecc1e96681500168a1799","fixation","img/fixation.png","null","","test","","","","","",""
"286.20000000001164","120103","pSARL_v2","pSARL_v23o6qq1ot","5cfecc1e96681500168a1799","freq","img/green_2bandit_a2.png","70","70","test","1","18","18","1","",""
"null","120622","pSARL_v2","pSARL_v23o6qq1ot","5cfecc1e96681500168a1799","freq_resp","img/green_2bandit_a.png","70","70","test","","","","1","",""
"null","120785","pSARL_v2","pSARL_v23o6qq1ot","5cfecc1e96681500168a1799","fixation","img/fixation.png","null","","test","","","","","",""
"256.1000000000058","121045","pSARL_v2","pSARL_v23o6qq1ot","5cfecc1e96681500168a1799","freq","img/green_2bandit_a2.png","70","70","test","1","19","19","1","",""
"null","121608","pSARL_v2","pSARL_v23o6qq1ot","5cfecc1e96681500168a1799","freq_resp","img/green_2bandit_a.png","70","70","test","","","","1","",""
"null","121777","pSARL_v2","pSARL_v23o6qq1ot","5cfecc1e96681500168a1799","fixation","img/fixation.png","null","","test","","","","","",""
"552.3999999999942","122335","pSARL_v2","pSARL_v23o6qq1ot","5cfecc1e96681500168a1799","reward","img/slot.png","74","","test","","","","","",""
"null","123100","pSARL_v2","pSARL_v23o6qq1ot","5cfecc1e96681500168a1799","points","<div class=""verylowPoints""> -6 </div>","null","na","test","","","","1","-6","0"
"629.6000000000058","123735","pSARL_v2","pSARL_v23o6qq1ot","5cfecc1e96681500168a1799","freq","img/green_2bandit_a2.png","70","70","test","1","20","20","2","",""
"null","123918","pSARL_v2","pSARL_v23o6qq1ot","5cfecc1e96681500168a1799","freq_resp","img/green_2bandit_a.png","70","70","test","","","","2","",""
"null","124074","pSARL_v2","pSARL_v23o6qq1ot","5cfecc1e96681500168a1799","fixation","img/fixation.png","null","","test","","","","","",""
"449.3999999999942","124528","pSARL_v2","pSARL_v23o6qq1ot","5cfecc1e96681500168a1799","freq","img/green_2bandit_a2.png","70","70","test","1","21","21","2","",""
"null","124898","pSARL_v2","pSARL_v23o6qq1ot","5cfecc1e96681500168a1799","freq_resp","img/green_2bandit_a.png","70","70","test","","","","2","",""
"null","125068","pSARL_v2","pSARL_v23o6qq1ot","5cfecc1e96681500168a1799","fixation","img/fixation.png","null","","test","","","","","",""
"256.19999999998254","125331","pSARL_v2","pSARL_v23o6qq1ot","5cfecc1e96681500168a1799","freq","img/green_2bandit_a2.png","70","70","test","1","22","22","2","",""
"null","125880","pSARL_v2","pSARL_v23o6qq1ot","5cfecc1e96681500168a1799","freq_resp","img/green_2bandit_a.png","70","70","test","","","","2","",""
"null","126036","pSARL_v2","pSARL_v23o6qq1ot","5cfecc1e96681500168a1799","fixation","img/fixation.png","null","","test","","","","","",""
"412.5","126454","pSARL_v2","pSARL_v23o6qq1ot","5cfecc1e96681500168a1799","freq","img/green_2bandit_a2.png","70","70","test","1","23","23","2","",""
"null","126855","pSARL_v2","pSARL_v23o6qq1ot","5cfecc1e96681500168a1799","freq_resp","img/green_2bandit_a.png","70","70","test","","","","2","",""
"null","127014","pSARL_v2","pSARL_v23o6qq1ot","5cfecc1e96681500168a1799","fixation","img/fixation.png","null","","test","","","","","",""
"273.79999999998836","127293","pSARL_v2","pSARL_v23o6qq1ot","5cfecc1e96681500168a1799","freq","img/green_2bandit_a2.png","70","70","test","1","24","24","2","",""
"null","127829","pSARL_v2","pSARL_v23o6qq1ot","5cfecc1e96681500168a1799","freq_resp","img/green_2bandit_a.png","70","70","test","","","","2","",""
"null","127989","pSARL_v2","pSARL_v23o6qq1ot","5cfecc1e96681500168a1799","fixation","img/fixation.png","null","","test","","","","","",""
"268","128262","pSARL_v2","pSARL_v23o6qq1ot","5cfecc1e96681500168a1799","freq","img/green_2bandit_a2.png","70","70","test","1","25","25","2","",""
"null","128814","pSARL_v2","pSARL_v23o6qq1ot","5cfecc1e96681500168a1799","freq_resp","img/green_2bandit_a.png","70","70","test","","","","2","",""
"null","128969","pSARL_v2","pSARL_v23o6qq1ot","5cfecc1e96681500168a1799","fixation","img/fixation.png","null","","test","","","","","",""
"247.20000000001164","129221","pSARL_v2","pSARL_v23o6qq1ot","5cfecc1e96681500168a1799","freq","img/green_2bandit_a2.png","70","70","test","1","26","26","2","",""
"null","129789","pSARL_v2","pSARL_v23o6qq1ot","5cfecc1e96681500168a1799","freq_resp","img/green_2bandit_a.png","70","70","test","","","","2","",""
"null","129952","pSARL_v2","pSARL_v23o6qq1ot","5cfecc1e96681500168a1799","fixation","img/fixation.png","null","","test","","","","","",""
"215.5","130173","pSARL_v2","pSARL_v23o6qq1ot","5cfecc1e96681500168a1799","freq","img/green_2bandit_a2.png","70","70","test","1","27","27","2","",""
"null","130778","pSARL_v2","pSARL_v23o6qq1ot","5cfecc1e96681500168a1799","freq_resp","img/green_2bandit_a.png","70","70","test","","","","2","",""
"null","130935","pSARL_v2","pSARL_v23o6qq1ot","5cfecc1e96681500168a1799","fixation","img/fixation.png","null","","test","","","","","",""
"232.40000000002328","131171","pSARL_v2","pSARL_v23o6qq1ot","5cfecc1e96681500168a1799","freq","img/green_2bandit_a2.png","70","70","test","1","28","28","2","",""
"null","131745","pSARL_v2","pSARL_v23o6qq1ot","5cfecc1e96681500168a1799","freq_resp","img/green_2bandit_a.png","70","70","test","","","","2","",""
"null","131910","pSARL_v2","pSARL_v23o6qq1ot","5cfecc1e96681500168a1799","fixation","img/fixation.png","null","","test","","","","","",""
"233","132148","pSARL_v2","pSARL_v23o6qq1ot","5cfecc1e96681500168a1799","freq","img/green_2bandit_a2.png","70","70","test","1","29","29","2","",""
"null","132738","pSARL_v2","pSARL_v23o6qq1ot","5cfecc1e96681500168a1799","freq_resp","img/green_2bandit_a.png","70","70","test","","","","2","",""
"null","132901","pSARL_v2","pSARL_v23o6qq1ot","5cfecc1e96681500168a1799","fixation","img/fixation.png","null","","test","","","","","",""
"240.90000000002328","133148","pSARL_v2","pSARL_v23o6qq1ot","5cfecc1e96681500168a1799","freq","img/green_2bandit_a2.png","70","70","test","1","30","30","2","",""
"null","133713","pSARL_v2","pSARL_v23o6qq1ot","5cfecc1e96681500168a1799","freq_resp","img/green_2bandit_a.png","70","70","test","","","","2","",""
"null","133877","pSARL_v2","pSARL_v23o6qq1ot","5cfecc1e96681500168a1799","fixation","img/fixation.png","null","","test","","","","","",""
"241.89999999996508","134124","pSARL_v2","pSARL_v23o6qq1ot","5cfecc1e96681500168a1799","freq","img/green_2bandit_a2.png","70","70","test","1","31","31","2","",""
"null","134688","pSARL_v2","pSARL_v23o6qq1ot","5cfecc1e96681500168a1799","freq_resp","img/green_2bandit_a.png","70","70","test","","","","2","",""
"null","134845","pSARL_v2","pSARL_v23o6qq1ot","5cfecc1e96681500168a1799","fixation","img/fixation.png","null","","test","","","","","",""
"251.09999999997672","135102","pSARL_v2","pSARL_v23o6qq1ot","5cfecc1e96681500168a1799","freq","img/green_2bandit_a2.png","70","70","test","1","32","32","2","",""
"null","135670","pSARL_v2","pSARL_v23o6qq1ot","5cfecc1e96681500168a1799","freq_resp","img/green_2bandit_a.png","70","70","test","","","","2","",""
"null","135835","pSARL_v2","pSARL_v23o6qq1ot","5cfecc1e96681500168a1799","fixation","img/fixation.png","null","","test","","","","","",""
"393","136233","pSARL_v2","pSARL_v23o6qq1ot","5cfecc1e96681500168a1799","infreq","img/orange_2bandit_a2.png","68","68","test","1","33","33","2","",""
"null","136657","pSARL_v2","pSARL_v23o6qq1ot","5cfecc1e96681500168a1799","infreq_resp","img/orange_2bandit_a.png","68","68","test","","","","2","",""
"null","136827","pSARL_v2","pSARL_v23o6qq1ot","5cfecc1e96681500168a1799","fixation","img/fixation.png","null","","test","","","","","",""
"311.6000000000349","137145","pSARL_v2","pSARL_v23o6qq1ot","5cfecc1e96681500168a1799","freq","img/green_2bandit_a2.png","70","70","test","1","34","34","2","",""
"null","137652","pSARL_v2","pSARL_v23o6qq1ot","5cfecc1e96681500168a1799","freq_resp","img/green_2bandit_a.png","70","70","test","","","","2","",""
"null","137809","pSARL_v2","pSARL_v23o6qq1ot","5cfecc1e96681500168a1799","fixation","img/fixation.png","null","","test","","","","","",""
"293.0999999999767","138108","pSARL_v2","pSARL_v23o6qq1ot","5cfecc1e96681500168a1799","freq","img/green_2bandit_a2.png","70","70","test","1","35","35","2","",""
"null","138631","pSARL_v2","pSARL_v23o6qq1ot","5cfecc1e96681500168a1799","freq_resp","img/green_2bandit_a.png","70","70","test","","","","2","",""
"null","138793","pSARL_v2","pSARL_v23o6qq1ot","5cfecc1e96681500168a1799","fixation","img/fixation.png","null","","test","","","","","",""
"243.70000000001164","139042","pSARL_v2","pSARL_v23o6qq1ot","5cfecc1e96681500168a1799","freq","img/green_2bandit_a2.png","70","70","test","1","36","36","2","",""
"null","139605","pSARL_v2","pSARL_v23o6qq1ot","5cfecc1e96681500168a1799","freq_resp","img/green_2bandit_a.png","70","70","test","","","","2","",""
"null","139762","pSARL_v2","pSARL_v23o6qq1ot","5cfecc1e96681500168a1799","fixation","img/fixation.png","null","","test","","","","","",""
"278.6000000000349","140047","pSARL_v2","pSARL_v23o6qq1ot","5cfecc1e96681500168a1799","freq","img/green_2bandit_a2.png","70","70","test","1","37","37","2","",""
"null","140588","pSARL_v2","pSARL_v23o6qq1ot","5cfecc1e96681500168a1799","freq_resp","img/green_2bandit_a.png","70","70","test","","","","2","",""
"null","140754","pSARL_v2","pSARL_v23o6qq1ot","5cfecc1e96681500168a1799","fixation","img/fixation.png","null","","test","","","","","",""
"322.9000000000233","141083","pSARL_v2","pSARL_v23o6qq1ot","5cfecc1e96681500168a1799","infreq","img/orange_2bandit_a2.png","68","68","test","1","38","38","2","",""
"null","141569","pSARL_v2","pSARL_v23o6qq1ot","5cfecc1e96681500168a1799","infreq_resp","img/orange_2bandit_a.png","68","68","test","","","","2","",""
"null","141726","pSARL_v2","pSARL_v23o6qq1ot","5cfecc1e96681500168a1799","fixation","img/fixation.png","null","","test","","","","","",""
"353.4000000000233","142086","pSARL_v2","pSARL_v23o6qq1ot","5cfecc1e96681500168a1799","freq","img/green_2bandit_a2.png","70","70","test","1","39","39","2","",""
"null","142553","pSARL_v2","pSARL_v23o6qq1ot","5cfecc1e96681500168a1799","freq_resp","img/green_2bandit_a.png","70","70","test","","","","2","",""
"null","142720","pSARL_v2","pSARL_v23o6qq1ot","5cfecc1e96681500168a1799","fixation","img/fixation.png","null","","test","","","","","",""
"334.70000000001164","143059","pSARL_v2","pSARL_v23o6qq1ot","5cfecc1e96681500168a1799","freq","img/green_2bandit_a2.png","70","70","test","1","40","40","2","",""
"null","143539","pSARL_v2","pSARL_v23o6qq1ot","5cfecc1e96681500168a1799","freq_resp","img/green_2bandit_a.png","70","70","test","","","","2","",""
"null","143702","pSARL_v2","pSARL_v23o6qq1ot","5cfecc1e96681500168a1799","fixation","img/fixation.png","null","","test","","","","","",""
"269.29999999998836","143976","pSARL_v2","pSARL_v23o6qq1ot","5cfecc1e96681500168a1799","freq","img/green_2bandit_a2.png","70","70","test","1","41","41","2","",""
"null","144520","pSARL_v2","pSARL_v23o6qq1ot","5cfecc1e96681500168a1799","freq_resp","img/green_2bandit_a.png","70","70","test","","","","2","",""
"null","144685","pSARL_v2","pSARL_v23o6qq1ot","5cfecc1e96681500168a1799","fixation","img/fixation.png","null","","test","","","","","",""
"310.29999999998836","145002","pSARL_v2","pSARL_v23o6qq1ot","5cfecc1e96681500168a1799","freq","img/green_2bandit_a2.png","70","70","test","1","42","42","2","",""
"null","145506","pSARL_v2","pSARL_v23o6qq1ot","5cfecc1e96681500168a1799","freq_resp","img/green_2bandit_a.png","70","70","test","","","","2","",""
"null","145669","pSARL_v2","pSARL_v23o6qq1ot","5cfecc1e96681500168a1799","fixation","img/fixation.png","null","","test","","","","","",""
"250.5","145924","pSARL_v2","pSARL_v23o6qq1ot","5cfecc1e96681500168a1799","freq","img/green_2bandit_a2.png","70","70","test","1","43","43","2","",""
"null","146480","pSARL_v2","pSARL_v23o6qq1ot","5cfecc1e96681500168a1799","freq_resp","img/green_2bandit_a.png","70","70","test","","","","2","",""
"null","146639","pSARL_v2","pSARL_v23o6qq1ot","5cfecc1e96681500168a1799","fixation","img/fixation.png","null","","test","","","","","",""
"250","146895","pSARL_v2","pSARL_v23o6qq1ot","5cfecc1e96681500168a1799","freq","img/green_2bandit_a2.png","70","70","test","1","44","44","2","",""
"null","147453","pSARL_v2","pSARL_v23o6qq1ot","5cfecc1e96681500168a1799","freq_resp","img/green_2bandit_a.png","70","70","test","","","","2","",""
"null","147621","pSARL_v2","pSARL_v23o6qq1ot","5cfecc1e96681500168a1799","fixation","img/fixation.png","null","","test","","","","","",""
"301.1000000000349","147929","pSARL_v2","pSARL_v23o6qq1ot","5cfecc1e96681500168a1799","freq","img/green_2bandit_a2.png","70","70","test","1","45","45","2","",""
"null","148438","pSARL_v2","pSARL_v23o6qq1ot","5cfecc1e96681500168a1799","freq_resp","img/green_2bandit_a.png","70","70","test","","","","2","",""
"null","148594","pSARL_v2","pSARL_v23o6qq1ot","5cfecc1e96681500168a1799","fixation","img/fixation.png","null","","test","","","","","",""
"562.2999999999884","149161","pSARL_v2","pSARL_v23o6qq1ot","5cfecc1e96681500168a1799","reward","img/slot.png","74","","test","","","","","",""
"null","149917","pSARL_v2","pSARL_v23o6qq1ot","5cfecc1e96681500168a1799","points","<div class=""verylowPoints""> -11 </div>","null","na","test","","","","2","-11","1"
"445.9000000000233","150370","pSARL_v2","pSARL_v23o6qq1ot","5cfecc1e96681500168a1799","freq","img/green_2bandit_a2.png","70","70","test","1","46","46","3","",""
"null","150740","pSARL_v2","pSARL_v23o6qq1ot","5cfecc1e96681500168a1799","freq_resp","img/green_2bandit_a.png","70","70","test","","","","3","",""
"null","150910","pSARL_v2","pSARL_v23o6qq1ot","5cfecc1e96681500168a1799","fixation","img/fixation.png","null","","test","","","","","",""
"449.79999999998836","151364","pSARL_v2","pSARL_v23o6qq1ot","5cfecc1e96681500168a1799","freq","img/green_2bandit_a2.png","70","70","test","1","47","47","3","",""
"null","151733","pSARL_v2","pSARL_v23o6qq1ot","5cfecc1e96681500168a1799","freq_resp","img/green_2bandit_a.png","70","70","test","","","","3","",""
"null","151893","pSARL_v2","pSARL_v23o6qq1ot","5cfecc1e96681500168a1799","fixation","img/fixation.png","null","","test","","","","","",""
"300.1000000000349","152197","pSARL_v2","pSARL_v23o6qq1ot","5cfecc1e96681500168a1799","freq","img/green_2bandit_a2.png","70","70","test","1","48","48","3","",""
"null","152707","pSARL_v2","pSARL_v23o6qq1ot","5cfecc1e96681500168a1799","freq_resp","img/green_2bandit_a.png","70","70","test","","","","3","",""
"null","152877","pSARL_v2","pSARL_v23o6qq1ot","5cfecc1e96681500168a1799","fixation","img/fixation.png","null","","test","","","","","",""
"269.4000000000233","153152","pSARL_v2","pSARL_v23o6qq1ot","5cfecc1e96681500168a1799","freq","img/green_2bandit_a2.png","70","70","test","1","49","49","3","",""
"null","153698","pSARL_v2","pSARL_v23o6qq1ot","5cfecc1e96681500168a1799","freq_resp","img/green_2bandit_a.png","70","70","test","","","","3","",""
"null","153857","pSARL_v2","pSARL_v23o6qq1ot","5cfecc1e96681500168a1799","fixation","img/fixation.png","null","","test","","","","","",""
"250.09999999997672","154113","pSARL_v2","pSARL_v23o6qq1ot","5cfecc1e96681500168a1799","freq","img/green_2bandit_a2.png","70","70","test","1","50","50","3","",""
"null","154670","pSARL_v2","pSARL_v23o6qq1ot","5cfecc1e96681500168a1799","freq_resp","img/green_2bandit_a.png","70","70","test","","","","3","",""
"null","154836","pSARL_v2","pSARL_v23o6qq1ot","5cfecc1e96681500168a1799","fixation","img/fixation.png","null","","test","","","","","",""
"368.70000000001164","155211","pSARL_v2","pSARL_v23o6qq1ot","5cfecc1e96681500168a1799","infreq","img/orange_2bandit_a2.png","68","68","test","1","51","51","3","",""
"null","155660","pSARL_v2","pSARL_v23o6qq1ot","5cfecc1e96681500168a1799","infreq_resp","img/orange_2bandit_a.png","68","68","test","","","","3","",""
"null","155819","pSARL_v2","pSARL_v23o6qq1ot","5cfecc1e96681500168a1799","fixation","img/fixation.png","null","","test","","","","","",""
"387.70000000001164","156211","pSARL_v2","pSARL_v23o6qq1ot","5cfecc1e96681500168a1799","freq","img/green_2bandit_a2.png","70","70","test","1","52","52","3","",""
"null","156629","pSARL_v2","pSARL_v23o6qq1ot","5cfecc1e96681500168a1799","freq_resp","img/green_2bandit_a.png","70","70","test","","","","3","",""
"null","156789","pSARL_v2","pSARL_v23o6qq1ot","5cfecc1e96681500168a1799","fixation","img/fixation.png","null","","test","","","","","",""
"269.70000000001164","157063","pSARL_v2","pSARL_v23o6qq1ot","5cfecc1e96681500168a1799","freq","img/green_2bandit_a2.png","70","70","test","1","53","53","3","",""
"null","157604","pSARL_v2","pSARL_v23o6qq1ot","5cfecc1e96681500168a1799","freq_resp","img/green_2bandit_a.png","70","70","test","","","","3","",""
"null","157762","pSARL_v2","pSARL_v23o6qq1ot","5cfecc1e96681500168a1799","fixation","img/fixation.png","null","","test","","","","","",""
"284.79999999998836","158051","pSARL_v2","pSARL_v23o6qq1ot","5cfecc1e96681500168a1799","freq","img/green_2bandit_a2.png","70","70","test","1","54","54","3","",""
"null","158583","pSARL_v2","pSARL_v23o6qq1ot","5cfecc1e96681500168a1799","freq_resp","img/green_2bandit_a.png","70","70","test","","","","3","",""
"null","158741","pSARL_v2","pSARL_v23o6qq1ot","5cfecc1e96681500168a1799","fixation","img/fixation.png","null","","test","","","","","",""
"283.3999999999651","159028","pSARL_v2","pSARL_v23o6qq1ot","5cfecc1e96681500168a1799","freq","img/green_2bandit_a2.png","70","70","test","1","55","55","3","",""
"null","159558","pSARL_v2","pSARL_v23o6qq1ot","5cfecc1e96681500168a1799","freq_resp","img/green_2bandit_a.png","70","70","test","","","","3","",""
"null","159730","pSARL_v2","pSARL_v23o6qq1ot","5cfecc1e96681500168a1799","fixation","img/fixation.png","null","","test","","","","","",""
"323.20000000001164","160058","pSARL_v2","pSARL_v23o6qq1ot","5cfecc1e96681500168a1799","freq","img/green_2bandit_a2.png","70","70","test","1","56","56","3","",""
"null","160542","pSARL_v2","pSARL_v23o6qq1ot","5cfecc1e96681500168a1799","freq_resp","img/green_2bandit_a.png","70","70","test","","","","3","",""
"null","160710","pSARL_v2","pSARL_v23o6qq1ot","5cfecc1e96681500168a1799","fixation","img/fixation.png","null","","test","","","","","",""
"259.6000000000349","160977","pSARL_v2","pSARL_v23o6qq1ot","5cfecc1e96681500168a1799","freq","img/green_2bandit_a2.png","70","70","test","1","57","57","3","",""
"null","161522","pSARL_v2","pSARL_v23o6qq1ot","5cfecc1e96681500168a1799","freq_resp","img/green_2bandit_a.png","70","70","test","","","","3","",""
"null","161685","pSARL_v2","pSARL_v23o6qq1ot","5cfecc1e96681500168a1799","fixation","img/fixation.png","null","","test","","","","","",""
"288.6000000000349","161978","pSARL_v2","pSARL_v23o6qq1ot","5cfecc1e96681500168a1799","freq","img/green_2bandit_a2.png","70","70","test","1","58","58","3","",""
"null","162497","pSARL_v2","pSARL_v23o6qq1ot","5cfecc1e96681500168a1799","freq_resp","img/green_2bandit_a.png","70","70","test","","","","3","",""
"null","162660","pSARL_v2","pSARL_v23o6qq1ot","5cfecc1e96681500168a1799","fixation","img/fixation.png","null","","test","","","","","",""
"230","162896","pSARL_v2","pSARL_v23o6qq1ot","5cfecc1e96681500168a1799","freq","img/green_2bandit_a2.png","70","70","test","1","59","59","3","",""
"null","163480","pSARL_v2","pSARL_v23o6qq1ot","5cfecc1e96681500168a1799","freq_resp","img/green_2bandit_a.png","70","70","test","","","","3","",""
"null","163638","pSARL_v2","pSARL_v23o6qq1ot","5cfecc1e96681500168a1799","fixation","img/fixation.png","null","","test","","","","","",""
"338.6000000000349","163982","pSARL_v2","pSARL_v23o6qq1ot","5cfecc1e96681500168a1799","freq","img/green_2bandit_a2.png","70","70","test","1","60","60","3","",""
"null","164458","pSARL_v2","pSARL_v23o6qq1ot","5cfecc1e96681500168a1799","freq_resp","img/green_2bandit_a.png","70","70","test","","","","3","",""
"null","164619","pSARL_v2","pSARL_v23o6qq1ot","5cfecc1e96681500168a1799","fixation","img/fixation.png","null","","test","","","","","",""
"362.80000000004657","164989","pSARL_v2","pSARL_v23o6qq1ot","5cfecc1e96681500168a1799","infreq","img/orange_2bandit_a2.png","68","68","test","1","61","61","3","",""
"null","165443","pSARL_v2","pSARL_v23o6qq1ot","5cfecc1e96681500168a1799","infreq_resp","img/orange_2bandit_a.png","68","68","test","","","","3","",""
"null","165604","pSARL_v2","pSARL_v23o6qq1ot","5cfecc1e96681500168a1799","fixation","img/fixation.png","null","","test","","","","","",""
"340.70000000001164","165949","pSARL_v2","pSARL_v23o6qq1ot","5cfecc1e96681500168a1799","freq","img/green_2bandit_a2.png","70","70","test","1","62","62","3","",""
"null","166426","pSARL_v2","pSARL_v23o6qq1ot","5cfecc1e96681500168a1799","freq_resp","img/green_2bandit_a.png","70","70","test","","","","3","",""
"null","166593","pSARL_v2","pSARL_v23o6qq1ot","5cfecc1e96681500168a1799","fixation","img/fixation.png","null","","test","","","","","",""
"289.5","166887","pSARL_v2","pSARL_v23o6qq1ot","5cfecc1e96681500168a1799","freq","img/green_2bandit_a2.png","70","70","test","1","63","63","3","",""
"null","167405","pSARL_v2","pSARL_v23o6qq1ot","5cfecc1e96681500168a1799","freq_resp","img/green_2bandit_a.png","70","70","test","","","","3","",""
"null","167568","pSARL_v2","pSARL_v23o6qq1ot","5cfecc1e96681500168a1799","fixation","img/fixation.png","null","","test","","","","","",""
"246.19999999995343","167819","pSARL_v2","pSARL_v23o6qq1ot","5cfecc1e96681500168a1799","freq","img/green_2bandit_a2.png","70","70","test","1","64","64","3","",""
"null","168379","pSARL_v2","pSARL_v23o6qq1ot","5cfecc1e96681500168a1799","freq_resp","img/green_2bandit_a.png","70","70","test","","","","3","",""
"null","168537","pSARL_v2","pSARL_v23o6qq1ot","5cfecc1e96681500168a1799","fixation","img/fixation.png","null","","test","","","","","",""
"299.4000000000233","168841","pSARL_v2","pSARL_v23o6qq1ot","5cfecc1e96681500168a1799","freq","img/green_2bandit_a2.png","70","70","test","1","65","65","3","",""
"null","169348","pSARL_v2","pSARL_v23o6qq1ot","5cfecc1e96681500168a1799","freq_resp","img/green_2bandit_a.png","70","70","test","","","","3","",""
"null","169510","pSARL_v2","pSARL_v23o6qq1ot","5cfecc1e96681500168a1799","fixation","img/fixation.png","null","","test","","","","","",""
"264.5","169779","pSARL_v2","pSARL_v23o6qq1ot","5cfecc1e96681500168a1799","freq","img/green_2bandit_a2.png","70","70","test","1","66","66","3","",""
"null","170323","pSARL_v2","pSARL_v23o6qq1ot","5cfecc1e96681500168a1799","freq_resp","img/green_2bandit_a.png","70","70","test","","","","3","",""
"null","170493","pSARL_v2","pSARL_v23o6qq1ot","5cfecc1e96681500168a1799","fixation","img/fixation.png","null","","test","","","","","",""
"354.30000000004657","170852","pSARL_v2","pSARL_v23o6qq1ot","5cfecc1e96681500168a1799","reward","img/slot.png","74","","test","","","","","",""
"null","171612","pSARL_v2","pSARL_v23o6qq1ot","5cfecc1e96681500168a1799","points","<div class=""verylowPoints""> -7 </div>","null","na","test","","","","3","-7","2"
"790","172406","pSARL_v2","pSARL_v23o6qq1ot","5cfecc1e96681500168a1799","freq","img/green_2bandit_a2.png","68","70","test","0","67","67","4","",""
"null","172422","pSARL_v2","pSARL_v23o6qq1ot","5cfecc1e96681500168a1799","freq_resp","img/green_2bandit_a.png","68","70","test","","","","4","",""
"null","172586","pSARL_v2","pSARL_v23o6qq1ot","5cfecc1e96681500168a1799","fixation","img/fixation.png","null","","test","","","","","",""
"441.29999999998836","173032","pSARL_v2","pSARL_v23o6qq1ot","5cfecc1e96681500168a1799","freq","img/green_2bandit_a2.png","70","70","test","1","68","68","4","",""
"null","173399","pSARL_v2","pSARL_v23o6qq1ot","5cfecc1e96681500168a1799","freq_resp","img/green_2bandit_a.png","70","70","test","","","","4","",""
"null","173563","pSARL_v2","pSARL_v23o6qq1ot","5cfecc1e96681500168a1799","fixation","img/fixation.png","null","","test","","","","","",""
"290.29999999998836","173858","pSARL_v2","pSARL_v23o6qq1ot","5cfecc1e96681500168a1799","freq","img/green_2bandit_a2.png","70","70","test","1","69","69","4","",""
"null","174374","pSARL_v2","pSARL_v23o6qq1ot","5cfecc1e96681500168a1799","freq_resp","img/green_2bandit_a.png","70","70","test","","","","4","",""
"null","174529","pSARL_v2","pSARL_v23o6qq1ot","5cfecc1e96681500168a1799","fixation","img/fixation.png","null","","test","","","","","",""
"319.79999999998836","174853","pSARL_v2","pSARL_v23o6qq1ot","5cfecc1e96681500168a1799","freq","img/green_2bandit_a2.png","70","70","test","1","70","70","4","",""
"null","175350","pSARL_v2","pSARL_v23o6qq1ot","5cfecc1e96681500168a1799","freq_resp","img/green_2bandit_a.png","70","70","test","","","","4","",""
"null","175518","pSARL_v2","pSARL_v23o6qq1ot","5cfecc1e96681500168a1799","fixation","img/fixation.png","null","","test","","","","","",""
"322.8999999999651","175845","pSARL_v2","pSARL_v23o6qq1ot","5cfecc1e96681500168a1799","freq","img/green_2bandit_a2.png","70","70","test","1","71","71","4","",""
"null","176332","pSARL_v2","pSARL_v23o6qq1ot","5cfecc1e96681500168a1799","freq_resp","img/green_2bandit_a.png","70","70","test","","","","4","",""
"null","176495","pSARL_v2","pSARL_v23o6qq1ot","5cfecc1e96681500168a1799","fixation","img/fixation.png","null","","test","","","","","",""
"285.1000000000349","176784","pSARL_v2","pSARL_v23o6qq1ot","5cfecc1e96681500168a1799","freq","img/green_2bandit_a2.png","70","70","test","1","72","72","4","",""
"null","177305","pSARL_v2","pSARL_v23o6qq1ot","5cfecc1e96681500168a1799","freq_resp","img/green_2bandit_a.png","70","70","test","","","","4","",""
"null","177463","pSARL_v2","pSARL_v23o6qq1ot","5cfecc1e96681500168a1799","fixation","img/fixation.png","null","","test","","","","","",""
"309.20000000001164","177777","pSARL_v2","pSARL_v23o6qq1ot","5cfecc1e96681500168a1799","freq","img/green_2bandit_a2.png","70","70","test","1","73","73","4","",""
"null","178281","pSARL_v2","pSARL_v23o6qq1ot","5cfecc1e96681500168a1799","freq_resp","img/green_2bandit_a.png","70","70","test","","","","4","",""
"null","178444","pSARL_v2","pSARL_v23o6qq1ot","5cfecc1e96681500168a1799","fixation","img/fixation.png","null","","test","","","","","",""
"338.5","178787","pSARL_v2","pSARL_v23o6qq1ot","5cfecc1e96681500168a1799","freq","img/green_2bandit_a2.png","70","70","test","1","74","74","4","",""
"null","179269","pSARL_v2","pSARL_v23o6qq1ot","5cfecc1e96681500168a1799","freq_resp","img/green_2bandit_a.png","70","70","test","","","","4","",""
"null","179427","pSARL_v2","pSARL_v23o6qq1ot","5cfecc1e96681500168a1799","fixation","img/fixation.png","null","","test","","","","","",""
"276.3999999999651","179708","pSARL_v2","pSARL_v23o6qq1ot","5cfecc1e96681500168a1799","freq","img/green_2bandit_a2.png","70","70","test","1","75","75","4","",""
"null","180247","pSARL_v2","pSARL_v23o6qq1ot","5cfecc1e96681500168a1799","freq_resp","img/green_2bandit_a.png","70","70","test","","","","4","",""
"null","180402","pSARL_v2","pSARL_v23o6qq1ot","5cfecc1e96681500168a1799","fixation","img/fixation.png","null","","test","","","","","",""
"686.2000000000116","181092","pSARL_v2","pSARL_v23o6qq1ot","5cfecc1e96681500168a1799","infreq","img/orange_2bandit_a2.png","70","68","test","0","76","76","4","",""
"null","181214","pSARL_v2","pSARL_v23o6qq1ot","5cfecc1e96681500168a1799","infreq_resp","img/orange_2bandit_a.png","70","68","test","","","","4","",""
"null","181370","pSARL_v2","pSARL_v23o6qq1ot","5cfecc1e96681500168a1799","fixation","img/fixation.png","null","","test","","","","","",""
"608.5","181984","pSARL_v2","pSARL_v23o6qq1ot","5cfecc1e96681500168a1799","freq","img/green_2bandit_a2.png","70","70","test","1","77","77","4","",""
"null","182192","pSARL_v2","pSARL_v23o6qq1ot","5cfecc1e96681500168a1799","freq_resp","img/green_2bandit_a.png","70","70","test","","","","4","",""
"null","182361","pSARL_v2","pSARL_v23o6qq1ot","5cfecc1e96681500168a1799","fixation","img/fixation.png","null","","test","","","","","",""
"485.29999999998836","182852","pSARL_v2","pSARL_v23o6qq1ot","5cfecc1e96681500168a1799","infreq","img/orange_2bandit_a2.png","68","68","test","1","78","78","4","",""
"null","183174","pSARL_v2","pSARL_v23o6qq1ot","5cfecc1e96681500168a1799","infreq_resp","img/orange_2bandit_a.png","68","68","test","","","","4","",""
"null","183337","pSARL_v2","pSARL_v23o6qq1ot","5cfecc1e96681500168a1799","fixation","img/fixation.png","null","","test","","","","","",""
"497.29999999998836","183839","pSARL_v2","pSARL_v23o6qq1ot","5cfecc1e96681500168a1799","freq","img/green_2bandit_a2.png","70","70","test","1","79","79","4","",""
"null","184153","pSARL_v2","pSARL_v23o6qq1ot","5cfecc1e96681500168a1799","freq_resp","img/green_2bandit_a.png","70","70","test","","","","4","",""
"null","184319","pSARL_v2","pSARL_v23o6qq1ot","5cfecc1e96681500168a1799","fixation","img/fixation.png","null","","test","","","","","",""
"448","184772","pSARL_v2","pSARL_v23o6qq1ot","5cfecc1e96681500168a1799","freq","img/green_2bandit_a2.png","70","70","test","1","80","80","4","",""
"null","185134","pSARL_v2","pSARL_v23o6qq1ot","5cfecc1e96681500168a1799","freq_resp","img/green_2bandit_a.png","70","70","test","","","","4","",""
"null","185302","pSARL_v2","pSARL_v23o6qq1ot","5cfecc1e96681500168a1799","fixation","img/fixation.png","null","","test","","","","","",""
"312.5999999999767","185620","pSARL_v2","pSARL_v23o6qq1ot","5cfecc1e96681500168a1799","freq","img/green_2bandit_a2.png","70","70","test","1","81","81","4","",""
"null","186116","pSARL_v2","pSARL_v23o6qq1ot","5cfecc1e96681500168a1799","freq_resp","img/green_2bandit_a.png","70","70","test","","","","4","",""
"null","186278","pSARL_v2","pSARL_v23o6qq1ot","5cfecc1e96681500168a1799","fixation","img/fixation.png","null","","test","","","","","",""
"282.5","186568","pSARL_v2","pSARL_v23o6qq1ot","5cfecc1e96681500168a1799","freq","img/green_2bandit_a2.png","70","70","test","1","82","82","4","",""
"null","187101","pSARL_v2","pSARL_v23o6qq1ot","5cfecc1e96681500168a1799","freq_resp","img/green_2bandit_a.png","70","70","test","","","","4","",""
"null","187258","pSARL_v2","pSARL_v23o6qq1ot","5cfecc1e96681500168a1799","fixation","img/fixation.png","null","","test","","","","","",""
"316","187581","pSARL_v2","pSARL_v23o6qq1ot","5cfecc1e96681500168a1799","freq","img/green_2bandit_a2.png","70","70","test","1","83","83","4","",""
"null","188082","pSARL_v2","pSARL_v23o6qq1ot","5cfecc1e96681500168a1799","freq_resp","img/green_2bandit_a.png","70","70","test","","","","4","",""
"null","188246","pSARL_v2","pSARL_v23o6qq1ot","5cfecc1e96681500168a1799","fixation","img/fixation.png","null","","test","","","","","",""
"295.5999999999767","188546","pSARL_v2","pSARL_v23o6qq1ot","5cfecc1e96681500168a1799","freq","img/green_2bandit_a2.png","70","70","test","1","84","84","4","",""
"null","189067","pSARL_v2","pSARL_v23o6qq1ot","5cfecc1e96681500168a1799","freq_resp","img/green_2bandit_a.png","70","70","test","","","","4","",""
"null","189228","pSARL_v2","pSARL_v23o6qq1ot","5cfecc1e96681500168a1799","fixation","img/fixation.png","null","","test","","","","","",""
"289.20000000001164","189522","pSARL_v2","pSARL_v23o6qq1ot","5cfecc1e96681500168a1799","freq","img/green_2bandit_a2.png","70","70","test","1","85","85","4","",""
"null","190041","pSARL_v2","pSARL_v23o6qq1ot","5cfecc1e96681500168a1799","freq_resp","img/green_2bandit_a.png","70","70","test","","","","4","",""
"null","190210","pSARL_v2","pSARL_v23o6qq1ot","5cfecc1e96681500168a1799","fixation","img/fixation.png","null","","test","","","","","",""
"336.5","190552","pSARL_v2","pSARL_v23o6qq1ot","5cfecc1e96681500168a1799","freq","img/green_2bandit_a2.png","70","70","test","1","86","86","4","",""
"null","191033","pSARL_v2","pSARL_v23o6qq1ot","5cfecc1e96681500168a1799","freq_resp","img/green_2bandit_a.png","70","70","test","","","","4","",""
"null","191194","pSARL_v2","pSARL_v23o6qq1ot","5cfecc1e96681500168a1799","fixation","img/fixation.png","null","","test","","","","","",""
"413.29999999998836","191612","pSARL_v2","pSARL_v23o6qq1ot","5cfecc1e96681500168a1799","infreq","img/orange_2bandit_a2.png","68","68","test","1","87","87","4","",""
"null","192017","pSARL_v2","pSARL_v23o6qq1ot","5cfecc1e96681500168a1799","infreq_resp","img/orange_2bandit_a.png","68","68","test","","","","4","",""
"null","192173","pSARL_v2","pSARL_v23o6qq1ot","5cfecc1e96681500168a1799","fixation","img/fixation.png","null","","test","","","","","",""
"693.8000000000466","192871","pSARL_v2","pSARL_v23o6qq1ot","5cfecc1e96681500168a1799","freq","img/green_2bandit_a2.png","70","70","test","1","88","88","4","",""
"null","192988","pSARL_v2","pSARL_v23o6qq1ot","5cfecc1e96681500168a1799","freq_resp","img/green_2bandit_a.png","70","70","test","","","","4","",""
"null","193154","pSARL_v2","pSARL_v23o6qq1ot","5cfecc1e96681500168a1799","fixation","img/fixation.png","null","","test","","","","","",""
"452.5","193611","pSARL_v2","pSARL_v23o6qq1ot","5cfecc1e96681500168a1799","freq","img/green_2bandit_a2.png","70","70","test","1","89","89","4","",""
"null","193971","pSARL_v2","pSARL_v23o6qq1ot","5cfecc1e96681500168a1799","freq_resp","img/green_2bandit_a.png","70","70","test","","","","4","",""
"null","194136","pSARL_v2","pSARL_v23o6qq1ot","5cfecc1e96681500168a1799","fixation","img/fixation.png","null","","test","","","","","",""
"411.5999999999767","194552","pSARL_v2","pSARL_v23o6qq1ot","5cfecc1e96681500168a1799","reward","img/slot.png","74","","test","","","","","",""
"null","195312","pSARL_v2","pSARL_v23o6qq1ot","5cfecc1e96681500168a1799","points","<div class=""verylowPoints""> -3 </div>","null","na","test","","","","4","-3","3"
"444.20000000001164","195760","pSARL_v2","pSARL_v23o6qq1ot","5cfecc1e96681500168a1799","freq","img/green_2bandit_a2.png","70","70","test","1","90","90","5","",""
"null","196124","pSARL_v2","pSARL_v23o6qq1ot","5cfecc1e96681500168a1799","freq_resp","img/green_2bandit_a.png","70","70","test","","","","5","",""
"null","196279","pSARL_v2","pSARL_v23o6qq1ot","5cfecc1e96681500168a1799","fixation","img/fixation.png","null","","test","","","","","",""
"364.70000000001164","196647","pSARL_v2","pSARL_v23o6qq1ot","5cfecc1e96681500168a1799","freq","img/green_2bandit_a2.png","70","70","test","1","91","91","5","",""
"null","197102","pSARL_v2","pSARL_v23o6qq1ot","5cfecc1e96681500168a1799","freq_resp","img/green_2bandit_a.png","70","70","test","","","","5","",""
"null","197268","pSARL_v2","pSARL_v23o6qq1ot","5cfecc1e96681500168a1799","fixation","img/fixation.png","null","","test","","","","","",""
"333.69999999995343","197606","pSARL_v2","pSARL_v23o6qq1ot","5cfecc1e96681500168a1799","freq","img/green_2bandit_a2.png","70","70","test","1","92","92","5","",""
"null","198088","pSARL_v2","pSARL_v23o6qq1ot","5cfecc1e96681500168a1799","freq_resp","img/green_2bandit_a.png","70","70","test","","","","5","",""
"null","198245","pSARL_v2","pSARL_v23o6qq1ot","5cfecc1e96681500168a1799","fixation","img/fixation.png","null","","test","","","","","",""
"312.1000000000349","198561","pSARL_v2","pSARL_v23o6qq1ot","5cfecc1e96681500168a1799","freq","img/green_2bandit_a2.png","70","70","test","1","93","93","5","",""
"null","199063","pSARL_v2","pSARL_v23o6qq1ot","5cfecc1e96681500168a1799","freq_resp","img/green_2bandit_a.png","70","70","test","","","","5","",""
"null","199217","pSARL_v2","pSARL_v23o6qq1ot","5cfecc1e96681500168a1799","fixation","img/fixation.png","null","","test","","","","","",""
"371.20000000001164","199594","pSARL_v2","pSARL_v23o6qq1ot","5cfecc1e96681500168a1799","freq","img/green_2bandit_a2.png","70","70","test","1","94","94","5","",""
"null","200035","pSARL_v2","pSARL_v23o6qq1ot","5cfecc1e96681500168a1799","freq_resp","img/green_2bandit_a.png","70","70","test","","","","5","",""
"null","200202","pSARL_v2","pSARL_v23o6qq1ot","5cfecc1e96681500168a1799","fixation","img/fixation.png","null","","test","","","","","",""
"314.70000000001164","200521","pSARL_v2","pSARL_v23o6qq1ot","5cfecc1e96681500168a1799","freq","img/green_2bandit_a2.png","70","70","test","1","95","95","5","",""
"null","201019","pSARL_v2","pSARL_v23o6qq1ot","5cfecc1e96681500168a1799","freq_resp","img/green_2bandit_a.png","70","70","test","","","","5","",""
"null","201174","pSARL_v2","pSARL_v23o6qq1ot","5cfecc1e96681500168a1799","fixation","img/fixation.png","null","","test","","","","","",""
"338.69999999995343","201517","pSARL_v2","pSARL_v23o6qq1ot","5cfecc1e96681500168a1799","freq","img/green_2bandit_a2.png","70","70","test","1","96","96","5","",""
"null","201985","pSARL_v2","pSARL_v23o6qq1ot","5cfecc1e96681500168a1799","freq_resp","img/green_2bandit_a.png","70","70","test","","","","5","",""
"null","202143","pSARL_v2","pSARL_v23o6qq1ot","5cfecc1e96681500168a1799","fixation","img/fixation.png","null","","test","","","","","",""
"305.5","202453","pSARL_v2","pSARL_v23o6qq1ot","5cfecc1e96681500168a1799","freq","img/green_2bandit_a2.png","70","70","test","1","97","97","5","",""
"null","202952","pSARL_v2","pSARL_v23o6qq1ot","5cfecc1e96681500168a1799","freq_resp","img/green_2bandit_a.png","70","70","test","","","","5","",""
"null","203123","pSARL_v2","pSARL_v23o6qq1ot","5cfecc1e96681500168a1799","fixation","img/fixation.png","null","","test","","","","","",""
"302.5","203429","pSARL_v2","pSARL_v23o6qq1ot","5cfecc1e96681500168a1799","freq","img/green_2bandit_a2.png","70","70","test","1","98","98","5","",""
"null","203937","pSARL_v2","pSARL_v23o6qq1ot","5cfecc1e96681500168a1799","freq_resp","img/green_2bandit_a.png","70","70","test","","","","5","",""
"null","204109","pSARL_v2","pSARL_v23o6qq1ot","5cfecc1e96681500168a1799","fixation","img/fixation.png","null","","test","","","","","",""
"276.20000000001164","204388","pSARL_v2","pSARL_v23o6qq1ot","5cfecc1e96681500168a1799","freq","img/green_2bandit_a2.png","70","70","test","1","99","99","5","",""
"null","204926","pSARL_v2","pSARL_v23o6qq1ot","5cfecc1e96681500168a1799","freq_resp","img/green_2bandit_a.png","70","70","test","","","","5","",""
"null","205093","pSARL_v2","pSARL_v23o6qq1ot","5cfecc1e96681500168a1799","fixation","img/fixation.png","null","","test","","","","","",""
"273.69999999995343","205370","pSARL_v2","pSARL_v23o6qq1ot","5cfecc1e96681500168a1799","freq","img/green_2bandit_a2.png","70","70","test","1","100","100","5","",""
"null","205902","pSARL_v2","pSARL_v23o6qq1ot","5cfecc1e96681500168a1799","freq_resp","img/green_2bandit_a.png","70","70","test","","","","5","",""
"null","206056","pSARL_v2","pSARL_v23o6qq1ot","5cfecc1e96681500168a1799","fixation","img/fixation.png","null","","test","","","","","",""
"289.70000000001164","206351","pSARL_v2","pSARL_v23o6qq1ot","5cfecc1e96681500168a1799","freq","img/green_2bandit_a2.png","70","70","test","1","101","101","5","",""
"null","206875","pSARL_v2","pSARL_v23o6qq1ot","5cfecc1e96681500168a1799","freq_resp","img/green_2bandit_a.png","70","70","test","","","","5","",""
"null","207044","pSARL_v2","pSARL_v23o6qq1ot","5cfecc1e96681500168a1799","fixation","img/fixation.png","null","","test","","","","","",""
"554.1000000000349","207602","pSARL_v2","pSARL_v23o6qq1ot","5cfecc1e96681500168a1799","infreq","img/orange_2bandit_a2.png","68","68","test","1","102","102","5","",""
"null","207856","pSARL_v2","pSARL_v23o6qq1ot","5cfecc1e96681500168a1799","infreq_resp","img/orange_2bandit_a.png","68","68","test","","","","5","",""
"null","208019","pSARL_v2","pSARL_v23o6qq1ot","5cfecc1e96681500168a1799","fixation","img/fixation.png","null","","test","","","","","",""
"370.6000000000349","208394","pSARL_v2","pSARL_v23o6qq1ot","5cfecc1e96681500168a1799","freq","img/green_2bandit_a2.png","70","70","test","1","103","103","5","",""
"null","208829","pSARL_v2","pSARL_v23o6qq1ot","5cfecc1e96681500168a1799","freq_resp","img/green_2bandit_a.png","70","70","test","","","","5","",""
"null","209000","pSARL_v2","pSARL_v23o6qq1ot","5cfecc1e96681500168a1799","fixation","img/fixation.png","null","","test","","","","","",""
"338","209342","pSARL_v2","pSARL_v23o6qq1ot","5cfecc1e96681500168a1799","freq","img/green_2bandit_a2.png","70","70","test","1","104","104","5","",""
"null","209813","pSARL_v2","pSARL_v23o6qq1ot","5cfecc1e96681500168a1799","freq_resp","img/green_2bandit_a.png","70","70","test","","","","5","",""
"null","209978","pSARL_v2","pSARL_v23o6qq1ot","5cfecc1e96681500168a1799","fixation","img/fixation.png","null","","test","","","","","",""
"332.0999999999767","210314","pSARL_v2","pSARL_v23o6qq1ot","5cfecc1e96681500168a1799","freq","img/green_2bandit_a2.png","70","70","test","1","105","105","5","",""
"null","210786","pSARL_v2","pSARL_v23o6qq1ot","5cfecc1e96681500168a1799","freq_resp","img/green_2bandit_a.png","70","70","test","","","","5","",""
"null","210953","pSARL_v2","pSARL_v23o6qq1ot","5cfecc1e96681500168a1799","fixation","img/fixation.png","null","","test","","","","","",""
"289","211246","pSARL_v2","pSARL_v23o6qq1ot","5cfecc1e96681500168a1799","freq","img/green_2bandit_a2.png","70","70","test","1","106","106","5","",""
"null","211775","pSARL_v2","pSARL_v23o6qq1ot","5cfecc1e96681500168a1799","freq_resp","img/green_2bandit_a.png","70","70","test","","","","5","",""
"null","211929","pSARL_v2","pSARL_v23o6qq1ot","5cfecc1e96681500168a1799","fixation","img/fixation.png","null","","test","","","","","",""
"334","212267","pSARL_v2","pSARL_v23o6qq1ot","5cfecc1e96681500168a1799","freq","img/green_2bandit_a2.png","70","70","test","1","107","107","5","",""
"null","212751","pSARL_v2","pSARL_v23o6qq1ot","5cfecc1e96681500168a1799","freq_resp","img/green_2bandit_a.png","70","70","test","","","","5","",""
"null","212911","pSARL_v2","pSARL_v23o6qq1ot","5cfecc1e96681500168a1799","fixation","img/fixation.png","null","","test","","","","","",""
"542.9000000000233","213458","pSARL_v2","pSARL_v23o6qq1ot","5cfecc1e96681500168a1799","freq","img/green_2bandit_a2.png","70","70","test","1","108","108","5","",""
"null","213731","pSARL_v2","pSARL_v23o6qq1ot","5cfecc1e96681500168a1799","freq_resp","img/green_2bandit_a.png","70","70","test","","","","5","",""
"null","213887","pSARL_v2","pSARL_v23o6qq1ot","5cfecc1e96681500168a1799","fixation","img/fixation.png","null","","test","","","","","",""
"470.70000000001164","214362","pSARL_v2","pSARL_v23o6qq1ot","5cfecc1e96681500168a1799","freq","img/green_2bandit_a2.png","70","70","test","1","109","109","5","",""
"null","214705","pSARL_v2","pSARL_v23o6qq1ot","5cfecc1e96681500168a1799","freq_resp","img/green_2bandit_a.png","70","70","test","","","","5","",""
"null","214869","pSARL_v2","pSARL_v23o6qq1ot","5cfecc1e96681500168a1799","fixation","img/fixation.png","null","","test","","","","","",""
"354.8999999999651","215228","pSARL_v2","pSARL_v23o6qq1ot","5cfecc1e96681500168a1799","freq","img/green_2bandit_a2.png","70","70","test","1","110","110","5","",""
"null","215680","pSARL_v2","pSARL_v23o6qq1ot","5cfecc1e96681500168a1799","freq_resp","img/green_2bandit_a.png","70","70","test","","","","5","",""
"null","215836","pSARL_v2","pSARL_v23o6qq1ot","5cfecc1e96681500168a1799","fixation","img/fixation.png","null","","test","","","","","",""
"290.8999999999651","216131","pSARL_v2","pSARL_v23o6qq1ot","5cfecc1e96681500168a1799","freq","img/green_2bandit_a2.png","70","70","test","1","111","111","5","",""
"null","216650","pSARL_v2","pSARL_v23o6qq1ot","5cfecc1e96681500168a1799","freq_resp","img/green_2bandit_a.png","70","70","test","","","","5","",""
"null","216818","pSARL_v2","pSARL_v23o6qq1ot","5cfecc1e96681500168a1799","fixation","img/fixation.png","null","","test","","","","","",""
"265.30000000004657","217088","pSARL_v2","pSARL_v23o6qq1ot","5cfecc1e96681500168a1799","freq","img/green_2bandit_a2.png","70","70","test","1","112","112","5","",""
"null","217629","pSARL_v2","pSARL_v23o6qq1ot","5cfecc1e96681500168a1799","freq_resp","img/green_2bandit_a.png","70","70","test","","","","5","",""
"null","217788","pSARL_v2","pSARL_v23o6qq1ot","5cfecc1e96681500168a1799","fixation","img/fixation.png","null","","test","","","","","",""
"419.5","218211","pSARL_v2","pSARL_v23o6qq1ot","5cfecc1e96681500168a1799","infreq","img/orange_2bandit_a2.png","68","68","test","1","113","113","5","",""
"null","218602","pSARL_v2","pSARL_v23o6qq1ot","5cfecc1e96681500168a1799","infreq_resp","img/orange_2bandit_a.png","68","68","test","","","","5","",""
"null","218769","pSARL_v2","pSARL_v23o6qq1ot","5cfecc1e96681500168a1799","fixation","img/fixation.png","null","","test","","","","","",""
"389.3999999999651","219162","pSARL_v2","pSARL_v23o6qq1ot","5cfecc1e96681500168a1799","freq","img/green_2bandit_a2.png","70","70","test","1","114","114","5","",""
"null","219579","pSARL_v2","pSARL_v23o6qq1ot","5cfecc1e96681500168a1799","freq_resp","img/green_2bandit_a.png","70","70","test","","","","5","",""
"null","219742","pSARL_v2","pSARL_v23o6qq1ot","5cfecc1e96681500168a1799","fixation","img/fixation.png","null","","test","","","","","",""
"359.20000000001164","220105","pSARL_v2","pSARL_v23o6qq1ot","5cfecc1e96681500168a1799","reward","img/slot.png","74","","test","","","","","",""
"null","220861","pSARL_v2","pSARL_v23o6qq1ot","5cfecc1e96681500168a1799","points","<div class=""veryhighPoints""> +1 </div>","null","na","test","","","","5","1","4"
"478","221343","pSARL_v2","pSARL_v23o6qq1ot","5cfecc1e96681500168a1799","freq","img/green_2bandit_a2.png","70","70","test","1","115","115","6","",""
"null","221677","pSARL_v2","pSARL_v23o6qq1ot","5cfecc1e96681500168a1799","freq_resp","img/green_2bandit_a.png","70","70","test","","","","6","",""
"null","221844","pSARL_v2","pSARL_v23o6qq1ot","5cfecc1e96681500168a1799","fixation","img/fixation.png","null","","test","","","","","",""
"382.5999999999767","222230","pSARL_v2","pSARL_v23o6qq1ot","5cfecc1e96681500168a1799","infreq","img/orange_2bandit_a2.png","68","68","test","1","116","116","6","",""
"null","222657","pSARL_v2","pSARL_v23o6qq1ot","5cfecc1e96681500168a1799","infreq_resp","img/orange_2bandit_a.png","68","68","test","","","","6","",""
"null","222819","pSARL_v2","pSARL_v23o6qq1ot","5cfecc1e96681500168a1799","fixation","img/fixation.png","null","","test","","","","","",""
"470.4000000000233","223295","pSARL_v2","pSARL_v23o6qq1ot","5cfecc1e96681500168a1799","freq","img/green_2bandit_a2.png","70","70","test","1","117","117","6","",""
"null","223644","pSARL_v2","pSARL_v23o6qq1ot","5cfecc1e96681500168a1799","freq_resp","img/green_2bandit_a.png","70","70","test","","","","6","",""
"null","223810","pSARL_v2","pSARL_v23o6qq1ot","5cfecc1e96681500168a1799","fixation","img/fixation.png","null","","test","","","","","",""
"324","224138","pSARL_v2","pSARL_v23o6qq1ot","5cfecc1e96681500168a1799","freq","img/green_2bandit_a2.png","70","70","test","1","118","118","6","",""
"null","224625","pSARL_v2","pSARL_v23o6qq1ot","5cfecc1e96681500168a1799","freq_resp","img/green_2bandit_a.png","70","70","test","","","","6","",""
"null","224779","pSARL_v2","pSARL_v23o6qq1ot","5cfecc1e96681500168a1799","fixation","img/fixation.png","null","","test","","","","","",""
"259.3999999999651","225042","pSARL_v2","pSARL_v23o6qq1ot","5cfecc1e96681500168a1799","freq","img/green_2bandit_a2.png","70","70","test","1","119","119","6","",""
"null","225591","pSARL_v2","pSARL_v23o6qq1ot","5cfecc1e96681500168a1799","freq_resp","img/green_2bandit_a.png","70","70","test","","","","6","",""
"null","225745","pSARL_v2","pSARL_v23o6qq1ot","5cfecc1e96681500168a1799","fixation","img/fixation.png","null","","test","","","","","",""
"300.6000000000349","226050","pSARL_v2","pSARL_v23o6qq1ot","5cfecc1e96681500168a1799","freq","img/green_2bandit_a2.png","70","70","test","1","120","120","6","",""
"null","226568","pSARL_v2","pSARL_v23o6qq1ot","5cfecc1e96681500168a1799","freq_resp","img/green_2bandit_a.png","70","70","test","","","","6","",""
"null","226730","pSARL_v2","pSARL_v23o6qq1ot","5cfecc1e96681500168a1799","fixation","img/fixation.png","null","","test","","","","","",""
"270.79999999998836","227005","pSARL_v2","pSARL_v23o6qq1ot","5cfecc1e96681500168a1799","freq","img/green_2bandit_a2.png","70","70","test","1","121","121","6","",""
"null","227547","pSARL_v2","pSARL_v23o6qq1ot","5cfecc1e96681500168a1799","freq_resp","img/green_2bandit_a.png","70","70","test","","","","6","",""
"null","227711","pSARL_v2","pSARL_v23o6qq1ot","5cfecc1e96681500168a1799","fixation","img/fixation.png","null","","test","","","","","",""
"312.4000000000233","228027","pSARL_v2","pSARL_v23o6qq1ot","5cfecc1e96681500168a1799","freq","img/green_2bandit_a2.png","70","70","test","1","122","122","6","",""
"null","228518","pSARL_v2","pSARL_v23o6qq1ot","5cfecc1e96681500168a1799","freq_resp","img/green_2bandit_a.png","70","70","test","","","","6","",""
"null","228678","pSARL_v2","pSARL_v23o6qq1ot","5cfecc1e96681500168a1799","fixation","img/fixation.png","null","","test","","","","","",""
"384.4000000000233","229068","pSARL_v2","pSARL_v23o6qq1ot","5cfecc1e96681500168a1799","freq","img/green_2bandit_a2.png","70","70","test","1","123","123","6","",""
"null","229497","pSARL_v2","pSARL_v23o6qq1ot","5cfecc1e96681500168a1799","freq_resp","img/green_2bandit_a.png","70","70","test","","","","6","",""
"null","229661","pSARL_v2","pSARL_v23o6qq1ot","5cfecc1e96681500168a1799","fixation","img/fixation.png","null","","test","","","","","",""
"390.0999999999767","230055","pSARL_v2","pSARL_v23o6qq1ot","5cfecc1e96681500168a1799","freq","img/green_2bandit_a2.png","70","70","test","1","124","124","6","",""
"null","230482","pSARL_v2","pSARL_v23o6qq1ot","5cfecc1e96681500168a1799","freq_resp","img/green_2bandit_a.png","70","70","test","","","","6","",""
"null","230639","pSARL_v2","pSARL_v23o6qq1ot","5cfecc1e96681500168a1799","fixation","img/fixation.png","null","","test","","","","","",""
"334","230979","pSARL_v2","pSARL_v23o6qq1ot","5cfecc1e96681500168a1799","infreq","img/orange_2bandit_a2.png","68","68","test","1","125","125","6","",""
"null","231462","pSARL_v2","pSARL_v23o6qq1ot","5cfecc1e96681500168a1799","infreq_resp","img/orange_2bandit_a.png","68","68","test","","","","6","",""
"null","231623","pSARL_v2","pSARL_v23o6qq1ot","5cfecc1e96681500168a1799","fixation","img/fixation.png","null","","test","","","","","",""
"420.5999999999767","232049","pSARL_v2","pSARL_v23o6qq1ot","5cfecc1e96681500168a1799","freq","img/green_2bandit_a2.png","70","70","test","1","126","126","6","",""
"null","232442","pSARL_v2","pSARL_v23o6qq1ot","5cfecc1e96681500168a1799","freq_resp","img/green_2bandit_a.png","70","70","test","","","","6","",""
"null","232612","pSARL_v2","pSARL_v23o6qq1ot","5cfecc1e96681500168a1799","fixation","img/fixation.png","null","","test","","","","","",""
"398.29999999998836","233016","pSARL_v2","pSARL_v23o6qq1ot","5cfecc1e96681500168a1799","infreq","img/orange_2bandit_a2.png","68","68","test","1","127","127","6","",""
"null","233432","pSARL_v2","pSARL_v23o6qq1ot","5cfecc1e96681500168a1799","infreq_resp","img/orange_2bandit_a.png","68","68","test","","","","6","",""
"null","233597","pSARL_v2","pSARL_v23o6qq1ot","5cfecc1e96681500168a1799","fixation","img/fixation.png","null","","test","","","","","",""
"372","233973","pSARL_v2","pSARL_v23o6qq1ot","5cfecc1e96681500168a1799","freq","img/green_2bandit_a2.png","70","70","test","1","128","128","6","",""
"null","234407","pSARL_v2","pSARL_v23o6qq1ot","5cfecc1e96681500168a1799","freq_resp","img/green_2bandit_a.png","70","70","test","","","","6","",""
"null","234564","pSARL_v2","pSARL_v23o6qq1ot","5cfecc1e96681500168a1799","fixation","img/fixation.png","null","","test","","","","","",""
"405.0999999999767","234974","pSARL_v2","pSARL_v23o6qq1ot","5cfecc1e96681500168a1799","freq","img/green_2bandit_a2.png","70","70","test","1","129","129","6","",""
"null","235381","pSARL_v2","pSARL_v23o6qq1ot","5cfecc1e96681500168a1799","freq_resp","img/green_2bandit_a.png","70","70","test","","","","6","",""
"null","235544","pSARL_v2","pSARL_v23o6qq1ot","5cfecc1e96681500168a1799","fixation","img/fixation.png","null","","test","","","","","",""
"337.29999999998836","235886","pSARL_v2","pSARL_v23o6qq1ot","5cfecc1e96681500168a1799","freq","img/green_2bandit_a2.png","70","70","test","1","130","130","6","",""
"null","236360","pSARL_v2","pSARL_v23o6qq1ot","5cfecc1e96681500168a1799","freq_resp","img/green_2bandit_a.png","70","70","test","","","","6","",""
"null","236530","pSARL_v2","pSARL_v23o6qq1ot","5cfecc1e96681500168a1799","fixation","img/fixation.png","null","","test","","","","","",""
"252.09999999997672","236787","pSARL_v2","pSARL_v23o6qq1ot","5cfecc1e96681500168a1799","freq","img/green_2bandit_a2.png","70","70","test","1","131","131","6","",""
"null","237349","pSARL_v2","pSARL_v23o6qq1ot","5cfecc1e96681500168a1799","freq_resp","img/green_2bandit_a.png","70","70","test","","","","6","",""
"null","237507","pSARL_v2","pSARL_v23o6qq1ot","5cfecc1e96681500168a1799","fixation","img/fixation.png","null","","test","","","","","",""
"251.29999999998836","237764","pSARL_v2","pSARL_v23o6qq1ot","5cfecc1e96681500168a1799","freq","img/green_2bandit_a2.png","70","70","test","1","132","132","6","",""
"null","238324","pSARL_v2","pSARL_v23o6qq1ot","5cfecc1e96681500168a1799","freq_resp","img/green_2bandit_a.png","70","70","test","","","","6","",""
"null","238488","pSARL_v2","pSARL_v23o6qq1ot","5cfecc1e96681500168a1799","fixation","img/fixation.png","null","","test","","","","","",""
"272.1000000000349","238764","pSARL_v2","pSARL_v23o6qq1ot","5cfecc1e96681500168a1799","freq","img/green_2bandit_a2.png","70","70","test","1","133","133","6","",""
"null","239300","pSARL_v2","pSARL_v23o6qq1ot","5cfecc1e96681500168a1799","freq_resp","img/green_2bandit_a.png","70","70","test","","","","6","",""
"null","239464","pSARL_v2","pSARL_v23o6qq1ot","5cfecc1e96681500168a1799","fixation","img/fixation.png","null","","test","","","","","",""
"257.4000000000233","239725","pSARL_v2","pSARL_v23o6qq1ot","5cfecc1e96681500168a1799","freq","img/green_2bandit_a2.png","70","70","test","1","134","134","6","",""
"null","240276","pSARL_v2","pSARL_v23o6qq1ot","5cfecc1e96681500168a1799","freq_resp","img/green_2bandit_a.png","70","70","test","","","","6","",""
"null","240438","pSARL_v2","pSARL_v23o6qq1ot","5cfecc1e96681500168a1799","fixation","img/fixation.png","null","","test","","","","","",""
"268.8999999999651","240711","pSARL_v2","pSARL_v23o6qq1ot","5cfecc1e96681500168a1799","freq","img/green_2bandit_a2.png","70","70","test","1","135","135","6","",""
"null","241254","pSARL_v2","pSARL_v23o6qq1ot","5cfecc1e96681500168a1799","freq_resp","img/green_2bandit_a.png","70","70","test","","","","6","",""
"null","241422","pSARL_v2","pSARL_v23o6qq1ot","5cfecc1e96681500168a1799","fixation","img/fixation.png","null","","test","","","","","",""
"259.3999999999651","241685","pSARL_v2","pSARL_v23o6qq1ot","5cfecc1e96681500168a1799","freq","img/green_2bandit_a2.png","70","70","test","1","136","136","6","",""
"null","242241","pSARL_v2","pSARL_v23o6qq1ot","5cfecc1e96681500168a1799","freq_resp","img/green_2bandit_a.png","70","70","test","","","","6","",""
"null","242404","pSARL_v2","pSARL_v23o6qq1ot","5cfecc1e96681500168a1799","fixation","img/fixation.png","null","","test","","","","","",""
"259.3999999999651","242668","pSARL_v2","pSARL_v23o6qq1ot","5cfecc1e96681500168a1799","freq","img/green_2bandit_a2.png","70","70","test","1","137","137","6","",""
"null","243225","pSARL_v2","pSARL_v23o6qq1ot","5cfecc1e96681500168a1799","freq_resp","img/green_2bandit_a.png","70","70","test","","","","6","",""
"null","243380","pSARL_v2","pSARL_v23o6qq1ot","5cfecc1e96681500168a1799","fixation","img/fixation.png","null","","test","","","","","",""
"239.70000000001164","243624","pSARL_v2","pSARL_v23o6qq1ot","5cfecc1e96681500168a1799","freq","img/green_2bandit_a2.png","70","70","test","1","138","138","6","",""
"null","244198","pSARL_v2","pSARL_v23o6qq1ot","5cfecc1e96681500168a1799","freq_resp","img/green_2bandit_a.png","70","70","test","","","","6","",""
"null","244353","pSARL_v2","pSARL_v23o6qq1ot","5cfecc1e96681500168a1799","fixation","img/fixation.png","null","","test","","","","","",""
"335.9000000000233","244693","pSARL_v2","pSARL_v23o6qq1ot","5cfecc1e96681500168a1799","reward","img/slot.png","74","","test","","","","","",""
"null","245462","pSARL_v2","pSARL_v23o6qq1ot","5cfecc1e96681500168a1799","points","<div class=""verylowPoints""> -7 </div>","null","na","test","","","","6","-7","5"
"294.79999999998836","245762","pSARL_v2","pSARL_v23o6qq1ot","5cfecc1e96681500168a1799","freq","img/green_2bandit_a2.png","70","70","test","1","139","139","7","",""
"null","246279","pSARL_v2","pSARL_v23o6qq1ot","5cfecc1e96681500168a1799","freq_resp","img/green_2bandit_a.png","70","70","test","","","","7","",""
"null","246447","pSARL_v2","pSARL_v23o6qq1ot","5cfecc1e96681500168a1799","fixation","img/fixation.png","null","","test","","","","","",""
"253.40000000002328","246704","pSARL_v2","pSARL_v23o6qq1ot","5cfecc1e96681500168a1799","freq","img/green_2bandit_a2.png","70","70","test","1","140","140","7","",""
"null","247266","pSARL_v2","pSARL_v23o6qq1ot","5cfecc1e96681500168a1799","freq_resp","img/green_2bandit_a.png","70","70","test","","","","7","",""
"null","247423","pSARL_v2","pSARL_v23o6qq1ot","5cfecc1e96681500168a1799","fixation","img/fixation.png","null","","test","","","","","",""
"348.8999999999651","247775","pSARL_v2","pSARL_v23o6qq1ot","5cfecc1e96681500168a1799","infreq","img/orange_2bandit_a2.png","68","68","test","1","141","141","7","",""
"null","248237","pSARL_v2","pSARL_v23o6qq1ot","5cfecc1e96681500168a1799","infreq_resp","img/orange_2bandit_a.png","68","68","test","","","","7","",""
"null","248405","pSARL_v2","pSARL_v23o6qq1ot","5cfecc1e96681500168a1799","fixation","img/fixation.png","null","","test","","","","","",""
"330.5999999999767","248741","pSARL_v2","pSARL_v23o6qq1ot","5cfecc1e96681500168a1799","freq","img/green_2bandit_a2.png","70","70","test","1","142","142","7","",""
"null","249219","pSARL_v2","pSARL_v23o6qq1ot","5cfecc1e96681500168a1799","freq_resp","img/green_2bandit_a.png","70","70","test","","","","7","",""
"null","249382","pSARL_v2","pSARL_v23o6qq1ot","5cfecc1e96681500168a1799","fixation","img/fixation.png","null","","test","","","","","",""
"253.79999999998836","249640","pSARL_v2","pSARL_v23o6qq1ot","5cfecc1e96681500168a1799","freq","img/green_2bandit_a2.png","70","70","test","1","143","143","7","",""
"null","250199","pSARL_v2","pSARL_v23o6qq1ot","5cfecc1e96681500168a1799","freq_resp","img/green_2bandit_a.png","70","70","test","","","","7","",""
"null","250358","pSARL_v2","pSARL_v23o6qq1ot","5cfecc1e96681500168a1799","fixation","img/fixation.png","null","","test","","","","","",""
"256.8999999999651","250620","pSARL_v2","pSARL_v23o6qq1ot","5cfecc1e96681500168a1799","freq","img/green_2bandit_a2.png","70","70","test","1","144","144","7","",""
"null","251176","pSARL_v2","pSARL_v23o6qq1ot","5cfecc1e96681500168a1799","freq_resp","img/green_2bandit_a.png","70","70","test","","","","7","",""
"null","251338","pSARL_v2","pSARL_v23o6qq1ot","5cfecc1e96681500168a1799","fixation","img/fixation.png","null","","test","","","","","",""
"639.2000000000116","251981","pSARL_v2","pSARL_v23o6qq1ot","5cfecc1e96681500168a1799","freq","img/green_2bandit_a2.png","70","70","test","1","145","145","7","",""
"null","252159","pSARL_v2","pSARL_v23o6qq1ot","5cfecc1e96681500168a1799","freq_resp","img/green_2bandit_a.png","70","70","test","","","","7","",""
"null","252321","pSARL_v2","pSARL_v23o6qq1ot","5cfecc1e96681500168a1799","fixation","img/fixation.png","null","","test","","","","","",""
"607.3999999999651","252932","pSARL_v2","pSARL_v23o6qq1ot","5cfecc1e96681500168a1799","freq","img/green_2bandit_a2.png","70","70","test","1","146","146","7","",""
"null","253135","pSARL_v2","pSARL_v23o6qq1ot","5cfecc1e96681500168a1799","freq_resp","img/green_2bandit_a.png","70","70","test","","","","7","",""
"null","253305","pSARL_v2","pSARL_v23o6qq1ot","5cfecc1e96681500168a1799","fixation","img/fixation.png","null","","test","","","","","",""
"264.29999999998836","253573","pSARL_v2","pSARL_v23o6qq1ot","5cfecc1e96681500168a1799","freq","img/green_2bandit_a2.png","70","70","test","1","147","147","7","",""
"null","254120","pSARL_v2","pSARL_v23o6qq1ot","5cfecc1e96681500168a1799","freq_resp","img/green_2bandit_a.png","70","70","test","","","","7","",""
"null","254281","pSARL_v2","pSARL_v23o6qq1ot","5cfecc1e96681500168a1799","fixation","img/fixation.png","null","","test","","","","","",""
"185.5","254473","pSARL_v2","pSARL_v23o6qq1ot","5cfecc1e96681500168a1799","freq","img/green_2bandit_a2.png","70","70","test","1","148","148","7","",""
"null","255095","pSARL_v2","pSARL_v23o6qq1ot","5cfecc1e96681500168a1799","freq_resp","img/green_2bandit_a.png","70","70","test","","","","7","",""
"null","255264","pSARL_v2","pSARL_v23o6qq1ot","5cfecc1e96681500168a1799","fixation","img/fixation.png","null","","test","","","","","",""
"209","255477","pSARL_v2","pSARL_v23o6qq1ot","5cfecc1e96681500168a1799","freq","img/green_2bandit_a2.png","70","70","test","1","149","149","7","",""
"null","256087","pSARL_v2","pSARL_v23o6qq1ot","5cfecc1e96681500168a1799","freq_resp","img/green_2bandit_a.png","70","70","test","","","","7","",""
"null","256255","pSARL_v2","pSARL_v23o6qq1ot","5cfecc1e96681500168a1799","fixation","img/fixation.png","null","","test","","","","","",""
"374","256633","pSARL_v2","pSARL_v23o6qq1ot","5cfecc1e96681500168a1799","infreq","img/orange_2bandit_a2.png","68","68","test","1","150","150","7","",""
"null","257075","pSARL_v2","pSARL_v23o6qq1ot","5cfecc1e96681500168a1799","infreq_resp","img/orange_2bandit_a.png","68","68","test","","","","7","",""
"null","257238","pSARL_v2","pSARL_v23o6qq1ot","5cfecc1e96681500168a1799","fixation","img/fixation.png","null","","test","","","","","",""
"391.1000000000349","257634","pSARL_v2","pSARL_v23o6qq1ot","5cfecc1e96681500168a1799","freq","img/green_2bandit_a2.png","70","70","test","1","151","151","7","",""
"null","258059","pSARL_v2","pSARL_v23o6qq1ot","5cfecc1e96681500168a1799","freq_resp","img/green_2bandit_a.png","70","70","test","","","","7","",""
"null","258215","pSARL_v2","pSARL_v23o6qq1ot","5cfecc1e96681500168a1799","fixation","img/fixation.png","null","","test","","","","","",""
"237.39999999996508","258456","pSARL_v2","pSARL_v23o6qq1ot","5cfecc1e96681500168a1799","freq","img/green_2bandit_a2.png","70","70","test","1","152","152","7","",""
"null","259034","pSARL_v2","pSARL_v23o6qq1ot","5cfecc1e96681500168a1799","freq_resp","img/green_2bandit_a.png","70","70","test","","","","7","",""
"null","259196","pSARL_v2","pSARL_v23o6qq1ot","5cfecc1e96681500168a1799","fixation","img/fixation.png","null","","test","","","","","",""
"251.19999999995343","259452","pSARL_v2","pSARL_v23o6qq1ot","5cfecc1e96681500168a1799","freq","img/green_2bandit_a2.png","70","70","test","1","153","153","7","",""
"null","260016","pSARL_v2","pSARL_v23o6qq1ot","5cfecc1e96681500168a1799","freq_resp","img/green_2bandit_a.png","70","70","test","","","","7","",""
"null","260180","pSARL_v2","pSARL_v23o6qq1ot","5cfecc1e96681500168a1799","fixation","img/fixation.png","null","","test","","","","","",""
"268.20000000001164","260453","pSARL_v2","pSARL_v23o6qq1ot","5cfecc1e96681500168a1799","freq","img/green_2bandit_a2.png","70","70","test","1","154","154","7","",""
"null","261002","pSARL_v2","pSARL_v23o6qq1ot","5cfecc1e96681500168a1799","freq_resp","img/green_2bandit_a.png","70","70","test","","","","7","",""
"null","261163","pSARL_v2","pSARL_v23o6qq1ot","5cfecc1e96681500168a1799","fixation","img/fixation.png","null","","test","","","","","",""
"275.4000000000233","261443","pSARL_v2","pSARL_v23o6qq1ot","5cfecc1e96681500168a1799","freq","img/green_2bandit_a2.png","70","70","test","1","155","155","7","",""
"null","261984","pSARL_v2","pSARL_v23o6qq1ot","5cfecc1e96681500168a1799","freq_resp","img/green_2bandit_a.png","70","70","test","","","","7","",""
"null","262146","pSARL_v2","pSARL_v23o6qq1ot","5cfecc1e96681500168a1799","fixation","img/fixation.png","null","","test","","","","","",""
"254.89999999996508","262405","pSARL_v2","pSARL_v23o6qq1ot","5cfecc1e96681500168a1799","freq","img/green_2bandit_a2.png","70","70","test","1","156","156","7","",""
"null","262968","pSARL_v2","pSARL_v23o6qq1ot","5cfecc1e96681500168a1799","freq_resp","img/green_2bandit_a.png","70","70","test","","","","7","",""
"null","263138","pSARL_v2","pSARL_v23o6qq1ot","5cfecc1e96681500168a1799","fixation","img/fixation.png","null","","test","","","","","",""
"275.20000000001164","263417","pSARL_v2","pSARL_v23o6qq1ot","5cfecc1e96681500168a1799","freq","img/green_2bandit_a2.png","70","70","test","1","157","157","7","",""
"null","263960","pSARL_v2","pSARL_v23o6qq1ot","5cfecc1e96681500168a1799","freq_resp","img/green_2bandit_a.png","70","70","test","","","","7","",""
"null","264115","pSARL_v2","pSARL_v23o6qq1ot","5cfecc1e96681500168a1799","fixation","img/fixation.png","null","","test","","","","","",""
"271.80000000004657","264390","pSARL_v2","pSARL_v23o6qq1ot","5cfecc1e96681500168a1799","freq","img/green_2bandit_a2.png","70","70","test","1","158","158","7","",""
"null","264925","pSARL_v2","pSARL_v23o6qq1ot","5cfecc1e96681500168a1799","freq_resp","img/green_2bandit_a.png","70","70","test","","","","7","",""
"null","265089","pSARL_v2","pSARL_v23o6qq1ot","5cfecc1e96681500168a1799","fixation","img/fixation.png","null","","test","","","","","",""
"248.20000000001164","265341","pSARL_v2","pSARL_v23o6qq1ot","5cfecc1e96681500168a1799","freq","img/green_2bandit_a2.png","70","70","test","1","159","159","7","",""
"null","265908","pSARL_v2","pSARL_v23o6qq1ot","5cfecc1e96681500168a1799","freq_resp","img/green_2bandit_a.png","70","70","test","","","","7","",""
"null","266064","pSARL_v2","pSARL_v23o6qq1ot","5cfecc1e96681500168a1799","fixation","img/fixation.png","null","","test","","","","","",""
"239.20000000001164","266308","pSARL_v2","pSARL_v23o6qq1ot","5cfecc1e96681500168a1799","freq","img/green_2bandit_a2.png","70","70","test","1","160","160","7","",""
"null","266882","pSARL_v2","pSARL_v23o6qq1ot","5cfecc1e96681500168a1799","freq_resp","img/green_2bandit_a.png","70","70","test","","","","7","",""
"null","267047","pSARL_v2","pSARL_v23o6qq1ot","5cfecc1e96681500168a1799","fixation","img/fixation.png","null","","test","","","","","",""
"253.39999999996508","267304","pSARL_v2","pSARL_v23o6qq1ot","5cfecc1e96681500168a1799","freq","img/green_2bandit_a2.png","70","70","test","1","161","161","7","",""
"null","267869","pSARL_v2","pSARL_v23o6qq1ot","5cfecc1e96681500168a1799","freq_resp","img/green_2bandit_a.png","70","70","test","","","","7","",""
"null","268038","pSARL_v2","pSARL_v23o6qq1ot","5cfecc1e96681500168a1799","fixation","img/fixation.png","null","","test","","","","","",""
"236.5","268279","pSARL_v2","pSARL_v23o6qq1ot","5cfecc1e96681500168a1799","freq","img/green_2bandit_a2.png","70","70","test","1","162","162","7","",""
"null","268857","pSARL_v2","pSARL_v23o6qq1ot","5cfecc1e96681500168a1799","freq_resp","img/green_2bandit_a.png","70","70","test","","","","7","",""
"null","269022","pSARL_v2","pSARL_v23o6qq1ot","5cfecc1e96681500168a1799","fixation","img/fixation.png","null","","test","","","","","",""
"241.09999999997672","269268","pSARL_v2","pSARL_v23o6qq1ot","5cfecc1e96681500168a1799","freq","img/green_2bandit_a2.png","70","70","test","1","163","163","7","",""
"null","269841","pSARL_v2","pSARL_v23o6qq1ot","5cfecc1e96681500168a1799","freq_resp","img/green_2bandit_a.png","70","70","test","","","","7","",""
"null","269997","pSARL_v2","pSARL_v23o6qq1ot","5cfecc1e96681500168a1799","fixation","img/fixation.png","null","","test","","","","","",""
"454","270455","pSARL_v2","pSARL_v23o6qq1ot","5cfecc1e96681500168a1799","reward","img/slot.png","74","","test","","","","","",""
"null","271212","pSARL_v2","pSARL_v23o6qq1ot","5cfecc1e96681500168a1799","points","<div class=""verylowPoints""> -6 </div>","null","na","test","","","","7","-6","6"
"336","271553","pSARL_v2","pSARL_v23o6qq1ot","5cfecc1e96681500168a1799","freq","img/green_2bandit_a2.png","70","70","test","1","164","164","8","",""
"null","272020","pSARL_v2","pSARL_v23o6qq1ot","5cfecc1e96681500168a1799","freq_resp","img/green_2bandit_a.png","70","70","test","","","","8","",""
"null","272189","pSARL_v2","pSARL_v23o6qq1ot","5cfecc1e96681500168a1799","fixation","img/fixation.png","null","","test","","","","","",""
"273.0999999999767","272466","pSARL_v2","pSARL_v23o6qq1ot","5cfecc1e96681500168a1799","freq","img/green_2bandit_a2.png","70","70","test","1","165","165","8","",""
"null","273004","pSARL_v2","pSARL_v23o6qq1ot","5cfecc1e96681500168a1799","freq_resp","img/green_2bandit_a.png","70","70","test","","","","8","",""
"null","273172","pSARL_v2","pSARL_v23o6qq1ot","5cfecc1e96681500168a1799","fixation","img/fixation.png","null","","test","","","","","",""
"210.79999999998836","273387","pSARL_v2","pSARL_v23o6qq1ot","5cfecc1e96681500168a1799","freq","img/green_2bandit_a2.png","70","70","test","1","166","166","8","",""
"null","273991","pSARL_v2","pSARL_v23o6qq1ot","5cfecc1e96681500168a1799","freq_resp","img/green_2bandit_a.png","70","70","test","","","","8","",""
"null","274149","pSARL_v2","pSARL_v23o6qq1ot","5cfecc1e96681500168a1799","fixation","img/fixation.png","null","","test","","","","","",""
"240.70000000001164","274394","pSARL_v2","pSARL_v23o6qq1ot","5cfecc1e96681500168a1799","freq","img/green_2bandit_a2.png","70","70","test","1","167","167","8","",""
"null","274957","pSARL_v2","pSARL_v23o6qq1ot","5cfecc1e96681500168a1799","freq_resp","img/green_2bandit_a.png","70","70","test","","","","8","",""
"null","275114","pSARL_v2","pSARL_v23o6qq1ot","5cfecc1e96681500168a1799","fixation","img/fixation.png","null","","test","","","","","",""
"216.40000000002328","275334","pSARL_v2","pSARL_v23o6qq1ot","5cfecc1e96681500168a1799","freq","img/green_2bandit_a2.png","70","70","test","1","168","168","8","",""
"null","275933","pSARL_v2","pSARL_v23o6qq1ot","5cfecc1e96681500168a1799","freq_resp","img/green_2bandit_a.png","70","70","test","","","","8","",""
"null","276096","pSARL_v2","pSARL_v23o6qq1ot","5cfecc1e96681500168a1799","fixation","img/fixation.png","null","","test","","","","","",""
"214.5","276314","pSARL_v2","pSARL_v23o6qq1ot","5cfecc1e96681500168a1799","freq","img/green_2bandit_a2.png","70","70","test","1","169","169","8","",""
"null","276911","pSARL_v2","pSARL_v23o6qq1ot","5cfecc1e96681500168a1799","freq_resp","img/green_2bandit_a.png","70","70","test","","","","8","",""
"null","277079","pSARL_v2","pSARL_v23o6qq1ot","5cfecc1e96681500168a1799","fixation","img/fixation.png","null","","test","","","","","",""
"242.29999999998836","277325","pSARL_v2","pSARL_v23o6qq1ot","5cfecc1e96681500168a1799","freq","img/green_2bandit_a2.png","70","70","test","1","170","170","8","",""
"null","277900","pSARL_v2","pSARL_v23o6qq1ot","5cfecc1e96681500168a1799","freq_resp","img/green_2bandit_a.png","70","70","test","","","","8","",""
"null","278054","pSARL_v2","pSARL_v23o6qq1ot","5cfecc1e96681500168a1799","fixation","img/fixation.png","null","","test","","","","","",""
"241.70000000001164","278300","pSARL_v2","pSARL_v23o6qq1ot","5cfecc1e96681500168a1799","freq","img/green_2bandit_a2.png","70","70","test","1","171","171","8","",""
"null","278871","pSARL_v2","pSARL_v23o6qq1ot","5cfecc1e96681500168a1799","freq_resp","img/green_2bandit_a.png","70","70","test","","","","8","",""
"null","279029","pSARL_v2","pSARL_v23o6qq1ot","5cfecc1e96681500168a1799","fixation","img/fixation.png","null","","test","","","","","",""
"241","279274","pSARL_v2","pSARL_v23o6qq1ot","5cfecc1e96681500168a1799","freq","img/green_2bandit_a2.png","70","70","test","1","172","172","8","",""
"null","279848","pSARL_v2","pSARL_v23o6qq1ot","5cfecc1e96681500168a1799","freq_resp","img/green_2bandit_a.png","70","70","test","","","","8","",""
"null","280015","pSARL_v2","pSARL_v23o6qq1ot","5cfecc1e96681500168a1799","fixation","img/fixation.png","null","","test","","","","","",""
"230.09999999997672","280249","pSARL_v2","pSARL_v23o6qq1ot","5cfecc1e96681500168a1799","freq","img/green_2bandit_a2.png","70","70","test","1","173","173","8","",""
"null","280822","pSARL_v2","pSARL_v23o6qq1ot","5cfecc1e96681500168a1799","freq_resp","img/green_2bandit_a.png","70","70","test","","","","8","",""
"null","280988","pSARL_v2","pSARL_v23o6qq1ot","5cfecc1e96681500168a1799","fixation","img/fixation.png","null","","test","","","","","",""
"350.8999999999651","281345","pSARL_v2","pSARL_v23o6qq1ot","5cfecc1e96681500168a1799","infreq","img/orange_2bandit_a2.png","68","68","test","1","174","174","8","",""
"null","281803","pSARL_v2","pSARL_v23o6qq1ot","5cfecc1e96681500168a1799","infreq_resp","img/orange_2bandit_a.png","68","68","test","","","","8","",""
"null","281972","pSARL_v2","pSARL_v23o6qq1ot","5cfecc1e96681500168a1799","fixation","img/fixation.png","null","","test","","","","","",""
"342.5999999999767","282318","pSARL_v2","pSARL_v23o6qq1ot","5cfecc1e96681500168a1799","freq","img/green_2bandit_a2.png","70","70","test","1","175","175","8","",""
"null","282790","pSARL_v2","pSARL_v23o6qq1ot","5cfecc1e96681500168a1799","freq_resp","img/green_2bandit_a.png","70","70","test","","","","8","",""
"null","282955","pSARL_v2","pSARL_v23o6qq1ot","5cfecc1e96681500168a1799","fixation","img/fixation.png","null","","test","","","","","",""
"260.20000000001164","283220","pSARL_v2","pSARL_v23o6qq1ot","5cfecc1e96681500168a1799","freq","img/green_2bandit_a2.png","70","70","test","1","176","176","8","",""
"null","283777","pSARL_v2","pSARL_v23o6qq1ot","5cfecc1e96681500168a1799","freq_resp","img/green_2bandit_a.png","70","70","test","","","","8","",""
"null","283939","pSARL_v2","pSARL_v23o6qq1ot","5cfecc1e96681500168a1799","fixation","img/fixation.png","null","","test","","","","","",""
"293.29999999998836","284236","pSARL_v2","pSARL_v23o6qq1ot","5cfecc1e96681500168a1799","freq","img/green_2bandit_a2.png","70","70","test","1","177","177","8","",""
"null","284754","pSARL_v2","pSARL_v23o6qq1ot","5cfecc1e96681500168a1799","freq_resp","img/green_2bandit_a.png","70","70","test","","","","8","",""
"null","284912","pSARL_v2","pSARL_v23o6qq1ot","5cfecc1e96681500168a1799","fixation","img/fixation.png","null","","test","","","","","",""
"244.20000000001164","285161","pSARL_v2","pSARL_v23o6qq1ot","5cfecc1e96681500168a1799","freq","img/green_2bandit_a2.png","70","70","test","1","178","178","8","",""
"null","285733","pSARL_v2","pSARL_v23o6qq1ot","5cfecc1e96681500168a1799","freq_resp","img/green_2bandit_a.png","70","70","test","","","","8","",""
"null","285889","pSARL_v2","pSARL_v23o6qq1ot","5cfecc1e96681500168a1799","fixation","img/fixation.png","null","","test","","","","","",""
"272.0999999999767","286165","pSARL_v2","pSARL_v23o6qq1ot","5cfecc1e96681500168a1799","freq","img/green_2bandit_a2.png","70","70","test","1","179","179","8","",""
"null","286712","pSARL_v2","pSARL_v23o6qq1ot","5cfecc1e96681500168a1799","freq_resp","img/green_2bandit_a.png","70","70","test","","","","8","",""
"null","286867","pSARL_v2","pSARL_v23o6qq1ot","5cfecc1e96681500168a1799","fixation","img/fixation.png","null","","test","","","","","",""
"197","287068","pSARL_v2","pSARL_v23o6qq1ot","5cfecc1e96681500168a1799","freq","img/green_2bandit_a2.png","70","70","test","1","180","180","8","",""
"null","287680","pSARL_v2","pSARL_v23o6qq1ot","5cfecc1e96681500168a1799","freq_resp","img/green_2bandit_a.png","70","70","test","","","","8","",""
"null","287846","pSARL_v2","pSARL_v23o6qq1ot","5cfecc1e96681500168a1799","fixation","img/fixation.png","null","","test","","","","","",""
"243.20000000001164","288093","pSARL_v2","pSARL_v23o6qq1ot","5cfecc1e96681500168a1799","freq","img/green_2bandit_a2.png","70","70","test","1","181","181","8","",""
"null","288667","pSARL_v2","pSARL_v23o6qq1ot","5cfecc1e96681500168a1799","freq_resp","img/green_2bandit_a.png","70","70","test","","","","8","",""
"null","288823","pSARL_v2","pSARL_v23o6qq1ot","5cfecc1e96681500168a1799","fixation","img/fixation.png","null","","test","","","","","",""
"273.3999999999651","289100","pSARL_v2","pSARL_v23o6qq1ot","5cfecc1e96681500168a1799","freq","img/green_2bandit_a2.png","70","70","test","1","182","182","8","",""
"null","289636","pSARL_v2","pSARL_v23o6qq1ot","5cfecc1e96681500168a1799","freq_resp","img/green_2bandit_a.png","70","70","test","","","","8","",""
"null","289805","pSARL_v2","pSARL_v23o6qq1ot","5cfecc1e96681500168a1799","fixation","img/fixation.png","null","","test","","","","","",""
"268.1000000000349","290077","pSARL_v2","pSARL_v23o6qq1ot","5cfecc1e96681500168a1799","freq","img/green_2bandit_a2.png","70","70","test","1","183","183","8","",""
"null","290627","pSARL_v2","pSARL_v23o6qq1ot","5cfecc1e96681500168a1799","freq_resp","img/green_2bandit_a.png","70","70","test","","","","8","",""
"null","290789","pSARL_v2","pSARL_v23o6qq1ot","5cfecc1e96681500168a1799","fixation","img/fixation.png","null","","test","","","","","",""
"280","291071","pSARL_v2","pSARL_v23o6qq1ot","5cfecc1e96681500168a1799","freq","img/green_2bandit_a2.png","70","70","test","1","184","184","8","",""
"null","291610","pSARL_v2","pSARL_v23o6qq1ot","5cfecc1e96681500168a1799","freq_resp","img/green_2bandit_a.png","70","70","test","","","","8","",""
"null","291770","pSARL_v2","pSARL_v23o6qq1ot","5cfecc1e96681500168a1799","fixation","img/fixation.png","null","","test","","","","","",""
"232.20000000001164","292006","pSARL_v2","pSARL_v23o6qq1ot","5cfecc1e96681500168a1799","freq","img/green_2bandit_a2.png","70","70","test","1","185","185","8","",""
"null","292580","pSARL_v2","pSARL_v23o6qq1ot","5cfecc1e96681500168a1799","freq_resp","img/green_2bandit_a.png","70","70","test","","","","8","",""
"null","292738","pSARL_v2","pSARL_v23o6qq1ot","5cfecc1e96681500168a1799","fixation","img/fixation.png","null","","test","","","","","",""
"328.20000000001164","293070","pSARL_v2","pSARL_v23o6qq1ot","5cfecc1e96681500168a1799","infreq","img/orange_2bandit_a2.png","68","68","test","1","186","186","8","",""
"null","293551","pSARL_v2","pSARL_v23o6qq1ot","5cfecc1e96681500168a1799","infreq_resp","img/orange_2bandit_a.png","68","68","test","","","","8","",""
"null","293711","pSARL_v2","pSARL_v23o6qq1ot","5cfecc1e96681500168a1799","fixation","img/fixation.png","null","","test","","","","","",""
"342.70000000001164","294058","pSARL_v2","pSARL_v23o6qq1ot","5cfecc1e96681500168a1799","freq","img/green_2bandit_a2.png","70","70","test","1","187","187","8","",""
"null","294528","pSARL_v2","pSARL_v23o6qq1ot","5cfecc1e96681500168a1799","freq_resp","img/green_2bandit_a.png","70","70","test","","","","8","",""
"null","294685","pSARL_v2","pSARL_v23o6qq1ot","5cfecc1e96681500168a1799","fixation","img/fixation.png","null","","test","","","","","",""
"320.5","295010","pSARL_v2","pSARL_v23o6qq1ot","5cfecc1e96681500168a1799","freq","img/green_2bandit_a2.png","70","70","test","1","188","188","8","",""
"null","295511","pSARL_v2","pSARL_v23o6qq1ot","5cfecc1e96681500168a1799","freq_resp","img/green_2bandit_a.png","70","70","test","","","","8","",""
"null","295676","pSARL_v2","pSARL_v23o6qq1ot","5cfecc1e96681500168a1799","fixation","img/fixation.png","null","","test","","","","","",""
"261.29999999998836","295944","pSARL_v2","pSARL_v23o6qq1ot","5cfecc1e96681500168a1799","freq","img/green_2bandit_a2.png","70","70","test","1","189","189","8","",""
"null","296489","pSARL_v2","pSARL_v23o6qq1ot","5cfecc1e96681500168a1799","freq_resp","img/green_2bandit_a.png","70","70","test","","","","8","",""
"null","296653","pSARL_v2","pSARL_v23o6qq1ot","5cfecc1e96681500168a1799","fixation","img/fixation.png","null","","test","","","","","",""
"502.6000000000349","297159","pSARL_v2","pSARL_v23o6qq1ot","5cfecc1e96681500168a1799","reward","img/slot.png","74","","test","","","","","",""
"null","297927","pSARL_v2","pSARL_v23o6qq1ot","5cfecc1e96681500168a1799","points","<div class=""verylowPoints""> -4 </div>","null","na","test","","","","8","-4","7"
"381.80000000004657","298313","pSARL_v2","pSARL_v23o6qq1ot","5cfecc1e96681500168a1799","freq","img/green_2bandit_a2.png","70","70","test","1","190","190","9","",""
"null","298740","pSARL_v2","pSARL_v23o6qq1ot","5cfecc1e96681500168a1799","freq_resp","img/green_2bandit_a.png","70","70","test","","","","9","",""
"null","298903","pSARL_v2","pSARL_v23o6qq1ot","5cfecc1e96681500168a1799","fixation","img/fixation.png","null","","test","","","","","",""
"308.70000000001164","299216","pSARL_v2","pSARL_v23o6qq1ot","5cfecc1e96681500168a1799","freq","img/green_2bandit_a2.png","70","70","test","1","191","191","9","",""
"null","299720","pSARL_v2","pSARL_v23o6qq1ot","5cfecc1e96681500168a1799","freq_resp","img/green_2bandit_a.png","70","70","test","","","","9","",""
"null","299877","pSARL_v2","pSARL_v23o6qq1ot","5cfecc1e96681500168a1799","fixation","img/fixation.png","null","","test","","","","","",""
"228.40000000002328","300109","pSARL_v2","pSARL_v23o6qq1ot","5cfecc1e96681500168a1799","freq","img/green_2bandit_a2.png","70","70","test","1","192","192","9","",""
"null","300698","pSARL_v2","pSARL_v23o6qq1ot","5cfecc1e96681500168a1799","freq_resp","img/green_2bandit_a.png","70","70","test","","","","9","",""
"null","300861","pSARL_v2","pSARL_v23o6qq1ot","5cfecc1e96681500168a1799","fixation","img/fixation.png","null","","test","","","","","",""
"423.20000000001164","301288","pSARL_v2","pSARL_v23o6qq1ot","5cfecc1e96681500168a1799","freq","img/green_2bandit_a2.png","70","70","test","1","193","193","9","",""
"null","301685","pSARL_v2","pSARL_v23o6qq1ot","5cfecc1e96681500168a1799","freq_resp","img/green_2bandit_a.png","70","70","test","","","","9","",""
"null","301845","pSARL_v2","pSARL_v23o6qq1ot","5cfecc1e96681500168a1799","fixation","img/fixation.png","null","","test","","","","","",""
"379.79999999998836","302229","pSARL_v2","pSARL_v23o6qq1ot","5cfecc1e96681500168a1799","freq","img/green_2bandit_a2.png","70","70","test","1","194","194","9","",""
"null","302666","pSARL_v2","pSARL_v23o6qq1ot","5cfecc1e96681500168a1799","freq_resp","img/green_2bandit_a.png","70","70","test","","","","9","",""
"null","302823","pSARL_v2","pSARL_v23o6qq1ot","5cfecc1e96681500168a1799","fixation","img/fixation.png","null","","test","","","","","",""
"242.80000000004657","303071","pSARL_v2","pSARL_v23o6qq1ot","5cfecc1e96681500168a1799","freq","img/green_2bandit_a2.png","70","70","test","1","195","195","9","",""
"null","303644","pSARL_v2","pSARL_v23o6qq1ot","5cfecc1e96681500168a1799","freq_resp","img/green_2bandit_a.png","70","70","test","","","","9","",""
"null","303812","pSARL_v2","pSARL_v23o6qq1ot","5cfecc1e96681500168a1799","fixation","img/fixation.png","null","","test","","","","","",""
"248.5","304065","pSARL_v2","pSARL_v23o6qq1ot","5cfecc1e96681500168a1799","freq","img/green_2bandit_a2.png","70","70","test","1","196","196","9","",""
"null","304633","pSARL_v2","pSARL_v23o6qq1ot","5cfecc1e96681500168a1799","freq_resp","img/green_2bandit_a.png","70","70","test","","","","9","",""
"null","304788","pSARL_v2","pSARL_v23o6qq1ot","5cfecc1e96681500168a1799","fixation","img/fixation.png","null","","test","","","","","",""
"222","305017","pSARL_v2","pSARL_v23o6qq1ot","5cfecc1e96681500168a1799","freq","img/green_2bandit_a2.png","70","70","test","1","197","197","9","",""
"null","305606","pSARL_v2","pSARL_v23o6qq1ot","5cfecc1e96681500168a1799","freq_resp","img/green_2bandit_a.png","70","70","test","","","","9","",""
"null","305771","pSARL_v2","pSARL_v23o6qq1ot","5cfecc1e96681500168a1799","fixation","img/fixation.png","null","","test","","","","","",""
"224.80000000004657","306000","pSARL_v2","pSARL_v23o6qq1ot","5cfecc1e96681500168a1799","freq","img/green_2bandit_a2.png","70","70","test","1","198","198","9","",""
"null","306588","pSARL_v2","pSARL_v23o6qq1ot","5cfecc1e96681500168a1799","freq_resp","img/green_2bandit_a.png","70","70","test","","","","9","",""
"null","306752","pSARL_v2","pSARL_v23o6qq1ot","5cfecc1e96681500168a1799","fixation","img/fixation.png","null","","test","","","","","",""
"261.1000000000349","307017","pSARL_v2","pSARL_v23o6qq1ot","5cfecc1e96681500168a1799","freq","img/green_2bandit_a2.png","70","70","test","1","199","199","9","",""
"null","307563","pSARL_v2","pSARL_v23o6qq1ot","5cfecc1e96681500168a1799","freq_resp","img/green_2bandit_a.png","70","70","test","","","","9","",""
"null","307721","pSARL_v2","pSARL_v23o6qq1ot","5cfecc1e96681500168a1799","fixation","img/fixation.png","null","","test","","","","","",""
"252.59999999997672","307977","pSARL_v2","pSARL_v23o6qq1ot","5cfecc1e96681500168a1799","freq","img/green_2bandit_a2.png","70","70","test","1","200","200","9","",""
"null","308539","pSARL_v2","pSARL_v23o6qq1ot","5cfecc1e96681500168a1799","freq_resp","img/green_2bandit_a.png","70","70","test","","","","9","",""
"null","308695","pSARL_v2","pSARL_v23o6qq1ot","5cfecc1e96681500168a1799","fixation","img/fixation.png","null","","test","","","","","",""
"380.29999999998836","309079","pSARL_v2","pSARL_v23o6qq1ot","5cfecc1e96681500168a1799","infreq","img/orange_2bandit_a2.png","68","68","test","1","201","201","9","",""
"null","309511","pSARL_v2","pSARL_v23o6qq1ot","5cfecc1e96681500168a1799","infreq_resp","img/orange_2bandit_a.png","68","68","test","","","","9","",""
"null","309677","pSARL_v2","pSARL_v23o6qq1ot","5cfecc1e96681500168a1799","fixation","img/fixation.png","null","","test","","","","","",""
"384","310065","pSARL_v2","pSARL_v23o6qq1ot","5cfecc1e96681500168a1799","freq","img/green_2bandit_a2.png","70","70","test","1","202","202","9","",""
"null","310495","pSARL_v2","pSARL_v23o6qq1ot","5cfecc1e96681500168a1799","freq_resp","img/green_2bandit_a.png","70","70","test","","","","9","",""
"null","310660","pSARL_v2","pSARL_v23o6qq1ot","5cfecc1e96681500168a1799","fixation","img/fixation.png","null","","test","","","","","",""
"326.5999999999767","310991","pSARL_v2","pSARL_v23o6qq1ot","5cfecc1e96681500168a1799","freq","img/green_2bandit_a2.png","70","70","test","1","203","203","9","",""
"null","311477","pSARL_v2","pSARL_v23o6qq1ot","5cfecc1e96681500168a1799","freq_resp","img/green_2bandit_a.png","70","70","test","","","","9","",""
"null","311636","pSARL_v2","pSARL_v23o6qq1ot","5cfecc1e96681500168a1799","fixation","img/fixation.png","null","","test","","","","","",""
"346.5999999999767","311987","pSARL_v2","pSARL_v23o6qq1ot","5cfecc1e96681500168a1799","freq","img/green_2bandit_a2.png","70","70","test","1","204","204","9","",""
"null","312457","pSARL_v2","pSARL_v23o6qq1ot","5cfecc1e96681500168a1799","freq_resp","img/green_2bandit_a.png","70","70","test","","","","9","",""
"null","312612","pSARL_v2","pSARL_v23o6qq1ot","5cfecc1e96681500168a1799","fixation","img/fixation.png","null","","test","","","","","",""
"371.5999999999767","312988","pSARL_v2","pSARL_v23o6qq1ot","5cfecc1e96681500168a1799","infreq","img/orange_2bandit_a2.png","68","68","test","1","205","205","9","",""
"null","313422","pSARL_v2","pSARL_v23o6qq1ot","5cfecc1e96681500168a1799","infreq_resp","img/orange_2bandit_a.png","68","68","test","","","","9","",""
"null","313578","pSARL_v2","pSARL_v23o6qq1ot","5cfecc1e96681500168a1799","fixation","img/fixation.png","null","","test","","","","","",""
"411.29999999998836","313995","pSARL_v2","pSARL_v23o6qq1ot","5cfecc1e96681500168a1799","freq","img/green_2bandit_a2.png","70","70","test","1","206","206","9","",""
"null","314397","pSARL_v2","pSARL_v23o6qq1ot","5cfecc1e96681500168a1799","freq_resp","img/green_2bandit_a.png","70","70","test","","","","9","",""
"null","314553","pSARL_v2","pSARL_v23o6qq1ot","5cfecc1e96681500168a1799","fixation","img/fixation.png","null","","test","","","","","",""
