"rt","time_elapsed","expId","subject","prolificID","trialType","stimulus","key_press","corrresp","phase","corr","trialNum","attentionRunNum","blockNum","points","rlNum"
"22729.599999999627","22737","pSARL_v2","pSARL_v2pwbfxhph","62e99c5ba3484be10c322440","","","","","","","","","","",""
"","25668","pSARL_v2","pSARL_v2pwbfxhph","62e99c5ba3484be10c322440","fullscreen","","","","","","","","","",""
"62970.90000000037","88651","pSARL_v2","pSARL_v2pwbfxhph","62e99c5ba3484be10c322440","","","","","","","","","","",""
"null","89466","pSARL_v2","pSARL_v2pwbfxhph","62e99c5ba3484be10c322440","freqPrac","img/green_2bandit_a2.png","null","70","prac","0","","","","",""
"null","90489","pSARL_v2","pSARL_v2pwbfxhph","62e99c5ba3484be10c322440","feedback","img/tooSlow.png","null","na","prac","","","","","",""
"null","90654","pSARL_v2","pSARL_v2pwbfxhph","62e99c5ba3484be10c322440","fixation","img/fixation.png","null","","prac","","","","","",""
"449.5","91113","pSARL_v2","pSARL_v2pwbfxhph","62e99c5ba3484be10c322440","infreqPrac","img/orange_2bandit_a2.png","68","68","prac","1","","","","",""
"449.5","91483","pSARL_v2","pSARL_v2pwbfxhph","62e99c5ba3484be10c322440","infreqPrac_resp","img/orange_2bandit_a.png","68","68","prac","","","","","",""
"null","91643","pSARL_v2","pSARL_v2pwbfxhph","62e99c5ba3484be10c322440","fixation","img/fixation.png","null","","prac","","","","","",""
"508.19999999925494","92161","pSARL_v2","pSARL_v2pwbfxhph","62e99c5ba3484be10c322440","freqPrac","img/green_2bandit_a2.png","70","70","prac","1","","","","",""
"508.19999999925494","92475","pSARL_v2","pSARL_v2pwbfxhph","62e99c5ba3484be10c322440","freqPrac_resp","img/green_2bandit_a.png","70","70","prac","","","","","",""
"null","92639","pSARL_v2","pSARL_v2pwbfxhph","62e99c5ba3484be10c322440","fixation","img/fixation.png","null","","prac","","","","","",""
"439.30000000074506","93087","pSARL_v2","pSARL_v2pwbfxhph","62e99c5ba3484be10c322440","infreqPrac","img/orange_2bandit_a2.png","68","68","prac","1","","","","",""
"439.30000000074506","93460","pSARL_v2","pSARL_v2pwbfxhph","62e99c5ba3484be10c322440","infreqPrac_resp","img/orange_2bandit_a.png","68","68","prac","","","","","",""
"null","93620","pSARL_v2","pSARL_v2pwbfxhph","62e99c5ba3484be10c322440","fixation","img/fixation.png","null","","prac","","","","","",""
"425.19999999925494","94054","pSARL_v2","pSARL_v2pwbfxhph","62e99c5ba3484be10c322440","infreqPrac","img/orange_2bandit_a2.png","68","68","prac","1","","","","",""
"425.19999999925494","94438","pSARL_v2","pSARL_v2pwbfxhph","62e99c5ba3484be10c322440","infreqPrac_resp","img/orange_2bandit_a.png","68","68","prac","","","","","",""
"null","94598","pSARL_v2","pSARL_v2pwbfxhph","62e99c5ba3484be10c322440","fixation","img/fixation.png","null","","prac","","","","","",""
"301.7999999988824","94909","pSARL_v2","pSARL_v2pwbfxhph","62e99c5ba3484be10c322440","infreqPrac","img/orange_2bandit_a2.png","68","68","prac","1","","","","",""
"301.7999999988824","95418","pSARL_v2","pSARL_v2pwbfxhph","62e99c5ba3484be10c322440","infreqPrac_resp","img/orange_2bandit_a.png","68","68","prac","","","","","",""
"null","95578","pSARL_v2","pSARL_v2pwbfxhph","62e99c5ba3484be10c322440","fixation","img/fixation.png","null","","prac","","","","","",""
"321.2999999988824","95908","pSARL_v2","pSARL_v2pwbfxhph","62e99c5ba3484be10c322440","freqPrac","img/green_2bandit_a2.png","68","70","prac","0","","","","",""
"321.2999999988824","96402","pSARL_v2","pSARL_v2pwbfxhph","62e99c5ba3484be10c322440","freqPrac_resp","img/green_2bandit_a.png","68","70","prac","","","","","",""
"null","97420","pSARL_v2","pSARL_v2pwbfxhph","62e99c5ba3484be10c322440","feedback","img/wrongKey.png","null","na","prac","","","","","",""
"null","97593","pSARL_v2","pSARL_v2pwbfxhph","62e99c5ba3484be10c322440","fixation","img/fixation.png","null","","prac","","","","","",""
"602.2999999988824","98204","pSARL_v2","pSARL_v2pwbfxhph","62e99c5ba3484be10c322440","infreqPrac","img/orange_2bandit_a2.png","68","68","prac","1","","","","",""
"602.2999999988824","98421","pSARL_v2","pSARL_v2pwbfxhph","62e99c5ba3484be10c322440","infreqPrac_resp","img/orange_2bandit_a.png","68","68","prac","","","","","",""
"null","98593","pSARL_v2","pSARL_v2pwbfxhph","62e99c5ba3484be10c322440","fixation","img/fixation.png","null","","prac","","","","","",""
"393.30000000074506","98995","pSARL_v2","pSARL_v2pwbfxhph","62e99c5ba3484be10c322440","freqPrac","img/green_2bandit_a2.png","68","70","prac","0","","","","",""
"393.30000000074506","99423","pSARL_v2","pSARL_v2pwbfxhph","62e99c5ba3484be10c322440","freqPrac_resp","img/green_2bandit_a.png","68","70","prac","","","","","",""
"null","100437","pSARL_v2","pSARL_v2pwbfxhph","62e99c5ba3484be10c322440","feedback","img/wrongKey.png","null","na","prac","","","","","",""
"null","100599","pSARL_v2","pSARL_v2pwbfxhph","62e99c5ba3484be10c322440","fixation","img/fixation.png","null","","prac","","","","","",""
"532","101140","pSARL_v2","pSARL_v2pwbfxhph","62e99c5ba3484be10c322440","freqPrac","img/green_2bandit_a2.png","70","70","prac","1","","","","",""
"532","101422","pSARL_v2","pSARL_v2pwbfxhph","62e99c5ba3484be10c322440","freqPrac_resp","img/green_2bandit_a.png","70","70","prac","","","","","",""
"null","101593","pSARL_v2","pSARL_v2pwbfxhph","62e99c5ba3484be10c322440","fixation","img/fixation.png","null","","prac","","","","","",""
"20689.800000000745","122291","pSARL_v2","pSARL_v2pwbfxhph","62e99c5ba3484be10c322440","","","","","prac","","","","","",""
"451.19999999925494","122751","pSARL_v2","pSARL_v2pwbfxhph","62e99c5ba3484be10c322440","rewardPractice","img/slot.png","74","","prac","","","","","",""
"null","123512","pSARL_v2","pSARL_v2pwbfxhph","62e99c5ba3484be10c322440","feedback","<div class=""veryhighPoints""> +15 </div>","null","na","prac","","","","","",""
"null","123674","pSARL_v2","pSARL_v2pwbfxhph","62e99c5ba3484be10c322440","fixation","img/fixation.png","null","","prac","","","","","",""
"15398.400000000373","139081","pSARL_v2","pSARL_v2pwbfxhph","62e99c5ba3484be10c322440","","","","","prac","","","","","",""
"570.4000000003725","139660","pSARL_v2","pSARL_v2pwbfxhph","62e99c5ba3484be10c322440","freq","img/green_2bandit_a2.png","70","70","test","1","1","1","1","",""
"null","139899","pSARL_v2","pSARL_v2pwbfxhph","62e99c5ba3484be10c322440","freq_resp","img/green_2bandit_a.png","70","70","test","","","","1","",""
"null","140067","pSARL_v2","pSARL_v2pwbfxhph","62e99c5ba3484be10c322440","fixation","img/fixation.png","null","","test","","","","","",""
"407.09999999962747","140483","pSARL_v2","pSARL_v2pwbfxhph","62e99c5ba3484be10c322440","freq","img/green_2bandit_a2.png","70","70","test","1","2","2","1","",""
"null","140897","pSARL_v2","pSARL_v2pwbfxhph","62e99c5ba3484be10c322440","freq_resp","img/green_2bandit_a.png","70","70","test","","","","1","",""
"null","141067","pSARL_v2","pSARL_v2pwbfxhph","62e99c5ba3484be10c322440","fixation","img/fixation.png","null","","test","","","","","",""
"461.8999999985099","141537","pSARL_v2","pSARL_v2pwbfxhph","62e99c5ba3484be10c322440","infreq","img/orange_2bandit_a2.png","68","68","test","1","3","3","1","",""
"null","141899","pSARL_v2","pSARL_v2pwbfxhph","62e99c5ba3484be10c322440","infreq_resp","img/orange_2bandit_a.png","68","68","test","","","","1","",""
"null","142067","pSARL_v2","pSARL_v2pwbfxhph","62e99c5ba3484be10c322440","fixation","img/fixation.png","null","","test","","","","","",""
"437.59999999962747","142513","pSARL_v2","pSARL_v2pwbfxhph","62e99c5ba3484be10c322440","freq","img/green_2bandit_a2.png","70","70","test","1","4","4","1","",""
"null","142890","pSARL_v2","pSARL_v2pwbfxhph","62e99c5ba3484be10c322440","freq_resp","img/green_2bandit_a.png","70","70","test","","","","1","",""
"null","143051","pSARL_v2","pSARL_v2pwbfxhph","62e99c5ba3484be10c322440","fixation","img/fixation.png","null","","test","","","","","",""
"444.3999999985099","143504","pSARL_v2","pSARL_v2pwbfxhph","62e99c5ba3484be10c322440","freq","img/green_2bandit_a2.png","70","70","test","1","5","5","1","",""
"null","143874","pSARL_v2","pSARL_v2pwbfxhph","62e99c5ba3484be10c322440","freq_resp","img/green_2bandit_a.png","70","70","test","","","","1","",""
"null","144035","pSARL_v2","pSARL_v2pwbfxhph","62e99c5ba3484be10c322440","fixation","img/fixation.png","null","","test","","","","","",""
"363","144407","pSARL_v2","pSARL_v2pwbfxhph","62e99c5ba3484be10c322440","freq","img/green_2bandit_a2.png","70","70","test","1","6","6","1","",""
"null","144868","pSARL_v2","pSARL_v2pwbfxhph","62e99c5ba3484be10c322440","freq_resp","img/green_2bandit_a.png","70","70","test","","","","1","",""
"null","145031","pSARL_v2","pSARL_v2pwbfxhph","62e99c5ba3484be10c322440","fixation","img/fixation.png","null","","test","","","","","",""
"310.5","145350","pSARL_v2","pSARL_v2pwbfxhph","62e99c5ba3484be10c322440","freq","img/green_2bandit_a2.png","70","70","test","1","7","7","1","",""
"null","145854","pSARL_v2","pSARL_v2pwbfxhph","62e99c5ba3484be10c322440","freq_resp","img/green_2bandit_a.png","70","70","test","","","","1","",""
"null","146015","pSARL_v2","pSARL_v2pwbfxhph","62e99c5ba3484be10c322440","fixation","img/fixation.png","null","","test","","","","","",""
"341.2000000011176","146365","pSARL_v2","pSARL_v2pwbfxhph","62e99c5ba3484be10c322440","freq","img/green_2bandit_a2.png","70","70","test","1","8","8","1","",""
"null","146847","pSARL_v2","pSARL_v2pwbfxhph","62e99c5ba3484be10c322440","freq_resp","img/green_2bandit_a.png","70","70","test","","","","1","",""
"null","147011","pSARL_v2","pSARL_v2pwbfxhph","62e99c5ba3484be10c322440","fixation","img/fixation.png","null","","test","","","","","",""
"303.7000000011176","147323","pSARL_v2","pSARL_v2pwbfxhph","62e99c5ba3484be10c322440","freq","img/green_2bandit_a2.png","70","70","test","1","9","9","1","",""
"null","147832","pSARL_v2","pSARL_v2pwbfxhph","62e99c5ba3484be10c322440","freq_resp","img/green_2bandit_a.png","70","70","test","","","","1","",""
"null","147992","pSARL_v2","pSARL_v2pwbfxhph","62e99c5ba3484be10c322440","fixation","img/fixation.png","null","","test","","","","","",""
"282.19999999925494","148283","pSARL_v2","pSARL_v2pwbfxhph","62e99c5ba3484be10c322440","freq","img/green_2bandit_a2.png","70","70","test","1","10","10","1","",""
"null","148824","pSARL_v2","pSARL_v2pwbfxhph","62e99c5ba3484be10c322440","freq_resp","img/green_2bandit_a.png","70","70","test","","","","1","",""
"null","148990","pSARL_v2","pSARL_v2pwbfxhph","62e99c5ba3484be10c322440","fixation","img/fixation.png","null","","test","","","","","",""
"274.2999999988824","149274","pSARL_v2","pSARL_v2pwbfxhph","62e99c5ba3484be10c322440","freq","img/green_2bandit_a2.png","70","70","test","1","11","11","1","",""
"null","149813","pSARL_v2","pSARL_v2pwbfxhph","62e99c5ba3484be10c322440","freq_resp","img/green_2bandit_a.png","70","70","test","","","","1","",""
"null","149985","pSARL_v2","pSARL_v2pwbfxhph","62e99c5ba3484be10c322440","fixation","img/fixation.png","null","","test","","","","","",""
"278.09999999962747","150272","pSARL_v2","pSARL_v2pwbfxhph","62e99c5ba3484be10c322440","freq","img/green_2bandit_a2.png","70","70","test","1","12","12","1","",""
"null","150804","pSARL_v2","pSARL_v2pwbfxhph","62e99c5ba3484be10c322440","freq_resp","img/green_2bandit_a.png","70","70","test","","","","1","",""
"null","150970","pSARL_v2","pSARL_v2pwbfxhph","62e99c5ba3484be10c322440","fixation","img/fixation.png","null","","test","","","","","",""
"348.09999999962747","151327","pSARL_v2","pSARL_v2pwbfxhph","62e99c5ba3484be10c322440","infreq","img/orange_2bandit_a2.png","68","68","test","1","13","13","1","",""
"null","151798","pSARL_v2","pSARL_v2pwbfxhph","62e99c5ba3484be10c322440","infreq_resp","img/orange_2bandit_a.png","68","68","test","","","","1","",""
"null","151970","pSARL_v2","pSARL_v2pwbfxhph","62e99c5ba3484be10c322440","fixation","img/fixation.png","null","","test","","","","","",""
"420","152398","pSARL_v2","pSARL_v2pwbfxhph","62e99c5ba3484be10c322440","freq","img/green_2bandit_a2.png","70","70","test","1","14","14","1","",""
"null","152788","pSARL_v2","pSARL_v2pwbfxhph","62e99c5ba3484be10c322440","freq_resp","img/green_2bandit_a.png","70","70","test","","","","1","",""
"null","152950","pSARL_v2","pSARL_v2pwbfxhph","62e99c5ba3484be10c322440","fixation","img/fixation.png","null","","test","","","","","",""
"527.1000000014901","153485","pSARL_v2","pSARL_v2pwbfxhph","62e99c5ba3484be10c322440","freq","img/green_2bandit_a2.png","70","70","test","1","15","15","1","",""
"null","153774","pSARL_v2","pSARL_v2pwbfxhph","62e99c5ba3484be10c322440","freq_resp","img/green_2bandit_a.png","70","70","test","","","","1","",""
"null","153945","pSARL_v2","pSARL_v2pwbfxhph","62e99c5ba3484be10c322440","fixation","img/fixation.png","null","","test","","","","","",""
"330.5","154284","pSARL_v2","pSARL_v2pwbfxhph","62e99c5ba3484be10c322440","freq","img/green_2bandit_a2.png","70","70","test","1","16","16","1","",""
"null","154776","pSARL_v2","pSARL_v2pwbfxhph","62e99c5ba3484be10c322440","freq_resp","img/green_2bandit_a.png","70","70","test","","","","1","",""
"null","154945","pSARL_v2","pSARL_v2pwbfxhph","62e99c5ba3484be10c322440","fixation","img/fixation.png","null","","test","","","","","",""
"273.5","155227","pSARL_v2","pSARL_v2pwbfxhph","62e99c5ba3484be10c322440","freq","img/green_2bandit_a2.png","70","70","test","1","17","17","1","",""
"null","155766","pSARL_v2","pSARL_v2pwbfxhph","62e99c5ba3484be10c322440","freq_resp","img/green_2bandit_a.png","70","70","test","","","","1","",""
"null","155929","pSARL_v2","pSARL_v2pwbfxhph","62e99c5ba3484be10c322440","fixation","img/fixation.png","null","","test","","","","","",""
"263.80000000074506","156205","pSARL_v2","pSARL_v2pwbfxhph","62e99c5ba3484be10c322440","freq","img/green_2bandit_a2.png","70","70","test","1","18","18","1","",""
"null","156760","pSARL_v2","pSARL_v2pwbfxhph","62e99c5ba3484be10c322440","freq_resp","img/green_2bandit_a.png","70","70","test","","","","1","",""
"null","156925","pSARL_v2","pSARL_v2pwbfxhph","62e99c5ba3484be10c322440","fixation","img/fixation.png","null","","test","","","","","",""
"195.19999999925494","157129","pSARL_v2","pSARL_v2pwbfxhph","62e99c5ba3484be10c322440","freq","img/green_2bandit_a2.png","70","70","test","1","19","19","1","",""
"null","157749","pSARL_v2","pSARL_v2pwbfxhph","62e99c5ba3484be10c322440","freq_resp","img/green_2bandit_a.png","70","70","test","","","","1","",""
"null","157909","pSARL_v2","pSARL_v2pwbfxhph","62e99c5ba3484be10c322440","fixation","img/fixation.png","null","","test","","","","","",""
"443.2000000011176","158360","pSARL_v2","pSARL_v2pwbfxhph","62e99c5ba3484be10c322440","reward","img/slot.png","74","","test","","","","","",""
"null","159126","pSARL_v2","pSARL_v2pwbfxhph","62e99c5ba3484be10c322440","points","<div class=""verylowPoints""> -6 </div>","null","na","test","","","","1","-6","0"
"null","159945","pSARL_v2","pSARL_v2pwbfxhph","62e99c5ba3484be10c322440","freq","img/green_2bandit_a2.png","null","70","test","0","20","20","2","",""
"null","160108","pSARL_v2","pSARL_v2pwbfxhph","62e99c5ba3484be10c322440","fixation","img/fixation.png","null","","test","","","","","",""
"377.40000000037253","160494","pSARL_v2","pSARL_v2pwbfxhph","62e99c5ba3484be10c322440","freq","img/green_2bandit_a2.png","70","70","test","1","21","21","2","",""
"null","160931","pSARL_v2","pSARL_v2pwbfxhph","62e99c5ba3484be10c322440","freq_resp","img/green_2bandit_a.png","70","70","test","","","","2","",""
"null","161090","pSARL_v2","pSARL_v2pwbfxhph","62e99c5ba3484be10c322440","fixation","img/fixation.png","null","","test","","","","","",""
"322.59999999962747","161421","pSARL_v2","pSARL_v2pwbfxhph","62e99c5ba3484be10c322440","freq","img/green_2bandit_a2.png","70","70","test","1","22","22","2","",""
"null","161911","pSARL_v2","pSARL_v2pwbfxhph","62e99c5ba3484be10c322440","freq_resp","img/green_2bandit_a.png","70","70","test","","","","2","",""
"null","162084","pSARL_v2","pSARL_v2pwbfxhph","62e99c5ba3484be10c322440","fixation","img/fixation.png","null","","test","","","","","",""
"135.90000000037253","162231","pSARL_v2","pSARL_v2pwbfxhph","62e99c5ba3484be10c322440","freq","img/green_2bandit_a2.png","70","70","test","1","23","23","2","",""
"null","162904","pSARL_v2","pSARL_v2pwbfxhph","62e99c5ba3484be10c322440","freq_resp","img/green_2bandit_a.png","70","70","test","","","","2","",""
"null","163068","pSARL_v2","pSARL_v2pwbfxhph","62e99c5ba3484be10c322440","fixation","img/fixation.png","null","","test","","","","","",""
"238.5","163315","pSARL_v2","pSARL_v2pwbfxhph","62e99c5ba3484be10c322440","freq","img/green_2bandit_a2.png","70","70","test","1","24","24","2","",""
"null","163899","pSARL_v2","pSARL_v2pwbfxhph","62e99c5ba3484be10c322440","freq_resp","img/green_2bandit_a.png","70","70","test","","","","2","",""
"null","164063","pSARL_v2","pSARL_v2pwbfxhph","62e99c5ba3484be10c322440","fixation","img/fixation.png","null","","test","","","","","",""
"354.5","164427","pSARL_v2","pSARL_v2pwbfxhph","62e99c5ba3484be10c322440","freq","img/green_2bandit_a2.png","70","70","test","1","25","25","2","",""
"null","164886","pSARL_v2","pSARL_v2pwbfxhph","62e99c5ba3484be10c322440","freq_resp","img/green_2bandit_a.png","70","70","test","","","","2","",""
"null","165048","pSARL_v2","pSARL_v2pwbfxhph","62e99c5ba3484be10c322440","fixation","img/fixation.png","null","","test","","","","","",""
"201.2000000011176","165257","pSARL_v2","pSARL_v2pwbfxhph","62e99c5ba3484be10c322440","freq","img/green_2bandit_a2.png","70","70","test","1","26","26","2","",""
"null","165871","pSARL_v2","pSARL_v2pwbfxhph","62e99c5ba3484be10c322440","freq_resp","img/green_2bandit_a.png","70","70","test","","","","2","",""
"null","166046","pSARL_v2","pSARL_v2pwbfxhph","62e99c5ba3484be10c322440","fixation","img/fixation.png","null","","test","","","","","",""
"161.60000000149012","166216","pSARL_v2","pSARL_v2pwbfxhph","62e99c5ba3484be10c322440","freq","img/green_2bandit_a2.png","70","70","test","1","27","27","2","",""
"null","166876","pSARL_v2","pSARL_v2pwbfxhph","62e99c5ba3484be10c322440","freq_resp","img/green_2bandit_a.png","70","70","test","","","","2","",""
"null","167043","pSARL_v2","pSARL_v2pwbfxhph","62e99c5ba3484be10c322440","fixation","img/fixation.png","null","","test","","","","","",""
"276.19999999925494","167328","pSARL_v2","pSARL_v2pwbfxhph","62e99c5ba3484be10c322440","freq","img/green_2bandit_a2.png","70","70","test","1","28","28","2","",""
"null","167870","pSARL_v2","pSARL_v2pwbfxhph","62e99c5ba3484be10c322440","freq_resp","img/green_2bandit_a.png","70","70","test","","","","2","",""
"null","168042","pSARL_v2","pSARL_v2pwbfxhph","62e99c5ba3484be10c322440","fixation","img/fixation.png","null","","test","","","","","",""
"243.7999999988824","168295","pSARL_v2","pSARL_v2pwbfxhph","62e99c5ba3484be10c322440","freq","img/green_2bandit_a2.png","70","70","test","1","29","29","2","",""
"null","168867","pSARL_v2","pSARL_v2pwbfxhph","62e99c5ba3484be10c322440","freq_resp","img/green_2bandit_a.png","70","70","test","","","","2","",""
"null","169027","pSARL_v2","pSARL_v2pwbfxhph","62e99c5ba3484be10c322440","fixation","img/fixation.png","null","","test","","","","","",""
"146.09999999962747","169182","pSARL_v2","pSARL_v2pwbfxhph","62e99c5ba3484be10c322440","freq","img/green_2bandit_a2.png","70","70","test","1","30","30","2","",""
"null","169851","pSARL_v2","pSARL_v2pwbfxhph","62e99c5ba3484be10c322440","freq_resp","img/green_2bandit_a.png","70","70","test","","","","2","",""
"null","170012","pSARL_v2","pSARL_v2pwbfxhph","62e99c5ba3484be10c322440","fixation","img/fixation.png","null","","test","","","","","",""
"160.69999999925494","170181","pSARL_v2","pSARL_v2pwbfxhph","62e99c5ba3484be10c322440","freq","img/green_2bandit_a2.png","70","70","test","1","31","31","2","",""
"null","170826","pSARL_v2","pSARL_v2pwbfxhph","62e99c5ba3484be10c322440","freq_resp","img/green_2bandit_a.png","70","70","test","","","","2","",""
"null","170985","pSARL_v2","pSARL_v2pwbfxhph","62e99c5ba3484be10c322440","fixation","img/fixation.png","null","","test","","","","","",""
"252.40000000037253","171246","pSARL_v2","pSARL_v2pwbfxhph","62e99c5ba3484be10c322440","freq","img/green_2bandit_a2.png","70","70","test","1","32","32","2","",""
"null","171807","pSARL_v2","pSARL_v2pwbfxhph","62e99c5ba3484be10c322440","freq_resp","img/green_2bandit_a.png","70","70","test","","","","2","",""
"null","171977","pSARL_v2","pSARL_v2pwbfxhph","62e99c5ba3484be10c322440","fixation","img/fixation.png","null","","test","","","","","",""
"140.19999999925494","172125","pSARL_v2","pSARL_v2pwbfxhph","62e99c5ba3484be10c322440","infreq","img/orange_2bandit_a2.png","70","68","test","0","33","33","2","",""
"null","172795","pSARL_v2","pSARL_v2pwbfxhph","62e99c5ba3484be10c322440","infreq_resp","img/orange_2bandit_a.png","70","68","test","","","","2","",""
"null","172961","pSARL_v2","pSARL_v2pwbfxhph","62e99c5ba3484be10c322440","fixation","img/fixation.png","null","","test","","","","","",""
"594.7999999988824","173565","pSARL_v2","pSARL_v2pwbfxhph","62e99c5ba3484be10c322440","freq","img/green_2bandit_a2.png","70","70","test","1","34","34","2","",""
"null","173791","pSARL_v2","pSARL_v2pwbfxhph","62e99c5ba3484be10c322440","freq_resp","img/green_2bandit_a.png","70","70","test","","","","2","",""
"null","173956","pSARL_v2","pSARL_v2pwbfxhph","62e99c5ba3484be10c322440","fixation","img/fixation.png","null","","test","","","","","",""
"332.30000000074506","174300","pSARL_v2","pSARL_v2pwbfxhph","62e99c5ba3484be10c322440","freq","img/green_2bandit_a2.png","70","70","test","1","35","35","2","",""
"null","174775","pSARL_v2","pSARL_v2pwbfxhph","62e99c5ba3484be10c322440","freq_resp","img/green_2bandit_a.png","70","70","test","","","","2","",""
"null","174941","pSARL_v2","pSARL_v2pwbfxhph","62e99c5ba3484be10c322440","fixation","img/fixation.png","null","","test","","","","","",""
"245.2000000011176","175194","pSARL_v2","pSARL_v2pwbfxhph","62e99c5ba3484be10c322440","freq","img/green_2bandit_a2.png","70","70","test","1","36","36","2","",""
"null","175767","pSARL_v2","pSARL_v2pwbfxhph","62e99c5ba3484be10c322440","freq_resp","img/green_2bandit_a.png","70","70","test","","","","2","",""
"null","175936","pSARL_v2","pSARL_v2pwbfxhph","62e99c5ba3484be10c322440","fixation","img/fixation.png","null","","test","","","","","",""
"168.69999999925494","176113","pSARL_v2","pSARL_v2pwbfxhph","62e99c5ba3484be10c322440","freq","img/green_2bandit_a2.png","70","70","test","1","37","37","2","",""
"null","176768","pSARL_v2","pSARL_v2pwbfxhph","62e99c5ba3484be10c322440","freq_resp","img/green_2bandit_a.png","70","70","test","","","","2","",""
"null","176939","pSARL_v2","pSARL_v2pwbfxhph","62e99c5ba3484be10c322440","fixation","img/fixation.png","null","","test","","","","","",""
"252.59999999962747","177201","pSARL_v2","pSARL_v2pwbfxhph","62e99c5ba3484be10c322440","infreq","img/orange_2bandit_a2.png","70","68","test","0","38","38","2","",""
"null","177766","pSARL_v2","pSARL_v2pwbfxhph","62e99c5ba3484be10c322440","infreq_resp","img/orange_2bandit_a.png","70","68","test","","","","2","",""
"null","177936","pSARL_v2","pSARL_v2pwbfxhph","62e99c5ba3484be10c322440","fixation","img/fixation.png","null","","test","","","","","",""
"501","178445","pSARL_v2","pSARL_v2pwbfxhph","62e99c5ba3484be10c322440","freq","img/green_2bandit_a2.png","70","70","test","1","39","39","2","",""
"null","178766","pSARL_v2","pSARL_v2pwbfxhph","62e99c5ba3484be10c322440","freq_resp","img/green_2bandit_a.png","70","70","test","","","","2","",""
"null","178936","pSARL_v2","pSARL_v2pwbfxhph","62e99c5ba3484be10c322440","fixation","img/fixation.png","null","","test","","","","","",""
"396.2000000011176","179341","pSARL_v2","pSARL_v2pwbfxhph","62e99c5ba3484be10c322440","freq","img/green_2bandit_a2.png","70","70","test","1","40","40","2","",""
"null","179759","pSARL_v2","pSARL_v2pwbfxhph","62e99c5ba3484be10c322440","freq_resp","img/green_2bandit_a.png","70","70","test","","","","2","",""
"null","179920","pSARL_v2","pSARL_v2pwbfxhph","62e99c5ba3484be10c322440","fixation","img/fixation.png","null","","test","","","","","",""
"306.80000000074506","180235","pSARL_v2","pSARL_v2pwbfxhph","62e99c5ba3484be10c322440","freq","img/green_2bandit_a2.png","70","70","test","1","41","41","2","",""
"null","180744","pSARL_v2","pSARL_v2pwbfxhph","62e99c5ba3484be10c322440","freq_resp","img/green_2bandit_a.png","70","70","test","","","","2","",""
"null","180904","pSARL_v2","pSARL_v2pwbfxhph","62e99c5ba3484be10c322440","fixation","img/fixation.png","null","","test","","","","","",""
"313.69999999925494","181226","pSARL_v2","pSARL_v2pwbfxhph","62e99c5ba3484be10c322440","freq","img/green_2bandit_a2.png","70","70","test","1","42","42","2","",""
"null","181730","pSARL_v2","pSARL_v2pwbfxhph","62e99c5ba3484be10c322440","freq_resp","img/green_2bandit_a.png","70","70","test","","","","2","",""
"null","181895","pSARL_v2","pSARL_v2pwbfxhph","62e99c5ba3484be10c322440","fixation","img/fixation.png","null","","test","","","","","",""
"345.69999999925494","182249","pSARL_v2","pSARL_v2pwbfxhph","62e99c5ba3484be10c322440","freq","img/green_2bandit_a2.png","70","70","test","1","43","43","2","",""
"null","182728","pSARL_v2","pSARL_v2pwbfxhph","62e99c5ba3484be10c322440","freq_resp","img/green_2bandit_a.png","70","70","test","","","","2","",""
"null","182895","pSARL_v2","pSARL_v2pwbfxhph","62e99c5ba3484be10c322440","fixation","img/fixation.png","null","","test","","","","","",""
"328.59999999962747","183232","pSARL_v2","pSARL_v2pwbfxhph","62e99c5ba3484be10c322440","freq","img/green_2bandit_a2.png","70","70","test","1","44","44","2","",""
"null","183725","pSARL_v2","pSARL_v2pwbfxhph","62e99c5ba3484be10c322440","freq_resp","img/green_2bandit_a.png","70","70","test","","","","2","",""
"null","183895","pSARL_v2","pSARL_v2pwbfxhph","62e99c5ba3484be10c322440","fixation","img/fixation.png","null","","test","","","","","",""
"336","184239","pSARL_v2","pSARL_v2pwbfxhph","62e99c5ba3484be10c322440","freq","img/green_2bandit_a2.png","70","70","test","1","45","45","2","",""
"null","184727","pSARL_v2","pSARL_v2pwbfxhph","62e99c5ba3484be10c322440","freq_resp","img/green_2bandit_a.png","70","70","test","","","","2","",""
"null","184895","pSARL_v2","pSARL_v2pwbfxhph","62e99c5ba3484be10c322440","fixation","img/fixation.png","null","","test","","","","","",""
"511.90000000037253","185415","pSARL_v2","pSARL_v2pwbfxhph","62e99c5ba3484be10c322440","reward","img/slot.png","74","","test","","","","","",""
"null","186175","pSARL_v2","pSARL_v2pwbfxhph","62e99c5ba3484be10c322440","points","<div class=""verylowPoints""> -11 </div>","null","na","test","","","","2","-11","1"
"814","186999","pSARL_v2","pSARL_v2pwbfxhph","62e99c5ba3484be10c322440","freq","img/green_2bandit_a2.png","70","70","test","1","46","46","3","",""
"null","187159","pSARL_v2","pSARL_v2pwbfxhph","62e99c5ba3484be10c322440","fixation","img/fixation.png","null","","test","","","","","",""
"652.9000000003725","187822","pSARL_v2","pSARL_v2pwbfxhph","62e99c5ba3484be10c322440","freq","img/green_2bandit_a2.png","70","70","test","1","47","47","3","",""
"null","187979","pSARL_v2","pSARL_v2pwbfxhph","62e99c5ba3484be10c322440","freq_resp","img/green_2bandit_a.png","70","70","test","","","","3","",""
"null","188139","pSARL_v2","pSARL_v2pwbfxhph","62e99c5ba3484be10c322440","fixation","img/fixation.png","null","","test","","","","","",""
"359.7999999988824","188507","pSARL_v2","pSARL_v2pwbfxhph","62e99c5ba3484be10c322440","freq","img/green_2bandit_a2.png","70","70","test","1","48","48","3","",""
"null","188958","pSARL_v2","pSARL_v2pwbfxhph","62e99c5ba3484be10c322440","freq_resp","img/green_2bandit_a.png","70","70","test","","","","3","",""
"null","189122","pSARL_v2","pSARL_v2pwbfxhph","62e99c5ba3484be10c322440","fixation","img/fixation.png","null","","test","","","","","",""
"431.2999999988824","189562","pSARL_v2","pSARL_v2pwbfxhph","62e99c5ba3484be10c322440","freq","img/green_2bandit_a2.png","70","70","test","1","49","49","3","",""
"null","189948","pSARL_v2","pSARL_v2pwbfxhph","62e99c5ba3484be10c322440","freq_resp","img/green_2bandit_a.png","70","70","test","","","","3","",""
"null","190114","pSARL_v2","pSARL_v2pwbfxhph","62e99c5ba3484be10c322440","fixation","img/fixation.png","null","","test","","","","","",""
"318.90000000037253","190441","pSARL_v2","pSARL_v2pwbfxhph","62e99c5ba3484be10c322440","freq","img/green_2bandit_a2.png","70","70","test","1","50","50","3","",""
"null","190942","pSARL_v2","pSARL_v2pwbfxhph","62e99c5ba3484be10c322440","freq_resp","img/green_2bandit_a.png","70","70","test","","","","3","",""
"null","191102","pSARL_v2","pSARL_v2pwbfxhph","62e99c5ba3484be10c322440","fixation","img/fixation.png","null","","test","","","","","",""
"665","191776","pSARL_v2","pSARL_v2pwbfxhph","62e99c5ba3484be10c322440","infreq","img/orange_2bandit_a2.png","68","68","test","1","51","51","3","",""
"null","191922","pSARL_v2","pSARL_v2pwbfxhph","62e99c5ba3484be10c322440","infreq_resp","img/orange_2bandit_a.png","68","68","test","","","","3","",""
"null","192082","pSARL_v2","pSARL_v2pwbfxhph","62e99c5ba3484be10c322440","fixation","img/fixation.png","null","","test","","","","","",""
"628.6000000014901","192720","pSARL_v2","pSARL_v2pwbfxhph","62e99c5ba3484be10c322440","freq","img/green_2bandit_a2.png","70","70","test","1","52","52","3","",""
"null","192911","pSARL_v2","pSARL_v2pwbfxhph","62e99c5ba3484be10c322440","freq_resp","img/green_2bandit_a.png","70","70","test","","","","3","",""
"null","193072","pSARL_v2","pSARL_v2pwbfxhph","62e99c5ba3484be10c322440","fixation","img/fixation.png","null","","test","","","","","",""
"365","193446","pSARL_v2","pSARL_v2pwbfxhph","62e99c5ba3484be10c322440","freq","img/green_2bandit_a2.png","70","70","test","1","53","53","3","",""
"null","193904","pSARL_v2","pSARL_v2pwbfxhph","62e99c5ba3484be10c322440","freq_resp","img/green_2bandit_a.png","70","70","test","","","","3","",""
"null","194073","pSARL_v2","pSARL_v2pwbfxhph","62e99c5ba3484be10c322440","fixation","img/fixation.png","null","","test","","","","","",""
"339","194421","pSARL_v2","pSARL_v2pwbfxhph","62e99c5ba3484be10c322440","freq","img/green_2bandit_a2.png","70","70","test","1","54","54","3","",""
"null","194904","pSARL_v2","pSARL_v2pwbfxhph","62e99c5ba3484be10c322440","freq_resp","img/green_2bandit_a.png","70","70","test","","","","3","",""
"null","195073","pSARL_v2","pSARL_v2pwbfxhph","62e99c5ba3484be10c322440","fixation","img/fixation.png","null","","test","","","","","",""
"386.1000000014901","195468","pSARL_v2","pSARL_v2pwbfxhph","62e99c5ba3484be10c322440","freq","img/green_2bandit_a2.png","70","70","test","1","55","55","3","",""
"null","195900","pSARL_v2","pSARL_v2pwbfxhph","62e99c5ba3484be10c322440","freq_resp","img/green_2bandit_a.png","70","70","test","","","","3","",""
"null","196073","pSARL_v2","pSARL_v2pwbfxhph","62e99c5ba3484be10c322440","fixation","img/fixation.png","null","","test","","","","","",""
"353","196435","pSARL_v2","pSARL_v2pwbfxhph","62e99c5ba3484be10c322440","freq","img/green_2bandit_a2.png","70","70","test","1","56","56","3","",""
"null","196898","pSARL_v2","pSARL_v2pwbfxhph","62e99c5ba3484be10c322440","freq_resp","img/green_2bandit_a.png","70","70","test","","","","3","",""
"null","197057","pSARL_v2","pSARL_v2pwbfxhph","62e99c5ba3484be10c322440","fixation","img/fixation.png","null","","test","","","","","",""
"343.7999999988824","197410","pSARL_v2","pSARL_v2pwbfxhph","62e99c5ba3484be10c322440","freq","img/green_2bandit_a2.png","70","70","test","1","57","57","3","",""
"null","197889","pSARL_v2","pSARL_v2pwbfxhph","62e99c5ba3484be10c322440","freq_resp","img/green_2bandit_a.png","70","70","test","","","","3","",""
"null","198053","pSARL_v2","pSARL_v2pwbfxhph","62e99c5ba3484be10c322440","fixation","img/fixation.png","null","","test","","","","","",""
"347.59999999962747","198409","pSARL_v2","pSARL_v2pwbfxhph","62e99c5ba3484be10c322440","freq","img/green_2bandit_a2.png","70","70","test","1","58","58","3","",""
"null","198874","pSARL_v2","pSARL_v2pwbfxhph","62e99c5ba3484be10c322440","freq_resp","img/green_2bandit_a.png","70","70","test","","","","3","",""
"null","199037","pSARL_v2","pSARL_v2pwbfxhph","62e99c5ba3484be10c322440","fixation","img/fixation.png","null","","test","","","","","",""
"346.1000000014901","199392","pSARL_v2","pSARL_v2pwbfxhph","62e99c5ba3484be10c322440","freq","img/green_2bandit_a2.png","70","70","test","1","59","59","3","",""
"null","199861","pSARL_v2","pSARL_v2pwbfxhph","62e99c5ba3484be10c322440","freq_resp","img/green_2bandit_a.png","70","70","test","","","","3","",""
"null","200023","pSARL_v2","pSARL_v2pwbfxhph","62e99c5ba3484be10c322440","fixation","img/fixation.png","null","","test","","","","","",""
"287.30000000074506","200319","pSARL_v2","pSARL_v2pwbfxhph","62e99c5ba3484be10c322440","freq","img/green_2bandit_a2.png","70","70","test","1","60","60","3","",""
"null","200842","pSARL_v2","pSARL_v2pwbfxhph","62e99c5ba3484be10c322440","freq_resp","img/green_2bandit_a.png","70","70","test","","","","3","",""
"null","201013","pSARL_v2","pSARL_v2pwbfxhph","62e99c5ba3484be10c322440","fixation","img/fixation.png","null","","test","","","","","",""
"448.6000000014901","201470","pSARL_v2","pSARL_v2pwbfxhph","62e99c5ba3484be10c322440","infreq","img/orange_2bandit_a2.png","68","68","test","1","61","61","3","",""
"null","201843","pSARL_v2","pSARL_v2pwbfxhph","62e99c5ba3484be10c322440","infreq_resp","img/orange_2bandit_a.png","68","68","test","","","","3","",""
"null","202012","pSARL_v2","pSARL_v2pwbfxhph","62e99c5ba3484be10c322440","fixation","img/fixation.png","null","","test","","","","","",""
"408.7000000011176","202429","pSARL_v2","pSARL_v2pwbfxhph","62e99c5ba3484be10c322440","freq","img/green_2bandit_a2.png","70","70","test","1","62","62","3","",""
"null","202838","pSARL_v2","pSARL_v2pwbfxhph","62e99c5ba3484be10c322440","freq_resp","img/green_2bandit_a.png","70","70","test","","","","3","",""
"null","203012","pSARL_v2","pSARL_v2pwbfxhph","62e99c5ba3484be10c322440","fixation","img/fixation.png","null","","test","","","","","",""
"247.90000000037253","203268","pSARL_v2","pSARL_v2pwbfxhph","62e99c5ba3484be10c322440","freq","img/green_2bandit_a2.png","70","70","test","1","63","63","3","",""
"null","203831","pSARL_v2","pSARL_v2pwbfxhph","62e99c5ba3484be10c322440","freq_resp","img/green_2bandit_a.png","70","70","test","","","","3","",""
"null","203997","pSARL_v2","pSARL_v2pwbfxhph","62e99c5ba3484be10c322440","fixation","img/fixation.png","null","","test","","","","","",""
"270","204276","pSARL_v2","pSARL_v2pwbfxhph","62e99c5ba3484be10c322440","freq","img/green_2bandit_a2.png","70","70","test","1","64","64","3","",""
"null","204816","pSARL_v2","pSARL_v2pwbfxhph","62e99c5ba3484be10c322440","freq_resp","img/green_2bandit_a.png","70","70","test","","","","3","",""
"null","204980","pSARL_v2","pSARL_v2pwbfxhph","62e99c5ba3484be10c322440","fixation","img/fixation.png","null","","test","","","","","",""
"269.90000000037253","205259","pSARL_v2","pSARL_v2pwbfxhph","62e99c5ba3484be10c322440","freq","img/green_2bandit_a2.png","70","70","test","1","65","65","3","",""
"null","205807","pSARL_v2","pSARL_v2pwbfxhph","62e99c5ba3484be10c322440","freq_resp","img/green_2bandit_a.png","70","70","test","","","","3","",""
"null","205965","pSARL_v2","pSARL_v2pwbfxhph","62e99c5ba3484be10c322440","fixation","img/fixation.png","null","","test","","","","","",""
"251.2999999988824","206225","pSARL_v2","pSARL_v2pwbfxhph","62e99c5ba3484be10c322440","freq","img/green_2bandit_a2.png","70","70","test","1","66","66","3","",""
"null","206783","pSARL_v2","pSARL_v2pwbfxhph","62e99c5ba3484be10c322440","freq_resp","img/green_2bandit_a.png","70","70","test","","","","3","",""
"null","206951","pSARL_v2","pSARL_v2pwbfxhph","62e99c5ba3484be10c322440","fixation","img/fixation.png","null","","test","","","","","",""
"529.3000000007451","207489","pSARL_v2","pSARL_v2pwbfxhph","62e99c5ba3484be10c322440","reward","img/slot.png","74","","test","","","","","",""
"null","208261","pSARL_v2","pSARL_v2pwbfxhph","62e99c5ba3484be10c322440","points","<div class=""verylowPoints""> -7 </div>","null","na","test","","","","3","-7","2"
"634.3000000007451","208904","pSARL_v2","pSARL_v2pwbfxhph","62e99c5ba3484be10c322440","freq","img/green_2bandit_a2.png","70","70","test","1","67","67","4","",""
"null","209087","pSARL_v2","pSARL_v2pwbfxhph","62e99c5ba3484be10c322440","freq_resp","img/green_2bandit_a.png","70","70","test","","","","4","",""
"null","209251","pSARL_v2","pSARL_v2pwbfxhph","62e99c5ba3484be10c322440","fixation","img/fixation.png","null","","test","","","","","",""
"603.3999999985099","209863","pSARL_v2","pSARL_v2pwbfxhph","62e99c5ba3484be10c322440","freq","img/green_2bandit_a2.png","70","70","test","1","68","68","4","",""
"null","210078","pSARL_v2","pSARL_v2pwbfxhph","62e99c5ba3484be10c322440","freq_resp","img/green_2bandit_a.png","70","70","test","","","","4","",""
"null","210251","pSARL_v2","pSARL_v2pwbfxhph","62e99c5ba3484be10c322440","fixation","img/fixation.png","null","","test","","","","","",""
"402.19999999925494","210662","pSARL_v2","pSARL_v2pwbfxhph","62e99c5ba3484be10c322440","freq","img/green_2bandit_a2.png","70","70","test","1","69","69","4","",""
"null","211074","pSARL_v2","pSARL_v2pwbfxhph","62e99c5ba3484be10c322440","freq_resp","img/green_2bandit_a.png","70","70","test","","","","4","",""
"null","211235","pSARL_v2","pSARL_v2pwbfxhph","62e99c5ba3484be10c322440","fixation","img/fixation.png","null","","test","","","","","",""
"313.19999999925494","211557","pSARL_v2","pSARL_v2pwbfxhph","62e99c5ba3484be10c322440","freq","img/green_2bandit_a2.png","70","70","test","1","70","70","4","",""
"null","212063","pSARL_v2","pSARL_v2pwbfxhph","62e99c5ba3484be10c322440","freq_resp","img/green_2bandit_a.png","70","70","test","","","","4","",""
"null","212231","pSARL_v2","pSARL_v2pwbfxhph","62e99c5ba3484be10c322440","fixation","img/fixation.png","null","","test","","","","","",""
"308.40000000037253","212548","pSARL_v2","pSARL_v2pwbfxhph","62e99c5ba3484be10c322440","freq","img/green_2bandit_a2.png","70","70","test","1","71","71","4","",""
"null","213054","pSARL_v2","pSARL_v2pwbfxhph","62e99c5ba3484be10c322440","freq_resp","img/green_2bandit_a.png","70","70","test","","","","4","",""
"null","213215","pSARL_v2","pSARL_v2pwbfxhph","62e99c5ba3484be10c322440","fixation","img/fixation.png","null","","test","","","","","",""
"163","213387","pSARL_v2","pSARL_v2pwbfxhph","62e99c5ba3484be10c322440","freq","img/green_2bandit_a2.png","70","70","test","1","72","72","4","",""
"null","214035","pSARL_v2","pSARL_v2pwbfxhph","62e99c5ba3484be10c322440","freq_resp","img/green_2bandit_a.png","70","70","test","","","","4","",""
"null","214195","pSARL_v2","pSARL_v2pwbfxhph","62e99c5ba3484be10c322440","fixation","img/fixation.png","null","","test","","","","","",""
"310.09999999962747","214514","pSARL_v2","pSARL_v2pwbfxhph","62e99c5ba3484be10c322440","freq","img/green_2bandit_a2.png","70","70","test","1","73","73","4","",""
"null","215019","pSARL_v2","pSARL_v2pwbfxhph","62e99c5ba3484be10c322440","freq_resp","img/green_2bandit_a.png","70","70","test","","","","4","",""
"null","215179","pSARL_v2","pSARL_v2pwbfxhph","62e99c5ba3484be10c322440","fixation","img/fixation.png","null","","test","","","","","",""
"333","215520","pSARL_v2","pSARL_v2pwbfxhph","62e99c5ba3484be10c322440","freq","img/green_2bandit_a2.png","70","70","test","1","74","74","4","",""
"null","216003","pSARL_v2","pSARL_v2pwbfxhph","62e99c5ba3484be10c322440","freq_resp","img/green_2bandit_a.png","70","70","test","","","","4","",""
"null","216170","pSARL_v2","pSARL_v2pwbfxhph","62e99c5ba3484be10c322440","fixation","img/fixation.png","null","","test","","","","","",""
"325","216503","pSARL_v2","pSARL_v2pwbfxhph","62e99c5ba3484be10c322440","freq","img/green_2bandit_a2.png","70","70","test","1","75","75","4","",""
"null","216988","pSARL_v2","pSARL_v2pwbfxhph","62e99c5ba3484be10c322440","freq_resp","img/green_2bandit_a.png","70","70","test","","","","4","",""
"null","217155","pSARL_v2","pSARL_v2pwbfxhph","62e99c5ba3484be10c322440","fixation","img/fixation.png","null","","test","","","","","",""
"482.69999999925494","217646","pSARL_v2","pSARL_v2pwbfxhph","62e99c5ba3484be10c322440","infreq","img/orange_2bandit_a2.png","68","68","test","1","76","76","4","",""
"null","217985","pSARL_v2","pSARL_v2pwbfxhph","62e99c5ba3484be10c322440","infreq_resp","img/orange_2bandit_a.png","68","68","test","","","","4","",""
"null","218150","pSARL_v2","pSARL_v2pwbfxhph","62e99c5ba3484be10c322440","fixation","img/fixation.png","null","","test","","","","","",""
"487.40000000037253","218646","pSARL_v2","pSARL_v2pwbfxhph","62e99c5ba3484be10c322440","freq","img/green_2bandit_a2.png","70","70","test","1","77","77","4","",""
"null","218981","pSARL_v2","pSARL_v2pwbfxhph","62e99c5ba3484be10c322440","freq_resp","img/green_2bandit_a.png","70","70","test","","","","4","",""
"null","219149","pSARL_v2","pSARL_v2pwbfxhph","62e99c5ba3484be10c322440","fixation","img/fixation.png","null","","test","","","","","",""
"478.1000000014901","219636","pSARL_v2","pSARL_v2pwbfxhph","62e99c5ba3484be10c322440","infreq","img/orange_2bandit_a2.png","68","68","test","1","78","78","4","",""
"null","219975","pSARL_v2","pSARL_v2pwbfxhph","62e99c5ba3484be10c322440","infreq_resp","img/orange_2bandit_a.png","68","68","test","","","","4","",""
"null","220149","pSARL_v2","pSARL_v2pwbfxhph","62e99c5ba3484be10c322440","fixation","img/fixation.png","null","","test","","","","","",""
"445.5","220603","pSARL_v2","pSARL_v2pwbfxhph","62e99c5ba3484be10c322440","freq","img/green_2bandit_a2.png","70","70","test","1","79","79","4","",""
"null","220974","pSARL_v2","pSARL_v2pwbfxhph","62e99c5ba3484be10c322440","freq_resp","img/green_2bandit_a.png","70","70","test","","","","4","",""
"null","221134","pSARL_v2","pSARL_v2pwbfxhph","62e99c5ba3484be10c322440","fixation","img/fixation.png","null","","test","","","","","",""
"420.09999999962747","221562","pSARL_v2","pSARL_v2pwbfxhph","62e99c5ba3484be10c322440","freq","img/green_2bandit_a2.png","70","70","test","1","80","80","4","",""
"null","221963","pSARL_v2","pSARL_v2pwbfxhph","62e99c5ba3484be10c322440","freq_resp","img/green_2bandit_a.png","70","70","test","","","","4","",""
"null","222129","pSARL_v2","pSARL_v2pwbfxhph","62e99c5ba3484be10c322440","fixation","img/fixation.png","null","","test","","","","","",""
"327.7000000011176","222466","pSARL_v2","pSARL_v2pwbfxhph","62e99c5ba3484be10c322440","freq","img/green_2bandit_a2.png","70","70","test","1","81","81","4","",""
"null","222957","pSARL_v2","pSARL_v2pwbfxhph","62e99c5ba3484be10c322440","freq_resp","img/green_2bandit_a.png","70","70","test","","","","4","",""
"null","223118","pSARL_v2","pSARL_v2pwbfxhph","62e99c5ba3484be10c322440","fixation","img/fixation.png","null","","test","","","","","",""
"313.8999999985099","223441","pSARL_v2","pSARL_v2pwbfxhph","62e99c5ba3484be10c322440","freq","img/green_2bandit_a2.png","70","70","test","1","82","82","4","",""
"null","223940","pSARL_v2","pSARL_v2pwbfxhph","62e99c5ba3484be10c322440","freq_resp","img/green_2bandit_a.png","70","70","test","","","","4","",""
"null","224109","pSARL_v2","pSARL_v2pwbfxhph","62e99c5ba3484be10c322440","fixation","img/fixation.png","null","","test","","","","","",""
"336.69999999925494","224454","pSARL_v2","pSARL_v2pwbfxhph","62e99c5ba3484be10c322440","freq","img/green_2bandit_a2.png","70","70","test","1","83","83","4","",""
"null","224932","pSARL_v2","pSARL_v2pwbfxhph","62e99c5ba3484be10c322440","freq_resp","img/green_2bandit_a.png","70","70","test","","","","4","",""
"null","225093","pSARL_v2","pSARL_v2pwbfxhph","62e99c5ba3484be10c322440","fixation","img/fixation.png","null","","test","","","","","",""
"303.69999999925494","225409","pSARL_v2","pSARL_v2pwbfxhph","62e99c5ba3484be10c322440","freq","img/green_2bandit_a2.png","70","70","test","1","84","84","4","",""
"null","225926","pSARL_v2","pSARL_v2pwbfxhph","62e99c5ba3484be10c322440","freq_resp","img/green_2bandit_a.png","70","70","test","","","","4","",""
"null","226093","pSARL_v2","pSARL_v2pwbfxhph","62e99c5ba3484be10c322440","fixation","img/fixation.png","null","","test","","","","","",""
"343.40000000037253","226445","pSARL_v2","pSARL_v2pwbfxhph","62e99c5ba3484be10c322440","freq","img/green_2bandit_a2.png","70","70","test","1","85","85","4","",""
"null","226921","pSARL_v2","pSARL_v2pwbfxhph","62e99c5ba3484be10c322440","freq_resp","img/green_2bandit_a.png","70","70","test","","","","4","",""
"null","227088","pSARL_v2","pSARL_v2pwbfxhph","62e99c5ba3484be10c322440","fixation","img/fixation.png","null","","test","","","","","",""
"306.7000000011176","227404","pSARL_v2","pSARL_v2pwbfxhph","62e99c5ba3484be10c322440","freq","img/green_2bandit_a2.png","70","70","test","1","86","86","4","",""
"null","227909","pSARL_v2","pSARL_v2pwbfxhph","62e99c5ba3484be10c322440","freq_resp","img/green_2bandit_a.png","70","70","test","","","","4","",""
"null","228073","pSARL_v2","pSARL_v2pwbfxhph","62e99c5ba3484be10c322440","fixation","img/fixation.png","null","","test","","","","","",""
"440.80000000074506","228525","pSARL_v2","pSARL_v2pwbfxhph","62e99c5ba3484be10c322440","infreq","img/orange_2bandit_a2.png","68","68","test","1","87","87","4","",""
"null","228894","pSARL_v2","pSARL_v2pwbfxhph","62e99c5ba3484be10c322440","infreq_resp","img/orange_2bandit_a.png","68","68","test","","","","4","",""
"null","229068","pSARL_v2","pSARL_v2pwbfxhph","62e99c5ba3484be10c322440","fixation","img/fixation.png","null","","test","","","","","",""
"572.8000000007451","229650","pSARL_v2","pSARL_v2pwbfxhph","62e99c5ba3484be10c322440","freq","img/green_2bandit_a2.png","70","70","test","1","88","88","4","",""
"null","229891","pSARL_v2","pSARL_v2pwbfxhph","62e99c5ba3484be10c322440","freq_resp","img/green_2bandit_a.png","70","70","test","","","","4","",""
"null","230052","pSARL_v2","pSARL_v2pwbfxhph","62e99c5ba3484be10c322440","fixation","img/fixation.png","null","","test","","","","","",""
"339.19999999925494","230400","pSARL_v2","pSARL_v2pwbfxhph","62e99c5ba3484be10c322440","freq","img/green_2bandit_a2.png","70","70","test","1","89","89","4","",""
"null","230880","pSARL_v2","pSARL_v2pwbfxhph","62e99c5ba3484be10c322440","freq_resp","img/green_2bandit_a.png","70","70","test","","","","4","",""
"null","231053","pSARL_v2","pSARL_v2pwbfxhph","62e99c5ba3484be10c322440","fixation","img/fixation.png","null","","test","","","","","",""
"615.6999999992549","231678","pSARL_v2","pSARL_v2pwbfxhph","62e99c5ba3484be10c322440","reward","img/slot.png","74","","test","","","","","",""
"null","232440","pSARL_v2","pSARL_v2pwbfxhph","62e99c5ba3484be10c322440","points","<div class=""verylowPoints""> -3 </div>","null","na","test","","","","4","-3","3"
"667.5999999996275","233117","pSARL_v2","pSARL_v2pwbfxhph","62e99c5ba3484be10c322440","freq","img/green_2bandit_a2.png","70","70","test","1","90","90","5","",""
"null","233261","pSARL_v2","pSARL_v2pwbfxhph","62e99c5ba3484be10c322440","freq_resp","img/green_2bandit_a.png","70","70","test","","","","5","",""
"null","233422","pSARL_v2","pSARL_v2pwbfxhph","62e99c5ba3484be10c322440","fixation","img/fixation.png","null","","test","","","","","",""
"644.5999999996275","234075","pSARL_v2","pSARL_v2pwbfxhph","62e99c5ba3484be10c322440","freq","img/green_2bandit_a2.png","70","70","test","1","91","91","5","",""
"null","234253","pSARL_v2","pSARL_v2pwbfxhph","62e99c5ba3484be10c322440","freq_resp","img/green_2bandit_a.png","70","70","test","","","","5","",""
"null","234417","pSARL_v2","pSARL_v2pwbfxhph","62e99c5ba3484be10c322440","fixation","img/fixation.png","null","","test","","","","","",""
"311.80000000074506","234739","pSARL_v2","pSARL_v2pwbfxhph","62e99c5ba3484be10c322440","freq","img/green_2bandit_a2.png","70","70","test","1","92","92","5","",""
"null","235240","pSARL_v2","pSARL_v2pwbfxhph","62e99c5ba3484be10c322440","freq_resp","img/green_2bandit_a.png","70","70","test","","","","5","",""
"null","235413","pSARL_v2","pSARL_v2pwbfxhph","62e99c5ba3484be10c322440","fixation","img/fixation.png","null","","test","","","","","",""
"323.30000000074506","235745","pSARL_v2","pSARL_v2pwbfxhph","62e99c5ba3484be10c322440","freq","img/green_2bandit_a2.png","70","70","test","1","93","93","5","",""
"null","236240","pSARL_v2","pSARL_v2pwbfxhph","62e99c5ba3484be10c322440","freq_resp","img/green_2bandit_a.png","70","70","test","","","","5","",""
"null","236401","pSARL_v2","pSARL_v2pwbfxhph","62e99c5ba3484be10c322440","fixation","img/fixation.png","null","","test","","","","","",""
"317.5","236727","pSARL_v2","pSARL_v2pwbfxhph","62e99c5ba3484be10c322440","freq","img/green_2bandit_a2.png","70","70","test","1","94","94","5","",""
"null","237221","pSARL_v2","pSARL_v2pwbfxhph","62e99c5ba3484be10c322440","freq_resp","img/green_2bandit_a.png","70","70","test","","","","5","",""
"null","237392","pSARL_v2","pSARL_v2pwbfxhph","62e99c5ba3484be10c322440","fixation","img/fixation.png","null","","test","","","","","",""
"309.80000000074506","237710","pSARL_v2","pSARL_v2pwbfxhph","62e99c5ba3484be10c322440","freq","img/green_2bandit_a2.png","70","70","test","1","95","95","5","",""
"null","238225","pSARL_v2","pSARL_v2pwbfxhph","62e99c5ba3484be10c322440","freq_resp","img/green_2bandit_a.png","70","70","test","","","","5","",""
"null","238392","pSARL_v2","pSARL_v2pwbfxhph","62e99c5ba3484be10c322440","fixation","img/fixation.png","null","","test","","","","","",""
"156.5","238559","pSARL_v2","pSARL_v2pwbfxhph","62e99c5ba3484be10c322440","freq","img/green_2bandit_a2.png","70","70","test","1","96","96","5","",""
"null","239226","pSARL_v2","pSARL_v2pwbfxhph","62e99c5ba3484be10c322440","freq_resp","img/green_2bandit_a.png","70","70","test","","","","5","",""
"null","239392","pSARL_v2","pSARL_v2pwbfxhph","62e99c5ba3484be10c322440","fixation","img/fixation.png","null","","test","","","","","",""
"307.7999999988824","239708","pSARL_v2","pSARL_v2pwbfxhph","62e99c5ba3484be10c322440","freq","img/green_2bandit_a2.png","70","70","test","1","97","97","5","",""
"null","240219","pSARL_v2","pSARL_v2pwbfxhph","62e99c5ba3484be10c322440","freq_resp","img/green_2bandit_a.png","70","70","test","","","","5","",""
"null","240391","pSARL_v2","pSARL_v2pwbfxhph","62e99c5ba3484be10c322440","fixation","img/fixation.png","null","","test","","","","","",""
"242.90000000037253","240643","pSARL_v2","pSARL_v2pwbfxhph","62e99c5ba3484be10c322440","freq","img/green_2bandit_a2.png","70","70","test","1","98","98","5","",""
"null","241223","pSARL_v2","pSARL_v2pwbfxhph","62e99c5ba3484be10c322440","freq_resp","img/green_2bandit_a.png","70","70","test","","","","5","",""
"null","241391","pSARL_v2","pSARL_v2pwbfxhph","62e99c5ba3484be10c322440","fixation","img/fixation.png","null","","test","","","","","",""
"249.90000000037253","241650","pSARL_v2","pSARL_v2pwbfxhph","62e99c5ba3484be10c322440","freq","img/green_2bandit_a2.png","70","70","test","1","99","99","5","",""
"null","242222","pSARL_v2","pSARL_v2pwbfxhph","62e99c5ba3484be10c322440","freq_resp","img/green_2bandit_a.png","70","70","test","","","","5","",""
"null","242391","pSARL_v2","pSARL_v2pwbfxhph","62e99c5ba3484be10c322440","fixation","img/fixation.png","null","","test","","","","","",""
"48.90000000037253","242449","pSARL_v2","pSARL_v2pwbfxhph","62e99c5ba3484be10c322440","freq","img/green_2bandit_a2.png","70","70","test","1","100","100","5","",""
"null","243213","pSARL_v2","pSARL_v2pwbfxhph","62e99c5ba3484be10c322440","freq_resp","img/green_2bandit_a.png","70","70","test","","","","5","",""
"null","243372","pSARL_v2","pSARL_v2pwbfxhph","62e99c5ba3484be10c322440","fixation","img/fixation.png","null","","test","","","","","",""
"195.69999999925494","243576","pSARL_v2","pSARL_v2pwbfxhph","62e99c5ba3484be10c322440","freq","img/green_2bandit_a2.png","70","70","test","1","101","101","5","",""
"null","244198","pSARL_v2","pSARL_v2pwbfxhph","62e99c5ba3484be10c322440","freq_resp","img/green_2bandit_a.png","70","70","test","","","","5","",""
"null","244371","pSARL_v2","pSARL_v2pwbfxhph","62e99c5ba3484be10c322440","fixation","img/fixation.png","null","","test","","","","","",""
"123.30000000074506","244503","pSARL_v2","pSARL_v2pwbfxhph","62e99c5ba3484be10c322440","infreq","img/orange_2bandit_a2.png","70","68","test","0","102","102","5","",""
"null","245196","pSARL_v2","pSARL_v2pwbfxhph","62e99c5ba3484be10c322440","infreq_resp","img/orange_2bandit_a.png","70","68","test","","","","5","",""
"null","245355","pSARL_v2","pSARL_v2pwbfxhph","62e99c5ba3484be10c322440","fixation","img/fixation.png","null","","test","","","","","",""
"335.80000000074506","245700","pSARL_v2","pSARL_v2pwbfxhph","62e99c5ba3484be10c322440","freq","img/green_2bandit_a2.png","70","70","test","1","103","103","5","",""
"null","246188","pSARL_v2","pSARL_v2pwbfxhph","62e99c5ba3484be10c322440","freq_resp","img/green_2bandit_a.png","70","70","test","","","","5","",""
"null","246351","pSARL_v2","pSARL_v2pwbfxhph","62e99c5ba3484be10c322440","fixation","img/fixation.png","null","","test","","","","","",""
"339.6000000014901","246699","pSARL_v2","pSARL_v2pwbfxhph","62e99c5ba3484be10c322440","freq","img/green_2bandit_a2.png","70","70","test","1","104","104","5","",""
"null","247170","pSARL_v2","pSARL_v2pwbfxhph","62e99c5ba3484be10c322440","freq_resp","img/green_2bandit_a.png","70","70","test","","","","5","",""
"null","247335","pSARL_v2","pSARL_v2pwbfxhph","62e99c5ba3484be10c322440","fixation","img/fixation.png","null","","test","","","","","",""
"298.09999999962747","247644","pSARL_v2","pSARL_v2pwbfxhph","62e99c5ba3484be10c322440","freq","img/green_2bandit_a2.png","70","70","test","1","105","105","5","",""
"null","248154","pSARL_v2","pSARL_v2pwbfxhph","62e99c5ba3484be10c322440","freq_resp","img/green_2bandit_a.png","70","70","test","","","","5","",""
"null","248315","pSARL_v2","pSARL_v2pwbfxhph","62e99c5ba3484be10c322440","fixation","img/fixation.png","null","","test","","","","","",""
"268.80000000074506","248593","pSARL_v2","pSARL_v2pwbfxhph","62e99c5ba3484be10c322440","freq","img/green_2bandit_a2.png","70","70","test","1","106","106","5","",""
"null","249139","pSARL_v2","pSARL_v2pwbfxhph","62e99c5ba3484be10c322440","freq_resp","img/green_2bandit_a.png","70","70","test","","","","5","",""
"null","249310","pSARL_v2","pSARL_v2pwbfxhph","62e99c5ba3484be10c322440","fixation","img/fixation.png","null","","test","","","","","",""
"336.6000000014901","249657","pSARL_v2","pSARL_v2pwbfxhph","62e99c5ba3484be10c322440","freq","img/green_2bandit_a2.png","70","70","test","1","107","107","5","",""
"null","250133","pSARL_v2","pSARL_v2pwbfxhph","62e99c5ba3484be10c322440","freq_resp","img/green_2bandit_a.png","70","70","test","","","","5","",""
"null","250294","pSARL_v2","pSARL_v2pwbfxhph","62e99c5ba3484be10c322440","fixation","img/fixation.png","null","","test","","","","","",""
"311.09999999962747","250615","pSARL_v2","pSARL_v2pwbfxhph","62e99c5ba3484be10c322440","freq","img/green_2bandit_a2.png","70","70","test","1","108","108","5","",""
"null","251113","pSARL_v2","pSARL_v2pwbfxhph","62e99c5ba3484be10c322440","freq_resp","img/green_2bandit_a.png","70","70","test","","","","5","",""
"null","251274","pSARL_v2","pSARL_v2pwbfxhph","62e99c5ba3484be10c322440","fixation","img/fixation.png","null","","test","","","","","",""
"346","251629","pSARL_v2","pSARL_v2pwbfxhph","62e99c5ba3484be10c322440","freq","img/green_2bandit_a2.png","70","70","test","1","109","109","5","",""
"null","252095","pSARL_v2","pSARL_v2pwbfxhph","62e99c5ba3484be10c322440","freq_resp","img/green_2bandit_a.png","70","70","test","","","","5","",""
"null","252254","pSARL_v2","pSARL_v2pwbfxhph","62e99c5ba3484be10c322440","fixation","img/fixation.png","null","","test","","","","","",""
"284.90000000037253","252548","pSARL_v2","pSARL_v2pwbfxhph","62e99c5ba3484be10c322440","freq","img/green_2bandit_a2.png","70","70","test","1","110","110","5","",""
"null","253077","pSARL_v2","pSARL_v2pwbfxhph","62e99c5ba3484be10c322440","freq_resp","img/green_2bandit_a.png","70","70","test","","","","5","",""
"null","253250","pSARL_v2","pSARL_v2pwbfxhph","62e99c5ba3484be10c322440","fixation","img/fixation.png","null","","test","","","","","",""
"320.2999999988824","253579","pSARL_v2","pSARL_v2pwbfxhph","62e99c5ba3484be10c322440","freq","img/green_2bandit_a2.png","70","70","test","1","111","111","5","",""
"null","254073","pSARL_v2","pSARL_v2pwbfxhph","62e99c5ba3484be10c322440","freq_resp","img/green_2bandit_a.png","70","70","test","","","","5","",""
"null","254234","pSARL_v2","pSARL_v2pwbfxhph","62e99c5ba3484be10c322440","fixation","img/fixation.png","null","","test","","","","","",""
"311.09999999962747","254554","pSARL_v2","pSARL_v2pwbfxhph","62e99c5ba3484be10c322440","freq","img/green_2bandit_a2.png","70","70","test","1","112","112","5","",""
"null","255067","pSARL_v2","pSARL_v2pwbfxhph","62e99c5ba3484be10c322440","freq_resp","img/green_2bandit_a.png","70","70","test","","","","5","",""
"null","255228","pSARL_v2","pSARL_v2pwbfxhph","62e99c5ba3484be10c322440","fixation","img/fixation.png","null","","test","","","","","",""
"243.10000000149012","255480","pSARL_v2","pSARL_v2pwbfxhph","62e99c5ba3484be10c322440","infreq","img/orange_2bandit_a2.png","70","68","test","0","113","113","5","",""
"null","256056","pSARL_v2","pSARL_v2pwbfxhph","62e99c5ba3484be10c322440","infreq_resp","img/orange_2bandit_a.png","70","68","test","","","","5","",""
"null","256229","pSARL_v2","pSARL_v2pwbfxhph","62e99c5ba3484be10c322440","fixation","img/fixation.png","null","","test","","","","","",""
"351.19999999925494","256589","pSARL_v2","pSARL_v2pwbfxhph","62e99c5ba3484be10c322440","freq","img/green_2bandit_a2.png","70","70","test","1","114","114","5","",""
"null","257054","pSARL_v2","pSARL_v2pwbfxhph","62e99c5ba3484be10c322440","freq_resp","img/green_2bandit_a.png","70","70","test","","","","5","",""
"null","257213","pSARL_v2","pSARL_v2pwbfxhph","62e99c5ba3484be10c322440","fixation","img/fixation.png","null","","test","","","","","",""
"556.6999999992549","257779","pSARL_v2","pSARL_v2pwbfxhph","62e99c5ba3484be10c322440","reward","img/slot.png","74","","test","","","","","",""
"null","258549","pSARL_v2","pSARL_v2pwbfxhph","62e99c5ba3484be10c322440","points","<div class=""veryhighPoints""> +1 </div>","null","na","test","","","","5","1","4"
"null","259369","pSARL_v2","pSARL_v2pwbfxhph","62e99c5ba3484be10c322440","freq","img/green_2bandit_a2.png","null","70","test","0","115","115","6","",""
"null","259533","pSARL_v2","pSARL_v2pwbfxhph","62e99c5ba3484be10c322440","fixation","img/fixation.png","null","","test","","","","","",""
"690","260232","pSARL_v2","pSARL_v2pwbfxhph","62e99c5ba3484be10c322440","infreq","img/orange_2bandit_a2.png","68","68","test","1","116","116","6","",""
"null","260353","pSARL_v2","pSARL_v2pwbfxhph","62e99c5ba3484be10c322440","infreq_resp","img/orange_2bandit_a.png","68","68","test","","","","6","",""
"null","260513","pSARL_v2","pSARL_v2pwbfxhph","62e99c5ba3484be10c322440","fixation","img/fixation.png","null","","test","","","","","",""
"565.2000000011176","261087","pSARL_v2","pSARL_v2pwbfxhph","62e99c5ba3484be10c322440","freq","img/green_2bandit_a2.png","70","70","test","1","117","117","6","",""
"null","261331","pSARL_v2","pSARL_v2pwbfxhph","62e99c5ba3484be10c322440","freq_resp","img/green_2bandit_a.png","70","70","test","","","","6","",""
"null","261493","pSARL_v2","pSARL_v2pwbfxhph","62e99c5ba3484be10c322440","fixation","img/fixation.png","null","","test","","","","","",""
"664.2000000011176","262166","pSARL_v2","pSARL_v2pwbfxhph","62e99c5ba3484be10c322440","freq","img/green_2bandit_a2.png","70","70","test","1","118","118","6","",""
"null","262318","pSARL_v2","pSARL_v2pwbfxhph","62e99c5ba3484be10c322440","freq_resp","img/green_2bandit_a.png","70","70","test","","","","6","",""
"null","262488","pSARL_v2","pSARL_v2pwbfxhph","62e99c5ba3484be10c322440","fixation","img/fixation.png","null","","test","","","","","",""
"691.5","263191","pSARL_v2","pSARL_v2pwbfxhph","62e99c5ba3484be10c322440","freq","img/green_2bandit_a2.png","70","70","test","1","119","119","6","",""
"null","263322","pSARL_v2","pSARL_v2pwbfxhph","62e99c5ba3484be10c322440","freq_resp","img/green_2bandit_a.png","70","70","test","","","","6","",""
"null","263488","pSARL_v2","pSARL_v2pwbfxhph","62e99c5ba3484be10c322440","fixation","img/fixation.png","null","","test","","","","","",""
"650.1999999992549","264147","pSARL_v2","pSARL_v2pwbfxhph","62e99c5ba3484be10c322440","freq","img/green_2bandit_a2.png","70","70","test","1","120","120","6","",""
"null","264313","pSARL_v2","pSARL_v2pwbfxhph","62e99c5ba3484be10c322440","freq_resp","img/green_2bandit_a.png","70","70","test","","","","6","",""
"null","264473","pSARL_v2","pSARL_v2pwbfxhph","62e99c5ba3484be10c322440","fixation","img/fixation.png","null","","test","","","","","",""
"568.7999999988824","265050","pSARL_v2","pSARL_v2pwbfxhph","62e99c5ba3484be10c322440","freq","img/green_2bandit_a2.png","70","70","test","1","121","121","6","",""
"null","265299","pSARL_v2","pSARL_v2pwbfxhph","62e99c5ba3484be10c322440","freq_resp","img/green_2bandit_a.png","70","70","test","","","","6","",""
"null","265468","pSARL_v2","pSARL_v2pwbfxhph","62e99c5ba3484be10c322440","fixation","img/fixation.png","null","","test","","","","","",""
"403.90000000037253","265881","pSARL_v2","pSARL_v2pwbfxhph","62e99c5ba3484be10c322440","freq","img/green_2bandit_a2.png","70","70","test","1","122","122","6","",""
"null","266298","pSARL_v2","pSARL_v2pwbfxhph","62e99c5ba3484be10c322440","freq_resp","img/green_2bandit_a.png","70","70","test","","","","6","",""
"null","266468","pSARL_v2","pSARL_v2pwbfxhph","62e99c5ba3484be10c322440","fixation","img/fixation.png","null","","test","","","","","",""
"410.40000000037253","266887","pSARL_v2","pSARL_v2pwbfxhph","62e99c5ba3484be10c322440","freq","img/green_2bandit_a2.png","70","70","test","1","123","123","6","",""
"null","267287","pSARL_v2","pSARL_v2pwbfxhph","62e99c5ba3484be10c322440","freq_resp","img/green_2bandit_a.png","70","70","test","","","","6","",""
"null","267452","pSARL_v2","pSARL_v2pwbfxhph","62e99c5ba3484be10c322440","fixation","img/fixation.png","null","","test","","","","","",""
"399.19999999925494","267862","pSARL_v2","pSARL_v2pwbfxhph","62e99c5ba3484be10c322440","freq","img/green_2bandit_a2.png","70","70","test","1","124","124","6","",""
"null","268281","pSARL_v2","pSARL_v2pwbfxhph","62e99c5ba3484be10c322440","freq_resp","img/green_2bandit_a.png","70","70","test","","","","6","",""
"null","268447","pSARL_v2","pSARL_v2pwbfxhph","62e99c5ba3484be10c322440","fixation","img/fixation.png","null","","test","","","","","",""
"548.8000000007451","269005","pSARL_v2","pSARL_v2pwbfxhph","62e99c5ba3484be10c322440","infreq","img/orange_2bandit_a2.png","68","68","test","1","125","125","6","",""
"null","269265","pSARL_v2","pSARL_v2pwbfxhph","62e99c5ba3484be10c322440","infreq_resp","img/orange_2bandit_a.png","68","68","test","","","","6","",""
"null","269432","pSARL_v2","pSARL_v2pwbfxhph","62e99c5ba3484be10c322440","fixation","img/fixation.png","null","","test","","","","","",""
"499.6000000014901","269940","pSARL_v2","pSARL_v2pwbfxhph","62e99c5ba3484be10c322440","freq","img/green_2bandit_a2.png","70","70","test","1","126","126","6","",""
"null","270263","pSARL_v2","pSARL_v2pwbfxhph","62e99c5ba3484be10c322440","freq_resp","img/green_2bandit_a.png","70","70","test","","","","6","",""
"null","270427","pSARL_v2","pSARL_v2pwbfxhph","62e99c5ba3484be10c322440","fixation","img/fixation.png","null","","test","","","","","",""
"622.7000000011176","271059","pSARL_v2","pSARL_v2pwbfxhph","62e99c5ba3484be10c322440","infreq","img/orange_2bandit_a2.png","68","68","test","1","127","127","6","",""
"null","271259","pSARL_v2","pSARL_v2pwbfxhph","62e99c5ba3484be10c322440","infreq_resp","img/orange_2bandit_a.png","68","68","test","","","","6","",""
"null","271427","pSARL_v2","pSARL_v2pwbfxhph","62e99c5ba3484be10c322440","fixation","img/fixation.png","null","","test","","","","","",""
"510.69999999925494","271946","pSARL_v2","pSARL_v2pwbfxhph","62e99c5ba3484be10c322440","freq","img/green_2bandit_a2.png","70","70","test","1","128","128","6","",""
"null","272252","pSARL_v2","pSARL_v2pwbfxhph","62e99c5ba3484be10c322440","freq_resp","img/green_2bandit_a.png","70","70","test","","","","6","",""
"null","272411","pSARL_v2","pSARL_v2pwbfxhph","62e99c5ba3484be10c322440","fixation","img/fixation.png","null","","test","","","","","",""
"428.69999999925494","272849","pSARL_v2","pSARL_v2pwbfxhph","62e99c5ba3484be10c322440","freq","img/green_2bandit_a2.png","70","70","test","1","129","129","6","",""
"null","273230","pSARL_v2","pSARL_v2pwbfxhph","62e99c5ba3484be10c322440","freq_resp","img/green_2bandit_a.png","70","70","test","","","","6","",""
"null","273391","pSARL_v2","pSARL_v2pwbfxhph","62e99c5ba3484be10c322440","fixation","img/fixation.png","null","","test","","","","","",""
"335.40000000037253","273736","pSARL_v2","pSARL_v2pwbfxhph","62e99c5ba3484be10c322440","freq","img/green_2bandit_a2.png","70","70","test","1","130","130","6","",""
"null","274212","pSARL_v2","pSARL_v2pwbfxhph","62e99c5ba3484be10c322440","freq_resp","img/green_2bandit_a.png","70","70","test","","","","6","",""
"null","274380","pSARL_v2","pSARL_v2pwbfxhph","62e99c5ba3484be10c322440","fixation","img/fixation.png","null","","test","","","","","",""
"377.59999999962747","274769","pSARL_v2","pSARL_v2pwbfxhph","62e99c5ba3484be10c322440","freq","img/green_2bandit_a2.png","70","70","test","1","131","131","6","",""
"null","275212","pSARL_v2","pSARL_v2pwbfxhph","62e99c5ba3484be10c322440","freq_resp","img/green_2bandit_a.png","70","70","test","","","","6","",""
"null","275386","pSARL_v2","pSARL_v2pwbfxhph","62e99c5ba3484be10c322440","fixation","img/fixation.png","null","","test","","","","","",""
"370.2999999988824","275769","pSARL_v2","pSARL_v2pwbfxhph","62e99c5ba3484be10c322440","freq","img/green_2bandit_a2.png","70","70","test","1","132","132","6","",""
"null","276212","pSARL_v2","pSARL_v2pwbfxhph","62e99c5ba3484be10c322440","freq_resp","img/green_2bandit_a.png","70","70","test","","","","6","",""
"null","276386","pSARL_v2","pSARL_v2pwbfxhph","62e99c5ba3484be10c322440","fixation","img/fixation.png","null","","test","","","","","",""
"425.2000000011176","276820","pSARL_v2","pSARL_v2pwbfxhph","62e99c5ba3484be10c322440","freq","img/green_2bandit_a2.png","70","70","test","1","133","133","6","",""
"null","277205","pSARL_v2","pSARL_v2pwbfxhph","62e99c5ba3484be10c322440","freq_resp","img/green_2bandit_a.png","70","70","test","","","","6","",""
"null","277371","pSARL_v2","pSARL_v2pwbfxhph","62e99c5ba3484be10c322440","fixation","img/fixation.png","null","","test","","","","","",""
"375.30000000074506","277755","pSARL_v2","pSARL_v2pwbfxhph","62e99c5ba3484be10c322440","freq","img/green_2bandit_a2.png","70","70","test","1","134","134","6","",""
"null","278196","pSARL_v2","pSARL_v2pwbfxhph","62e99c5ba3484be10c322440","freq_resp","img/green_2bandit_a.png","70","70","test","","","","6","",""
"null","278366","pSARL_v2","pSARL_v2pwbfxhph","62e99c5ba3484be10c322440","fixation","img/fixation.png","null","","test","","","","","",""
"347.09999999962747","278722","pSARL_v2","pSARL_v2pwbfxhph","62e99c5ba3484be10c322440","freq","img/green_2bandit_a2.png","70","70","test","1","135","135","6","",""
"null","279198","pSARL_v2","pSARL_v2pwbfxhph","62e99c5ba3484be10c322440","freq_resp","img/green_2bandit_a.png","70","70","test","","","","6","",""
"null","279366","pSARL_v2","pSARL_v2pwbfxhph","62e99c5ba3484be10c322440","fixation","img/fixation.png","null","","test","","","","","",""
"338.2999999988824","279713","pSARL_v2","pSARL_v2pwbfxhph","62e99c5ba3484be10c322440","freq","img/green_2bandit_a2.png","70","70","test","1","136","136","6","",""
"null","280198","pSARL_v2","pSARL_v2pwbfxhph","62e99c5ba3484be10c322440","freq_resp","img/green_2bandit_a.png","70","70","test","","","","6","",""
"null","280369","pSARL_v2","pSARL_v2pwbfxhph","62e99c5ba3484be10c322440","fixation","img/fixation.png","null","","test","","","","","",""
"325.09999999962747","280704","pSARL_v2","pSARL_v2pwbfxhph","62e99c5ba3484be10c322440","freq","img/green_2bandit_a2.png","70","70","test","1","137","137","6","",""
"null","281201","pSARL_v2","pSARL_v2pwbfxhph","62e99c5ba3484be10c322440","freq_resp","img/green_2bandit_a.png","70","70","test","","","","6","",""
"null","281365","pSARL_v2","pSARL_v2pwbfxhph","62e99c5ba3484be10c322440","fixation","img/fixation.png","null","","test","","","","","",""
"320.40000000037253","281695","pSARL_v2","pSARL_v2pwbfxhph","62e99c5ba3484be10c322440","freq","img/green_2bandit_a2.png","70","70","test","1","138","138","6","",""
"null","282194","pSARL_v2","pSARL_v2pwbfxhph","62e99c5ba3484be10c322440","freq_resp","img/green_2bandit_a.png","70","70","test","","","","6","",""
"null","282354","pSARL_v2","pSARL_v2pwbfxhph","62e99c5ba3484be10c322440","fixation","img/fixation.png","null","","test","","","","","",""
"628.2000000011176","282991","pSARL_v2","pSARL_v2pwbfxhph","62e99c5ba3484be10c322440","reward","img/slot.png","74","","test","","","","","",""
"null","283762","pSARL_v2","pSARL_v2pwbfxhph","62e99c5ba3484be10c322440","points","<div class=""verylowPoints""> -7 </div>","null","na","test","","","","6","-7","5"
"null","284584","pSARL_v2","pSARL_v2pwbfxhph","62e99c5ba3484be10c322440","freq","img/green_2bandit_a2.png","null","70","test","0","139","139","7","",""
"null","284750","pSARL_v2","pSARL_v2pwbfxhph","62e99c5ba3484be10c322440","fixation","img/fixation.png","null","","test","","","","","",""
"405.5","285164","pSARL_v2","pSARL_v2pwbfxhph","62e99c5ba3484be10c322440","freq","img/green_2bandit_a2.png","70","70","test","1","140","140","7","",""
"null","285570","pSARL_v2","pSARL_v2pwbfxhph","62e99c5ba3484be10c322440","freq_resp","img/green_2bandit_a.png","70","70","test","","","","7","",""
"null","285729","pSARL_v2","pSARL_v2pwbfxhph","62e99c5ba3484be10c322440","fixation","img/fixation.png","null","","test","","","","","",""
"600.6999999992549","286339","pSARL_v2","pSARL_v2pwbfxhph","62e99c5ba3484be10c322440","infreq","img/orange_2bandit_a2.png","68","68","test","1","141","141","7","",""
"null","286552","pSARL_v2","pSARL_v2pwbfxhph","62e99c5ba3484be10c322440","infreq_resp","img/orange_2bandit_a.png","68","68","test","","","","7","",""
"null","286725","pSARL_v2","pSARL_v2pwbfxhph","62e99c5ba3484be10c322440","fixation","img/fixation.png","null","","test","","","","","",""
"347.80000000074506","287081","pSARL_v2","pSARL_v2pwbfxhph","62e99c5ba3484be10c322440","freq","img/green_2bandit_a2.png","70","70","test","1","142","142","7","",""
"null","287557","pSARL_v2","pSARL_v2pwbfxhph","62e99c5ba3484be10c322440","freq_resp","img/green_2bandit_a.png","70","70","test","","","","7","",""
"null","287725","pSARL_v2","pSARL_v2pwbfxhph","62e99c5ba3484be10c322440","fixation","img/fixation.png","null","","test","","","","","",""
"314.80000000074506","288049","pSARL_v2","pSARL_v2pwbfxhph","62e99c5ba3484be10c322440","freq","img/green_2bandit_a2.png","70","70","test","1","143","143","7","",""
"null","288544","pSARL_v2","pSARL_v2pwbfxhph","62e99c5ba3484be10c322440","freq_resp","img/green_2bandit_a.png","70","70","test","","","","7","",""
"null","288709","pSARL_v2","pSARL_v2pwbfxhph","62e99c5ba3484be10c322440","fixation","img/fixation.png","null","","test","","","","","",""
"369.69999999925494","289088","pSARL_v2","pSARL_v2pwbfxhph","62e99c5ba3484be10c322440","freq","img/green_2bandit_a2.png","70","70","test","1","144","144","7","",""
"null","289541","pSARL_v2","pSARL_v2pwbfxhph","62e99c5ba3484be10c322440","freq_resp","img/green_2bandit_a.png","70","70","test","","","","7","",""
"null","289704","pSARL_v2","pSARL_v2pwbfxhph","62e99c5ba3484be10c322440","fixation","img/fixation.png","null","","test","","","","","",""
"349.19999999925494","290062","pSARL_v2","pSARL_v2pwbfxhph","62e99c5ba3484be10c322440","freq","img/green_2bandit_a2.png","70","70","test","1","145","145","7","",""
"null","290525","pSARL_v2","pSARL_v2pwbfxhph","62e99c5ba3484be10c322440","freq_resp","img/green_2bandit_a.png","70","70","test","","","","7","",""
"null","290688","pSARL_v2","pSARL_v2pwbfxhph","62e99c5ba3484be10c322440","fixation","img/fixation.png","null","","test","","","","","",""
"331.59999999962747","291029","pSARL_v2","pSARL_v2pwbfxhph","62e99c5ba3484be10c322440","freq","img/green_2bandit_a2.png","70","70","test","1","146","146","7","",""
"null","291519","pSARL_v2","pSARL_v2pwbfxhph","62e99c5ba3484be10c322440","freq_resp","img/green_2bandit_a.png","70","70","test","","","","7","",""
"null","291683","pSARL_v2","pSARL_v2pwbfxhph","62e99c5ba3484be10c322440","fixation","img/fixation.png","null","","test","","","","","",""
"503.09999999962747","292195","pSARL_v2","pSARL_v2pwbfxhph","62e99c5ba3484be10c322440","freq","img/green_2bandit_a2.png","70","70","test","1","147","147","7","",""
"null","292507","pSARL_v2","pSARL_v2pwbfxhph","62e99c5ba3484be10c322440","freq_resp","img/green_2bandit_a.png","70","70","test","","","","7","",""
"null","292668","pSARL_v2","pSARL_v2pwbfxhph","62e99c5ba3484be10c322440","fixation","img/fixation.png","null","","test","","","","","",""
"333.2999999988824","293010","pSARL_v2","pSARL_v2pwbfxhph","62e99c5ba3484be10c322440","freq","img/green_2bandit_a2.png","70","70","test","1","148","148","7","",""
"null","293499","pSARL_v2","pSARL_v2pwbfxhph","62e99c5ba3484be10c322440","freq_resp","img/green_2bandit_a.png","70","70","test","","","","7","",""
"null","293663","pSARL_v2","pSARL_v2pwbfxhph","62e99c5ba3484be10c322440","fixation","img/fixation.png","null","","test","","","","","",""
"376.90000000037253","294050","pSARL_v2","pSARL_v2pwbfxhph","62e99c5ba3484be10c322440","freq","img/green_2bandit_a2.png","70","70","test","1","149","149","7","",""
"null","294489","pSARL_v2","pSARL_v2pwbfxhph","62e99c5ba3484be10c322440","freq_resp","img/green_2bandit_a.png","70","70","test","","","","7","",""
"null","294663","pSARL_v2","pSARL_v2pwbfxhph","62e99c5ba3484be10c322440","fixation","img/fixation.png","null","","test","","","","","",""
"527.6999999992549","295203","pSARL_v2","pSARL_v2pwbfxhph","62e99c5ba3484be10c322440","infreq","img/orange_2bandit_a2.png","68","68","test","1","150","150","7","",""
"null","295496","pSARL_v2","pSARL_v2pwbfxhph","62e99c5ba3484be10c322440","infreq_resp","img/orange_2bandit_a.png","68","68","test","","","","7","",""
"null","295663","pSARL_v2","pSARL_v2pwbfxhph","62e99c5ba3484be10c322440","fixation","img/fixation.png","null","","test","","","","","",""
"543.1999999992549","296215","pSARL_v2","pSARL_v2pwbfxhph","62e99c5ba3484be10c322440","freq","img/green_2bandit_a2.png","70","70","test","1","151","151","7","",""
"null","296491","pSARL_v2","pSARL_v2pwbfxhph","62e99c5ba3484be10c322440","freq_resp","img/green_2bandit_a.png","70","70","test","","","","7","",""
"null","296652","pSARL_v2","pSARL_v2pwbfxhph","62e99c5ba3484be10c322440","fixation","img/fixation.png","null","","test","","","","","",""
"513.3000000007451","297174","pSARL_v2","pSARL_v2pwbfxhph","62e99c5ba3484be10c322440","freq","img/green_2bandit_a2.png","70","70","test","1","152","152","7","",""
"null","297483","pSARL_v2","pSARL_v2pwbfxhph","62e99c5ba3484be10c322440","freq_resp","img/green_2bandit_a.png","70","70","test","","","","7","",""
"null","297647","pSARL_v2","pSARL_v2pwbfxhph","62e99c5ba3484be10c322440","fixation","img/fixation.png","null","","test","","","","","",""
"348.30000000074506","298005","pSARL_v2","pSARL_v2pwbfxhph","62e99c5ba3484be10c322440","freq","img/green_2bandit_a2.png","70","70","test","1","153","153","7","",""
"null","298466","pSARL_v2","pSARL_v2pwbfxhph","62e99c5ba3484be10c322440","freq_resp","img/green_2bandit_a.png","70","70","test","","","","7","",""
"null","298627","pSARL_v2","pSARL_v2pwbfxhph","62e99c5ba3484be10c322440","fixation","img/fixation.png","null","","test","","","","","",""
"327.5","298966","pSARL_v2","pSARL_v2pwbfxhph","62e99c5ba3484be10c322440","freq","img/green_2bandit_a2.png","70","70","test","1","154","154","7","",""
"null","299448","pSARL_v2","pSARL_v2pwbfxhph","62e99c5ba3484be10c322440","freq_resp","img/green_2bandit_a.png","70","70","test","","","","7","",""
"null","299623","pSARL_v2","pSARL_v2pwbfxhph","62e99c5ba3484be10c322440","fixation","img/fixation.png","null","","test","","","","","",""
"314.40000000037253","299946","pSARL_v2","pSARL_v2pwbfxhph","62e99c5ba3484be10c322440","freq","img/green_2bandit_a2.png","70","70","test","1","155","155","7","",""
"null","300450","pSARL_v2","pSARL_v2pwbfxhph","62e99c5ba3484be10c322440","freq_resp","img/green_2bandit_a.png","70","70","test","","","","7","",""
"null","300611","pSARL_v2","pSARL_v2pwbfxhph","62e99c5ba3484be10c322440","fixation","img/fixation.png","null","","test","","","","","",""
"341.30000000074506","300961","pSARL_v2","pSARL_v2pwbfxhph","62e99c5ba3484be10c322440","freq","img/green_2bandit_a2.png","70","70","test","1","156","156","7","",""
"null","301441","pSARL_v2","pSARL_v2pwbfxhph","62e99c5ba3484be10c322440","freq_resp","img/green_2bandit_a.png","70","70","test","","","","7","",""
"null","301607","pSARL_v2","pSARL_v2pwbfxhph","62e99c5ba3484be10c322440","fixation","img/fixation.png","null","","test","","","","","",""
"352.2999999988824","301968","pSARL_v2","pSARL_v2pwbfxhph","62e99c5ba3484be10c322440","freq","img/green_2bandit_a2.png","70","70","test","1","157","157","7","",""
"null","302427","pSARL_v2","pSARL_v2pwbfxhph","62e99c5ba3484be10c322440","freq_resp","img/green_2bandit_a.png","70","70","test","","","","7","",""
"null","302586","pSARL_v2","pSARL_v2pwbfxhph","62e99c5ba3484be10c322440","fixation","img/fixation.png","null","","test","","","","","",""
"227.59999999962747","302823","pSARL_v2","pSARL_v2pwbfxhph","62e99c5ba3484be10c322440","freq","img/green_2bandit_a2.png","70","70","test","1","158","158","7","",""
"null","303415","pSARL_v2","pSARL_v2pwbfxhph","62e99c5ba3484be10c322440","freq_resp","img/green_2bandit_a.png","70","70","test","","","","7","",""
"null","303582","pSARL_v2","pSARL_v2pwbfxhph","62e99c5ba3484be10c322440","fixation","img/fixation.png","null","","test","","","","","",""
"374.80000000074506","303966","pSARL_v2","pSARL_v2pwbfxhph","62e99c5ba3484be10c322440","freq","img/green_2bandit_a2.png","70","70","test","1","159","159","7","",""
"null","304407","pSARL_v2","pSARL_v2pwbfxhph","62e99c5ba3484be10c322440","freq_resp","img/green_2bandit_a.png","70","70","test","","","","7","",""
"null","304582","pSARL_v2","pSARL_v2pwbfxhph","62e99c5ba3484be10c322440","fixation","img/fixation.png","null","","test","","","","","",""
"293.90000000037253","304885","pSARL_v2","pSARL_v2pwbfxhph","62e99c5ba3484be10c322440","freq","img/green_2bandit_a2.png","70","70","test","1","160","160","7","",""
"null","305406","pSARL_v2","pSARL_v2pwbfxhph","62e99c5ba3484be10c322440","freq_resp","img/green_2bandit_a.png","70","70","test","","","","7","",""
"null","305566","pSARL_v2","pSARL_v2pwbfxhph","62e99c5ba3484be10c322440","fixation","img/fixation.png","null","","test","","","","","",""
"332.1000000014901","305907","pSARL_v2","pSARL_v2pwbfxhph","62e99c5ba3484be10c322440","freq","img/green_2bandit_a2.png","70","70","test","1","161","161","7","",""
"null","306397","pSARL_v2","pSARL_v2pwbfxhph","62e99c5ba3484be10c322440","freq_resp","img/green_2bandit_a.png","70","70","test","","","","7","",""
"null","306561","pSARL_v2","pSARL_v2pwbfxhph","62e99c5ba3484be10c322440","fixation","img/fixation.png","null","","test","","","","","",""
"175.90000000037253","306746","pSARL_v2","pSARL_v2pwbfxhph","62e99c5ba3484be10c322440","freq","img/green_2bandit_a2.png","70","70","test","1","162","162","7","",""
"null","307380","pSARL_v2","pSARL_v2pwbfxhph","62e99c5ba3484be10c322440","freq_resp","img/green_2bandit_a.png","70","70","test","","","","7","",""
"null","307546","pSARL_v2","pSARL_v2pwbfxhph","62e99c5ba3484be10c322440","fixation","img/fixation.png","null","","test","","","","","",""
"150.60000000149012","307705","pSARL_v2","pSARL_v2pwbfxhph","62e99c5ba3484be10c322440","freq","img/green_2bandit_a2.png","70","70","test","1","163","163","7","",""
"null","308377","pSARL_v2","pSARL_v2pwbfxhph","62e99c5ba3484be10c322440","freq_resp","img/green_2bandit_a.png","70","70","test","","","","7","",""
"null","308541","pSARL_v2","pSARL_v2pwbfxhph","62e99c5ba3484be10c322440","fixation","img/fixation.png","null","","test","","","","","",""
"708","309257","pSARL_v2","pSARL_v2pwbfxhph","62e99c5ba3484be10c322440","reward","img/slot.png","74","","test","","","","","",""
"null","310024","pSARL_v2","pSARL_v2pwbfxhph","62e99c5ba3484be10c322440","points","<div class=""verylowPoints""> -6 </div>","null","na","test","","","","7","-6","6"
"654.9000000003725","310688","pSARL_v2","pSARL_v2pwbfxhph","62e99c5ba3484be10c322440","freq","img/green_2bandit_a2.png","70","70","test","1","164","164","8","",""
"null","310845","pSARL_v2","pSARL_v2pwbfxhph","62e99c5ba3484be10c322440","freq_resp","img/green_2bandit_a.png","70","70","test","","","","8","",""
"null","311006","pSARL_v2","pSARL_v2pwbfxhph","62e99c5ba3484be10c322440","fixation","img/fixation.png","null","","test","","","","","",""
"319.5","311334","pSARL_v2","pSARL_v2pwbfxhph","62e99c5ba3484be10c322440","freq","img/green_2bandit_a2.png","70","70","test","1","165","165","8","",""
"null","311828","pSARL_v2","pSARL_v2pwbfxhph","62e99c5ba3484be10c322440","freq_resp","img/green_2bandit_a.png","70","70","test","","","","8","",""
"null","311989","pSARL_v2","pSARL_v2pwbfxhph","62e99c5ba3484be10c322440","fixation","img/fixation.png","null","","test","","","","","",""
"158.90000000037253","312157","pSARL_v2","pSARL_v2pwbfxhph","62e99c5ba3484be10c322440","freq","img/green_2bandit_a2.png","70","70","test","1","166","166","8","",""
"null","312820","pSARL_v2","pSARL_v2pwbfxhph","62e99c5ba3484be10c322440","freq_resp","img/green_2bandit_a.png","70","70","test","","","","8","",""
"null","312985","pSARL_v2","pSARL_v2pwbfxhph","62e99c5ba3484be10c322440","fixation","img/fixation.png","null","","test","","","","","",""
"73.79999999888241","313068","pSARL_v2","pSARL_v2pwbfxhph","62e99c5ba3484be10c322440","freq","img/green_2bandit_a2.png","70","70","test","1","167","167","8","",""
"null","313810","pSARL_v2","pSARL_v2pwbfxhph","62e99c5ba3484be10c322440","freq_resp","img/green_2bandit_a.png","70","70","test","","","","8","",""
"null","313980","pSARL_v2","pSARL_v2pwbfxhph","62e99c5ba3484be10c322440","fixation","img/fixation.png","null","","test","","","","","",""
"75.30000000074506","314066","pSARL_v2","pSARL_v2pwbfxhph","62e99c5ba3484be10c322440","freq","img/green_2bandit_a2.png","70","70","test","1","168","168","8","",""
"null","314800","pSARL_v2","pSARL_v2pwbfxhph","62e99c5ba3484be10c322440","freq_resp","img/green_2bandit_a.png","70","70","test","","","","8","",""
"null","314964","pSARL_v2","pSARL_v2pwbfxhph","62e99c5ba3484be10c322440","fixation","img/fixation.png","null","","test","","","","","",""
"3.700000001117587","314977","pSARL_v2","pSARL_v2pwbfxhph","62e99c5ba3484be10c322440","freq","img/green_2bandit_a2.png","70","70","test","1","169","169","8","",""
"null","315785","pSARL_v2","pSARL_v2pwbfxhph","62e99c5ba3484be10c322440","freq_resp","img/green_2bandit_a.png","70","70","test","","","","8","",""
"null","315945","pSARL_v2","pSARL_v2pwbfxhph","62e99c5ba3484be10c322440","fixation","img/fixation.png","null","","test","","","","","",""
"null","316761","pSARL_v2","pSARL_v2pwbfxhph","62e99c5ba3484be10c322440","freq","img/green_2bandit_a2.png","null","70","test","0","170","170","8","",""
"null","316925","pSARL_v2","pSARL_v2pwbfxhph","62e99c5ba3484be10c322440","fixation","img/fixation.png","null","","test","","","","","",""
"104.09999999962747","317038","pSARL_v2","pSARL_v2pwbfxhph","62e99c5ba3484be10c322440","freq","img/green_2bandit_a2.png","70","70","test","1","171","171","8","",""
"null","317748","pSARL_v2","pSARL_v2pwbfxhph","62e99c5ba3484be10c322440","freq_resp","img/green_2bandit_a.png","70","70","test","","","","8","",""
"null","317908","pSARL_v2","pSARL_v2pwbfxhph","62e99c5ba3484be10c322440","fixation","img/fixation.png","null","","test","","","","","",""
"87.79999999888241","318006","pSARL_v2","pSARL_v2pwbfxhph","62e99c5ba3484be10c322440","freq","img/green_2bandit_a2.png","70","70","test","1","172","172","8","",""
"null","318732","pSARL_v2","pSARL_v2pwbfxhph","62e99c5ba3484be10c322440","freq_resp","img/green_2bandit_a.png","70","70","test","","","","8","",""
"null","318899","pSARL_v2","pSARL_v2pwbfxhph","62e99c5ba3484be10c322440","fixation","img/fixation.png","null","","test","","","","","",""
"151.80000000074506","319063","pSARL_v2","pSARL_v2pwbfxhph","62e99c5ba3484be10c322440","freq","img/green_2bandit_a2.png","70","70","test","1","173","173","8","",""
"null","319732","pSARL_v2","pSARL_v2pwbfxhph","62e99c5ba3484be10c322440","freq_resp","img/green_2bandit_a.png","70","70","test","","","","8","",""
"null","319899","pSARL_v2","pSARL_v2pwbfxhph","62e99c5ba3484be10c322440","fixation","img/fixation.png","null","","test","","","","","",""
"46.29999999888241","319955","pSARL_v2","pSARL_v2pwbfxhph","62e99c5ba3484be10c322440","infreq","img/orange_2bandit_a2.png","70","68","test","0","174","174","8","",""
"null","320723","pSARL_v2","pSARL_v2pwbfxhph","62e99c5ba3484be10c322440","infreq_resp","img/orange_2bandit_a.png","70","68","test","","","","8","",""
"null","320884","pSARL_v2","pSARL_v2pwbfxhph","62e99c5ba3484be10c322440","fixation","img/fixation.png","null","","test","","","","","",""
"405.1000000014901","321298","pSARL_v2","pSARL_v2pwbfxhph","62e99c5ba3484be10c322440","freq","img/green_2bandit_a2.png","70","70","test","1","175","175","8","",""
"null","321703","pSARL_v2","pSARL_v2pwbfxhph","62e99c5ba3484be10c322440","freq_resp","img/green_2bandit_a.png","70","70","test","","","","8","",""
"null","321864","pSARL_v2","pSARL_v2pwbfxhph","62e99c5ba3484be10c322440","fixation","img/fixation.png","null","","test","","","","","",""
"287.7000000011176","322160","pSARL_v2","pSARL_v2pwbfxhph","62e99c5ba3484be10c322440","freq","img/green_2bandit_a2.png","70","70","test","1","176","176","8","",""
"null","322692","pSARL_v2","pSARL_v2pwbfxhph","62e99c5ba3484be10c322440","freq_resp","img/green_2bandit_a.png","70","70","test","","","","8","",""
"null","322859","pSARL_v2","pSARL_v2pwbfxhph","62e99c5ba3484be10c322440","fixation","img/fixation.png","null","","test","","","","","",""
"187.5","323055","pSARL_v2","pSARL_v2pwbfxhph","62e99c5ba3484be10c322440","freq","img/green_2bandit_a2.png","70","70","test","1","177","177","8","",""
"null","323681","pSARL_v2","pSARL_v2pwbfxhph","62e99c5ba3484be10c322440","freq_resp","img/green_2bandit_a.png","70","70","test","","","","8","",""
"null","323843","pSARL_v2","pSARL_v2pwbfxhph","62e99c5ba3484be10c322440","fixation","img/fixation.png","null","","test","","","","","",""
"129.59999999962747","323982","pSARL_v2","pSARL_v2pwbfxhph","62e99c5ba3484be10c322440","freq","img/green_2bandit_a2.png","70","70","test","1","178","178","8","",""
"null","324666","pSARL_v2","pSARL_v2pwbfxhph","62e99c5ba3484be10c322440","freq_resp","img/green_2bandit_a.png","70","70","test","","","","8","",""
"null","324838","pSARL_v2","pSARL_v2pwbfxhph","62e99c5ba3484be10c322440","fixation","img/fixation.png","null","","test","","","","","",""
"309.40000000037253","325157","pSARL_v2","pSARL_v2pwbfxhph","62e99c5ba3484be10c322440","freq","img/green_2bandit_a2.png","70","70","test","1","179","179","8","",""
"null","325661","pSARL_v2","pSARL_v2pwbfxhph","62e99c5ba3484be10c322440","freq_resp","img/green_2bandit_a.png","70","70","test","","","","8","",""
"null","325823","pSARL_v2","pSARL_v2pwbfxhph","62e99c5ba3484be10c322440","fixation","img/fixation.png","null","","test","","","","","",""
"99.69999999925494","325931","pSARL_v2","pSARL_v2pwbfxhph","62e99c5ba3484be10c322440","freq","img/green_2bandit_a2.png","70","70","test","1","180","180","8","",""
"null","326645","pSARL_v2","pSARL_v2pwbfxhph","62e99c5ba3484be10c322440","freq_resp","img/green_2bandit_a.png","70","70","test","","","","8","",""
"null","326818","pSARL_v2","pSARL_v2pwbfxhph","62e99c5ba3484be10c322440","fixation","img/fixation.png","null","","test","","","","","",""
"327.09999999962747","327154","pSARL_v2","pSARL_v2pwbfxhph","62e99c5ba3484be10c322440","freq","img/green_2bandit_a2.png","70","70","test","1","181","181","8","",""
"null","327640","pSARL_v2","pSARL_v2pwbfxhph","62e99c5ba3484be10c322440","freq_resp","img/green_2bandit_a.png","70","70","test","","","","8","",""
"null","327802","pSARL_v2","pSARL_v2pwbfxhph","62e99c5ba3484be10c322440","fixation","img/fixation.png","null","","test","","","","","",""
"317.7000000011176","328129","pSARL_v2","pSARL_v2pwbfxhph","62e99c5ba3484be10c322440","freq","img/green_2bandit_a2.png","70","70","test","1","182","182","8","",""
"null","328624","pSARL_v2","pSARL_v2pwbfxhph","62e99c5ba3484be10c322440","freq_resp","img/green_2bandit_a.png","70","70","test","","","","8","",""
"null","328798","pSARL_v2","pSARL_v2pwbfxhph","62e99c5ba3484be10c322440","fixation","img/fixation.png","null","","test","","","","","",""
"312.19999999925494","329115","pSARL_v2","pSARL_v2pwbfxhph","62e99c5ba3484be10c322440","freq","img/green_2bandit_a2.png","70","70","test","1","183","183","8","",""
"null","329617","pSARL_v2","pSARL_v2pwbfxhph","62e99c5ba3484be10c322440","freq_resp","img/green_2bandit_a.png","70","70","test","","","","8","",""
"null","329778","pSARL_v2","pSARL_v2pwbfxhph","62e99c5ba3484be10c322440","fixation","img/fixation.png","null","","test","","","","","",""
"316","330103","pSARL_v2","pSARL_v2pwbfxhph","62e99c5ba3484be10c322440","freq","img/green_2bandit_a2.png","70","70","test","1","184","184","8","",""
"null","330612","pSARL_v2","pSARL_v2pwbfxhph","62e99c5ba3484be10c322440","freq_resp","img/green_2bandit_a.png","70","70","test","","","","8","",""
"null","330778","pSARL_v2","pSARL_v2pwbfxhph","62e99c5ba3484be10c322440","fixation","img/fixation.png","null","","test","","","","","",""
"282.7999999988824","331070","pSARL_v2","pSARL_v2pwbfxhph","62e99c5ba3484be10c322440","freq","img/green_2bandit_a2.png","70","70","test","1","185","185","8","",""
"null","331598","pSARL_v2","pSARL_v2pwbfxhph","62e99c5ba3484be10c322440","freq_resp","img/green_2bandit_a.png","70","70","test","","","","8","",""
"null","331762","pSARL_v2","pSARL_v2pwbfxhph","62e99c5ba3484be10c322440","fixation","img/fixation.png","null","","test","","","","","",""
"448.80000000074506","332222","pSARL_v2","pSARL_v2pwbfxhph","62e99c5ba3484be10c322440","infreq","img/orange_2bandit_a2.png","68","68","test","1","186","186","8","",""
"null","332585","pSARL_v2","pSARL_v2pwbfxhph","62e99c5ba3484be10c322440","infreq_resp","img/orange_2bandit_a.png","68","68","test","","","","8","",""
"null","332757","pSARL_v2","pSARL_v2pwbfxhph","62e99c5ba3484be10c322440","fixation","img/fixation.png","null","","test","","","","","",""
"301","333067","pSARL_v2","pSARL_v2pwbfxhph","62e99c5ba3484be10c322440","freq","img/green_2bandit_a2.png","70","70","test","1","187","187","8","",""
"null","333580","pSARL_v2","pSARL_v2pwbfxhph","62e99c5ba3484be10c322440","freq_resp","img/green_2bandit_a.png","70","70","test","","","","8","",""
"null","333742","pSARL_v2","pSARL_v2pwbfxhph","62e99c5ba3484be10c322440","fixation","img/fixation.png","null","","test","","","","","",""
"307.80000000074506","334059","pSARL_v2","pSARL_v2pwbfxhph","62e99c5ba3484be10c322440","freq","img/green_2bandit_a2.png","70","70","test","1","188","188","8","",""
"null","334565","pSARL_v2","pSARL_v2pwbfxhph","62e99c5ba3484be10c322440","freq_resp","img/green_2bandit_a.png","70","70","test","","","","8","",""
"null","334726","pSARL_v2","pSARL_v2pwbfxhph","62e99c5ba3484be10c322440","fixation","img/fixation.png","null","","test","","","","","",""
"298.7000000011176","335033","pSARL_v2","pSARL_v2pwbfxhph","62e99c5ba3484be10c322440","freq","img/green_2bandit_a2.png","70","70","test","1","189","189","8","",""
"null","335549","pSARL_v2","pSARL_v2pwbfxhph","62e99c5ba3484be10c322440","freq_resp","img/green_2bandit_a.png","70","70","test","","","","8","",""
"null","335717","pSARL_v2","pSARL_v2pwbfxhph","62e99c5ba3484be10c322440","fixation","img/fixation.png","null","","test","","","","","",""
"523.1999999992549","336249","pSARL_v2","pSARL_v2pwbfxhph","62e99c5ba3484be10c322440","reward","img/slot.png","74","","test","","","","","",""
"null","337018","pSARL_v2","pSARL_v2pwbfxhph","62e99c5ba3484be10c322440","points","<div class=""verylowPoints""> -4 </div>","null","na","test","","","","8","-4","7"
"708.5","337735","pSARL_v2","pSARL_v2pwbfxhph","62e99c5ba3484be10c322440","freq","img/green_2bandit_a2.png","70","70","test","1","190","190","9","",""
"null","337838","pSARL_v2","pSARL_v2pwbfxhph","62e99c5ba3484be10c322440","freq_resp","img/green_2bandit_a.png","70","70","test","","","","9","",""
"null","338002","pSARL_v2","pSARL_v2pwbfxhph","62e99c5ba3484be10c322440","fixation","img/fixation.png","null","","test","","","","","",""
"291.5","338303","pSARL_v2","pSARL_v2pwbfxhph","62e99c5ba3484be10c322440","freq","img/green_2bandit_a2.png","70","70","test","1","191","191","9","",""
"null","338829","pSARL_v2","pSARL_v2pwbfxhph","62e99c5ba3484be10c322440","freq_resp","img/green_2bandit_a.png","70","70","test","","","","9","",""
"null","339000","pSARL_v2","pSARL_v2pwbfxhph","62e99c5ba3484be10c322440","fixation","img/fixation.png","null","","test","","","","","",""
"300.2000000011176","339309","pSARL_v2","pSARL_v2pwbfxhph","62e99c5ba3484be10c322440","freq","img/green_2bandit_a2.png","70","70","test","1","192","192","9","",""
"null","339821","pSARL_v2","pSARL_v2pwbfxhph","62e99c5ba3484be10c322440","freq_resp","img/green_2bandit_a.png","70","70","test","","","","9","",""
"null","339983","pSARL_v2","pSARL_v2pwbfxhph","62e99c5ba3484be10c322440","fixation","img/fixation.png","null","","test","","","","","",""
"300","340292","pSARL_v2","pSARL_v2pwbfxhph","62e99c5ba3484be10c322440","freq","img/green_2bandit_a2.png","70","70","test","1","193","193","9","",""
"null","340816","pSARL_v2","pSARL_v2pwbfxhph","62e99c5ba3484be10c322440","freq_resp","img/green_2bandit_a.png","70","70","test","","","","9","",""
"null","340981","pSARL_v2","pSARL_v2pwbfxhph","62e99c5ba3484be10c322440","fixation","img/fixation.png","null","","test","","","","","",""
"285","341274","pSARL_v2","pSARL_v2pwbfxhph","62e99c5ba3484be10c322440","freq","img/green_2bandit_a2.png","70","70","test","1","194","194","9","",""
"null","341806","pSARL_v2","pSARL_v2pwbfxhph","62e99c5ba3484be10c322440","freq_resp","img/green_2bandit_a.png","70","70","test","","","","9","",""
"null","341976","pSARL_v2","pSARL_v2pwbfxhph","62e99c5ba3484be10c322440","fixation","img/fixation.png","null","","test","","","","","",""
"304.19999999925494","342290","pSARL_v2","pSARL_v2pwbfxhph","62e99c5ba3484be10c322440","freq","img/green_2bandit_a2.png","70","70","test","1","195","195","9","",""
"null","342797","pSARL_v2","pSARL_v2pwbfxhph","62e99c5ba3484be10c322440","freq_resp","img/green_2bandit_a.png","70","70","test","","","","9","",""
"null","342961","pSARL_v2","pSARL_v2pwbfxhph","62e99c5ba3484be10c322440","fixation","img/fixation.png","null","","test","","","","","",""
"278.30000000074506","343248","pSARL_v2","pSARL_v2pwbfxhph","62e99c5ba3484be10c322440","freq","img/green_2bandit_a2.png","70","70","test","1","196","196","9","",""
"null","343779","pSARL_v2","pSARL_v2pwbfxhph","62e99c5ba3484be10c322440","freq_resp","img/green_2bandit_a.png","70","70","test","","","","9","",""
"null","343940","pSARL_v2","pSARL_v2pwbfxhph","62e99c5ba3484be10c322440","fixation","img/fixation.png","null","","test","","","","","",""
"210","344159","pSARL_v2","pSARL_v2pwbfxhph","62e99c5ba3484be10c322440","freq","img/green_2bandit_a2.png","70","70","test","1","197","197","9","",""
"null","344774","pSARL_v2","pSARL_v2pwbfxhph","62e99c5ba3484be10c322440","freq_resp","img/green_2bandit_a.png","70","70","test","","","","9","",""
"null","344940","pSARL_v2","pSARL_v2pwbfxhph","62e99c5ba3484be10c322440","fixation","img/fixation.png","null","","test","","","","","",""
"257","345208","pSARL_v2","pSARL_v2pwbfxhph","62e99c5ba3484be10c322440","freq","img/green_2bandit_a2.png","70","70","test","1","198","198","9","",""
"null","345766","pSARL_v2","pSARL_v2pwbfxhph","62e99c5ba3484be10c322440","freq_resp","img/green_2bandit_a.png","70","70","test","","","","9","",""
"null","345935","pSARL_v2","pSARL_v2pwbfxhph","62e99c5ba3484be10c322440","fixation","img/fixation.png","null","","test","","","","","",""
"252.5","346197","pSARL_v2","pSARL_v2pwbfxhph","62e99c5ba3484be10c322440","freq","img/green_2bandit_a2.png","70","70","test","1","199","199","9","",""
"null","346766","pSARL_v2","pSARL_v2pwbfxhph","62e99c5ba3484be10c322440","freq_resp","img/green_2bandit_a.png","70","70","test","","","","9","",""
"null","346939","pSARL_v2","pSARL_v2pwbfxhph","62e99c5ba3484be10c322440","fixation","img/fixation.png","null","","test","","","","","",""
"263.59999999962747","347211","pSARL_v2","pSARL_v2pwbfxhph","62e99c5ba3484be10c322440","freq","img/green_2bandit_a2.png","70","70","test","1","200","200","9","",""
"null","347769","pSARL_v2","pSARL_v2pwbfxhph","62e99c5ba3484be10c322440","freq_resp","img/green_2bandit_a.png","70","70","test","","","","9","",""
"null","347938","pSARL_v2","pSARL_v2pwbfxhph","62e99c5ba3484be10c322440","fixation","img/fixation.png","null","","test","","","","","",""
"423.80000000074506","348370","pSARL_v2","pSARL_v2pwbfxhph","62e99c5ba3484be10c322440","infreq","img/orange_2bandit_a2.png","68","68","test","1","201","201","9","",""
"null","348757","pSARL_v2","pSARL_v2pwbfxhph","62e99c5ba3484be10c322440","infreq_resp","img/orange_2bandit_a.png","68","68","test","","","","9","",""
"null","348919","pSARL_v2","pSARL_v2pwbfxhph","62e99c5ba3484be10c322440","fixation","img/fixation.png","null","","test","","","","","",""
"385.09999999962747","349313","pSARL_v2","pSARL_v2pwbfxhph","62e99c5ba3484be10c322440","freq","img/green_2bandit_a2.png","70","70","test","1","202","202","9","",""
"null","349745","pSARL_v2","pSARL_v2pwbfxhph","62e99c5ba3484be10c322440","freq_resp","img/green_2bandit_a.png","70","70","test","","","","9","",""
"null","349915","pSARL_v2","pSARL_v2pwbfxhph","62e99c5ba3484be10c322440","fixation","img/fixation.png","null","","test","","","","","",""
"316.19999999925494","350241","pSARL_v2","pSARL_v2pwbfxhph","62e99c5ba3484be10c322440","freq","img/green_2bandit_a2.png","70","70","test","1","203","203","9","",""
"null","350743","pSARL_v2","pSARL_v2pwbfxhph","62e99c5ba3484be10c322440","freq_resp","img/green_2bandit_a.png","70","70","test","","","","9","",""
"null","350903","pSARL_v2","pSARL_v2pwbfxhph","62e99c5ba3484be10c322440","fixation","img/fixation.png","null","","test","","","","","",""
"334.69999999925494","351248","pSARL_v2","pSARL_v2pwbfxhph","62e99c5ba3484be10c322440","freq","img/green_2bandit_a2.png","70","70","test","1","204","204","9","",""
"null","351728","pSARL_v2","pSARL_v2pwbfxhph","62e99c5ba3484be10c322440","freq_resp","img/green_2bandit_a.png","70","70","test","","","","9","",""
"null","351895","pSARL_v2","pSARL_v2pwbfxhph","62e99c5ba3484be10c322440","fixation","img/fixation.png","null","","test","","","","","",""
"397.90000000037253","352302","pSARL_v2","pSARL_v2pwbfxhph","62e99c5ba3484be10c322440","infreq","img/orange_2bandit_a2.png","68","68","test","1","205","205","9","",""
"null","352725","pSARL_v2","pSARL_v2pwbfxhph","62e99c5ba3484be10c322440","infreq_resp","img/orange_2bandit_a.png","68","68","test","","","","9","",""
"null","352895","pSARL_v2","pSARL_v2pwbfxhph","62e99c5ba3484be10c322440","fixation","img/fixation.png","null","","test","","","","","",""
"429.19999999925494","353333","pSARL_v2","pSARL_v2pwbfxhph","62e99c5ba3484be10c322440","freq","img/green_2bandit_a2.png","70","70","test","1","206","206","9","",""
"null","353718","pSARL_v2","pSARL_v2pwbfxhph","62e99c5ba3484be10c322440","freq_resp","img/green_2bandit_a.png","70","70","test","","","","9","",""
"null","353879","pSARL_v2","pSARL_v2pwbfxhph","62e99c5ba3484be10c322440","fixation","img/fixation.png","null","","test","","","","","",""
"267.7000000011176","354156","pSARL_v2","pSARL_v2pwbfxhph","62e99c5ba3484be10c322440","freq","img/green_2bandit_a2.png","70","70","test","1","207","207","9","",""
"null","354698","pSARL_v2","pSARL_v2pwbfxhph","62e99c5ba3484be10c322440","freq_resp","img/green_2bandit_a.png","70","70","test","","","","9","",""
"null","354859","pSARL_v2","pSARL_v2pwbfxhph","62e99c5ba3484be10c322440","fixation","img/fixation.png","null","","test","","","","","",""
