"rt","time_elapsed","expId","subject","prolificID","trialType","stimulus","key_press","corrresp","phase","corr","trialNum","attentionRunNum","blockNum","points","rlNum"
"3309.60000000149","3320","pSARL_v2","pSARL_v204f7g26l","60ff4278d80ae9f23e25eb4b","","","","","","","","","","",""
"","5282","pSARL_v2","pSARL_v204f7g26l","60ff4278d80ae9f23e25eb4b","fullscreen","","","","","","","","","",""
"29220.89999999851","34511","pSARL_v2","pSARL_v204f7g26l","60ff4278d80ae9f23e25eb4b","","","","","","","","","","",""
"null","35323","pSARL_v2","pSARL_v204f7g26l","60ff4278d80ae9f23e25eb4b","freqPrac","img/green_2bandit_a2.png","null","70","prac","0","","","","",""
"null","36333","pSARL_v2","pSARL_v204f7g26l","60ff4278d80ae9f23e25eb4b","feedback","img/tooSlow.png","null","na","prac","","","","","",""
"null","36497","pSARL_v2","pSARL_v204f7g26l","60ff4278d80ae9f23e25eb4b","fixation","img/fixation.png","null","","prac","","","","","",""
"648.8000000007451","37150","pSARL_v2","pSARL_v204f7g26l","60ff4278d80ae9f23e25eb4b","infreqPrac","img/orange_2bandit_a2.png","68","68","prac","1","","","","",""
"648.8000000007451","37315","pSARL_v2","pSARL_v204f7g26l","60ff4278d80ae9f23e25eb4b","infreqPrac_resp","img/orange_2bandit_a.png","68","68","prac","","","","","",""
"null","37478","pSARL_v2","pSARL_v204f7g26l","60ff4278d80ae9f23e25eb4b","fixation","img/fixation.png","null","","prac","","","","","",""
"675.3000000007451","38159","pSARL_v2","pSARL_v204f7g26l","60ff4278d80ae9f23e25eb4b","freqPrac","img/green_2bandit_a2.png","70","70","prac","1","","","","",""
"675.3000000007451","38291","pSARL_v2","pSARL_v204f7g26l","60ff4278d80ae9f23e25eb4b","freqPrac_resp","img/green_2bandit_a.png","70","70","prac","","","","","",""
"null","38455","pSARL_v2","pSARL_v204f7g26l","60ff4278d80ae9f23e25eb4b","fixation","img/fixation.png","null","","prac","","","","","",""
"491.69999999925494","38952","pSARL_v2","pSARL_v204f7g26l","60ff4278d80ae9f23e25eb4b","infreqPrac","img/orange_2bandit_a2.png","68","68","prac","1","","","","",""
"491.69999999925494","39274","pSARL_v2","pSARL_v204f7g26l","60ff4278d80ae9f23e25eb4b","infreqPrac_resp","img/orange_2bandit_a.png","68","68","prac","","","","","",""
"null","39437","pSARL_v2","pSARL_v204f7g26l","60ff4278d80ae9f23e25eb4b","fixation","img/fixation.png","null","","prac","","","","","",""
"664.1000000014901","40108","pSARL_v2","pSARL_v204f7g26l","60ff4278d80ae9f23e25eb4b","infreqPrac","img/orange_2bandit_a2.png","68","68","prac","1","","","","",""
"664.1000000014901","40251","pSARL_v2","pSARL_v204f7g26l","60ff4278d80ae9f23e25eb4b","infreqPrac_resp","img/orange_2bandit_a.png","68","68","prac","","","","","",""
"null","40415","pSARL_v2","pSARL_v204f7g26l","60ff4278d80ae9f23e25eb4b","fixation","img/fixation.png","null","","prac","","","","","",""
"369.80000000074506","40791","pSARL_v2","pSARL_v204f7g26l","60ff4278d80ae9f23e25eb4b","infreqPrac","img/orange_2bandit_a2.png","68","68","prac","1","","","","",""
"369.80000000074506","41227","pSARL_v2","pSARL_v204f7g26l","60ff4278d80ae9f23e25eb4b","infreqPrac_resp","img/orange_2bandit_a.png","68","68","prac","","","","","",""
"null","41388","pSARL_v2","pSARL_v204f7g26l","60ff4278d80ae9f23e25eb4b","fixation","img/fixation.png","null","","prac","","","","","",""
"448.1000000014901","41842","pSARL_v2","pSARL_v204f7g26l","60ff4278d80ae9f23e25eb4b","freqPrac","img/green_2bandit_a2.png","70","70","prac","1","","","","",""
"448.1000000014901","42207","pSARL_v2","pSARL_v204f7g26l","60ff4278d80ae9f23e25eb4b","freqPrac_resp","img/green_2bandit_a.png","70","70","prac","","","","","",""
"null","42367","pSARL_v2","pSARL_v204f7g26l","60ff4278d80ae9f23e25eb4b","fixation","img/fixation.png","null","","prac","","","","","",""
"515.8000000007451","42889","pSARL_v2","pSARL_v204f7g26l","60ff4278d80ae9f23e25eb4b","infreqPrac","img/orange_2bandit_a2.png","70","68","prac","0","","","","",""
"515.8000000007451","43185","pSARL_v2","pSARL_v204f7g26l","60ff4278d80ae9f23e25eb4b","infreqPrac_resp","img/orange_2bandit_a.png","70","68","prac","","","","","",""
"null","44196","pSARL_v2","pSARL_v204f7g26l","60ff4278d80ae9f23e25eb4b","feedback","img/wrongKey.png","null","na","prac","","","","","",""
"null","44358","pSARL_v2","pSARL_v204f7g26l","60ff4278d80ae9f23e25eb4b","fixation","img/fixation.png","null","","prac","","","","","",""
"573.6999999992549","44937","pSARL_v2","pSARL_v204f7g26l","60ff4278d80ae9f23e25eb4b","freqPrac","img/green_2bandit_a2.png","70","70","prac","1","","","","",""
"573.6999999992549","45171","pSARL_v2","pSARL_v204f7g26l","60ff4278d80ae9f23e25eb4b","freqPrac_resp","img/green_2bandit_a.png","70","70","prac","","","","","",""
"null","45335","pSARL_v2","pSARL_v204f7g26l","60ff4278d80ae9f23e25eb4b","fixation","img/fixation.png","null","","prac","","","","","",""
"399.8999999985099","45740","pSARL_v2","pSARL_v204f7g26l","60ff4278d80ae9f23e25eb4b","freqPrac","img/green_2bandit_a2.png","70","70","prac","1","","","","",""
"399.8999999985099","46150","pSARL_v2","pSARL_v204f7g26l","60ff4278d80ae9f23e25eb4b","freqPrac_resp","img/green_2bandit_a.png","70","70","prac","","","","","",""
"null","46313","pSARL_v2","pSARL_v204f7g26l","60ff4278d80ae9f23e25eb4b","fixation","img/fixation.png","null","","prac","","","","","",""
"11309.89999999851","57628","pSARL_v2","pSARL_v204f7g26l","60ff4278d80ae9f23e25eb4b","","","","","prac","","","","","",""
"585.4000000022352","58220","pSARL_v2","pSARL_v204f7g26l","60ff4278d80ae9f23e25eb4b","rewardPractice","img/slot.png","74","","prac","","","","","",""
"null","58983","pSARL_v2","pSARL_v204f7g26l","60ff4278d80ae9f23e25eb4b","feedback","<div class=""veryhighPoints""> +15 </div>","null","na","prac","","","","","",""
"null","59144","pSARL_v2","pSARL_v204f7g26l","60ff4278d80ae9f23e25eb4b","fixation","img/fixation.png","null","","prac","","","","","",""
"8366.39999999851","67516","pSARL_v2","pSARL_v204f7g26l","60ff4278d80ae9f23e25eb4b","","","","","prac","","","","","",""
"485.5","68008","pSARL_v2","pSARL_v204f7g26l","60ff4278d80ae9f23e25eb4b","freq","img/green_2bandit_a2.png","70","70","test","1","1","1","1","",""
"null","68329","pSARL_v2","pSARL_v204f7g26l","60ff4278d80ae9f23e25eb4b","freq_resp","img/green_2bandit_a.png","70","70","test","","","","1","",""
"null","68490","pSARL_v2","pSARL_v204f7g26l","60ff4278d80ae9f23e25eb4b","fixation","img/fixation.png","null","","test","","","","","",""
"306.70000000298023","68803","pSARL_v2","pSARL_v204f7g26l","60ff4278d80ae9f23e25eb4b","freq","img/green_2bandit_a2.png","70","70","test","1","2","2","1","",""
"null","69305","pSARL_v2","pSARL_v204f7g26l","60ff4278d80ae9f23e25eb4b","freq_resp","img/green_2bandit_a.png","70","70","test","","","","1","",""
"null","69466","pSARL_v2","pSARL_v204f7g26l","60ff4278d80ae9f23e25eb4b","fixation","img/fixation.png","null","","test","","","","","",""
"403.1000000014901","69874","pSARL_v2","pSARL_v204f7g26l","60ff4278d80ae9f23e25eb4b","infreq","img/orange_2bandit_a2.png","68","68","test","1","3","3","1","",""
"null","70279","pSARL_v2","pSARL_v204f7g26l","60ff4278d80ae9f23e25eb4b","infreq_resp","img/orange_2bandit_a.png","68","68","test","","","","1","",""
"null","70443","pSARL_v2","pSARL_v204f7g26l","60ff4278d80ae9f23e25eb4b","fixation","img/fixation.png","null","","test","","","","","",""
"517.6999999992549","70967","pSARL_v2","pSARL_v204f7g26l","60ff4278d80ae9f23e25eb4b","freq","img/green_2bandit_a2.png","70","70","test","1","4","4","1","",""
"null","71256","pSARL_v2","pSARL_v204f7g26l","60ff4278d80ae9f23e25eb4b","freq_resp","img/green_2bandit_a.png","70","70","test","","","","1","",""
"null","71414","pSARL_v2","pSARL_v204f7g26l","60ff4278d80ae9f23e25eb4b","fixation","img/fixation.png","null","","test","","","","","",""
"774.6000000014901","72194","pSARL_v2","pSARL_v204f7g26l","60ff4278d80ae9f23e25eb4b","freq","img/green_2bandit_a2.png","70","70","test","1","5","5","1","",""
"null","72226","pSARL_v2","pSARL_v204f7g26l","60ff4278d80ae9f23e25eb4b","freq_resp","img/green_2bandit_a.png","70","70","test","","","","1","",""
"null","72390","pSARL_v2","pSARL_v204f7g26l","60ff4278d80ae9f23e25eb4b","fixation","img/fixation.png","null","","test","","","","","",""
"364.8999999985099","72761","pSARL_v2","pSARL_v204f7g26l","60ff4278d80ae9f23e25eb4b","freq","img/green_2bandit_a2.png","70","70","test","1","6","6","1","",""
"null","73203","pSARL_v2","pSARL_v204f7g26l","60ff4278d80ae9f23e25eb4b","freq_resp","img/green_2bandit_a.png","70","70","test","","","","1","",""
"null","73361","pSARL_v2","pSARL_v204f7g26l","60ff4278d80ae9f23e25eb4b","fixation","img/fixation.png","null","","test","","","","","",""
"385.80000000074506","73753","pSARL_v2","pSARL_v204f7g26l","60ff4278d80ae9f23e25eb4b","infreq","img/orange_2bandit_a2.png","68","68","test","1","7","7","1","",""
"null","74181","pSARL_v2","pSARL_v204f7g26l","60ff4278d80ae9f23e25eb4b","infreq_resp","img/orange_2bandit_a.png","68","68","test","","","","1","",""
"null","74341","pSARL_v2","pSARL_v204f7g26l","60ff4278d80ae9f23e25eb4b","fixation","img/fixation.png","null","","test","","","","","",""
"476","74823","pSARL_v2","pSARL_v204f7g26l","60ff4278d80ae9f23e25eb4b","freq","img/green_2bandit_a2.png","70","70","test","1","8","8","1","",""
"null","75157","pSARL_v2","pSARL_v204f7g26l","60ff4278d80ae9f23e25eb4b","freq_resp","img/green_2bandit_a.png","70","70","test","","","","1","",""
"null","75321","pSARL_v2","pSARL_v204f7g26l","60ff4278d80ae9f23e25eb4b","fixation","img/fixation.png","null","","test","","","","","",""
"311.1000000014901","75638","pSARL_v2","pSARL_v204f7g26l","60ff4278d80ae9f23e25eb4b","freq","img/green_2bandit_a2.png","70","70","test","1","9","9","1","",""
"null","76139","pSARL_v2","pSARL_v204f7g26l","60ff4278d80ae9f23e25eb4b","freq_resp","img/green_2bandit_a.png","70","70","test","","","","1","",""
"null","76301","pSARL_v2","pSARL_v204f7g26l","60ff4278d80ae9f23e25eb4b","fixation","img/fixation.png","null","","test","","","","","",""
"291","76598","pSARL_v2","pSARL_v204f7g26l","60ff4278d80ae9f23e25eb4b","freq","img/green_2bandit_a2.png","70","70","test","1","10","10","1","",""
"null","77119","pSARL_v2","pSARL_v204f7g26l","60ff4278d80ae9f23e25eb4b","freq_resp","img/green_2bandit_a.png","70","70","test","","","","1","",""
"null","77276","pSARL_v2","pSARL_v204f7g26l","60ff4278d80ae9f23e25eb4b","fixation","img/fixation.png","null","","test","","","","","",""
"312.5","77594","pSARL_v2","pSARL_v204f7g26l","60ff4278d80ae9f23e25eb4b","freq","img/green_2bandit_a2.png","70","70","test","1","11","11","1","",""
"null","78089","pSARL_v2","pSARL_v204f7g26l","60ff4278d80ae9f23e25eb4b","freq_resp","img/green_2bandit_a.png","70","70","test","","","","1","",""
"null","78248","pSARL_v2","pSARL_v204f7g26l","60ff4278d80ae9f23e25eb4b","fixation","img/fixation.png","null","","test","","","","","",""
"294","78548","pSARL_v2","pSARL_v204f7g26l","60ff4278d80ae9f23e25eb4b","freq","img/green_2bandit_a2.png","70","70","test","1","12","12","1","",""
"null","79060","pSARL_v2","pSARL_v204f7g26l","60ff4278d80ae9f23e25eb4b","freq_resp","img/green_2bandit_a.png","70","70","test","","","","1","",""
"null","79223","pSARL_v2","pSARL_v204f7g26l","60ff4278d80ae9f23e25eb4b","fixation","img/fixation.png","null","","test","","","","","",""
"310.5","79540","pSARL_v2","pSARL_v204f7g26l","60ff4278d80ae9f23e25eb4b","freq","img/green_2bandit_a2.png","70","70","test","1","13","13","1","",""
"null","80038","pSARL_v2","pSARL_v204f7g26l","60ff4278d80ae9f23e25eb4b","freq_resp","img/green_2bandit_a.png","70","70","test","","","","1","",""
"null","80199","pSARL_v2","pSARL_v204f7g26l","60ff4278d80ae9f23e25eb4b","fixation","img/fixation.png","null","","test","","","","","",""
"341.30000000074506","80546","pSARL_v2","pSARL_v204f7g26l","60ff4278d80ae9f23e25eb4b","freq","img/green_2bandit_a2.png","70","70","test","1","14","14","1","",""
"null","81014","pSARL_v2","pSARL_v204f7g26l","60ff4278d80ae9f23e25eb4b","freq_resp","img/green_2bandit_a.png","70","70","test","","","","1","",""
"null","81177","pSARL_v2","pSARL_v204f7g26l","60ff4278d80ae9f23e25eb4b","fixation","img/fixation.png","null","","test","","","","","",""
"293.69999999925494","81476","pSARL_v2","pSARL_v204f7g26l","60ff4278d80ae9f23e25eb4b","freq","img/green_2bandit_a2.png","70","70","test","1","15","15","1","",""
"null","81989","pSARL_v2","pSARL_v204f7g26l","60ff4278d80ae9f23e25eb4b","freq_resp","img/green_2bandit_a.png","70","70","test","","","","1","",""
"null","82149","pSARL_v2","pSARL_v204f7g26l","60ff4278d80ae9f23e25eb4b","fixation","img/fixation.png","null","","test","","","","","",""
"315.20000000298023","82470","pSARL_v2","pSARL_v204f7g26l","60ff4278d80ae9f23e25eb4b","freq","img/green_2bandit_a2.png","70","70","test","1","16","16","1","",""
"null","82964","pSARL_v2","pSARL_v204f7g26l","60ff4278d80ae9f23e25eb4b","freq_resp","img/green_2bandit_a.png","70","70","test","","","","1","",""
"null","83127","pSARL_v2","pSARL_v204f7g26l","60ff4278d80ae9f23e25eb4b","fixation","img/fixation.png","null","","test","","","","","",""
"406.80000000074506","83540","pSARL_v2","pSARL_v204f7g26l","60ff4278d80ae9f23e25eb4b","infreq","img/orange_2bandit_a2.png","68","68","test","1","17","17","1","",""
"null","83945","pSARL_v2","pSARL_v204f7g26l","60ff4278d80ae9f23e25eb4b","infreq_resp","img/orange_2bandit_a.png","68","68","test","","","","1","",""
"null","84109","pSARL_v2","pSARL_v204f7g26l","60ff4278d80ae9f23e25eb4b","fixation","img/fixation.png","null","","test","","","","","",""
"592.3999999985099","84708","pSARL_v2","pSARL_v204f7g26l","60ff4278d80ae9f23e25eb4b","freq","img/green_2bandit_a2.png","70","70","test","1","18","18","1","",""
"null","84928","pSARL_v2","pSARL_v204f7g26l","60ff4278d80ae9f23e25eb4b","freq_resp","img/green_2bandit_a.png","70","70","test","","","","1","",""
"null","85088","pSARL_v2","pSARL_v204f7g26l","60ff4278d80ae9f23e25eb4b","fixation","img/fixation.png","null","","test","","","","","",""
"336.80000000074506","85431","pSARL_v2","pSARL_v204f7g26l","60ff4278d80ae9f23e25eb4b","freq","img/green_2bandit_a2.png","70","70","test","1","19","19","1","",""
"null","85905","pSARL_v2","pSARL_v204f7g26l","60ff4278d80ae9f23e25eb4b","freq_resp","img/green_2bandit_a.png","70","70","test","","","","1","",""
"null","86063","pSARL_v2","pSARL_v204f7g26l","60ff4278d80ae9f23e25eb4b","fixation","img/fixation.png","null","","test","","","","","",""
"346.69999999925494","86415","pSARL_v2","pSARL_v204f7g26l","60ff4278d80ae9f23e25eb4b","freq","img/green_2bandit_a2.png","70","70","test","1","20","20","1","",""
"null","86881","pSARL_v2","pSARL_v204f7g26l","60ff4278d80ae9f23e25eb4b","freq_resp","img/green_2bandit_a.png","70","70","test","","","","1","",""
"null","87041","pSARL_v2","pSARL_v204f7g26l","60ff4278d80ae9f23e25eb4b","fixation","img/fixation.png","null","","test","","","","","",""
"574.5999999977648","87622","pSARL_v2","pSARL_v204f7g26l","60ff4278d80ae9f23e25eb4b","reward","img/slot.png","74","","test","","","","","",""
"null","88379","pSARL_v2","pSARL_v204f7g26l","60ff4278d80ae9f23e25eb4b","points","<div class=""verylowPoints""> -6 </div>","null","na","test","","","","1","-6","0"
"348.5","88734","pSARL_v2","pSARL_v204f7g26l","60ff4278d80ae9f23e25eb4b","freq","img/green_2bandit_a2.png","70","70","test","1","21","21","2","",""
"null","89192","pSARL_v2","pSARL_v204f7g26l","60ff4278d80ae9f23e25eb4b","freq_resp","img/green_2bandit_a.png","70","70","test","","","","2","",""
"null","89350","pSARL_v2","pSARL_v204f7g26l","60ff4278d80ae9f23e25eb4b","fixation","img/fixation.png","null","","test","","","","","",""
"444.69999999925494","89801","pSARL_v2","pSARL_v204f7g26l","60ff4278d80ae9f23e25eb4b","freq","img/green_2bandit_a2.png","70","70","test","1","22","22","2","",""
"null","90168","pSARL_v2","pSARL_v204f7g26l","60ff4278d80ae9f23e25eb4b","freq_resp","img/green_2bandit_a.png","70","70","test","","","","2","",""
"null","90329","pSARL_v2","pSARL_v204f7g26l","60ff4278d80ae9f23e25eb4b","fixation","img/fixation.png","null","","test","","","","","",""
"334.30000000074506","90669","pSARL_v2","pSARL_v204f7g26l","60ff4278d80ae9f23e25eb4b","freq","img/green_2bandit_a2.png","70","70","test","1","23","23","2","",""
"null","91145","pSARL_v2","pSARL_v204f7g26l","60ff4278d80ae9f23e25eb4b","freq_resp","img/green_2bandit_a.png","70","70","test","","","","2","",""
"null","91307","pSARL_v2","pSARL_v204f7g26l","60ff4278d80ae9f23e25eb4b","fixation","img/fixation.png","null","","test","","","","","",""
"345.69999999925494","91659","pSARL_v2","pSARL_v204f7g26l","60ff4278d80ae9f23e25eb4b","freq","img/green_2bandit_a2.png","70","70","test","1","24","24","2","",""
"null","92125","pSARL_v2","pSARL_v204f7g26l","60ff4278d80ae9f23e25eb4b","freq_resp","img/green_2bandit_a.png","70","70","test","","","","2","",""
"null","92288","pSARL_v2","pSARL_v204f7g26l","60ff4278d80ae9f23e25eb4b","fixation","img/fixation.png","null","","test","","","","","",""
"320","92613","pSARL_v2","pSARL_v204f7g26l","60ff4278d80ae9f23e25eb4b","freq","img/green_2bandit_a2.png","70","70","test","1","25","25","2","",""
"null","93102","pSARL_v2","pSARL_v204f7g26l","60ff4278d80ae9f23e25eb4b","freq_resp","img/green_2bandit_a.png","70","70","test","","","","2","",""
"null","93263","pSARL_v2","pSARL_v204f7g26l","60ff4278d80ae9f23e25eb4b","fixation","img/fixation.png","null","","test","","","","","",""
"362.4000000022352","93631","pSARL_v2","pSARL_v204f7g26l","60ff4278d80ae9f23e25eb4b","freq","img/green_2bandit_a2.png","70","70","test","1","26","26","2","",""
"null","94076","pSARL_v2","pSARL_v204f7g26l","60ff4278d80ae9f23e25eb4b","freq_resp","img/green_2bandit_a.png","70","70","test","","","","2","",""
"null","94238","pSARL_v2","pSARL_v204f7g26l","60ff4278d80ae9f23e25eb4b","fixation","img/fixation.png","null","","test","","","","","",""
"331.5","94576","pSARL_v2","pSARL_v204f7g26l","60ff4278d80ae9f23e25eb4b","freq","img/green_2bandit_a2.png","70","70","test","1","27","27","2","",""
"null","95051","pSARL_v2","pSARL_v204f7g26l","60ff4278d80ae9f23e25eb4b","freq_resp","img/green_2bandit_a.png","70","70","test","","","","2","",""
"null","95215","pSARL_v2","pSARL_v204f7g26l","60ff4278d80ae9f23e25eb4b","fixation","img/fixation.png","null","","test","","","","","",""
"382.5","95603","pSARL_v2","pSARL_v204f7g26l","60ff4278d80ae9f23e25eb4b","infreq","img/orange_2bandit_a2.png","68","68","test","1","28","28","2","",""
"null","96030","pSARL_v2","pSARL_v204f7g26l","60ff4278d80ae9f23e25eb4b","infreq_resp","img/orange_2bandit_a.png","68","68","test","","","","2","",""
"null","96189","pSARL_v2","pSARL_v204f7g26l","60ff4278d80ae9f23e25eb4b","fixation","img/fixation.png","null","","test","","","","","",""
"407.6000000014901","96602","pSARL_v2","pSARL_v204f7g26l","60ff4278d80ae9f23e25eb4b","infreq","img/orange_2bandit_a2.png","68","68","test","1","29","29","2","",""
"null","97003","pSARL_v2","pSARL_v204f7g26l","60ff4278d80ae9f23e25eb4b","infreq_resp","img/orange_2bandit_a.png","68","68","test","","","","2","",""
"null","97166","pSARL_v2","pSARL_v204f7g26l","60ff4278d80ae9f23e25eb4b","fixation","img/fixation.png","null","","test","","","","","",""
"571.1999999992549","97744","pSARL_v2","pSARL_v204f7g26l","60ff4278d80ae9f23e25eb4b","freq","img/green_2bandit_a2.png","70","70","test","1","30","30","2","",""
"null","97981","pSARL_v2","pSARL_v204f7g26l","60ff4278d80ae9f23e25eb4b","freq_resp","img/green_2bandit_a.png","70","70","test","","","","2","",""
"null","98144","pSARL_v2","pSARL_v204f7g26l","60ff4278d80ae9f23e25eb4b","fixation","img/fixation.png","null","","test","","","","","",""
"454","98603","pSARL_v2","pSARL_v204f7g26l","60ff4278d80ae9f23e25eb4b","infreq","img/orange_2bandit_a2.png","68","68","test","1","31","31","2","",""
"null","98960","pSARL_v2","pSARL_v204f7g26l","60ff4278d80ae9f23e25eb4b","infreq_resp","img/orange_2bandit_a.png","68","68","test","","","","2","",""
"null","99120","pSARL_v2","pSARL_v204f7g26l","60ff4278d80ae9f23e25eb4b","fixation","img/fixation.png","null","","test","","","","","",""
"476.30000000074506","99602","pSARL_v2","pSARL_v204f7g26l","60ff4278d80ae9f23e25eb4b","freq","img/green_2bandit_a2.png","70","70","test","1","32","32","2","",""
"null","99935","pSARL_v2","pSARL_v204f7g26l","60ff4278d80ae9f23e25eb4b","freq_resp","img/green_2bandit_a.png","70","70","test","","","","2","",""
"null","100099","pSARL_v2","pSARL_v204f7g26l","60ff4278d80ae9f23e25eb4b","fixation","img/fixation.png","null","","test","","","","","",""
"340.5","100445","pSARL_v2","pSARL_v204f7g26l","60ff4278d80ae9f23e25eb4b","freq","img/green_2bandit_a2.png","70","70","test","1","33","33","2","",""
"null","100914","pSARL_v2","pSARL_v204f7g26l","60ff4278d80ae9f23e25eb4b","freq_resp","img/green_2bandit_a.png","70","70","test","","","","2","",""
"null","101073","pSARL_v2","pSARL_v204f7g26l","60ff4278d80ae9f23e25eb4b","fixation","img/fixation.png","null","","test","","","","","",""
"370.20000000298023","101449","pSARL_v2","pSARL_v204f7g26l","60ff4278d80ae9f23e25eb4b","freq","img/green_2bandit_a2.png","70","70","test","1","34","34","2","",""
"null","101887","pSARL_v2","pSARL_v204f7g26l","60ff4278d80ae9f23e25eb4b","freq_resp","img/green_2bandit_a.png","70","70","test","","","","2","",""
"null","102049","pSARL_v2","pSARL_v204f7g26l","60ff4278d80ae9f23e25eb4b","fixation","img/fixation.png","null","","test","","","","","",""
"335.70000000298023","102390","pSARL_v2","pSARL_v204f7g26l","60ff4278d80ae9f23e25eb4b","freq","img/green_2bandit_a2.png","70","70","test","1","35","35","2","",""
"null","102863","pSARL_v2","pSARL_v204f7g26l","60ff4278d80ae9f23e25eb4b","freq_resp","img/green_2bandit_a.png","70","70","test","","","","2","",""
"null","103027","pSARL_v2","pSARL_v204f7g26l","60ff4278d80ae9f23e25eb4b","fixation","img/fixation.png","null","","test","","","","","",""
"359.0999999977648","103391","pSARL_v2","pSARL_v204f7g26l","60ff4278d80ae9f23e25eb4b","freq","img/green_2bandit_a2.png","70","70","test","1","36","36","2","",""
"null","103841","pSARL_v2","pSARL_v204f7g26l","60ff4278d80ae9f23e25eb4b","freq_resp","img/green_2bandit_a.png","70","70","test","","","","2","",""
"null","104005","pSARL_v2","pSARL_v204f7g26l","60ff4278d80ae9f23e25eb4b","fixation","img/fixation.png","null","","test","","","","","",""
"352.9000000022352","104364","pSARL_v2","pSARL_v204f7g26l","60ff4278d80ae9f23e25eb4b","freq","img/green_2bandit_a2.png","70","70","test","1","37","37","2","",""
"null","104825","pSARL_v2","pSARL_v204f7g26l","60ff4278d80ae9f23e25eb4b","freq_resp","img/green_2bandit_a.png","70","70","test","","","","2","",""
"null","104988","pSARL_v2","pSARL_v204f7g26l","60ff4278d80ae9f23e25eb4b","fixation","img/fixation.png","null","","test","","","","","",""
"292.30000000074506","105286","pSARL_v2","pSARL_v204f7g26l","60ff4278d80ae9f23e25eb4b","freq","img/green_2bandit_a2.png","70","70","test","1","38","38","2","",""
"null","105800","pSARL_v2","pSARL_v204f7g26l","60ff4278d80ae9f23e25eb4b","freq_resp","img/green_2bandit_a.png","70","70","test","","","","2","",""
"null","105960","pSARL_v2","pSARL_v204f7g26l","60ff4278d80ae9f23e25eb4b","fixation","img/fixation.png","null","","test","","","","","",""
"288.30000000074506","106254","pSARL_v2","pSARL_v204f7g26l","60ff4278d80ae9f23e25eb4b","freq","img/green_2bandit_a2.png","70","70","test","1","39","39","2","",""
"null","106774","pSARL_v2","pSARL_v204f7g26l","60ff4278d80ae9f23e25eb4b","freq_resp","img/green_2bandit_a.png","70","70","test","","","","2","",""
"null","106937","pSARL_v2","pSARL_v204f7g26l","60ff4278d80ae9f23e25eb4b","fixation","img/fixation.png","null","","test","","","","","",""
"281.3999999985099","107224","pSARL_v2","pSARL_v204f7g26l","60ff4278d80ae9f23e25eb4b","freq","img/green_2bandit_a2.png","70","70","test","1","40","40","2","",""
"null","107756","pSARL_v2","pSARL_v204f7g26l","60ff4278d80ae9f23e25eb4b","freq_resp","img/green_2bandit_a.png","70","70","test","","","","2","",""
"null","107913","pSARL_v2","pSARL_v204f7g26l","60ff4278d80ae9f23e25eb4b","fixation","img/fixation.png","null","","test","","","","","",""
"336.5","108255","pSARL_v2","pSARL_v204f7g26l","60ff4278d80ae9f23e25eb4b","freq","img/green_2bandit_a2.png","70","70","test","1","41","41","2","",""
"null","108730","pSARL_v2","pSARL_v204f7g26l","60ff4278d80ae9f23e25eb4b","freq_resp","img/green_2bandit_a.png","70","70","test","","","","2","",""
"null","108893","pSARL_v2","pSARL_v204f7g26l","60ff4278d80ae9f23e25eb4b","fixation","img/fixation.png","null","","test","","","","","",""
"306.4000000022352","109206","pSARL_v2","pSARL_v204f7g26l","60ff4278d80ae9f23e25eb4b","freq","img/green_2bandit_a2.png","70","70","test","1","42","42","2","",""
"null","109711","pSARL_v2","pSARL_v204f7g26l","60ff4278d80ae9f23e25eb4b","freq_resp","img/green_2bandit_a.png","70","70","test","","","","2","",""
"null","109871","pSARL_v2","pSARL_v204f7g26l","60ff4278d80ae9f23e25eb4b","fixation","img/fixation.png","null","","test","","","","","",""
"473.4000000022352","110351","pSARL_v2","pSARL_v204f7g26l","60ff4278d80ae9f23e25eb4b","reward","img/slot.png","74","","test","","","","","",""
"null","111112","pSARL_v2","pSARL_v204f7g26l","60ff4278d80ae9f23e25eb4b","points","<div class=""verylowPoints""> -11 </div>","null","na","test","","","","2","-11","1"
"356","111474","pSARL_v2","pSARL_v204f7g26l","60ff4278d80ae9f23e25eb4b","freq","img/green_2bandit_a2.png","70","70","test","1","43","43","3","",""
"null","111929","pSARL_v2","pSARL_v204f7g26l","60ff4278d80ae9f23e25eb4b","freq_resp","img/green_2bandit_a.png","70","70","test","","","","3","",""
"null","112091","pSARL_v2","pSARL_v204f7g26l","60ff4278d80ae9f23e25eb4b","fixation","img/fixation.png","null","","test","","","","","",""
"512.1999999992549","112609","pSARL_v2","pSARL_v204f7g26l","60ff4278d80ae9f23e25eb4b","freq","img/green_2bandit_a2.png","70","70","test","1","44","44","3","",""
"null","112909","pSARL_v2","pSARL_v204f7g26l","60ff4278d80ae9f23e25eb4b","freq_resp","img/green_2bandit_a.png","70","70","test","","","","3","",""
"null","113067","pSARL_v2","pSARL_v204f7g26l","60ff4278d80ae9f23e25eb4b","fixation","img/fixation.png","null","","test","","","","","",""
"265.29999999701977","113339","pSARL_v2","pSARL_v204f7g26l","60ff4278d80ae9f23e25eb4b","freq","img/green_2bandit_a2.png","70","70","test","1","45","45","3","",""
"null","113881","pSARL_v2","pSARL_v204f7g26l","60ff4278d80ae9f23e25eb4b","freq_resp","img/green_2bandit_a.png","70","70","test","","","","3","",""
"null","114042","pSARL_v2","pSARL_v204f7g26l","60ff4278d80ae9f23e25eb4b","fixation","img/fixation.png","null","","test","","","","","",""
"128.29999999701977","114177","pSARL_v2","pSARL_v204f7g26l","60ff4278d80ae9f23e25eb4b","freq","img/green_2bandit_a2.png","70","70","test","1","46","46","3","",""
"null","114858","pSARL_v2","pSARL_v204f7g26l","60ff4278d80ae9f23e25eb4b","freq_resp","img/green_2bandit_a.png","70","70","test","","","","3","",""
"null","115016","pSARL_v2","pSARL_v204f7g26l","60ff4278d80ae9f23e25eb4b","fixation","img/fixation.png","null","","test","","","","","",""
"161.80000000074506","115184","pSARL_v2","pSARL_v204f7g26l","60ff4278d80ae9f23e25eb4b","freq","img/green_2bandit_a2.png","70","70","test","1","47","47","3","",""
"null","115829","pSARL_v2","pSARL_v204f7g26l","60ff4278d80ae9f23e25eb4b","freq_resp","img/green_2bandit_a.png","70","70","test","","","","3","",""
"null","115992","pSARL_v2","pSARL_v204f7g26l","60ff4278d80ae9f23e25eb4b","fixation","img/fixation.png","null","","test","","","","","",""
"109.5","116109","pSARL_v2","pSARL_v204f7g26l","60ff4278d80ae9f23e25eb4b","infreq","img/orange_2bandit_a2.png","70","68","test","0","48","48","3","",""
"null","116808","pSARL_v2","pSARL_v204f7g26l","60ff4278d80ae9f23e25eb4b","infreq_resp","img/orange_2bandit_a.png","70","68","test","","","","3","",""
"null","116968","pSARL_v2","pSARL_v204f7g26l","60ff4278d80ae9f23e25eb4b","fixation","img/fixation.png","null","","test","","","","","",""
"413.69999999925494","117388","pSARL_v2","pSARL_v204f7g26l","60ff4278d80ae9f23e25eb4b","freq","img/green_2bandit_a2.png","70","70","test","1","49","49","3","",""
"null","117784","pSARL_v2","pSARL_v204f7g26l","60ff4278d80ae9f23e25eb4b","freq_resp","img/green_2bandit_a.png","70","70","test","","","","3","",""
"null","117948","pSARL_v2","pSARL_v204f7g26l","60ff4278d80ae9f23e25eb4b","fixation","img/fixation.png","null","","test","","","","","",""
"386.1000000014901","118340","pSARL_v2","pSARL_v204f7g26l","60ff4278d80ae9f23e25eb4b","infreq","img/orange_2bandit_a2.png","68","68","test","1","50","50","3","",""
"null","118765","pSARL_v2","pSARL_v204f7g26l","60ff4278d80ae9f23e25eb4b","infreq_resp","img/orange_2bandit_a.png","68","68","test","","","","3","",""
"null","118925","pSARL_v2","pSARL_v204f7g26l","60ff4278d80ae9f23e25eb4b","fixation","img/fixation.png","null","","test","","","","","",""
"416.30000000074506","119347","pSARL_v2","pSARL_v204f7g26l","60ff4278d80ae9f23e25eb4b","freq","img/green_2bandit_a2.png","70","70","test","1","51","51","3","",""
"null","119742","pSARL_v2","pSARL_v204f7g26l","60ff4278d80ae9f23e25eb4b","freq_resp","img/green_2bandit_a.png","70","70","test","","","","3","",""
"null","119906","pSARL_v2","pSARL_v204f7g26l","60ff4278d80ae9f23e25eb4b","fixation","img/fixation.png","null","","test","","","","","",""
"395.69999999925494","120308","pSARL_v2","pSARL_v204f7g26l","60ff4278d80ae9f23e25eb4b","freq","img/green_2bandit_a2.png","70","70","test","1","52","52","3","",""
"null","120725","pSARL_v2","pSARL_v204f7g26l","60ff4278d80ae9f23e25eb4b","freq_resp","img/green_2bandit_a.png","70","70","test","","","","3","",""
"null","120889","pSARL_v2","pSARL_v204f7g26l","60ff4278d80ae9f23e25eb4b","fixation","img/fixation.png","null","","test","","","","","",""
"324.29999999701977","121220","pSARL_v2","pSARL_v204f7g26l","60ff4278d80ae9f23e25eb4b","freq","img/green_2bandit_a2.png","70","70","test","1","53","53","3","",""
"null","121706","pSARL_v2","pSARL_v204f7g26l","60ff4278d80ae9f23e25eb4b","freq_resp","img/green_2bandit_a.png","70","70","test","","","","3","",""
"null","121867","pSARL_v2","pSARL_v204f7g26l","60ff4278d80ae9f23e25eb4b","fixation","img/fixation.png","null","","test","","","","","",""
"323.80000000074506","122197","pSARL_v2","pSARL_v204f7g26l","60ff4278d80ae9f23e25eb4b","freq","img/green_2bandit_a2.png","70","70","test","1","54","54","3","",""
"null","122686","pSARL_v2","pSARL_v204f7g26l","60ff4278d80ae9f23e25eb4b","freq_resp","img/green_2bandit_a.png","70","70","test","","","","3","",""
"null","122850","pSARL_v2","pSARL_v204f7g26l","60ff4278d80ae9f23e25eb4b","fixation","img/fixation.png","null","","test","","","","","",""
"344.3999999985099","123200","pSARL_v2","pSARL_v204f7g26l","60ff4278d80ae9f23e25eb4b","freq","img/green_2bandit_a2.png","70","70","test","1","55","55","3","",""
"null","123664","pSARL_v2","pSARL_v204f7g26l","60ff4278d80ae9f23e25eb4b","freq_resp","img/green_2bandit_a.png","70","70","test","","","","3","",""
"null","123829","pSARL_v2","pSARL_v204f7g26l","60ff4278d80ae9f23e25eb4b","fixation","img/fixation.png","null","","test","","","","","",""
"305","124139","pSARL_v2","pSARL_v204f7g26l","60ff4278d80ae9f23e25eb4b","freq","img/green_2bandit_a2.png","70","70","test","1","56","56","3","",""
"null","124646","pSARL_v2","pSARL_v204f7g26l","60ff4278d80ae9f23e25eb4b","freq_resp","img/green_2bandit_a.png","70","70","test","","","","3","",""
"null","124807","pSARL_v2","pSARL_v204f7g26l","60ff4278d80ae9f23e25eb4b","fixation","img/fixation.png","null","","test","","","","","",""
"285.69999999925494","125098","pSARL_v2","pSARL_v204f7g26l","60ff4278d80ae9f23e25eb4b","freq","img/green_2bandit_a2.png","70","70","test","1","57","57","3","",""
"null","125623","pSARL_v2","pSARL_v204f7g26l","60ff4278d80ae9f23e25eb4b","freq_resp","img/green_2bandit_a.png","70","70","test","","","","3","",""
"null","125787","pSARL_v2","pSARL_v204f7g26l","60ff4278d80ae9f23e25eb4b","fixation","img/fixation.png","null","","test","","","","","",""
"287.30000000074506","126080","pSARL_v2","pSARL_v204f7g26l","60ff4278d80ae9f23e25eb4b","freq","img/green_2bandit_a2.png","70","70","test","1","58","58","3","",""
"null","126604","pSARL_v2","pSARL_v204f7g26l","60ff4278d80ae9f23e25eb4b","freq_resp","img/green_2bandit_a.png","70","70","test","","","","3","",""
"null","126768","pSARL_v2","pSARL_v204f7g26l","60ff4278d80ae9f23e25eb4b","fixation","img/fixation.png","null","","test","","","","","",""
"325.3999999985099","127099","pSARL_v2","pSARL_v204f7g26l","60ff4278d80ae9f23e25eb4b","freq","img/green_2bandit_a2.png","70","70","test","1","59","59","3","",""
"null","127587","pSARL_v2","pSARL_v204f7g26l","60ff4278d80ae9f23e25eb4b","freq_resp","img/green_2bandit_a.png","70","70","test","","","","3","",""
"null","127746","pSARL_v2","pSARL_v204f7g26l","60ff4278d80ae9f23e25eb4b","fixation","img/fixation.png","null","","test","","","","","",""
"260.29999999701977","128013","pSARL_v2","pSARL_v204f7g26l","60ff4278d80ae9f23e25eb4b","freq","img/green_2bandit_a2.png","70","70","test","1","60","60","3","",""
"null","128560","pSARL_v2","pSARL_v204f7g26l","60ff4278d80ae9f23e25eb4b","freq_resp","img/green_2bandit_a.png","70","70","test","","","","3","",""
"null","128719","pSARL_v2","pSARL_v204f7g26l","60ff4278d80ae9f23e25eb4b","fixation","img/fixation.png","null","","test","","","","","",""
"331.8999999985099","129057","pSARL_v2","pSARL_v204f7g26l","60ff4278d80ae9f23e25eb4b","freq","img/green_2bandit_a2.png","70","70","test","1","61","61","3","",""
"null","129534","pSARL_v2","pSARL_v204f7g26l","60ff4278d80ae9f23e25eb4b","freq_resp","img/green_2bandit_a.png","70","70","test","","","","3","",""
"null","129694","pSARL_v2","pSARL_v204f7g26l","60ff4278d80ae9f23e25eb4b","fixation","img/fixation.png","null","","test","","","","","",""
"311.6000000014901","130013","pSARL_v2","pSARL_v204f7g26l","60ff4278d80ae9f23e25eb4b","freq","img/green_2bandit_a2.png","70","70","test","1","62","62","3","",""
"null","130512","pSARL_v2","pSARL_v204f7g26l","60ff4278d80ae9f23e25eb4b","freq_resp","img/green_2bandit_a.png","70","70","test","","","","3","",""
"null","130668","pSARL_v2","pSARL_v204f7g26l","60ff4278d80ae9f23e25eb4b","fixation","img/fixation.png","null","","test","","","","","",""
"305.8999999985099","130979","pSARL_v2","pSARL_v204f7g26l","60ff4278d80ae9f23e25eb4b","freq","img/green_2bandit_a2.png","70","70","test","1","63","63","3","",""
"null","131481","pSARL_v2","pSARL_v204f7g26l","60ff4278d80ae9f23e25eb4b","freq_resp","img/green_2bandit_a.png","70","70","test","","","","3","",""
"null","131640","pSARL_v2","pSARL_v204f7g26l","60ff4278d80ae9f23e25eb4b","fixation","img/fixation.png","null","","test","","","","","",""
"257.19999999925494","131903","pSARL_v2","pSARL_v204f7g26l","60ff4278d80ae9f23e25eb4b","freq","img/green_2bandit_a2.png","70","70","test","1","64","64","3","",""
"null","132459","pSARL_v2","pSARL_v204f7g26l","60ff4278d80ae9f23e25eb4b","freq_resp","img/green_2bandit_a.png","70","70","test","","","","3","",""
"null","132622","pSARL_v2","pSARL_v204f7g26l","60ff4278d80ae9f23e25eb4b","fixation","img/fixation.png","null","","test","","","","","",""
"97.80000000074506","132726","pSARL_v2","pSARL_v204f7g26l","60ff4278d80ae9f23e25eb4b","freq","img/green_2bandit_a2.png","70","70","test","1","65","65","3","",""
"null","133442","pSARL_v2","pSARL_v204f7g26l","60ff4278d80ae9f23e25eb4b","freq_resp","img/green_2bandit_a.png","70","70","test","","","","3","",""
"null","133601","pSARL_v2","pSARL_v204f7g26l","60ff4278d80ae9f23e25eb4b","fixation","img/fixation.png","null","","test","","","","","",""
"103.90000000223517","133711","pSARL_v2","pSARL_v204f7g26l","60ff4278d80ae9f23e25eb4b","freq","img/green_2bandit_a2.png","70","70","test","1","66","66","3","",""
"null","134420","pSARL_v2","pSARL_v204f7g26l","60ff4278d80ae9f23e25eb4b","freq_resp","img/green_2bandit_a.png","70","70","test","","","","3","",""
"null","134580","pSARL_v2","pSARL_v204f7g26l","60ff4278d80ae9f23e25eb4b","fixation","img/fixation.png","null","","test","","","","","",""
"438.1000000014901","135024","pSARL_v2","pSARL_v204f7g26l","60ff4278d80ae9f23e25eb4b","reward","img/slot.png","74","","test","","","","","",""
"null","135789","pSARL_v2","pSARL_v204f7g26l","60ff4278d80ae9f23e25eb4b","points","<div class=""verylowPoints""> -7 </div>","null","na","test","","","","3","-7","2"
"274.29999999701977","136069","pSARL_v2","pSARL_v204f7g26l","60ff4278d80ae9f23e25eb4b","freq","img/green_2bandit_a2.png","70","70","test","1","67","67","4","",""
"null","136606","pSARL_v2","pSARL_v204f7g26l","60ff4278d80ae9f23e25eb4b","freq_resp","img/green_2bandit_a.png","70","70","test","","","","4","",""
"null","136765","pSARL_v2","pSARL_v204f7g26l","60ff4278d80ae9f23e25eb4b","fixation","img/fixation.png","null","","test","","","","","",""
"117.59999999776483","136889","pSARL_v2","pSARL_v204f7g26l","60ff4278d80ae9f23e25eb4b","freq","img/green_2bandit_a2.png","70","70","test","1","68","68","4","",""
"null","137585","pSARL_v2","pSARL_v204f7g26l","60ff4278d80ae9f23e25eb4b","freq_resp","img/green_2bandit_a.png","70","70","test","","","","4","",""
"null","137744","pSARL_v2","pSARL_v204f7g26l","60ff4278d80ae9f23e25eb4b","fixation","img/fixation.png","null","","test","","","","","",""
"56.69999999925494","137807","pSARL_v2","pSARL_v204f7g26l","60ff4278d80ae9f23e25eb4b","freq","img/green_2bandit_a2.png","70","70","test","1","69","69","4","",""
"null","138562","pSARL_v2","pSARL_v204f7g26l","60ff4278d80ae9f23e25eb4b","freq_resp","img/green_2bandit_a.png","70","70","test","","","","4","",""
"null","138725","pSARL_v2","pSARL_v204f7g26l","60ff4278d80ae9f23e25eb4b","fixation","img/fixation.png","null","","test","","","","","",""
"469.6000000014901","139201","pSARL_v2","pSARL_v204f7g26l","60ff4278d80ae9f23e25eb4b","infreq","img/orange_2bandit_a2.png","68","68","test","1","70","70","4","",""
"null","139542","pSARL_v2","pSARL_v204f7g26l","60ff4278d80ae9f23e25eb4b","infreq_resp","img/orange_2bandit_a.png","68","68","test","","","","4","",""
"null","139703","pSARL_v2","pSARL_v204f7g26l","60ff4278d80ae9f23e25eb4b","fixation","img/fixation.png","null","","test","","","","","",""
"397.80000000074506","140107","pSARL_v2","pSARL_v204f7g26l","60ff4278d80ae9f23e25eb4b","freq","img/green_2bandit_a2.png","70","70","test","1","71","71","4","",""
"null","140523","pSARL_v2","pSARL_v204f7g26l","60ff4278d80ae9f23e25eb4b","freq_resp","img/green_2bandit_a.png","70","70","test","","","","4","",""
"null","140686","pSARL_v2","pSARL_v204f7g26l","60ff4278d80ae9f23e25eb4b","fixation","img/fixation.png","null","","test","","","","","",""
"294.6000000014901","140987","pSARL_v2","pSARL_v204f7g26l","60ff4278d80ae9f23e25eb4b","freq","img/green_2bandit_a2.png","70","70","test","1","72","72","4","",""
"null","141501","pSARL_v2","pSARL_v204f7g26l","60ff4278d80ae9f23e25eb4b","freq_resp","img/green_2bandit_a.png","70","70","test","","","","4","",""
"null","141665","pSARL_v2","pSARL_v204f7g26l","60ff4278d80ae9f23e25eb4b","fixation","img/fixation.png","null","","test","","","","","",""
"192","141863","pSARL_v2","pSARL_v204f7g26l","60ff4278d80ae9f23e25eb4b","freq","img/green_2bandit_a2.png","70","70","test","1","73","73","4","",""
"null","142476","pSARL_v2","pSARL_v204f7g26l","60ff4278d80ae9f23e25eb4b","freq_resp","img/green_2bandit_a.png","70","70","test","","","","4","",""
"null","142634","pSARL_v2","pSARL_v204f7g26l","60ff4278d80ae9f23e25eb4b","fixation","img/fixation.png","null","","test","","","","","",""
"198.5","142836","pSARL_v2","pSARL_v204f7g26l","60ff4278d80ae9f23e25eb4b","freq","img/green_2bandit_a2.png","70","70","test","1","74","74","4","",""
"null","143451","pSARL_v2","pSARL_v204f7g26l","60ff4278d80ae9f23e25eb4b","freq_resp","img/green_2bandit_a.png","70","70","test","","","","4","",""
"null","143615","pSARL_v2","pSARL_v204f7g26l","60ff4278d80ae9f23e25eb4b","fixation","img/fixation.png","null","","test","","","","","",""
"222.10000000149012","143843","pSARL_v2","pSARL_v204f7g26l","60ff4278d80ae9f23e25eb4b","freq","img/green_2bandit_a2.png","70","70","test","1","75","75","4","",""
"null","144432","pSARL_v2","pSARL_v204f7g26l","60ff4278d80ae9f23e25eb4b","freq_resp","img/green_2bandit_a.png","70","70","test","","","","4","",""
"null","144590","pSARL_v2","pSARL_v204f7g26l","60ff4278d80ae9f23e25eb4b","fixation","img/fixation.png","null","","test","","","","","",""
"166.39999999850988","144763","pSARL_v2","pSARL_v204f7g26l","60ff4278d80ae9f23e25eb4b","freq","img/green_2bandit_a2.png","70","70","test","1","76","76","4","",""
"null","145406","pSARL_v2","pSARL_v204f7g26l","60ff4278d80ae9f23e25eb4b","freq_resp","img/green_2bandit_a.png","70","70","test","","","","4","",""
"null","145568","pSARL_v2","pSARL_v204f7g26l","60ff4278d80ae9f23e25eb4b","fixation","img/fixation.png","null","","test","","","","","",""
"335.80000000074506","145910","pSARL_v2","pSARL_v204f7g26l","60ff4278d80ae9f23e25eb4b","infreq","img/orange_2bandit_a2.png","70","68","test","0","77","77","4","",""
"null","146383","pSARL_v2","pSARL_v204f7g26l","60ff4278d80ae9f23e25eb4b","infreq_resp","img/orange_2bandit_a.png","70","68","test","","","","4","",""
"null","146542","pSARL_v2","pSARL_v204f7g26l","60ff4278d80ae9f23e25eb4b","fixation","img/fixation.png","null","","test","","","","","",""
"330.1000000014901","146878","pSARL_v2","pSARL_v204f7g26l","60ff4278d80ae9f23e25eb4b","infreq","img/orange_2bandit_a2.png","70","68","test","0","78","78","4","",""
"null","147355","pSARL_v2","pSARL_v204f7g26l","60ff4278d80ae9f23e25eb4b","infreq_resp","img/orange_2bandit_a.png","70","68","test","","","","4","",""
"null","147519","pSARL_v2","pSARL_v204f7g26l","60ff4278d80ae9f23e25eb4b","fixation","img/fixation.png","null","","test","","","","","",""
"478.4000000022352","148003","pSARL_v2","pSARL_v204f7g26l","60ff4278d80ae9f23e25eb4b","freq","img/green_2bandit_a2.png","70","70","test","1","79","79","4","",""
"null","148331","pSARL_v2","pSARL_v204f7g26l","60ff4278d80ae9f23e25eb4b","freq_resp","img/green_2bandit_a.png","70","70","test","","","","4","",""
"null","148495","pSARL_v2","pSARL_v204f7g26l","60ff4278d80ae9f23e25eb4b","fixation","img/fixation.png","null","","test","","","","","",""
"305.20000000298023","148806","pSARL_v2","pSARL_v204f7g26l","60ff4278d80ae9f23e25eb4b","freq","img/green_2bandit_a2.png","70","70","test","1","80","80","4","",""
"null","149311","pSARL_v2","pSARL_v204f7g26l","60ff4278d80ae9f23e25eb4b","freq_resp","img/green_2bandit_a.png","70","70","test","","","","4","",""
"null","149474","pSARL_v2","pSARL_v204f7g26l","60ff4278d80ae9f23e25eb4b","fixation","img/fixation.png","null","","test","","","","","",""
"277.3999999985099","149758","pSARL_v2","pSARL_v204f7g26l","60ff4278d80ae9f23e25eb4b","freq","img/green_2bandit_a2.png","70","70","test","1","81","81","4","",""
"null","150291","pSARL_v2","pSARL_v204f7g26l","60ff4278d80ae9f23e25eb4b","freq_resp","img/green_2bandit_a.png","70","70","test","","","","4","",""
"null","150451","pSARL_v2","pSARL_v204f7g26l","60ff4278d80ae9f23e25eb4b","fixation","img/fixation.png","null","","test","","","","","",""
"277","150735","pSARL_v2","pSARL_v204f7g26l","60ff4278d80ae9f23e25eb4b","freq","img/green_2bandit_a2.png","70","70","test","1","82","82","4","",""
"null","151265","pSARL_v2","pSARL_v204f7g26l","60ff4278d80ae9f23e25eb4b","freq_resp","img/green_2bandit_a.png","70","70","test","","","","4","",""
"null","151426","pSARL_v2","pSARL_v204f7g26l","60ff4278d80ae9f23e25eb4b","fixation","img/fixation.png","null","","test","","","","","",""
"247.39999999850988","151680","pSARL_v2","pSARL_v204f7g26l","60ff4278d80ae9f23e25eb4b","freq","img/green_2bandit_a2.png","70","70","test","1","83","83","4","",""
"null","152245","pSARL_v2","pSARL_v204f7g26l","60ff4278d80ae9f23e25eb4b","freq_resp","img/green_2bandit_a.png","70","70","test","","","","4","",""
"null","152409","pSARL_v2","pSARL_v204f7g26l","60ff4278d80ae9f23e25eb4b","fixation","img/fixation.png","null","","test","","","","","",""
"223.30000000074506","152638","pSARL_v2","pSARL_v204f7g26l","60ff4278d80ae9f23e25eb4b","freq","img/green_2bandit_a2.png","70","70","test","1","84","84","4","",""
"null","153228","pSARL_v2","pSARL_v204f7g26l","60ff4278d80ae9f23e25eb4b","freq_resp","img/green_2bandit_a.png","70","70","test","","","","4","",""
"null","153389","pSARL_v2","pSARL_v204f7g26l","60ff4278d80ae9f23e25eb4b","fixation","img/fixation.png","null","","test","","","","","",""
"192.69999999925494","153588","pSARL_v2","pSARL_v204f7g26l","60ff4278d80ae9f23e25eb4b","freq","img/green_2bandit_a2.png","70","70","test","1","85","85","4","",""
"null","154206","pSARL_v2","pSARL_v204f7g26l","60ff4278d80ae9f23e25eb4b","freq_resp","img/green_2bandit_a.png","70","70","test","","","","4","",""
"null","154366","pSARL_v2","pSARL_v204f7g26l","60ff4278d80ae9f23e25eb4b","fixation","img/fixation.png","null","","test","","","","","",""
"220","154591","pSARL_v2","pSARL_v204f7g26l","60ff4278d80ae9f23e25eb4b","freq","img/green_2bandit_a2.png","70","70","test","1","86","86","4","",""
"null","155185","pSARL_v2","pSARL_v204f7g26l","60ff4278d80ae9f23e25eb4b","freq_resp","img/green_2bandit_a.png","70","70","test","","","","4","",""
"null","155349","pSARL_v2","pSARL_v204f7g26l","60ff4278d80ae9f23e25eb4b","fixation","img/fixation.png","null","","test","","","","","",""
"472.1000000014901","155827","pSARL_v2","pSARL_v204f7g26l","60ff4278d80ae9f23e25eb4b","reward","img/slot.png","74","","test","","","","","",""
"null","156588","pSARL_v2","pSARL_v204f7g26l","60ff4278d80ae9f23e25eb4b","points","<div class=""verylowPoints""> -3 </div>","null","na","test","","","","4","-3","3"
"460.80000000074506","157055","pSARL_v2","pSARL_v204f7g26l","60ff4278d80ae9f23e25eb4b","freq","img/green_2bandit_a2.png","70","70","test","1","87","87","5","",""
"null","157407","pSARL_v2","pSARL_v204f7g26l","60ff4278d80ae9f23e25eb4b","freq_resp","img/green_2bandit_a.png","70","70","test","","","","5","",""
"null","157565","pSARL_v2","pSARL_v204f7g26l","60ff4278d80ae9f23e25eb4b","fixation","img/fixation.png","null","","test","","","","","",""
"251.09999999776483","157822","pSARL_v2","pSARL_v204f7g26l","60ff4278d80ae9f23e25eb4b","freq","img/green_2bandit_a2.png","70","70","test","1","88","88","5","",""
"null","158377","pSARL_v2","pSARL_v204f7g26l","60ff4278d80ae9f23e25eb4b","freq_resp","img/green_2bandit_a.png","70","70","test","","","","5","",""
"null","158537","pSARL_v2","pSARL_v204f7g26l","60ff4278d80ae9f23e25eb4b","fixation","img/fixation.png","null","","test","","","","","",""
"289.1000000014901","158832","pSARL_v2","pSARL_v204f7g26l","60ff4278d80ae9f23e25eb4b","infreq","img/orange_2bandit_a2.png","70","68","test","0","89","89","5","",""
"null","159353","pSARL_v2","pSARL_v204f7g26l","60ff4278d80ae9f23e25eb4b","infreq_resp","img/orange_2bandit_a.png","70","68","test","","","","5","",""
"null","159516","pSARL_v2","pSARL_v204f7g26l","60ff4278d80ae9f23e25eb4b","fixation","img/fixation.png","null","","test","","","","","",""
"465","159987","pSARL_v2","pSARL_v204f7g26l","60ff4278d80ae9f23e25eb4b","freq","img/green_2bandit_a2.png","70","70","test","1","90","90","5","",""
"null","160329","pSARL_v2","pSARL_v204f7g26l","60ff4278d80ae9f23e25eb4b","freq_resp","img/green_2bandit_a.png","70","70","test","","","","5","",""
"null","160493","pSARL_v2","pSARL_v204f7g26l","60ff4278d80ae9f23e25eb4b","fixation","img/fixation.png","null","","test","","","","","",""
"334.69999999925494","160834","pSARL_v2","pSARL_v204f7g26l","60ff4278d80ae9f23e25eb4b","freq","img/green_2bandit_a2.png","70","70","test","1","91","91","5","",""
"null","161312","pSARL_v2","pSARL_v204f7g26l","60ff4278d80ae9f23e25eb4b","freq_resp","img/green_2bandit_a.png","70","70","test","","","","5","",""
"null","161469","pSARL_v2","pSARL_v204f7g26l","60ff4278d80ae9f23e25eb4b","fixation","img/fixation.png","null","","test","","","","","",""
"253.39999999850988","161728","pSARL_v2","pSARL_v204f7g26l","60ff4278d80ae9f23e25eb4b","freq","img/green_2bandit_a2.png","70","70","test","1","92","92","5","",""
"null","162284","pSARL_v2","pSARL_v204f7g26l","60ff4278d80ae9f23e25eb4b","freq_resp","img/green_2bandit_a.png","70","70","test","","","","5","",""
"null","162448","pSARL_v2","pSARL_v204f7g26l","60ff4278d80ae9f23e25eb4b","fixation","img/fixation.png","null","","test","","","","","",""
"121.40000000223517","162575","pSARL_v2","pSARL_v204f7g26l","60ff4278d80ae9f23e25eb4b","freq","img/green_2bandit_a2.png","70","70","test","1","93","93","5","",""
"null","163265","pSARL_v2","pSARL_v204f7g26l","60ff4278d80ae9f23e25eb4b","freq_resp","img/green_2bandit_a.png","70","70","test","","","","5","",""
"null","163424","pSARL_v2","pSARL_v204f7g26l","60ff4278d80ae9f23e25eb4b","fixation","img/fixation.png","null","","test","","","","","",""
"111.80000000074506","163542","pSARL_v2","pSARL_v204f7g26l","60ff4278d80ae9f23e25eb4b","freq","img/green_2bandit_a2.png","70","70","test","1","94","94","5","",""
"null","164240","pSARL_v2","pSARL_v204f7g26l","60ff4278d80ae9f23e25eb4b","freq_resp","img/green_2bandit_a.png","70","70","test","","","","5","",""
"null","164401","pSARL_v2","pSARL_v204f7g26l","60ff4278d80ae9f23e25eb4b","fixation","img/fixation.png","null","","test","","","","","",""
"94.59999999776483","164501","pSARL_v2","pSARL_v204f7g26l","60ff4278d80ae9f23e25eb4b","freq","img/green_2bandit_a2.png","70","70","test","1","95","95","5","",""
"null","165218","pSARL_v2","pSARL_v204f7g26l","60ff4278d80ae9f23e25eb4b","freq_resp","img/green_2bandit_a.png","70","70","test","","","","5","",""
"null","165382","pSARL_v2","pSARL_v204f7g26l","60ff4278d80ae9f23e25eb4b","fixation","img/fixation.png","null","","test","","","","","",""
"126.90000000223517","165515","pSARL_v2","pSARL_v204f7g26l","60ff4278d80ae9f23e25eb4b","freq","img/green_2bandit_a2.png","70","70","test","1","96","96","5","",""
"null","166200","pSARL_v2","pSARL_v204f7g26l","60ff4278d80ae9f23e25eb4b","freq_resp","img/green_2bandit_a.png","70","70","test","","","","5","",""
"null","166361","pSARL_v2","pSARL_v204f7g26l","60ff4278d80ae9f23e25eb4b","fixation","img/fixation.png","null","","test","","","","","",""
"201.30000000074506","166568","pSARL_v2","pSARL_v204f7g26l","60ff4278d80ae9f23e25eb4b","freq","img/green_2bandit_a2.png","70","70","test","1","97","97","5","",""
"null","167180","pSARL_v2","pSARL_v204f7g26l","60ff4278d80ae9f23e25eb4b","freq_resp","img/green_2bandit_a.png","70","70","test","","","","5","",""
"null","167343","pSARL_v2","pSARL_v204f7g26l","60ff4278d80ae9f23e25eb4b","fixation","img/fixation.png","null","","test","","","","","",""
"169.90000000223517","167519","pSARL_v2","pSARL_v204f7g26l","60ff4278d80ae9f23e25eb4b","freq","img/green_2bandit_a2.png","70","70","test","1","98","98","5","",""
"null","168162","pSARL_v2","pSARL_v204f7g26l","60ff4278d80ae9f23e25eb4b","freq_resp","img/green_2bandit_a.png","70","70","test","","","","5","",""
"null","168325","pSARL_v2","pSARL_v204f7g26l","60ff4278d80ae9f23e25eb4b","fixation","img/fixation.png","null","","test","","","","","",""
"141.69999999925494","168473","pSARL_v2","pSARL_v204f7g26l","60ff4278d80ae9f23e25eb4b","freq","img/green_2bandit_a2.png","70","70","test","1","99","99","5","",""
"null","169143","pSARL_v2","pSARL_v204f7g26l","60ff4278d80ae9f23e25eb4b","freq_resp","img/green_2bandit_a.png","70","70","test","","","","5","",""
"null","169304","pSARL_v2","pSARL_v204f7g26l","60ff4278d80ae9f23e25eb4b","fixation","img/fixation.png","null","","test","","","","","",""
"129.89999999850988","169440","pSARL_v2","pSARL_v204f7g26l","60ff4278d80ae9f23e25eb4b","freq","img/green_2bandit_a2.png","70","70","test","1","100","100","5","",""
"null","170124","pSARL_v2","pSARL_v204f7g26l","60ff4278d80ae9f23e25eb4b","freq_resp","img/green_2bandit_a.png","70","70","test","","","","5","",""
"null","170282","pSARL_v2","pSARL_v204f7g26l","60ff4278d80ae9f23e25eb4b","fixation","img/fixation.png","null","","test","","","","","",""
"95.80000000074506","170384","pSARL_v2","pSARL_v204f7g26l","60ff4278d80ae9f23e25eb4b","freq","img/green_2bandit_a2.png","70","70","test","1","101","101","5","",""
"null","171101","pSARL_v2","pSARL_v204f7g26l","60ff4278d80ae9f23e25eb4b","freq_resp","img/green_2bandit_a.png","70","70","test","","","","5","",""
"null","171265","pSARL_v2","pSARL_v204f7g26l","60ff4278d80ae9f23e25eb4b","fixation","img/fixation.png","null","","test","","","","","",""
"149.69999999925494","171421","pSARL_v2","pSARL_v204f7g26l","60ff4278d80ae9f23e25eb4b","freq","img/green_2bandit_a2.png","70","70","test","1","102","102","5","",""
"null","172084","pSARL_v2","pSARL_v204f7g26l","60ff4278d80ae9f23e25eb4b","freq_resp","img/green_2bandit_a.png","70","70","test","","","","5","",""
"null","172244","pSARL_v2","pSARL_v204f7g26l","60ff4278d80ae9f23e25eb4b","fixation","img/fixation.png","null","","test","","","","","",""
"239","172489","pSARL_v2","pSARL_v204f7g26l","60ff4278d80ae9f23e25eb4b","freq","img/green_2bandit_a2.png","70","70","test","1","103","103","5","",""
"null","173063","pSARL_v2","pSARL_v204f7g26l","60ff4278d80ae9f23e25eb4b","freq_resp","img/green_2bandit_a.png","70","70","test","","","","5","",""
"null","173222","pSARL_v2","pSARL_v204f7g26l","60ff4278d80ae9f23e25eb4b","fixation","img/fixation.png","null","","test","","","","","",""
"103.89999999850988","173332","pSARL_v2","pSARL_v204f7g26l","60ff4278d80ae9f23e25eb4b","infreq","img/orange_2bandit_a2.png","70","68","test","0","104","104","5","",""
"null","174042","pSARL_v2","pSARL_v204f7g26l","60ff4278d80ae9f23e25eb4b","infreq_resp","img/orange_2bandit_a.png","70","68","test","","","","5","",""
"null","174202","pSARL_v2","pSARL_v204f7g26l","60ff4278d80ae9f23e25eb4b","fixation","img/fixation.png","null","","test","","","","","",""
"418.3999999985099","174627","pSARL_v2","pSARL_v204f7g26l","60ff4278d80ae9f23e25eb4b","freq","img/green_2bandit_a2.png","70","70","test","1","105","105","5","",""
"null","175021","pSARL_v2","pSARL_v204f7g26l","60ff4278d80ae9f23e25eb4b","freq_resp","img/green_2bandit_a.png","70","70","test","","","","5","",""
"null","175182","pSARL_v2","pSARL_v204f7g26l","60ff4278d80ae9f23e25eb4b","fixation","img/fixation.png","null","","test","","","","","",""
"282.69999999925494","175471","pSARL_v2","pSARL_v204f7g26l","60ff4278d80ae9f23e25eb4b","freq","img/green_2bandit_a2.png","70","70","test","1","106","106","5","",""
"null","176001","pSARL_v2","pSARL_v204f7g26l","60ff4278d80ae9f23e25eb4b","freq_resp","img/green_2bandit_a.png","70","70","test","","","","5","",""
"null","176165","pSARL_v2","pSARL_v204f7g26l","60ff4278d80ae9f23e25eb4b","fixation","img/fixation.png","null","","test","","","","","",""
"154.5","176326","pSARL_v2","pSARL_v204f7g26l","60ff4278d80ae9f23e25eb4b","freq","img/green_2bandit_a2.png","70","70","test","1","107","107","5","",""
"null","176984","pSARL_v2","pSARL_v204f7g26l","60ff4278d80ae9f23e25eb4b","freq_resp","img/green_2bandit_a.png","70","70","test","","","","5","",""
"null","177142","pSARL_v2","pSARL_v204f7g26l","60ff4278d80ae9f23e25eb4b","fixation","img/fixation.png","null","","test","","","","","",""
"166","177314","pSARL_v2","pSARL_v204f7g26l","60ff4278d80ae9f23e25eb4b","freq","img/green_2bandit_a2.png","70","70","test","1","108","108","5","",""
"null","177961","pSARL_v2","pSARL_v204f7g26l","60ff4278d80ae9f23e25eb4b","freq_resp","img/green_2bandit_a.png","70","70","test","","","","5","",""
"null","178121","pSARL_v2","pSARL_v204f7g26l","60ff4278d80ae9f23e25eb4b","fixation","img/fixation.png","null","","test","","","","","",""
"447.8999999985099","178574","pSARL_v2","pSARL_v204f7g26l","60ff4278d80ae9f23e25eb4b","reward","img/slot.png","74","","test","","","","","",""
"null","179338","pSARL_v2","pSARL_v204f7g26l","60ff4278d80ae9f23e25eb4b","points","<div class=""veryhighPoints""> +1 </div>","null","na","test","","","","5","1","4"
"482.3999999985099","179826","pSARL_v2","pSARL_v204f7g26l","60ff4278d80ae9f23e25eb4b","freq","img/green_2bandit_a2.png","70","70","test","1","109","109","6","",""
"null","180153","pSARL_v2","pSARL_v204f7g26l","60ff4278d80ae9f23e25eb4b","freq_resp","img/green_2bandit_a.png","70","70","test","","","","6","",""
"null","180318","pSARL_v2","pSARL_v204f7g26l","60ff4278d80ae9f23e25eb4b","fixation","img/fixation.png","null","","test","","","","","",""
"282.1000000014901","180606","pSARL_v2","pSARL_v204f7g26l","60ff4278d80ae9f23e25eb4b","freq","img/green_2bandit_a2.png","70","70","test","1","110","110","6","",""
"null","181132","pSARL_v2","pSARL_v204f7g26l","60ff4278d80ae9f23e25eb4b","freq_resp","img/green_2bandit_a.png","70","70","test","","","","6","",""
"null","181289","pSARL_v2","pSARL_v204f7g26l","60ff4278d80ae9f23e25eb4b","fixation","img/fixation.png","null","","test","","","","","",""
"47.69999999925494","181342","pSARL_v2","pSARL_v204f7g26l","60ff4278d80ae9f23e25eb4b","freq","img/green_2bandit_a2.png","70","70","test","1","111","111","6","",""
"null","182108","pSARL_v2","pSARL_v204f7g26l","60ff4278d80ae9f23e25eb4b","freq_resp","img/green_2bandit_a.png","70","70","test","","","","6","",""
"null","182272","pSARL_v2","pSARL_v204f7g26l","60ff4278d80ae9f23e25eb4b","fixation","img/fixation.png","null","","test","","","","","",""
"81.80000000074506","182359","pSARL_v2","pSARL_v204f7g26l","60ff4278d80ae9f23e25eb4b","infreq","img/orange_2bandit_a2.png","70","68","test","0","112","112","6","",""
"null","183086","pSARL_v2","pSARL_v204f7g26l","60ff4278d80ae9f23e25eb4b","infreq_resp","img/orange_2bandit_a.png","70","68","test","","","","6","",""
"null","183250","pSARL_v2","pSARL_v204f7g26l","60ff4278d80ae9f23e25eb4b","fixation","img/fixation.png","null","","test","","","","","",""
"376.1000000014901","183632","pSARL_v2","pSARL_v204f7g26l","60ff4278d80ae9f23e25eb4b","freq","img/green_2bandit_a2.png","70","70","test","1","113","113","6","",""
"null","184069","pSARL_v2","pSARL_v204f7g26l","60ff4278d80ae9f23e25eb4b","freq_resp","img/green_2bandit_a.png","70","70","test","","","","6","",""
"null","184229","pSARL_v2","pSARL_v204f7g26l","60ff4278d80ae9f23e25eb4b","fixation","img/fixation.png","null","","test","","","","","",""
"469.1000000014901","184704","pSARL_v2","pSARL_v204f7g26l","60ff4278d80ae9f23e25eb4b","freq","img/green_2bandit_a2.png","70","70","test","1","114","114","6","",""
"null","185041","pSARL_v2","pSARL_v204f7g26l","60ff4278d80ae9f23e25eb4b","freq_resp","img/green_2bandit_a.png","70","70","test","","","","6","",""
"null","185202","pSARL_v2","pSARL_v204f7g26l","60ff4278d80ae9f23e25eb4b","fixation","img/fixation.png","null","","test","","","","","",""
"454.3999999985099","185661","pSARL_v2","pSARL_v204f7g26l","60ff4278d80ae9f23e25eb4b","freq","img/green_2bandit_a2.png","70","70","test","1","115","115","6","",""
"null","186018","pSARL_v2","pSARL_v204f7g26l","60ff4278d80ae9f23e25eb4b","freq_resp","img/green_2bandit_a.png","70","70","test","","","","6","",""
"null","186179","pSARL_v2","pSARL_v204f7g26l","60ff4278d80ae9f23e25eb4b","fixation","img/fixation.png","null","","test","","","","","",""
"274.8999999985099","186460","pSARL_v2","pSARL_v204f7g26l","60ff4278d80ae9f23e25eb4b","freq","img/green_2bandit_a2.png","70","70","test","1","116","116","6","",""
"null","186999","pSARL_v2","pSARL_v204f7g26l","60ff4278d80ae9f23e25eb4b","freq_resp","img/green_2bandit_a.png","70","70","test","","","","6","",""
"null","187160","pSARL_v2","pSARL_v204f7g26l","60ff4278d80ae9f23e25eb4b","fixation","img/fixation.png","null","","test","","","","","",""
"508.1000000014901","187674","pSARL_v2","pSARL_v204f7g26l","60ff4278d80ae9f23e25eb4b","freq","img/green_2bandit_a2.png","70","70","test","1","117","117","6","",""
"null","187976","pSARL_v2","pSARL_v204f7g26l","60ff4278d80ae9f23e25eb4b","freq_resp","img/green_2bandit_a.png","70","70","test","","","","6","",""
"null","188136","pSARL_v2","pSARL_v204f7g26l","60ff4278d80ae9f23e25eb4b","fixation","img/fixation.png","null","","test","","","","","",""
"276.4000000022352","188419","pSARL_v2","pSARL_v204f7g26l","60ff4278d80ae9f23e25eb4b","freq","img/green_2bandit_a2.png","70","70","test","1","118","118","6","",""
"null","188947","pSARL_v2","pSARL_v204f7g26l","60ff4278d80ae9f23e25eb4b","freq_resp","img/green_2bandit_a.png","70","70","test","","","","6","",""
"null","189104","pSARL_v2","pSARL_v204f7g26l","60ff4278d80ae9f23e25eb4b","fixation","img/fixation.png","null","","test","","","","","",""
"319.80000000074506","189431","pSARL_v2","pSARL_v204f7g26l","60ff4278d80ae9f23e25eb4b","freq","img/green_2bandit_a2.png","70","70","test","1","119","119","6","",""
"null","189919","pSARL_v2","pSARL_v204f7g26l","60ff4278d80ae9f23e25eb4b","freq_resp","img/green_2bandit_a.png","70","70","test","","","","6","",""
"null","190078","pSARL_v2","pSARL_v204f7g26l","60ff4278d80ae9f23e25eb4b","fixation","img/fixation.png","null","","test","","","","","",""
"247.29999999701977","190332","pSARL_v2","pSARL_v204f7g26l","60ff4278d80ae9f23e25eb4b","freq","img/green_2bandit_a2.png","70","70","test","1","120","120","6","",""
"null","190898","pSARL_v2","pSARL_v204f7g26l","60ff4278d80ae9f23e25eb4b","freq_resp","img/green_2bandit_a.png","70","70","test","","","","6","",""
"null","191062","pSARL_v2","pSARL_v204f7g26l","60ff4278d80ae9f23e25eb4b","fixation","img/fixation.png","null","","test","","","","","",""
"113.19999999925494","191182","pSARL_v2","pSARL_v204f7g26l","60ff4278d80ae9f23e25eb4b","freq","img/green_2bandit_a2.png","70","70","test","1","121","121","6","",""
"null","191882","pSARL_v2","pSARL_v204f7g26l","60ff4278d80ae9f23e25eb4b","freq_resp","img/green_2bandit_a.png","70","70","test","","","","6","",""
"null","192045","pSARL_v2","pSARL_v204f7g26l","60ff4278d80ae9f23e25eb4b","fixation","img/fixation.png","null","","test","","","","","",""
"125.79999999701977","192177","pSARL_v2","pSARL_v204f7g26l","60ff4278d80ae9f23e25eb4b","freq","img/green_2bandit_a2.png","70","70","test","1","122","122","6","",""
"null","192863","pSARL_v2","pSARL_v204f7g26l","60ff4278d80ae9f23e25eb4b","freq_resp","img/green_2bandit_a.png","70","70","test","","","","6","",""
"null","193022","pSARL_v2","pSARL_v204f7g26l","60ff4278d80ae9f23e25eb4b","fixation","img/fixation.png","null","","test","","","","","",""
"69.19999999925494","193097","pSARL_v2","pSARL_v204f7g26l","60ff4278d80ae9f23e25eb4b","infreq","img/orange_2bandit_a2.png","70","68","test","0","123","123","6","",""
"null","193837","pSARL_v2","pSARL_v204f7g26l","60ff4278d80ae9f23e25eb4b","infreq_resp","img/orange_2bandit_a.png","70","68","test","","","","6","",""
"null","193999","pSARL_v2","pSARL_v204f7g26l","60ff4278d80ae9f23e25eb4b","fixation","img/fixation.png","null","","test","","","","","",""
"273.6000000014901","194279","pSARL_v2","pSARL_v204f7g26l","60ff4278d80ae9f23e25eb4b","freq","img/green_2bandit_a2.png","70","70","test","1","124","124","6","",""
"null","194819","pSARL_v2","pSARL_v204f7g26l","60ff4278d80ae9f23e25eb4b","freq_resp","img/green_2bandit_a.png","70","70","test","","","","6","",""
"null","194983","pSARL_v2","pSARL_v204f7g26l","60ff4278d80ae9f23e25eb4b","fixation","img/fixation.png","null","","test","","","","","",""
"236.30000000074506","195226","pSARL_v2","pSARL_v204f7g26l","60ff4278d80ae9f23e25eb4b","freq","img/green_2bandit_a2.png","70","70","test","1","125","125","6","",""
"null","195802","pSARL_v2","pSARL_v204f7g26l","60ff4278d80ae9f23e25eb4b","freq_resp","img/green_2bandit_a.png","70","70","test","","","","6","",""
"null","195960","pSARL_v2","pSARL_v204f7g26l","60ff4278d80ae9f23e25eb4b","fixation","img/fixation.png","null","","test","","","","","",""
"100.80000000074506","196067","pSARL_v2","pSARL_v204f7g26l","60ff4278d80ae9f23e25eb4b","freq","img/green_2bandit_a2.png","70","70","test","1","126","126","6","",""
"null","196777","pSARL_v2","pSARL_v204f7g26l","60ff4278d80ae9f23e25eb4b","freq_resp","img/green_2bandit_a.png","70","70","test","","","","6","",""
"null","196938","pSARL_v2","pSARL_v204f7g26l","60ff4278d80ae9f23e25eb4b","fixation","img/fixation.png","null","","test","","","","","",""
"132.89999999850988","197077","pSARL_v2","pSARL_v204f7g26l","60ff4278d80ae9f23e25eb4b","freq","img/green_2bandit_a2.png","70","70","test","1","127","127","6","",""
"null","197757","pSARL_v2","pSARL_v204f7g26l","60ff4278d80ae9f23e25eb4b","freq_resp","img/green_2bandit_a.png","70","70","test","","","","6","",""
"null","197921","pSARL_v2","pSARL_v204f7g26l","60ff4278d80ae9f23e25eb4b","fixation","img/fixation.png","null","","test","","","","","",""
"154.90000000223517","198083","pSARL_v2","pSARL_v204f7g26l","60ff4278d80ae9f23e25eb4b","freq","img/green_2bandit_a2.png","70","70","test","1","128","128","6","",""
"null","198738","pSARL_v2","pSARL_v204f7g26l","60ff4278d80ae9f23e25eb4b","freq_resp","img/green_2bandit_a.png","70","70","test","","","","6","",""
"null","198898","pSARL_v2","pSARL_v204f7g26l","60ff4278d80ae9f23e25eb4b","fixation","img/fixation.png","null","","test","","","","","",""
"429.5999999977648","199334","pSARL_v2","pSARL_v204f7g26l","60ff4278d80ae9f23e25eb4b","reward","img/slot.png","74","","test","","","","","",""
"null","200093","pSARL_v2","pSARL_v204f7g26l","60ff4278d80ae9f23e25eb4b","points","<div class=""verylowPoints""> -7 </div>","null","na","test","","","","6","-7","5"
"386.5","200486","pSARL_v2","pSARL_v204f7g26l","60ff4278d80ae9f23e25eb4b","freq","img/green_2bandit_a2.png","70","70","test","1","129","129","7","",""
"null","200908","pSARL_v2","pSARL_v204f7g26l","60ff4278d80ae9f23e25eb4b","freq_resp","img/green_2bandit_a.png","70","70","test","","","","7","",""
"null","201072","pSARL_v2","pSARL_v204f7g26l","60ff4278d80ae9f23e25eb4b","fixation","img/fixation.png","null","","test","","","","","",""
"286.6000000014901","201364","pSARL_v2","pSARL_v204f7g26l","60ff4278d80ae9f23e25eb4b","freq","img/green_2bandit_a2.png","70","70","test","1","130","130","7","",""
"null","201890","pSARL_v2","pSARL_v204f7g26l","60ff4278d80ae9f23e25eb4b","freq_resp","img/green_2bandit_a.png","70","70","test","","","","7","",""
"null","202054","pSARL_v2","pSARL_v204f7g26l","60ff4278d80ae9f23e25eb4b","fixation","img/fixation.png","null","","test","","","","","",""
"107","202167","pSARL_v2","pSARL_v204f7g26l","60ff4278d80ae9f23e25eb4b","freq","img/green_2bandit_a2.png","70","70","test","1","131","131","7","",""
"null","202872","pSARL_v2","pSARL_v204f7g26l","60ff4278d80ae9f23e25eb4b","freq_resp","img/green_2bandit_a.png","70","70","test","","","","7","",""
"null","203034","pSARL_v2","pSARL_v204f7g26l","60ff4278d80ae9f23e25eb4b","fixation","img/fixation.png","null","","test","","","","","",""
"52.899999998509884","203093","pSARL_v2","pSARL_v204f7g26l","60ff4278d80ae9f23e25eb4b","freq","img/green_2bandit_a2.png","70","70","test","1","132","132","7","",""
"null","203847","pSARL_v2","pSARL_v204f7g26l","60ff4278d80ae9f23e25eb4b","freq_resp","img/green_2bandit_a.png","70","70","test","","","","7","",""
"null","204006","pSARL_v2","pSARL_v204f7g26l","60ff4278d80ae9f23e25eb4b","fixation","img/fixation.png","null","","test","","","","","",""
"202.70000000298023","204215","pSARL_v2","pSARL_v204f7g26l","60ff4278d80ae9f23e25eb4b","freq","img/green_2bandit_a2.png","70","70","test","1","133","133","7","",""
"null","204821","pSARL_v2","pSARL_v204f7g26l","60ff4278d80ae9f23e25eb4b","freq_resp","img/green_2bandit_a.png","70","70","test","","","","7","",""
"null","204978","pSARL_v2","pSARL_v204f7g26l","60ff4278d80ae9f23e25eb4b","fixation","img/fixation.png","null","","test","","","","","",""
"522.9000000022352","205507","pSARL_v2","pSARL_v204f7g26l","60ff4278d80ae9f23e25eb4b","freq","img/green_2bandit_a2.png","70","70","test","1","134","134","7","",""
"null","205795","pSARL_v2","pSARL_v204f7g26l","60ff4278d80ae9f23e25eb4b","freq_resp","img/green_2bandit_a.png","70","70","test","","","","7","",""
"null","205959","pSARL_v2","pSARL_v204f7g26l","60ff4278d80ae9f23e25eb4b","fixation","img/fixation.png","null","","test","","","","","",""
"223","206186","pSARL_v2","pSARL_v204f7g26l","60ff4278d80ae9f23e25eb4b","freq","img/green_2bandit_a2.png","70","70","test","1","135","135","7","",""
"null","206773","pSARL_v2","pSARL_v204f7g26l","60ff4278d80ae9f23e25eb4b","freq_resp","img/green_2bandit_a.png","70","70","test","","","","7","",""
"null","206934","pSARL_v2","pSARL_v204f7g26l","60ff4278d80ae9f23e25eb4b","fixation","img/fixation.png","null","","test","","","","","",""
"155.19999999925494","207095","pSARL_v2","pSARL_v204f7g26l","60ff4278d80ae9f23e25eb4b","freq","img/green_2bandit_a2.png","70","70","test","1","136","136","7","",""
"null","207745","pSARL_v2","pSARL_v204f7g26l","60ff4278d80ae9f23e25eb4b","freq_resp","img/green_2bandit_a.png","70","70","test","","","","7","",""
"null","207905","pSARL_v2","pSARL_v204f7g26l","60ff4278d80ae9f23e25eb4b","fixation","img/fixation.png","null","","test","","","","","",""
"102.69999999925494","208014","pSARL_v2","pSARL_v204f7g26l","60ff4278d80ae9f23e25eb4b","freq","img/green_2bandit_a2.png","70","70","test","1","137","137","7","",""
"null","208721","pSARL_v2","pSARL_v204f7g26l","60ff4278d80ae9f23e25eb4b","freq_resp","img/green_2bandit_a.png","70","70","test","","","","7","",""
"null","208883","pSARL_v2","pSARL_v204f7g26l","60ff4278d80ae9f23e25eb4b","fixation","img/fixation.png","null","","test","","","","","",""
"74.89999999850988","208963","pSARL_v2","pSARL_v204f7g26l","60ff4278d80ae9f23e25eb4b","freq","img/green_2bandit_a2.png","70","70","test","1","138","138","7","",""
"null","209701","pSARL_v2","pSARL_v204f7g26l","60ff4278d80ae9f23e25eb4b","freq_resp","img/green_2bandit_a.png","70","70","test","","","","7","",""
"null","209861","pSARL_v2","pSARL_v204f7g26l","60ff4278d80ae9f23e25eb4b","fixation","img/fixation.png","null","","test","","","","","",""
"242.5","210109","pSARL_v2","pSARL_v204f7g26l","60ff4278d80ae9f23e25eb4b","freq","img/green_2bandit_a2.png","70","70","test","1","139","139","7","",""
"null","210673","pSARL_v2","pSARL_v204f7g26l","60ff4278d80ae9f23e25eb4b","freq_resp","img/green_2bandit_a.png","70","70","test","","","","7","",""
"null","210835","pSARL_v2","pSARL_v204f7g26l","60ff4278d80ae9f23e25eb4b","fixation","img/fixation.png","null","","test","","","","","",""
"135.69999999925494","210977","pSARL_v2","pSARL_v204f7g26l","60ff4278d80ae9f23e25eb4b","freq","img/green_2bandit_a2.png","70","70","test","1","140","140","7","",""
"null","211652","pSARL_v2","pSARL_v204f7g26l","60ff4278d80ae9f23e25eb4b","freq_resp","img/green_2bandit_a.png","70","70","test","","","","7","",""
"null","211812","pSARL_v2","pSARL_v204f7g26l","60ff4278d80ae9f23e25eb4b","fixation","img/fixation.png","null","","test","","","","","",""
"273.4000000022352","212091","pSARL_v2","pSARL_v204f7g26l","60ff4278d80ae9f23e25eb4b","freq","img/green_2bandit_a2.png","70","70","test","1","141","141","7","",""
"null","212630","pSARL_v2","pSARL_v204f7g26l","60ff4278d80ae9f23e25eb4b","freq_resp","img/green_2bandit_a.png","70","70","test","","","","7","",""
"null","212791","pSARL_v2","pSARL_v204f7g26l","60ff4278d80ae9f23e25eb4b","fixation","img/fixation.png","null","","test","","","","","",""
"86.60000000149012","212884","pSARL_v2","pSARL_v204f7g26l","60ff4278d80ae9f23e25eb4b","freq","img/green_2bandit_a2.png","70","70","test","1","142","142","7","",""
"null","213604","pSARL_v2","pSARL_v204f7g26l","60ff4278d80ae9f23e25eb4b","freq_resp","img/green_2bandit_a.png","70","70","test","","","","7","",""
"null","213762","pSARL_v2","pSARL_v204f7g26l","60ff4278d80ae9f23e25eb4b","fixation","img/fixation.png","null","","test","","","","","",""
"43.400000002235174","213811","pSARL_v2","pSARL_v204f7g26l","60ff4278d80ae9f23e25eb4b","infreq","img/orange_2bandit_a2.png","70","68","test","0","143","143","7","",""
"null","214582","pSARL_v2","pSARL_v204f7g26l","60ff4278d80ae9f23e25eb4b","infreq_resp","img/orange_2bandit_a.png","70","68","test","","","","7","",""
"null","214742","pSARL_v2","pSARL_v204f7g26l","60ff4278d80ae9f23e25eb4b","fixation","img/fixation.png","null","","test","","","","","",""
"287.70000000298023","215036","pSARL_v2","pSARL_v204f7g26l","60ff4278d80ae9f23e25eb4b","freq","img/green_2bandit_a2.png","70","70","test","1","144","144","7","",""
"null","215554","pSARL_v2","pSARL_v204f7g26l","60ff4278d80ae9f23e25eb4b","freq_resp","img/green_2bandit_a.png","70","70","test","","","","7","",""
"null","215713","pSARL_v2","pSARL_v204f7g26l","60ff4278d80ae9f23e25eb4b","fixation","img/fixation.png","null","","test","","","","","",""
"144.89999999850988","215864","pSARL_v2","pSARL_v204f7g26l","60ff4278d80ae9f23e25eb4b","freq","img/green_2bandit_a2.png","70","70","test","1","145","145","7","",""
"null","216526","pSARL_v2","pSARL_v204f7g26l","60ff4278d80ae9f23e25eb4b","freq_resp","img/green_2bandit_a.png","70","70","test","","","","7","",""
"null","216689","pSARL_v2","pSARL_v204f7g26l","60ff4278d80ae9f23e25eb4b","fixation","img/fixation.png","null","","test","","","","","",""
"76.19999999925494","216771","pSARL_v2","pSARL_v204f7g26l","60ff4278d80ae9f23e25eb4b","freq","img/green_2bandit_a2.png","70","70","test","1","146","146","7","",""
"null","217502","pSARL_v2","pSARL_v204f7g26l","60ff4278d80ae9f23e25eb4b","freq_resp","img/green_2bandit_a.png","70","70","test","","","","7","",""
"null","217660","pSARL_v2","pSARL_v204f7g26l","60ff4278d80ae9f23e25eb4b","fixation","img/fixation.png","null","","test","","","","","",""
"109.39999999850988","217774","pSARL_v2","pSARL_v204f7g26l","60ff4278d80ae9f23e25eb4b","freq","img/green_2bandit_a2.png","70","70","test","1","147","147","7","",""
"null","218478","pSARL_v2","pSARL_v204f7g26l","60ff4278d80ae9f23e25eb4b","freq_resp","img/green_2bandit_a.png","70","70","test","","","","7","",""
"null","218636","pSARL_v2","pSARL_v204f7g26l","60ff4278d80ae9f23e25eb4b","fixation","img/fixation.png","null","","test","","","","","",""
"157.60000000149012","218800","pSARL_v2","pSARL_v204f7g26l","60ff4278d80ae9f23e25eb4b","freq","img/green_2bandit_a2.png","70","70","test","1","148","148","7","",""
"null","219456","pSARL_v2","pSARL_v204f7g26l","60ff4278d80ae9f23e25eb4b","freq_resp","img/green_2bandit_a.png","70","70","test","","","","7","",""
"null","219620","pSARL_v2","pSARL_v204f7g26l","60ff4278d80ae9f23e25eb4b","fixation","img/fixation.png","null","","test","","","","","",""
"85","219711","pSARL_v2","pSARL_v204f7g26l","60ff4278d80ae9f23e25eb4b","infreq","img/orange_2bandit_a2.png","70","68","test","0","149","149","7","",""
"null","220437","pSARL_v2","pSARL_v204f7g26l","60ff4278d80ae9f23e25eb4b","infreq_resp","img/orange_2bandit_a.png","70","68","test","","","","7","",""
"null","220595","pSARL_v2","pSARL_v204f7g26l","60ff4278d80ae9f23e25eb4b","fixation","img/fixation.png","null","","test","","","","","",""
"441.19999999925494","221042","pSARL_v2","pSARL_v204f7g26l","60ff4278d80ae9f23e25eb4b","freq","img/green_2bandit_a2.png","70","70","test","1","150","150","7","",""
"null","221414","pSARL_v2","pSARL_v204f7g26l","60ff4278d80ae9f23e25eb4b","freq_resp","img/green_2bandit_a.png","70","70","test","","","","7","",""
"null","221577","pSARL_v2","pSARL_v204f7g26l","60ff4278d80ae9f23e25eb4b","fixation","img/fixation.png","null","","test","","","","","",""
"null","222388","pSARL_v2","pSARL_v204f7g26l","60ff4278d80ae9f23e25eb4b","freq","img/green_2bandit_a2.png","null","70","test","0","151","151","7","",""
"null","222547","pSARL_v2","pSARL_v204f7g26l","60ff4278d80ae9f23e25eb4b","fixation","img/fixation.png","null","","test","","","","","",""
"null","223361","pSARL_v2","pSARL_v204f7g26l","60ff4278d80ae9f23e25eb4b","freq","img/green_2bandit_a2.png","null","70","test","0","152","152","7","",""
"null","223525","pSARL_v2","pSARL_v204f7g26l","60ff4278d80ae9f23e25eb4b","fixation","img/fixation.png","null","","test","","","","","",""
"null","224334","pSARL_v2","pSARL_v204f7g26l","60ff4278d80ae9f23e25eb4b","freq","img/green_2bandit_a2.png","null","70","test","0","153","153","7","",""
"null","224498","pSARL_v2","pSARL_v204f7g26l","60ff4278d80ae9f23e25eb4b","fixation","img/fixation.png","null","","test","","","","","",""
"355.80000000074506","224859","pSARL_v2","pSARL_v204f7g26l","60ff4278d80ae9f23e25eb4b","freq","img/green_2bandit_a2.png","70","70","test","1","154","154","7","",""
"null","225313","pSARL_v2","pSARL_v204f7g26l","60ff4278d80ae9f23e25eb4b","freq_resp","img/green_2bandit_a.png","70","70","test","","","","7","",""
"null","225476","pSARL_v2","pSARL_v204f7g26l","60ff4278d80ae9f23e25eb4b","fixation","img/fixation.png","null","","test","","","","","",""
"843.3999999985099","226325","pSARL_v2","pSARL_v204f7g26l","60ff4278d80ae9f23e25eb4b","reward","img/slot.png","74","","test","","","","","",""
"null","227084","pSARL_v2","pSARL_v204f7g26l","60ff4278d80ae9f23e25eb4b","points","<div class=""verylowPoints""> -6 </div>","null","na","test","","","","7","-6","6"
"278.1000000014901","227368","pSARL_v2","pSARL_v204f7g26l","60ff4278d80ae9f23e25eb4b","freq","img/green_2bandit_a2.png","70","70","test","1","155","155","8","",""
"null","227903","pSARL_v2","pSARL_v204f7g26l","60ff4278d80ae9f23e25eb4b","freq_resp","img/green_2bandit_a.png","70","70","test","","","","8","",""
"null","228062","pSARL_v2","pSARL_v204f7g26l","60ff4278d80ae9f23e25eb4b","fixation","img/fixation.png","null","","test","","","","","",""
"135.80000000074506","228204","pSARL_v2","pSARL_v204f7g26l","60ff4278d80ae9f23e25eb4b","freq","img/green_2bandit_a2.png","70","70","test","1","156","156","8","",""
"null","228882","pSARL_v2","pSARL_v204f7g26l","60ff4278d80ae9f23e25eb4b","freq_resp","img/green_2bandit_a.png","70","70","test","","","","8","",""
"null","229042","pSARL_v2","pSARL_v204f7g26l","60ff4278d80ae9f23e25eb4b","fixation","img/fixation.png","null","","test","","","","","",""
"249.29999999701977","229297","pSARL_v2","pSARL_v204f7g26l","60ff4278d80ae9f23e25eb4b","freq","img/green_2bandit_a2.png","70","70","test","1","157","157","8","",""
"null","229860","pSARL_v2","pSARL_v204f7g26l","60ff4278d80ae9f23e25eb4b","freq_resp","img/green_2bandit_a.png","70","70","test","","","","8","",""
"null","230016","pSARL_v2","pSARL_v204f7g26l","60ff4278d80ae9f23e25eb4b","fixation","img/fixation.png","null","","test","","","","","",""
"15.400000002235174","230037","pSARL_v2","pSARL_v204f7g26l","60ff4278d80ae9f23e25eb4b","freq","img/green_2bandit_a2.png","70","70","test","1","158","158","8","",""
"null","230829","pSARL_v2","pSARL_v204f7g26l","60ff4278d80ae9f23e25eb4b","freq_resp","img/green_2bandit_a.png","70","70","test","","","","8","",""
"null","230991","pSARL_v2","pSARL_v204f7g26l","60ff4278d80ae9f23e25eb4b","fixation","img/fixation.png","null","","test","","","","","",""
"133.69999999925494","231131","pSARL_v2","pSARL_v204f7g26l","60ff4278d80ae9f23e25eb4b","freq","img/green_2bandit_a2.png","70","70","test","1","159","159","8","",""
"null","231809","pSARL_v2","pSARL_v204f7g26l","60ff4278d80ae9f23e25eb4b","freq_resp","img/green_2bandit_a.png","70","70","test","","","","8","",""
"null","231973","pSARL_v2","pSARL_v204f7g26l","60ff4278d80ae9f23e25eb4b","fixation","img/fixation.png","null","","test","","","","","",""
"235.59999999776483","232215","pSARL_v2","pSARL_v204f7g26l","60ff4278d80ae9f23e25eb4b","infreq","img/orange_2bandit_a2.png","70","68","test","0","160","160","8","",""
"null","232785","pSARL_v2","pSARL_v204f7g26l","60ff4278d80ae9f23e25eb4b","infreq_resp","img/orange_2bandit_a.png","70","68","test","","","","8","",""
"null","232949","pSARL_v2","pSARL_v204f7g26l","60ff4278d80ae9f23e25eb4b","fixation","img/fixation.png","null","","test","","","","","",""
"94.90000000223517","233050","pSARL_v2","pSARL_v204f7g26l","60ff4278d80ae9f23e25eb4b","freq","img/green_2bandit_a2.png","68","70","test","0","161","161","8","",""
"null","233768","pSARL_v2","pSARL_v204f7g26l","60ff4278d80ae9f23e25eb4b","freq_resp","img/green_2bandit_a.png","68","70","test","","","","8","",""
"null","233927","pSARL_v2","pSARL_v204f7g26l","60ff4278d80ae9f23e25eb4b","fixation","img/fixation.png","null","","test","","","","","",""
"56.599999997764826","233990","pSARL_v2","pSARL_v204f7g26l","60ff4278d80ae9f23e25eb4b","freq","img/green_2bandit_a2.png","70","70","test","1","162","162","8","",""
"null","234745","pSARL_v2","pSARL_v204f7g26l","60ff4278d80ae9f23e25eb4b","freq_resp","img/green_2bandit_a.png","70","70","test","","","","8","",""
"null","234904","pSARL_v2","pSARL_v204f7g26l","60ff4278d80ae9f23e25eb4b","fixation","img/fixation.png","null","","test","","","","","",""
"110","235020","pSARL_v2","pSARL_v204f7g26l","60ff4278d80ae9f23e25eb4b","freq","img/green_2bandit_a2.png","70","70","test","1","163","163","8","",""
"null","235718","pSARL_v2","pSARL_v204f7g26l","60ff4278d80ae9f23e25eb4b","freq_resp","img/green_2bandit_a.png","70","70","test","","","","8","",""
"null","235876","pSARL_v2","pSARL_v204f7g26l","60ff4278d80ae9f23e25eb4b","fixation","img/fixation.png","null","","test","","","","","",""
"83.59999999776483","235965","pSARL_v2","pSARL_v204f7g26l","60ff4278d80ae9f23e25eb4b","freq","img/green_2bandit_a2.png","70","70","test","1","164","164","8","",""
"null","236695","pSARL_v2","pSARL_v204f7g26l","60ff4278d80ae9f23e25eb4b","freq_resp","img/green_2bandit_a.png","70","70","test","","","","8","",""
"null","236858","pSARL_v2","pSARL_v204f7g26l","60ff4278d80ae9f23e25eb4b","fixation","img/fixation.png","null","","test","","","","","",""
"1.5999999977648258","236865","pSARL_v2","pSARL_v204f7g26l","60ff4278d80ae9f23e25eb4b","freq","img/green_2bandit_a2.png","70","70","test","1","165","165","8","",""
"null","237677","pSARL_v2","pSARL_v204f7g26l","60ff4278d80ae9f23e25eb4b","freq_resp","img/green_2bandit_a.png","70","70","test","","","","8","",""
"null","237836","pSARL_v2","pSARL_v204f7g26l","60ff4278d80ae9f23e25eb4b","fixation","img/fixation.png","null","","test","","","","","",""
"1.699999999254942","237843","pSARL_v2","pSARL_v204f7g26l","60ff4278d80ae9f23e25eb4b","freq","img/green_2bandit_a2.png","70","70","test","1","166","166","8","",""
"null","238652","pSARL_v2","pSARL_v204f7g26l","60ff4278d80ae9f23e25eb4b","freq_resp","img/green_2bandit_a.png","70","70","test","","","","8","",""
"null","238809","pSARL_v2","pSARL_v204f7g26l","60ff4278d80ae9f23e25eb4b","fixation","img/fixation.png","null","","test","","","","","",""
"287.9000000022352","239103","pSARL_v2","pSARL_v204f7g26l","60ff4278d80ae9f23e25eb4b","freq","img/green_2bandit_a2.png","70","70","test","1","167","167","8","",""
"null","239629","pSARL_v2","pSARL_v204f7g26l","60ff4278d80ae9f23e25eb4b","freq_resp","img/green_2bandit_a.png","70","70","test","","","","8","",""
"null","239793","pSARL_v2","pSARL_v204f7g26l","60ff4278d80ae9f23e25eb4b","fixation","img/fixation.png","null","","test","","","","","",""
"209.09999999776483","240008","pSARL_v2","pSARL_v204f7g26l","60ff4278d80ae9f23e25eb4b","freq","img/green_2bandit_a2.png","70","70","test","1","168","168","8","",""
"null","240607","pSARL_v2","pSARL_v204f7g26l","60ff4278d80ae9f23e25eb4b","freq_resp","img/green_2bandit_a.png","70","70","test","","","","8","",""
"null","240763","pSARL_v2","pSARL_v204f7g26l","60ff4278d80ae9f23e25eb4b","fixation","img/fixation.png","null","","test","","","","","",""
"48.80000000074506","240818","pSARL_v2","pSARL_v204f7g26l","60ff4278d80ae9f23e25eb4b","freq","img/green_2bandit_a2.png","70","70","test","1","169","169","8","",""
"null","241585","pSARL_v2","pSARL_v204f7g26l","60ff4278d80ae9f23e25eb4b","freq_resp","img/green_2bandit_a.png","70","70","test","","","","8","",""
"null","241748","pSARL_v2","pSARL_v204f7g26l","60ff4278d80ae9f23e25eb4b","fixation","img/fixation.png","null","","test","","","","","",""
"265.4000000022352","242019","pSARL_v2","pSARL_v204f7g26l","60ff4278d80ae9f23e25eb4b","freq","img/green_2bandit_a2.png","70","70","test","1","170","170","8","",""
"null","242565","pSARL_v2","pSARL_v204f7g26l","60ff4278d80ae9f23e25eb4b","freq_resp","img/green_2bandit_a.png","70","70","test","","","","8","",""
"null","242730","pSARL_v2","pSARL_v204f7g26l","60ff4278d80ae9f23e25eb4b","fixation","img/fixation.png","null","","test","","","","","",""
"113.30000000074506","242849","pSARL_v2","pSARL_v204f7g26l","60ff4278d80ae9f23e25eb4b","infreq","img/orange_2bandit_a2.png","70","68","test","0","171","171","8","",""
"null","243548","pSARL_v2","pSARL_v204f7g26l","60ff4278d80ae9f23e25eb4b","infreq_resp","img/orange_2bandit_a.png","70","68","test","","","","8","",""
"null","243707","pSARL_v2","pSARL_v204f7g26l","60ff4278d80ae9f23e25eb4b","fixation","img/fixation.png","null","","test","","","","","",""
"536.5","244248","pSARL_v2","pSARL_v204f7g26l","60ff4278d80ae9f23e25eb4b","freq","img/green_2bandit_a2.png","70","70","test","1","172","172","8","",""
"null","244525","pSARL_v2","pSARL_v204f7g26l","60ff4278d80ae9f23e25eb4b","freq_resp","img/green_2bandit_a.png","70","70","test","","","","8","",""
"null","244683","pSARL_v2","pSARL_v204f7g26l","60ff4278d80ae9f23e25eb4b","fixation","img/fixation.png","null","","test","","","","","",""
"247.89999999850988","244937","pSARL_v2","pSARL_v204f7g26l","60ff4278d80ae9f23e25eb4b","freq","img/green_2bandit_a2.png","70","70","test","1","173","173","8","",""
"null","245501","pSARL_v2","pSARL_v204f7g26l","60ff4278d80ae9f23e25eb4b","freq_resp","img/green_2bandit_a.png","70","70","test","","","","8","",""
"null","245658","pSARL_v2","pSARL_v204f7g26l","60ff4278d80ae9f23e25eb4b","fixation","img/fixation.png","null","","test","","","","","",""
"222.60000000149012","245887","pSARL_v2","pSARL_v204f7g26l","60ff4278d80ae9f23e25eb4b","freq","img/green_2bandit_a2.png","70","70","test","1","174","174","8","",""
"null","246474","pSARL_v2","pSARL_v204f7g26l","60ff4278d80ae9f23e25eb4b","freq_resp","img/green_2bandit_a.png","70","70","test","","","","8","",""
"null","246634","pSARL_v2","pSARL_v204f7g26l","60ff4278d80ae9f23e25eb4b","fixation","img/fixation.png","null","","test","","","","","",""
"179.30000000074506","246819","pSARL_v2","pSARL_v204f7g26l","60ff4278d80ae9f23e25eb4b","freq","img/green_2bandit_a2.png","70","70","test","1","175","175","8","",""
"null","247447","pSARL_v2","pSARL_v204f7g26l","60ff4278d80ae9f23e25eb4b","freq_resp","img/green_2bandit_a.png","70","70","test","","","","8","",""
"null","247606","pSARL_v2","pSARL_v204f7g26l","60ff4278d80ae9f23e25eb4b","fixation","img/fixation.png","null","","test","","","","","",""
"332.80000000074506","247945","pSARL_v2","pSARL_v204f7g26l","60ff4278d80ae9f23e25eb4b","freq","img/green_2bandit_a2.png","70","70","test","1","176","176","8","",""
"null","248421","pSARL_v2","pSARL_v204f7g26l","60ff4278d80ae9f23e25eb4b","freq_resp","img/green_2bandit_a.png","70","70","test","","","","8","",""
"null","248582","pSARL_v2","pSARL_v204f7g26l","60ff4278d80ae9f23e25eb4b","fixation","img/fixation.png","null","","test","","","","","",""
"1091.5","249679","pSARL_v2","pSARL_v204f7g26l","60ff4278d80ae9f23e25eb4b","reward","img/slot.png","74","","test","","","","","",""
"null","250443","pSARL_v2","pSARL_v204f7g26l","60ff4278d80ae9f23e25eb4b","points","<div class=""verylowPoints""> -4 </div>","null","na","test","","","","8","-4","7"
"375.30000000074506","250824","pSARL_v2","pSARL_v204f7g26l","60ff4278d80ae9f23e25eb4b","freq","img/green_2bandit_a2.png","70","70","test","1","177","177","9","",""
"null","251262","pSARL_v2","pSARL_v204f7g26l","60ff4278d80ae9f23e25eb4b","freq_resp","img/green_2bandit_a.png","70","70","test","","","","9","",""
"null","251423","pSARL_v2","pSARL_v204f7g26l","60ff4278d80ae9f23e25eb4b","fixation","img/fixation.png","null","","test","","","","","",""
"0.19999999925494194","251428","pSARL_v2","pSARL_v204f7g26l","60ff4278d80ae9f23e25eb4b","infreq","img/orange_2bandit_a2.png","70","68","test","0","178","178","9","",""
"null","252241","pSARL_v2","pSARL_v204f7g26l","60ff4278d80ae9f23e25eb4b","infreq_resp","img/orange_2bandit_a.png","70","68","test","","","","9","",""
"null","252400","pSARL_v2","pSARL_v204f7g26l","60ff4278d80ae9f23e25eb4b","fixation","img/fixation.png","null","","test","","","","","",""
"199.60000000149012","252606","pSARL_v2","pSARL_v204f7g26l","60ff4278d80ae9f23e25eb4b","freq","img/green_2bandit_a2.png","70","70","test","1","179","179","9","",""
"null","253217","pSARL_v2","pSARL_v204f7g26l","60ff4278d80ae9f23e25eb4b","freq_resp","img/green_2bandit_a.png","70","70","test","","","","9","",""
"null","253376","pSARL_v2","pSARL_v204f7g26l","60ff4278d80ae9f23e25eb4b","fixation","img/fixation.png","null","","test","","","","","",""
"64.19999999925494","253446","pSARL_v2","pSARL_v204f7g26l","60ff4278d80ae9f23e25eb4b","freq","img/green_2bandit_a2.png","70","70","test","1","180","180","9","",""
"null","254193","pSARL_v2","pSARL_v204f7g26l","60ff4278d80ae9f23e25eb4b","freq_resp","img/green_2bandit_a.png","70","70","test","","","","9","",""
"null","254353","pSARL_v2","pSARL_v204f7g26l","60ff4278d80ae9f23e25eb4b","fixation","img/fixation.png","null","","test","","","","","",""
"157.20000000298023","254517","pSARL_v2","pSARL_v204f7g26l","60ff4278d80ae9f23e25eb4b","freq","img/green_2bandit_a2.png","70","70","test","1","181","181","9","",""
"null","255167","pSARL_v2","pSARL_v204f7g26l","60ff4278d80ae9f23e25eb4b","freq_resp","img/green_2bandit_a.png","70","70","test","","","","9","",""
"null","255331","pSARL_v2","pSARL_v204f7g26l","60ff4278d80ae9f23e25eb4b","fixation","img/fixation.png","null","","test","","","","","",""
"8.199999999254942","255343","pSARL_v2","pSARL_v204f7g26l","60ff4278d80ae9f23e25eb4b","freq","img/green_2bandit_a2.png","70","70","test","1","182","182","9","",""
"null","256143","pSARL_v2","pSARL_v204f7g26l","60ff4278d80ae9f23e25eb4b","freq_resp","img/green_2bandit_a.png","70","70","test","","","","9","",""
"null","256307","pSARL_v2","pSARL_v204f7g26l","60ff4278d80ae9f23e25eb4b","fixation","img/fixation.png","null","","test","","","","","",""
"156.19999999925494","256469","pSARL_v2","pSARL_v204f7g26l","60ff4278d80ae9f23e25eb4b","infreq","img/orange_2bandit_a2.png","70","68","test","0","183","183","9","",""
"null","257122","pSARL_v2","pSARL_v204f7g26l","60ff4278d80ae9f23e25eb4b","infreq_resp","img/orange_2bandit_a.png","70","68","test","","","","9","",""
"null","257284","pSARL_v2","pSARL_v204f7g26l","60ff4278d80ae9f23e25eb4b","fixation","img/fixation.png","null","","test","","","","","",""
"321.20000000298023","257611","pSARL_v2","pSARL_v204f7g26l","60ff4278d80ae9f23e25eb4b","freq","img/green_2bandit_a2.png","70","70","test","1","184","184","9","",""
"null","258102","pSARL_v2","pSARL_v204f7g26l","60ff4278d80ae9f23e25eb4b","freq_resp","img/green_2bandit_a.png","70","70","test","","","","9","",""
"null","258266","pSARL_v2","pSARL_v204f7g26l","60ff4278d80ae9f23e25eb4b","fixation","img/fixation.png","null","","test","","","","","",""
"157","258429","pSARL_v2","pSARL_v204f7g26l","60ff4278d80ae9f23e25eb4b","freq","img/green_2bandit_a2.png","70","70","test","1","185","185","9","",""
"null","259080","pSARL_v2","pSARL_v204f7g26l","60ff4278d80ae9f23e25eb4b","freq_resp","img/green_2bandit_a.png","70","70","test","","","","9","",""
"null","259244","pSARL_v2","pSARL_v204f7g26l","60ff4278d80ae9f23e25eb4b","fixation","img/fixation.png","null","","test","","","","","",""
"83.79999999701977","259334","pSARL_v2","pSARL_v204f7g26l","60ff4278d80ae9f23e25eb4b","freq","img/green_2bandit_a2.png","70","70","test","1","186","186","9","",""
"null","260061","pSARL_v2","pSARL_v204f7g26l","60ff4278d80ae9f23e25eb4b","freq_resp","img/green_2bandit_a.png","70","70","test","","","","9","",""
"null","260225","pSARL_v2","pSARL_v204f7g26l","60ff4278d80ae9f23e25eb4b","fixation","img/fixation.png","null","","test","","","","","",""
"103.10000000149012","260335","pSARL_v2","pSARL_v204f7g26l","60ff4278d80ae9f23e25eb4b","freq","img/green_2bandit_a2.png","70","70","test","1","187","187","9","",""
"null","261045","pSARL_v2","pSARL_v204f7g26l","60ff4278d80ae9f23e25eb4b","freq_resp","img/green_2bandit_a.png","70","70","test","","","","9","",""
"null","261208","pSARL_v2","pSARL_v204f7g26l","60ff4278d80ae9f23e25eb4b","fixation","img/fixation.png","null","","test","","","","","",""
"263.69999999925494","261478","pSARL_v2","pSARL_v204f7g26l","60ff4278d80ae9f23e25eb4b","freq","img/green_2bandit_a2.png","70","70","test","1","188","188","9","",""
"null","262024","pSARL_v2","pSARL_v204f7g26l","60ff4278d80ae9f23e25eb4b","freq_resp","img/green_2bandit_a.png","70","70","test","","","","9","",""
"null","262182","pSARL_v2","pSARL_v204f7g26l","60ff4278d80ae9f23e25eb4b","fixation","img/fixation.png","null","","test","","","","","",""
"115","262304","pSARL_v2","pSARL_v204f7g26l","60ff4278d80ae9f23e25eb4b","freq","img/green_2bandit_a2.png","70","70","test","1","189","189","9","",""
"null","263001","pSARL_v2","pSARL_v204f7g26l","60ff4278d80ae9f23e25eb4b","freq_resp","img/green_2bandit_a.png","70","70","test","","","","9","",""
"null","263160","pSARL_v2","pSARL_v204f7g26l","60ff4278d80ae9f23e25eb4b","fixation","img/fixation.png","null","","test","","","","","",""
"107","263273","pSARL_v2","pSARL_v204f7g26l","60ff4278d80ae9f23e25eb4b","freq","img/green_2bandit_a2.png","70","70","test","1","190","190","9","",""
"null","263976","pSARL_v2","pSARL_v204f7g26l","60ff4278d80ae9f23e25eb4b","freq_resp","img/green_2bandit_a.png","70","70","test","","","","9","",""
"null","264136","pSARL_v2","pSARL_v204f7g26l","60ff4278d80ae9f23e25eb4b","fixation","img/fixation.png","null","","test","","","","","",""
"302.30000000074506","264445","pSARL_v2","pSARL_v204f7g26l","60ff4278d80ae9f23e25eb4b","freq","img/green_2bandit_a2.png","70","70","test","1","191","191","9","",""
"null","264955","pSARL_v2","pSARL_v204f7g26l","60ff4278d80ae9f23e25eb4b","freq_resp","img/green_2bandit_a.png","70","70","test","","","","9","",""
"null","265114","pSARL_v2","pSARL_v204f7g26l","60ff4278d80ae9f23e25eb4b","fixation","img/fixation.png","null","","test","","","","","",""
"124.5","265245","pSARL_v2","pSARL_v204f7g26l","60ff4278d80ae9f23e25eb4b","freq","img/green_2bandit_a2.png","70","70","test","1","192","192","9","",""
"null","265928","pSARL_v2","pSARL_v204f7g26l","60ff4278d80ae9f23e25eb4b","freq_resp","img/green_2bandit_a.png","70","70","test","","","","9","",""
"null","266092","pSARL_v2","pSARL_v204f7g26l","60ff4278d80ae9f23e25eb4b","fixation","img/fixation.png","null","","test","","","","","",""
"18.600000001490116","266116","pSARL_v2","pSARL_v204f7g26l","60ff4278d80ae9f23e25eb4b","freq","img/green_2bandit_a2.png","70","70","test","1","193","193","9","",""
"null","266911","pSARL_v2","pSARL_v204f7g26l","60ff4278d80ae9f23e25eb4b","freq_resp","img/green_2bandit_a.png","70","70","test","","","","9","",""
"null","267075","pSARL_v2","pSARL_v204f7g26l","60ff4278d80ae9f23e25eb4b","fixation","img/fixation.png","null","","test","","","","","",""
"246.60000000149012","267328","pSARL_v2","pSARL_v204f7g26l","60ff4278d80ae9f23e25eb4b","freq","img/green_2bandit_a2.png","70","70","test","1","194","194","9","",""
"null","267891","pSARL_v2","pSARL_v204f7g26l","60ff4278d80ae9f23e25eb4b","freq_resp","img/green_2bandit_a.png","70","70","test","","","","9","",""
"null","268055","pSARL_v2","pSARL_v204f7g26l","60ff4278d80ae9f23e25eb4b","fixation","img/fixation.png","null","","test","","","","","",""
"165.69999999925494","268227","pSARL_v2","pSARL_v204f7g26l","60ff4278d80ae9f23e25eb4b","freq","img/green_2bandit_a2.png","70","70","test","1","195","195","9","",""
"null","268872","pSARL_v2","pSARL_v204f7g26l","60ff4278d80ae9f23e25eb4b","freq_resp","img/green_2bandit_a.png","70","70","test","","","","9","",""
"null","269036","pSARL_v2","pSARL_v204f7g26l","60ff4278d80ae9f23e25eb4b","fixation","img/fixation.png","null","","test","","","","","",""
"83.69999999925494","269125","pSARL_v2","pSARL_v204f7g26l","60ff4278d80ae9f23e25eb4b","freq","img/green_2bandit_a2.png","70","70","test","1","196","196","9","",""
"null","269855","pSARL_v2","pSARL_v204f7g26l","60ff4278d80ae9f23e25eb4b","freq_resp","img/green_2bandit_a.png","70","70","test","","","","9","",""
"null","270017","pSARL_v2","pSARL_v204f7g26l","60ff4278d80ae9f23e25eb4b","fixation","img/fixation.png","null","","test","","","","","",""
"71.90000000223517","270094","pSARL_v2","pSARL_v204f7g26l","60ff4278d80ae9f23e25eb4b","freq","img/green_2bandit_a2.png","70","70","test","1","197","197","9","",""
"null","270833","pSARL_v2","pSARL_v204f7g26l","60ff4278d80ae9f23e25eb4b","freq_resp","img/green_2bandit_a.png","70","70","test","","","","9","",""
"null","270996","pSARL_v2","pSARL_v204f7g26l","60ff4278d80ae9f23e25eb4b","fixation","img/fixation.png","null","","test","","","","","",""
"203","271206","pSARL_v2","pSARL_v204f7g26l","60ff4278d80ae9f23e25eb4b","freq","img/green_2bandit_a2.png","70","70","test","1","198","198","9","",""
"null","271809","pSARL_v2","pSARL_v204f7g26l","60ff4278d80ae9f23e25eb4b","freq_resp","img/green_2bandit_a.png","70","70","test","","","","9","",""
"null","271968","pSARL_v2","pSARL_v204f7g26l","60ff4278d80ae9f23e25eb4b","fixation","img/fixation.png","null","","test","","","","","",""
"258.5999999977648","272231","pSARL_v2","pSARL_v204f7g26l","60ff4278d80ae9f23e25eb4b","freq","img/green_2bandit_a2.png","70","70","test","1","199","199","9","",""
"null","272782","pSARL_v2","pSARL_v204f7g26l","60ff4278d80ae9f23e25eb4b","freq_resp","img/green_2bandit_a.png","70","70","test","","","","9","",""
"null","272946","pSARL_v2","pSARL_v204f7g26l","60ff4278d80ae9f23e25eb4b","fixation","img/fixation.png","null","","test","","","","","",""
"254","273207","pSARL_v2","pSARL_v204f7g26l","60ff4278d80ae9f23e25eb4b","infreq","img/orange_2bandit_a2.png","70","68","test","0","200","200","9","",""
"null","273760","pSARL_v2","pSARL_v204f7g26l","60ff4278d80ae9f23e25eb4b","infreq_resp","img/orange_2bandit_a.png","70","68","test","","","","9","",""
"null","273918","pSARL_v2","pSARL_v204f7g26l","60ff4278d80ae9f23e25eb4b","fixation","img/fixation.png","null","","test","","","","","",""
"21.300000000745058","273946","pSARL_v2","pSARL_v204f7g26l","60ff4278d80ae9f23e25eb4b","freq","img/green_2bandit_a2.png","68","70","test","0","201","201","9","",""
"null","274738","pSARL_v2","pSARL_v204f7g26l","60ff4278d80ae9f23e25eb4b","freq_resp","img/green_2bandit_a.png","68","70","test","","","","9","",""
"null","274901","pSARL_v2","pSARL_v204f7g26l","60ff4278d80ae9f23e25eb4b","fixation","img/fixation.png","null","","test","","","","","",""
"185","275092","pSARL_v2","pSARL_v204f7g26l","60ff4278d80ae9f23e25eb4b","freq","img/green_2bandit_a2.png","70","70","test","1","202","202","9","",""
"null","275719","pSARL_v2","pSARL_v204f7g26l","60ff4278d80ae9f23e25eb4b","freq_resp","img/green_2bandit_a.png","70","70","test","","","","9","",""
"null","275877","pSARL_v2","pSARL_v204f7g26l","60ff4278d80ae9f23e25eb4b","fixation","img/fixation.png","null","","test","","","","","",""
"39.899999998509884","275923","pSARL_v2","pSARL_v204f7g26l","60ff4278d80ae9f23e25eb4b","freq","img/green_2bandit_a2.png","70","70","test","1","203","203","9","",""
"null","276692","pSARL_v2","pSARL_v204f7g26l","60ff4278d80ae9f23e25eb4b","freq_resp","img/green_2bandit_a.png","70","70","test","","","","9","",""
"null","276856","pSARL_v2","pSARL_v204f7g26l","60ff4278d80ae9f23e25eb4b","fixation","img/fixation.png","null","","test","","","","","",""
"791.6000000014901","277654","pSARL_v2","pSARL_v204f7g26l","60ff4278d80ae9f23e25eb4b","reward","img/slot.png","74","","test","","","","","",""
"null","278416","pSARL_v2","pSARL_v204f7g26l","60ff4278d80ae9f23e25eb4b","points","<div class=""verylowPoints""> -3 </div>","null","na","test","","","","9","-3","8"
"267.5","278689","pSARL_v2","pSARL_v204f7g26l","60ff4278d80ae9f23e25eb4b","freq","img/green_2bandit_a2.png","70","70","test","1","204","204","10","",""
"null","279233","pSARL_v2","pSARL_v204f7g26l","60ff4278d80ae9f23e25eb4b","freq_resp","img/green_2bandit_a.png","70","70","test","","","","10","",""
"null","279396","pSARL_v2","pSARL_v204f7g26l","60ff4278d80ae9f23e25eb4b","fixation","img/fixation.png","null","","test","","","","","",""
"98","279500","pSARL_v2","pSARL_v204f7g26l","60ff4278d80ae9f23e25eb4b","freq","img/green_2bandit_a2.png","70","70","test","1","205","205","10","",""
"null","280215","pSARL_v2","pSARL_v204f7g26l","60ff4278d80ae9f23e25eb4b","freq_resp","img/green_2bandit_a.png","70","70","test","","","","10","",""
"null","280372","pSARL_v2","pSARL_v204f7g26l","60ff4278d80ae9f23e25eb4b","fixation","img/fixation.png","null","","test","","","","","",""
"109.60000000149012","280488","pSARL_v2","pSARL_v204f7g26l","60ff4278d80ae9f23e25eb4b","infreq","img/orange_2bandit_a2.png","70","68","test","0","206","206","10","",""
"null","281190","pSARL_v2","pSARL_v204f7g26l","60ff4278d80ae9f23e25eb4b","infreq_resp","img/orange_2bandit_a.png","70","68","test","","","","10","",""
"null","281351","pSARL_v2","pSARL_v204f7g26l","60ff4278d80ae9f23e25eb4b","fixation","img/fixation.png","null","","test","","","","","",""
