"rt","time_elapsed","expId","subject","prolificID","trialType","stimulus","key_press","corrresp","phase","corr","trialNum","attentionRunNum","blockNum","points","rlNum"
"79442.19999999925","79487","pSARL_v2","pSARL_v263rw9puv","58509fbda6946500016117ed","","","","","","","","","","",""
"","83279","pSARL_v2","pSARL_v263rw9puv","58509fbda6946500016117ed","fullscreen","","","","","","","","","",""
"126198.90000000037","209497","pSARL_v2","pSARL_v263rw9puv","58509fbda6946500016117ed","","","","","","","","","","",""
"null","210324","pSARL_v2","pSARL_v263rw9puv","58509fbda6946500016117ed","freqPrac","img/green_2bandit_a2.png","null","70","prac","0","","","","",""
"null","211336","pSARL_v2","pSARL_v263rw9puv","58509fbda6946500016117ed","feedback","img/tooSlow.png","null","na","prac","","","","","",""
"null","211505","pSARL_v2","pSARL_v263rw9puv","58509fbda6946500016117ed","fixation","img/fixation.png","null","","prac","","","","","",""
"null","212322","pSARL_v2","pSARL_v263rw9puv","58509fbda6946500016117ed","infreqPrac","img/orange_2bandit_a2.png","null","68","prac","0","","","","",""
"null","213338","pSARL_v2","pSARL_v263rw9puv","58509fbda6946500016117ed","feedback","img/tooSlow.png","null","na","prac","","","","","",""
"null","213505","pSARL_v2","pSARL_v263rw9puv","58509fbda6946500016117ed","fixation","img/fixation.png","null","","prac","","","","","",""
"255.80000000074506","213777","pSARL_v2","pSARL_v263rw9puv","58509fbda6946500016117ed","freqPrac","img/green_2bandit_a2.png","70","70","prac","1","","","","",""
"255.80000000074506","214338","pSARL_v2","pSARL_v263rw9puv","58509fbda6946500016117ed","freqPrac_resp","img/green_2bandit_a.png","70","70","prac","","","","","",""
"null","214504","pSARL_v2","pSARL_v263rw9puv","58509fbda6946500016117ed","fixation","img/fixation.png","null","","prac","","","","","",""
"null","215321","pSARL_v2","pSARL_v263rw9puv","58509fbda6946500016117ed","infreqPrac","img/orange_2bandit_a2.png","null","68","prac","0","","","","",""
"null","216338","pSARL_v2","pSARL_v263rw9puv","58509fbda6946500016117ed","feedback","img/tooSlow.png","null","na","prac","","","","","",""
"null","216505","pSARL_v2","pSARL_v263rw9puv","58509fbda6946500016117ed","fixation","img/fixation.png","null","","prac","","","","","",""
"444.09999999962747","216965","pSARL_v2","pSARL_v263rw9puv","58509fbda6946500016117ed","infreqPrac","img/orange_2bandit_a2.png","68","68","prac","1","","","","",""
"444.09999999962747","217336","pSARL_v2","pSARL_v263rw9puv","58509fbda6946500016117ed","infreqPrac_resp","img/orange_2bandit_a.png","68","68","prac","","","","","",""
"null","217503","pSARL_v2","pSARL_v263rw9puv","58509fbda6946500016117ed","fixation","img/fixation.png","null","","prac","","","","","",""
"515","218035","pSARL_v2","pSARL_v263rw9puv","58509fbda6946500016117ed","infreqPrac","img/orange_2bandit_a2.png","68","68","prac","1","","","","",""
"515","218336","pSARL_v2","pSARL_v263rw9puv","58509fbda6946500016117ed","infreqPrac_resp","img/orange_2bandit_a.png","68","68","prac","","","","","",""
"null","218503","pSARL_v2","pSARL_v263rw9puv","58509fbda6946500016117ed","fixation","img/fixation.png","null","","prac","","","","","",""
"364.90000000037253","218884","pSARL_v2","pSARL_v263rw9puv","58509fbda6946500016117ed","freqPrac","img/green_2bandit_a2.png","70","70","prac","1","","","","",""
"364.90000000037253","219335","pSARL_v2","pSARL_v263rw9puv","58509fbda6946500016117ed","freqPrac_resp","img/green_2bandit_a.png","70","70","prac","","","","","",""
"null","219501","pSARL_v2","pSARL_v263rw9puv","58509fbda6946500016117ed","fixation","img/fixation.png","null","","prac","","","","","",""
"392.2999999988824","219910","pSARL_v2","pSARL_v263rw9puv","58509fbda6946500016117ed","infreqPrac","img/orange_2bandit_a2.png","68","68","prac","1","","","","",""
"392.2999999988824","220333","pSARL_v2","pSARL_v263rw9puv","58509fbda6946500016117ed","infreqPrac_resp","img/orange_2bandit_a.png","68","68","prac","","","","","",""
"null","220499","pSARL_v2","pSARL_v263rw9puv","58509fbda6946500016117ed","fixation","img/fixation.png","null","","prac","","","","","",""
"354.5","220875","pSARL_v2","pSARL_v263rw9puv","58509fbda6946500016117ed","freqPrac","img/green_2bandit_a2.png","70","70","prac","1","","","","",""
"354.5","221336","pSARL_v2","pSARL_v263rw9puv","58509fbda6946500016117ed","freqPrac_resp","img/green_2bandit_a.png","70","70","prac","","","","","",""
"null","221502","pSARL_v2","pSARL_v263rw9puv","58509fbda6946500016117ed","fixation","img/fixation.png","null","","prac","","","","","",""
"334.59999999962747","221854","pSARL_v2","pSARL_v263rw9puv","58509fbda6946500016117ed","freqPrac","img/green_2bandit_a2.png","70","70","prac","1","","","","",""
"334.59999999962747","222335","pSARL_v2","pSARL_v263rw9puv","58509fbda6946500016117ed","freqPrac_resp","img/green_2bandit_a.png","70","70","prac","","","","","",""
"null","222501","pSARL_v2","pSARL_v263rw9puv","58509fbda6946500016117ed","fixation","img/fixation.png","null","","prac","","","","","",""
"9547.300000000745","232063","pSARL_v2","pSARL_v263rw9puv","58509fbda6946500016117ed","","","","","prac","","","","","",""
"897.5","232973","pSARL_v2","pSARL_v263rw9puv","58509fbda6946500016117ed","rewardPractice","img/slot.png","74","","prac","","","","","",""
"null","233739","pSARL_v2","pSARL_v263rw9puv","58509fbda6946500016117ed","feedback","<div class=""veryhighPoints""> +15 </div>","null","na","prac","","","","","",""
"null","233906","pSARL_v2","pSARL_v263rw9puv","58509fbda6946500016117ed","fixation","img/fixation.png","null","","prac","","","","","",""
"8160.299999998882","242081","pSARL_v2","pSARL_v263rw9puv","58509fbda6946500016117ed","","","","","prac","","","","","",""
"569.4000000003725","242667","pSARL_v2","pSARL_v263rw9puv","58509fbda6946500016117ed","freq","img/green_2bandit_a2.png","70","70","test","1","1","1","1","",""
"null","242915","pSARL_v2","pSARL_v263rw9puv","58509fbda6946500016117ed","freq_resp","img/green_2bandit_a.png","70","70","test","","","","1","",""
"null","243083","pSARL_v2","pSARL_v263rw9puv","58509fbda6946500016117ed","fixation","img/fixation.png","null","","test","","","","","",""
"409.2999999988824","243509","pSARL_v2","pSARL_v263rw9puv","58509fbda6946500016117ed","infreq","img/orange_2bandit_a2.png","68","68","test","1","2","2","1","",""
"null","243916","pSARL_v2","pSARL_v263rw9puv","58509fbda6946500016117ed","infreq_resp","img/orange_2bandit_a.png","68","68","test","","","","1","",""
"null","244083","pSARL_v2","pSARL_v263rw9puv","58509fbda6946500016117ed","fixation","img/fixation.png","null","","test","","","","","",""
"314.7999999988824","244414","pSARL_v2","pSARL_v263rw9puv","58509fbda6946500016117ed","freq","img/green_2bandit_a2.png","70","70","test","1","3","3","1","",""
"null","244915","pSARL_v2","pSARL_v263rw9puv","58509fbda6946500016117ed","freq_resp","img/green_2bandit_a.png","70","70","test","","","","1","",""
"null","245081","pSARL_v2","pSARL_v263rw9puv","58509fbda6946500016117ed","fixation","img/fixation.png","null","","test","","","","","",""
"306.2000000011176","245404","pSARL_v2","pSARL_v263rw9puv","58509fbda6946500016117ed","freq","img/green_2bandit_a2.png","70","70","test","1","4","4","1","",""
"null","245913","pSARL_v2","pSARL_v263rw9puv","58509fbda6946500016117ed","freq_resp","img/green_2bandit_a.png","70","70","test","","","","1","",""
"null","246080","pSARL_v2","pSARL_v263rw9puv","58509fbda6946500016117ed","fixation","img/fixation.png","null","","test","","","","","",""
"297.09999999962747","246394","pSARL_v2","pSARL_v263rw9puv","58509fbda6946500016117ed","freq","img/green_2bandit_a2.png","70","70","test","1","5","5","1","",""
"null","246912","pSARL_v2","pSARL_v263rw9puv","58509fbda6946500016117ed","freq_resp","img/green_2bandit_a.png","70","70","test","","","","1","",""
"null","247078","pSARL_v2","pSARL_v263rw9puv","58509fbda6946500016117ed","fixation","img/fixation.png","null","","test","","","","","",""
"292.8999999985099","247388","pSARL_v2","pSARL_v263rw9puv","58509fbda6946500016117ed","freq","img/green_2bandit_a2.png","70","70","test","1","6","6","1","",""
"null","247911","pSARL_v2","pSARL_v263rw9puv","58509fbda6946500016117ed","freq_resp","img/green_2bandit_a.png","70","70","test","","","","1","",""
"null","248079","pSARL_v2","pSARL_v263rw9puv","58509fbda6946500016117ed","fixation","img/fixation.png","null","","test","","","","","",""
"333.7000000011176","248429","pSARL_v2","pSARL_v263rw9puv","58509fbda6946500016117ed","freq","img/green_2bandit_a2.png","70","70","test","1","7","7","1","",""
"null","248912","pSARL_v2","pSARL_v263rw9puv","58509fbda6946500016117ed","freq_resp","img/green_2bandit_a.png","70","70","test","","","","1","",""
"null","249078","pSARL_v2","pSARL_v263rw9puv","58509fbda6946500016117ed","fixation","img/fixation.png","null","","test","","","","","",""
"343.5","249438","pSARL_v2","pSARL_v263rw9puv","58509fbda6946500016117ed","freq","img/green_2bandit_a2.png","70","70","test","1","8","8","1","",""
"null","249910","pSARL_v2","pSARL_v263rw9puv","58509fbda6946500016117ed","freq_resp","img/green_2bandit_a.png","70","70","test","","","","1","",""
"null","250076","pSARL_v2","pSARL_v263rw9puv","58509fbda6946500016117ed","fixation","img/fixation.png","null","","test","","","","","",""
"309.2000000011176","250402","pSARL_v2","pSARL_v263rw9puv","58509fbda6946500016117ed","freq","img/green_2bandit_a2.png","70","70","test","1","9","9","1","",""
"null","250915","pSARL_v2","pSARL_v263rw9puv","58509fbda6946500016117ed","freq_resp","img/green_2bandit_a.png","70","70","test","","","","1","",""
"null","251077","pSARL_v2","pSARL_v263rw9puv","58509fbda6946500016117ed","fixation","img/fixation.png","null","","test","","","","","",""
"322.5","251416","pSARL_v2","pSARL_v263rw9puv","58509fbda6946500016117ed","freq","img/green_2bandit_a2.png","70","70","test","1","10","10","1","",""
"null","251910","pSARL_v2","pSARL_v263rw9puv","58509fbda6946500016117ed","freq_resp","img/green_2bandit_a.png","70","70","test","","","","1","",""
"null","252076","pSARL_v2","pSARL_v263rw9puv","58509fbda6946500016117ed","fixation","img/fixation.png","null","","test","","","","","",""
"418.7000000011176","252512","pSARL_v2","pSARL_v263rw9puv","58509fbda6946500016117ed","infreq","img/orange_2bandit_a2.png","68","68","test","1","11","11","1","",""
"null","252911","pSARL_v2","pSARL_v263rw9puv","58509fbda6946500016117ed","infreq_resp","img/orange_2bandit_a.png","68","68","test","","","","1","",""
"null","253073","pSARL_v2","pSARL_v263rw9puv","58509fbda6946500016117ed","fixation","img/fixation.png","null","","test","","","","","",""
"400.6000000014901","253486","pSARL_v2","pSARL_v263rw9puv","58509fbda6946500016117ed","freq","img/green_2bandit_a2.png","70","70","test","1","12","12","1","",""
"null","253901","pSARL_v2","pSARL_v263rw9puv","58509fbda6946500016117ed","freq_resp","img/green_2bandit_a.png","70","70","test","","","","1","",""
"null","254070","pSARL_v2","pSARL_v263rw9puv","58509fbda6946500016117ed","fixation","img/fixation.png","null","","test","","","","","",""
"376","254465","pSARL_v2","pSARL_v263rw9puv","58509fbda6946500016117ed","freq","img/green_2bandit_a2.png","70","70","test","1","13","13","1","",""
"null","254910","pSARL_v2","pSARL_v263rw9puv","58509fbda6946500016117ed","freq_resp","img/green_2bandit_a.png","70","70","test","","","","1","",""
"null","255076","pSARL_v2","pSARL_v263rw9puv","58509fbda6946500016117ed","fixation","img/fixation.png","null","","test","","","","","",""
"336.59999999962747","255424","pSARL_v2","pSARL_v263rw9puv","58509fbda6946500016117ed","freq","img/green_2bandit_a2.png","70","70","test","1","14","14","1","",""
"null","255903","pSARL_v2","pSARL_v263rw9puv","58509fbda6946500016117ed","freq_resp","img/green_2bandit_a.png","70","70","test","","","","1","",""
"null","256070","pSARL_v2","pSARL_v263rw9puv","58509fbda6946500016117ed","fixation","img/fixation.png","null","","test","","","","","",""
"303.7000000011176","256390","pSARL_v2","pSARL_v263rw9puv","58509fbda6946500016117ed","freq","img/green_2bandit_a2.png","70","70","test","1","15","15","1","",""
"null","256902","pSARL_v2","pSARL_v263rw9puv","58509fbda6946500016117ed","freq_resp","img/green_2bandit_a.png","70","70","test","","","","1","",""
"null","257068","pSARL_v2","pSARL_v263rw9puv","58509fbda6946500016117ed","fixation","img/fixation.png","null","","test","","","","","",""
"279.7000000011176","257363","pSARL_v2","pSARL_v263rw9puv","58509fbda6946500016117ed","freq","img/green_2bandit_a2.png","70","70","test","1","16","16","1","",""
"null","257899","pSARL_v2","pSARL_v263rw9puv","58509fbda6946500016117ed","freq_resp","img/green_2bandit_a.png","70","70","test","","","","1","",""
"null","258065","pSARL_v2","pSARL_v263rw9puv","58509fbda6946500016117ed","fixation","img/fixation.png","null","","test","","","","","",""
"285.5","258364","pSARL_v2","pSARL_v263rw9puv","58509fbda6946500016117ed","freq","img/green_2bandit_a2.png","70","70","test","1","17","17","1","",""
"null","258894","pSARL_v2","pSARL_v263rw9puv","58509fbda6946500016117ed","freq_resp","img/green_2bandit_a.png","70","70","test","","","","1","",""
"null","259060","pSARL_v2","pSARL_v263rw9puv","58509fbda6946500016117ed","fixation","img/fixation.png","null","","test","","","","","",""
"291.5","259369","pSARL_v2","pSARL_v263rw9puv","58509fbda6946500016117ed","freq","img/green_2bandit_a2.png","70","70","test","1","18","18","1","",""
"null","259893","pSARL_v2","pSARL_v263rw9puv","58509fbda6946500016117ed","freq_resp","img/green_2bandit_a.png","70","70","test","","","","1","",""
"null","260059","pSARL_v2","pSARL_v263rw9puv","58509fbda6946500016117ed","fixation","img/fixation.png","null","","test","","","","","",""
"347.30000000074506","260424","pSARL_v2","pSARL_v263rw9puv","58509fbda6946500016117ed","freq","img/green_2bandit_a2.png","70","70","test","1","19","19","1","",""
"null","260892","pSARL_v2","pSARL_v263rw9puv","58509fbda6946500016117ed","freq_resp","img/green_2bandit_a.png","70","70","test","","","","1","",""
"null","261058","pSARL_v2","pSARL_v263rw9puv","58509fbda6946500016117ed","fixation","img/fixation.png","null","","test","","","","","",""
"177.80000000074506","261263","pSARL_v2","pSARL_v263rw9puv","58509fbda6946500016117ed","freq","img/green_2bandit_a2.png","70","70","test","1","20","20","1","",""
"null","261900","pSARL_v2","pSARL_v263rw9puv","58509fbda6946500016117ed","freq_resp","img/green_2bandit_a.png","70","70","test","","","","1","",""
"null","262063","pSARL_v2","pSARL_v263rw9puv","58509fbda6946500016117ed","fixation","img/fixation.png","null","","test","","","","","",""
"353.80000000074506","262432","pSARL_v2","pSARL_v263rw9puv","58509fbda6946500016117ed","freq","img/green_2bandit_a2.png","70","70","test","1","21","21","1","",""
"null","262895","pSARL_v2","pSARL_v263rw9puv","58509fbda6946500016117ed","freq_resp","img/green_2bandit_a.png","70","70","test","","","","1","",""
"null","263061","pSARL_v2","pSARL_v263rw9puv","58509fbda6946500016117ed","fixation","img/fixation.png","null","","test","","","","","",""
"281.69999999925494","263359","pSARL_v2","pSARL_v263rw9puv","58509fbda6946500016117ed","freq","img/green_2bandit_a2.png","70","70","test","1","22","22","1","",""
"null","263893","pSARL_v2","pSARL_v263rw9puv","58509fbda6946500016117ed","freq_resp","img/green_2bandit_a.png","70","70","test","","","","1","",""
"null","264059","pSARL_v2","pSARL_v263rw9puv","58509fbda6946500016117ed","fixation","img/fixation.png","null","","test","","","","","",""
"290.5","264366","pSARL_v2","pSARL_v263rw9puv","58509fbda6946500016117ed","freq","img/green_2bandit_a2.png","70","70","test","1","23","23","1","",""
"null","264893","pSARL_v2","pSARL_v263rw9puv","58509fbda6946500016117ed","freq_resp","img/green_2bandit_a.png","70","70","test","","","","1","",""
"null","265059","pSARL_v2","pSARL_v263rw9puv","58509fbda6946500016117ed","fixation","img/fixation.png","null","","test","","","","","",""
"291","265366","pSARL_v2","pSARL_v263rw9puv","58509fbda6946500016117ed","freq","img/green_2bandit_a2.png","70","70","test","1","24","24","1","",""
"null","265892","pSARL_v2","pSARL_v263rw9puv","58509fbda6946500016117ed","freq_resp","img/green_2bandit_a.png","70","70","test","","","","1","",""
"null","266058","pSARL_v2","pSARL_v263rw9puv","58509fbda6946500016117ed","fixation","img/fixation.png","null","","test","","","","","",""
"307.2999999988824","266381","pSARL_v2","pSARL_v263rw9puv","58509fbda6946500016117ed","freq","img/green_2bandit_a2.png","70","70","test","1","25","25","1","",""
"null","266890","pSARL_v2","pSARL_v263rw9puv","58509fbda6946500016117ed","freq_resp","img/green_2bandit_a.png","70","70","test","","","","1","",""
"null","267055","pSARL_v2","pSARL_v263rw9puv","58509fbda6946500016117ed","fixation","img/fixation.png","null","","test","","","","","",""
"303.2000000011176","267375","pSARL_v2","pSARL_v263rw9puv","58509fbda6946500016117ed","freq","img/green_2bandit_a2.png","70","70","test","1","26","26","1","",""
"null","267887","pSARL_v2","pSARL_v263rw9puv","58509fbda6946500016117ed","freq_resp","img/green_2bandit_a.png","70","70","test","","","","1","",""
"null","268057","pSARL_v2","pSARL_v263rw9puv","58509fbda6946500016117ed","fixation","img/fixation.png","null","","test","","","","","",""
"1071.5","269145","pSARL_v2","pSARL_v263rw9puv","58509fbda6946500016117ed","reward","img/slot.png","74","","test","","","","","",""
"null","269912","pSARL_v2","pSARL_v263rw9puv","58509fbda6946500016117ed","points","<div class=""verylowPoints""> -6 </div>","null","na","test","","","","1","-6","0"
"491.5","270420","pSARL_v2","pSARL_v263rw9puv","58509fbda6946500016117ed","freq","img/green_2bandit_a2.png","70","70","test","1","27","27","2","",""
"null","270744","pSARL_v2","pSARL_v263rw9puv","58509fbda6946500016117ed","freq_resp","img/green_2bandit_a.png","70","70","test","","","","2","",""
"null","270910","pSARL_v2","pSARL_v263rw9puv","58509fbda6946500016117ed","fixation","img/fixation.png","null","","test","","","","","",""
"407.7000000011176","271334","pSARL_v2","pSARL_v263rw9puv","58509fbda6946500016117ed","freq","img/green_2bandit_a2.png","70","70","test","1","28","28","2","",""
"null","271743","pSARL_v2","pSARL_v263rw9puv","58509fbda6946500016117ed","freq_resp","img/green_2bandit_a.png","70","70","test","","","","2","",""
"null","271909","pSARL_v2","pSARL_v263rw9puv","58509fbda6946500016117ed","fixation","img/fixation.png","null","","test","","","","","",""
"462.59999999962747","272388","pSARL_v2","pSARL_v263rw9puv","58509fbda6946500016117ed","infreq","img/orange_2bandit_a2.png","68","68","test","1","29","29","2","",""
"null","272742","pSARL_v2","pSARL_v263rw9puv","58509fbda6946500016117ed","infreq_resp","img/orange_2bandit_a.png","68","68","test","","","","2","",""
"null","272908","pSARL_v2","pSARL_v263rw9puv","58509fbda6946500016117ed","fixation","img/fixation.png","null","","test","","","","","",""
"499.09999999962747","273423","pSARL_v2","pSARL_v263rw9puv","58509fbda6946500016117ed","freq","img/green_2bandit_a2.png","70","70","test","1","30","30","2","",""
"null","273740","pSARL_v2","pSARL_v263rw9puv","58509fbda6946500016117ed","freq_resp","img/green_2bandit_a.png","70","70","test","","","","2","",""
"null","273923","pSARL_v2","pSARL_v263rw9puv","58509fbda6946500016117ed","fixation","img/fixation.png","null","","test","","","","","",""
"369.3999999985099","274308","pSARL_v2","pSARL_v263rw9puv","58509fbda6946500016117ed","freq","img/green_2bandit_a2.png","70","70","test","1","31","31","2","",""
"null","274749","pSARL_v2","pSARL_v263rw9puv","58509fbda6946500016117ed","freq_resp","img/green_2bandit_a.png","70","70","test","","","","2","",""
"null","274910","pSARL_v2","pSARL_v263rw9puv","58509fbda6946500016117ed","fixation","img/fixation.png","null","","test","","","","","",""
"330.80000000074506","275254","pSARL_v2","pSARL_v263rw9puv","58509fbda6946500016117ed","freq","img/green_2bandit_a2.png","70","70","test","1","32","32","2","",""
"null","275742","pSARL_v2","pSARL_v263rw9puv","58509fbda6946500016117ed","freq_resp","img/green_2bandit_a.png","70","70","test","","","","2","",""
"null","275902","pSARL_v2","pSARL_v263rw9puv","58509fbda6946500016117ed","fixation","img/fixation.png","null","","test","","","","","",""
"323.59999999962747","276240","pSARL_v2","pSARL_v263rw9puv","58509fbda6946500016117ed","freq","img/green_2bandit_a2.png","70","70","test","1","33","33","2","",""
"null","276729","pSARL_v2","pSARL_v263rw9puv","58509fbda6946500016117ed","freq_resp","img/green_2bandit_a.png","70","70","test","","","","2","",""
"null","276894","pSARL_v2","pSARL_v263rw9puv","58509fbda6946500016117ed","fixation","img/fixation.png","null","","test","","","","","",""
"361.09999999962747","277272","pSARL_v2","pSARL_v263rw9puv","58509fbda6946500016117ed","freq","img/green_2bandit_a2.png","70","70","test","1","34","34","2","",""
"null","277727","pSARL_v2","pSARL_v263rw9puv","58509fbda6946500016117ed","freq_resp","img/green_2bandit_a.png","70","70","test","","","","2","",""
"null","277894","pSARL_v2","pSARL_v263rw9puv","58509fbda6946500016117ed","fixation","img/fixation.png","null","","test","","","","","",""
"347.09999999962747","278258","pSARL_v2","pSARL_v263rw9puv","58509fbda6946500016117ed","freq","img/green_2bandit_a2.png","70","70","test","1","35","35","2","",""
"null","278728","pSARL_v2","pSARL_v263rw9puv","58509fbda6946500016117ed","freq_resp","img/green_2bandit_a.png","70","70","test","","","","2","",""
"null","278895","pSARL_v2","pSARL_v263rw9puv","58509fbda6946500016117ed","fixation","img/fixation.png","null","","test","","","","","",""
"375.09999999962747","279287","pSARL_v2","pSARL_v263rw9puv","58509fbda6946500016117ed","freq","img/green_2bandit_a2.png","70","70","test","1","36","36","2","",""
"null","279727","pSARL_v2","pSARL_v263rw9puv","58509fbda6946500016117ed","freq_resp","img/green_2bandit_a.png","70","70","test","","","","2","",""
"null","279893","pSARL_v2","pSARL_v263rw9puv","58509fbda6946500016117ed","fixation","img/fixation.png","null","","test","","","","","",""
"245.2000000011176","280155","pSARL_v2","pSARL_v263rw9puv","58509fbda6946500016117ed","freq","img/green_2bandit_a2.png","70","70","test","1","37","37","2","",""
"null","280726","pSARL_v2","pSARL_v263rw9puv","58509fbda6946500016117ed","freq_resp","img/green_2bandit_a.png","70","70","test","","","","2","",""
"null","280892","pSARL_v2","pSARL_v263rw9puv","58509fbda6946500016117ed","fixation","img/fixation.png","null","","test","","","","","",""
"271.2000000011176","281179","pSARL_v2","pSARL_v263rw9puv","58509fbda6946500016117ed","freq","img/green_2bandit_a2.png","70","70","test","1","38","38","2","",""
"null","281725","pSARL_v2","pSARL_v263rw9puv","58509fbda6946500016117ed","freq_resp","img/green_2bandit_a.png","70","70","test","","","","2","",""
"null","281891","pSARL_v2","pSARL_v263rw9puv","58509fbda6946500016117ed","fixation","img/fixation.png","null","","test","","","","","",""
"591.6999999992549","282499","pSARL_v2","pSARL_v263rw9puv","58509fbda6946500016117ed","infreq","img/orange_2bandit_a2.png","68","68","test","1","39","39","2","",""
"null","282719","pSARL_v2","pSARL_v263rw9puv","58509fbda6946500016117ed","infreq_resp","img/orange_2bandit_a.png","68","68","test","","","","2","",""
"null","282885","pSARL_v2","pSARL_v263rw9puv","58509fbda6946500016117ed","fixation","img/fixation.png","null","","test","","","","","",""
"408.90000000037253","283310","pSARL_v2","pSARL_v263rw9puv","58509fbda6946500016117ed","freq","img/green_2bandit_a2.png","70","70","test","1","40","40","2","",""
"null","283717","pSARL_v2","pSARL_v263rw9puv","58509fbda6946500016117ed","freq_resp","img/green_2bandit_a.png","70","70","test","","","","2","",""
"null","283884","pSARL_v2","pSARL_v263rw9puv","58509fbda6946500016117ed","fixation","img/fixation.png","null","","test","","","","","",""
"449.59999999962747","284351","pSARL_v2","pSARL_v263rw9puv","58509fbda6946500016117ed","freq","img/green_2bandit_a2.png","70","70","test","1","41","41","2","",""
"null","284717","pSARL_v2","pSARL_v263rw9puv","58509fbda6946500016117ed","freq_resp","img/green_2bandit_a.png","70","70","test","","","","2","",""
"null","284883","pSARL_v2","pSARL_v263rw9puv","58509fbda6946500016117ed","fixation","img/fixation.png","null","","test","","","","","",""
"368.8999999985099","285269","pSARL_v2","pSARL_v263rw9puv","58509fbda6946500016117ed","freq","img/green_2bandit_a2.png","70","70","test","1","42","42","2","",""
"null","285716","pSARL_v2","pSARL_v263rw9puv","58509fbda6946500016117ed","freq_resp","img/green_2bandit_a.png","70","70","test","","","","2","",""
"null","285882","pSARL_v2","pSARL_v263rw9puv","58509fbda6946500016117ed","fixation","img/fixation.png","null","","test","","","","","",""
"318.40000000037253","286218","pSARL_v2","pSARL_v263rw9puv","58509fbda6946500016117ed","freq","img/green_2bandit_a2.png","70","70","test","1","43","43","2","",""
"null","286716","pSARL_v2","pSARL_v263rw9puv","58509fbda6946500016117ed","freq_resp","img/green_2bandit_a.png","70","70","test","","","","2","",""
"null","286882","pSARL_v2","pSARL_v263rw9puv","58509fbda6946500016117ed","fixation","img/fixation.png","null","","test","","","","","",""
"313.5","287213","pSARL_v2","pSARL_v263rw9puv","58509fbda6946500016117ed","freq","img/green_2bandit_a2.png","70","70","test","1","44","44","2","",""
"null","287715","pSARL_v2","pSARL_v263rw9puv","58509fbda6946500016117ed","freq_resp","img/green_2bandit_a.png","70","70","test","","","","2","",""
"null","287882","pSARL_v2","pSARL_v263rw9puv","58509fbda6946500016117ed","fixation","img/fixation.png","null","","test","","","","","",""
"308.2000000011176","288206","pSARL_v2","pSARL_v263rw9puv","58509fbda6946500016117ed","freq","img/green_2bandit_a2.png","70","70","test","1","45","45","2","",""
"null","288714","pSARL_v2","pSARL_v263rw9puv","58509fbda6946500016117ed","freq_resp","img/green_2bandit_a.png","70","70","test","","","","2","",""
"null","288880","pSARL_v2","pSARL_v263rw9puv","58509fbda6946500016117ed","fixation","img/fixation.png","null","","test","","","","","",""
"514.5","289411","pSARL_v2","pSARL_v263rw9puv","58509fbda6946500016117ed","reward","img/slot.png","74","","test","","","","","",""
"null","290177","pSARL_v2","pSARL_v263rw9puv","58509fbda6946500016117ed","points","<div class=""verylowPoints""> -11 </div>","null","na","test","","","","2","-11","1"
"456.80000000074506","290651","pSARL_v2","pSARL_v263rw9puv","58509fbda6946500016117ed","freq","img/green_2bandit_a2.png","70","70","test","1","46","46","3","",""
"null","291011","pSARL_v2","pSARL_v263rw9puv","58509fbda6946500016117ed","freq_resp","img/green_2bandit_a.png","70","70","test","","","","3","",""
"null","291177","pSARL_v2","pSARL_v263rw9puv","58509fbda6946500016117ed","fixation","img/fixation.png","null","","test","","","","","",""
"532.0999999996275","291725","pSARL_v2","pSARL_v263rw9puv","58509fbda6946500016117ed","freq","img/green_2bandit_a2.png","70","70","test","1","47","47","3","",""
"null","292009","pSARL_v2","pSARL_v263rw9puv","58509fbda6946500016117ed","freq_resp","img/green_2bandit_a.png","70","70","test","","","","3","",""
"null","292175","pSARL_v2","pSARL_v263rw9puv","58509fbda6946500016117ed","fixation","img/fixation.png","null","","test","","","","","",""
"337.8999999985099","292530","pSARL_v2","pSARL_v263rw9puv","58509fbda6946500016117ed","freq","img/green_2bandit_a2.png","70","70","test","1","48","48","3","",""
"null","293005","pSARL_v2","pSARL_v263rw9puv","58509fbda6946500016117ed","freq_resp","img/green_2bandit_a.png","70","70","test","","","","3","",""
"null","293170","pSARL_v2","pSARL_v263rw9puv","58509fbda6946500016117ed","fixation","img/fixation.png","null","","test","","","","","",""
"312.40000000037253","293499","pSARL_v2","pSARL_v263rw9puv","58509fbda6946500016117ed","freq","img/green_2bandit_a2.png","70","70","test","1","49","49","3","",""
"null","294001","pSARL_v2","pSARL_v263rw9puv","58509fbda6946500016117ed","freq_resp","img/green_2bandit_a.png","70","70","test","","","","3","",""
"null","294167","pSARL_v2","pSARL_v263rw9puv","58509fbda6946500016117ed","fixation","img/fixation.png","null","","test","","","","","",""
"370.7999999988824","294554","pSARL_v2","pSARL_v263rw9puv","58509fbda6946500016117ed","freq","img/green_2bandit_a2.png","70","70","test","1","50","50","3","",""
"null","295005","pSARL_v2","pSARL_v263rw9puv","58509fbda6946500016117ed","freq_resp","img/green_2bandit_a.png","70","70","test","","","","3","",""
"null","295171","pSARL_v2","pSARL_v263rw9puv","58509fbda6946500016117ed","fixation","img/fixation.png","null","","test","","","","","",""
"360.19999999925494","295548","pSARL_v2","pSARL_v263rw9puv","58509fbda6946500016117ed","freq","img/green_2bandit_a2.png","70","70","test","1","51","51","3","",""
"null","296006","pSARL_v2","pSARL_v263rw9puv","58509fbda6946500016117ed","freq_resp","img/green_2bandit_a.png","70","70","test","","","","3","",""
"null","296173","pSARL_v2","pSARL_v263rw9puv","58509fbda6946500016117ed","fixation","img/fixation.png","null","","test","","","","","",""
"368.5","296558","pSARL_v2","pSARL_v263rw9puv","58509fbda6946500016117ed","freq","img/green_2bandit_a2.png","70","70","test","1","52","52","3","",""
"null","297006","pSARL_v2","pSARL_v263rw9puv","58509fbda6946500016117ed","freq_resp","img/green_2bandit_a.png","70","70","test","","","","3","",""
"null","297172","pSARL_v2","pSARL_v263rw9puv","58509fbda6946500016117ed","fixation","img/fixation.png","null","","test","","","","","",""
"344.5","297533","pSARL_v2","pSARL_v263rw9puv","58509fbda6946500016117ed","freq","img/green_2bandit_a2.png","70","70","test","1","53","53","3","",""
"null","298003","pSARL_v2","pSARL_v263rw9puv","58509fbda6946500016117ed","freq_resp","img/green_2bandit_a.png","70","70","test","","","","3","",""
"null","298166","pSARL_v2","pSARL_v263rw9puv","58509fbda6946500016117ed","fixation","img/fixation.png","null","","test","","","","","",""
"353.19999999925494","298540","pSARL_v2","pSARL_v263rw9puv","58509fbda6946500016117ed","freq","img/green_2bandit_a2.png","70","70","test","1","54","54","3","",""
"null","299001","pSARL_v2","pSARL_v263rw9puv","58509fbda6946500016117ed","freq_resp","img/green_2bandit_a.png","70","70","test","","","","3","",""
"null","299164","pSARL_v2","pSARL_v263rw9puv","58509fbda6946500016117ed","fixation","img/fixation.png","null","","test","","","","","",""
"341.30000000074506","299523","pSARL_v2","pSARL_v263rw9puv","58509fbda6946500016117ed","freq","img/green_2bandit_a2.png","70","70","test","1","55","55","3","",""
"null","299993","pSARL_v2","pSARL_v263rw9puv","58509fbda6946500016117ed","freq_resp","img/green_2bandit_a.png","70","70","test","","","","3","",""
"null","300165","pSARL_v2","pSARL_v263rw9puv","58509fbda6946500016117ed","fixation","img/fixation.png","null","","test","","","","","",""
"449.5","300631","pSARL_v2","pSARL_v263rw9puv","58509fbda6946500016117ed","infreq","img/orange_2bandit_a2.png","68","68","test","1","56","56","3","",""
"null","300997","pSARL_v2","pSARL_v263rw9puv","58509fbda6946500016117ed","infreq_resp","img/orange_2bandit_a.png","68","68","test","","","","3","",""
"null","301163","pSARL_v2","pSARL_v263rw9puv","58509fbda6946500016117ed","fixation","img/fixation.png","null","","test","","","","","",""
"370.7999999988824","301550","pSARL_v2","pSARL_v263rw9puv","58509fbda6946500016117ed","freq","img/green_2bandit_a2.png","70","70","test","1","57","57","3","",""
"null","301997","pSARL_v2","pSARL_v263rw9puv","58509fbda6946500016117ed","freq_resp","img/green_2bandit_a.png","70","70","test","","","","3","",""
"null","302162","pSARL_v2","pSARL_v263rw9puv","58509fbda6946500016117ed","fixation","img/fixation.png","null","","test","","","","","",""
"396.59999999962747","302576","pSARL_v2","pSARL_v263rw9puv","58509fbda6946500016117ed","freq","img/green_2bandit_a2.png","70","70","test","1","58","58","3","",""
"null","303000","pSARL_v2","pSARL_v263rw9puv","58509fbda6946500016117ed","freq_resp","img/green_2bandit_a.png","70","70","test","","","","3","",""
"null","303165","pSARL_v2","pSARL_v263rw9puv","58509fbda6946500016117ed","fixation","img/fixation.png","null","","test","","","","","",""
"307.3999999985099","303489","pSARL_v2","pSARL_v263rw9puv","58509fbda6946500016117ed","freq","img/green_2bandit_a2.png","70","70","test","1","59","59","3","",""
"null","303999","pSARL_v2","pSARL_v263rw9puv","58509fbda6946500016117ed","freq_resp","img/green_2bandit_a.png","70","70","test","","","","3","",""
"null","304164","pSARL_v2","pSARL_v263rw9puv","58509fbda6946500016117ed","fixation","img/fixation.png","null","","test","","","","","",""
"407.8999999985099","304589","pSARL_v2","pSARL_v263rw9puv","58509fbda6946500016117ed","freq","img/green_2bandit_a2.png","70","70","test","1","60","60","3","",""
"null","305001","pSARL_v2","pSARL_v263rw9puv","58509fbda6946500016117ed","freq_resp","img/green_2bandit_a.png","70","70","test","","","","3","",""
"null","305167","pSARL_v2","pSARL_v263rw9puv","58509fbda6946500016117ed","fixation","img/fixation.png","null","","test","","","","","",""
"null","305985","pSARL_v2","pSARL_v263rw9puv","58509fbda6946500016117ed","infreq","img/orange_2bandit_a2.png","null","68","test","0","61","61","3","",""
"null","306152","pSARL_v2","pSARL_v263rw9puv","58509fbda6946500016117ed","fixation","img/fixation.png","null","","test","","","","","",""
"null","306968","pSARL_v2","pSARL_v263rw9puv","58509fbda6946500016117ed","freq","img/green_2bandit_a2.png","null","70","test","0","62","62","3","",""
"null","307135","pSARL_v2","pSARL_v263rw9puv","58509fbda6946500016117ed","fixation","img/fixation.png","null","","test","","","","","",""
"420.59999999962747","307572","pSARL_v2","pSARL_v263rw9puv","58509fbda6946500016117ed","freq","img/green_2bandit_a2.png","70","70","test","1","63","63","3","",""
"null","307968","pSARL_v2","pSARL_v263rw9puv","58509fbda6946500016117ed","freq_resp","img/green_2bandit_a.png","70","70","test","","","","3","",""
"null","308133","pSARL_v2","pSARL_v263rw9puv","58509fbda6946500016117ed","fixation","img/fixation.png","null","","test","","","","","",""
"427.40000000037253","308577","pSARL_v2","pSARL_v263rw9puv","58509fbda6946500016117ed","freq","img/green_2bandit_a2.png","70","70","test","1","64","64","3","",""
"null","308966","pSARL_v2","pSARL_v263rw9puv","58509fbda6946500016117ed","freq_resp","img/green_2bandit_a.png","70","70","test","","","","3","",""
"null","309133","pSARL_v2","pSARL_v263rw9puv","58509fbda6946500016117ed","fixation","img/fixation.png","null","","test","","","","","",""
"411.69999999925494","309564","pSARL_v2","pSARL_v263rw9puv","58509fbda6946500016117ed","freq","img/green_2bandit_a2.png","70","70","test","1","65","65","3","",""
"null","309968","pSARL_v2","pSARL_v263rw9puv","58509fbda6946500016117ed","freq_resp","img/green_2bandit_a.png","70","70","test","","","","3","",""
"null","310134","pSARL_v2","pSARL_v263rw9puv","58509fbda6946500016117ed","fixation","img/fixation.png","null","","test","","","","","",""
"394.69999999925494","310546","pSARL_v2","pSARL_v263rw9puv","58509fbda6946500016117ed","freq","img/green_2bandit_a2.png","70","70","test","1","66","66","3","",""
"null","310967","pSARL_v2","pSARL_v263rw9puv","58509fbda6946500016117ed","freq_resp","img/green_2bandit_a.png","70","70","test","","","","3","",""
"null","311133","pSARL_v2","pSARL_v263rw9puv","58509fbda6946500016117ed","fixation","img/fixation.png","null","","test","","","","","",""
"350.59999999962747","311500","pSARL_v2","pSARL_v263rw9puv","58509fbda6946500016117ed","freq","img/green_2bandit_a2.png","70","70","test","1","67","67","3","",""
"null","311966","pSARL_v2","pSARL_v263rw9puv","58509fbda6946500016117ed","freq_resp","img/green_2bandit_a.png","70","70","test","","","","3","",""
"null","312132","pSARL_v2","pSARL_v263rw9puv","58509fbda6946500016117ed","fixation","img/fixation.png","null","","test","","","","","",""
"316.09999999962747","312465","pSARL_v2","pSARL_v263rw9puv","58509fbda6946500016117ed","freq","img/green_2bandit_a2.png","70","70","test","1","68","68","3","",""
"null","312959","pSARL_v2","pSARL_v263rw9puv","58509fbda6946500016117ed","freq_resp","img/green_2bandit_a.png","70","70","test","","","","3","",""
"null","313126","pSARL_v2","pSARL_v263rw9puv","58509fbda6946500016117ed","fixation","img/fixation.png","null","","test","","","","","",""
"750.8999999985099","313894","pSARL_v2","pSARL_v263rw9puv","58509fbda6946500016117ed","infreq","img/orange_2bandit_a2.png","68","68","test","1","69","69","3","",""
"null","313958","pSARL_v2","pSARL_v263rw9puv","58509fbda6946500016117ed","infreq_resp","img/orange_2bandit_a.png","68","68","test","","","","3","",""
"null","314121","pSARL_v2","pSARL_v263rw9puv","58509fbda6946500016117ed","fixation","img/fixation.png","null","","test","","","","","",""
"482.09999999962747","314619","pSARL_v2","pSARL_v263rw9puv","58509fbda6946500016117ed","freq","img/green_2bandit_a2.png","70","70","test","1","70","70","3","",""
"null","314953","pSARL_v2","pSARL_v263rw9puv","58509fbda6946500016117ed","freq_resp","img/green_2bandit_a.png","70","70","test","","","","3","",""
"null","315119","pSARL_v2","pSARL_v263rw9puv","58509fbda6946500016117ed","fixation","img/fixation.png","null","","test","","","","","",""
"437.19999999925494","315573","pSARL_v2","pSARL_v263rw9puv","58509fbda6946500016117ed","reward","img/slot.png","74","","test","","","","","",""
"null","316339","pSARL_v2","pSARL_v263rw9puv","58509fbda6946500016117ed","points","<div class=""verylowPoints""> -7 </div>","null","na","test","","","","3","-7","2"
"440.40000000037253","316797","pSARL_v2","pSARL_v263rw9puv","58509fbda6946500016117ed","freq","img/green_2bandit_a2.png","70","70","test","1","71","71","4","",""
"null","317173","pSARL_v2","pSARL_v263rw9puv","58509fbda6946500016117ed","freq_resp","img/green_2bandit_a.png","70","70","test","","","","4","",""
"null","317339","pSARL_v2","pSARL_v263rw9puv","58509fbda6946500016117ed","fixation","img/fixation.png","null","","test","","","","","",""
"316.40000000037253","317672","pSARL_v2","pSARL_v263rw9puv","58509fbda6946500016117ed","freq","img/green_2bandit_a2.png","70","70","test","1","72","72","4","",""
"null","318171","pSARL_v2","pSARL_v263rw9puv","58509fbda6946500016117ed","freq_resp","img/green_2bandit_a.png","70","70","test","","","","4","",""
"null","318337","pSARL_v2","pSARL_v263rw9puv","58509fbda6946500016117ed","fixation","img/fixation.png","null","","test","","","","","",""
"186.59999999962747","318540","pSARL_v2","pSARL_v263rw9puv","58509fbda6946500016117ed","freq","img/green_2bandit_a2.png","70","70","test","1","73","73","4","",""
"null","319170","pSARL_v2","pSARL_v263rw9puv","58509fbda6946500016117ed","freq_resp","img/green_2bandit_a.png","70","70","test","","","","4","",""
"null","319336","pSARL_v2","pSARL_v263rw9puv","58509fbda6946500016117ed","fixation","img/fixation.png","null","","test","","","","","",""
"247.90000000037253","319601","pSARL_v2","pSARL_v263rw9puv","58509fbda6946500016117ed","freq","img/green_2bandit_a2.png","70","70","test","1","74","74","4","",""
"null","320172","pSARL_v2","pSARL_v263rw9puv","58509fbda6946500016117ed","freq_resp","img/green_2bandit_a.png","70","70","test","","","","4","",""
"null","320334","pSARL_v2","pSARL_v263rw9puv","58509fbda6946500016117ed","fixation","img/fixation.png","null","","test","","","","","",""
"323.40000000037253","320668","pSARL_v2","pSARL_v263rw9puv","58509fbda6946500016117ed","freq","img/green_2bandit_a2.png","70","70","test","1","75","75","4","",""
"null","321170","pSARL_v2","pSARL_v263rw9puv","58509fbda6946500016117ed","freq_resp","img/green_2bandit_a.png","70","70","test","","","","4","",""
"null","321337","pSARL_v2","pSARL_v263rw9puv","58509fbda6946500016117ed","fixation","img/fixation.png","null","","test","","","","","",""
"345.3999999985099","321713","pSARL_v2","pSARL_v263rw9puv","58509fbda6946500016117ed","freq","img/green_2bandit_a2.png","70","70","test","1","76","76","4","",""
"null","322188","pSARL_v2","pSARL_v263rw9puv","58509fbda6946500016117ed","freq_resp","img/green_2bandit_a.png","70","70","test","","","","4","",""
"null","322354","pSARL_v2","pSARL_v263rw9puv","58509fbda6946500016117ed","fixation","img/fixation.png","null","","test","","","","","",""
"357.90000000037253","322724","pSARL_v2","pSARL_v263rw9puv","58509fbda6946500016117ed","freq","img/green_2bandit_a2.png","70","70","test","1","77","77","4","",""
"null","323177","pSARL_v2","pSARL_v263rw9puv","58509fbda6946500016117ed","freq_resp","img/green_2bandit_a.png","70","70","test","","","","4","",""
"null","323338","pSARL_v2","pSARL_v263rw9puv","58509fbda6946500016117ed","fixation","img/fixation.png","null","","test","","","","","",""
"363.6000000014901","323716","pSARL_v2","pSARL_v263rw9puv","58509fbda6946500016117ed","infreq","img/orange_2bandit_a2.png","68","68","test","1","78","78","4","",""
"null","324168","pSARL_v2","pSARL_v263rw9puv","58509fbda6946500016117ed","infreq_resp","img/orange_2bandit_a.png","68","68","test","","","","4","",""
"null","324335","pSARL_v2","pSARL_v263rw9puv","58509fbda6946500016117ed","fixation","img/fixation.png","null","","test","","","","","",""
"305.5","324658","pSARL_v2","pSARL_v263rw9puv","58509fbda6946500016117ed","freq","img/green_2bandit_a2.png","70","70","test","1","79","79","4","",""
"null","325168","pSARL_v2","pSARL_v263rw9puv","58509fbda6946500016117ed","freq_resp","img/green_2bandit_a.png","70","70","test","","","","4","",""
"null","325335","pSARL_v2","pSARL_v263rw9puv","58509fbda6946500016117ed","fixation","img/fixation.png","null","","test","","","","","",""
"390.80000000074506","325746","pSARL_v2","pSARL_v263rw9puv","58509fbda6946500016117ed","infreq","img/orange_2bandit_a2.png","68","68","test","1","80","80","4","",""
"null","326172","pSARL_v2","pSARL_v263rw9puv","58509fbda6946500016117ed","infreq_resp","img/orange_2bandit_a.png","68","68","test","","","","4","",""
"null","326339","pSARL_v2","pSARL_v263rw9puv","58509fbda6946500016117ed","fixation","img/fixation.png","null","","test","","","","","",""
"340","326696","pSARL_v2","pSARL_v263rw9puv","58509fbda6946500016117ed","freq","img/green_2bandit_a2.png","70","70","test","1","81","81","4","",""
"null","327173","pSARL_v2","pSARL_v263rw9puv","58509fbda6946500016117ed","freq_resp","img/green_2bandit_a.png","70","70","test","","","","4","",""
"null","327339","pSARL_v2","pSARL_v263rw9puv","58509fbda6946500016117ed","fixation","img/fixation.png","null","","test","","","","","",""
"324.69999999925494","327681","pSARL_v2","pSARL_v263rw9puv","58509fbda6946500016117ed","freq","img/green_2bandit_a2.png","70","70","test","1","82","82","4","",""
"null","328173","pSARL_v2","pSARL_v263rw9puv","58509fbda6946500016117ed","freq_resp","img/green_2bandit_a.png","70","70","test","","","","4","",""
"null","328339","pSARL_v2","pSARL_v263rw9puv","58509fbda6946500016117ed","fixation","img/fixation.png","null","","test","","","","","",""
"289.40000000037253","328645","pSARL_v2","pSARL_v263rw9puv","58509fbda6946500016117ed","freq","img/green_2bandit_a2.png","70","70","test","1","83","83","4","",""
"null","329171","pSARL_v2","pSARL_v263rw9puv","58509fbda6946500016117ed","freq_resp","img/green_2bandit_a.png","70","70","test","","","","4","",""
"null","329338","pSARL_v2","pSARL_v263rw9puv","58509fbda6946500016117ed","fixation","img/fixation.png","null","","test","","","","","",""
"378.90000000037253","329734","pSARL_v2","pSARL_v263rw9puv","58509fbda6946500016117ed","freq","img/green_2bandit_a2.png","70","70","test","1","84","84","4","",""
"null","330172","pSARL_v2","pSARL_v263rw9puv","58509fbda6946500016117ed","freq_resp","img/green_2bandit_a.png","70","70","test","","","","4","",""
"null","330338","pSARL_v2","pSARL_v263rw9puv","58509fbda6946500016117ed","fixation","img/fixation.png","null","","test","","","","","",""
"289.5","330644","pSARL_v2","pSARL_v263rw9puv","58509fbda6946500016117ed","freq","img/green_2bandit_a2.png","70","70","test","1","85","85","4","",""
"null","331171","pSARL_v2","pSARL_v263rw9puv","58509fbda6946500016117ed","freq_resp","img/green_2bandit_a.png","70","70","test","","","","4","",""
"null","331337","pSARL_v2","pSARL_v263rw9puv","58509fbda6946500016117ed","fixation","img/fixation.png","null","","test","","","","","",""
"259.1000000014901","331612","pSARL_v2","pSARL_v263rw9puv","58509fbda6946500016117ed","freq","img/green_2bandit_a2.png","70","70","test","1","86","86","4","",""
"null","332170","pSARL_v2","pSARL_v263rw9puv","58509fbda6946500016117ed","freq_resp","img/green_2bandit_a.png","70","70","test","","","","4","",""
"null","332336","pSARL_v2","pSARL_v263rw9puv","58509fbda6946500016117ed","fixation","img/fixation.png","null","","test","","","","","",""
"264.90000000037253","332617","pSARL_v2","pSARL_v263rw9puv","58509fbda6946500016117ed","freq","img/green_2bandit_a2.png","70","70","test","1","87","87","4","",""
"null","333169","pSARL_v2","pSARL_v263rw9puv","58509fbda6946500016117ed","freq_resp","img/green_2bandit_a.png","70","70","test","","","","4","",""
"null","333335","pSARL_v2","pSARL_v263rw9puv","58509fbda6946500016117ed","fixation","img/fixation.png","null","","test","","","","","",""
"305.40000000037253","333657","pSARL_v2","pSARL_v263rw9puv","58509fbda6946500016117ed","freq","img/green_2bandit_a2.png","70","70","test","1","88","88","4","",""
"null","334168","pSARL_v2","pSARL_v263rw9puv","58509fbda6946500016117ed","freq_resp","img/green_2bandit_a.png","70","70","test","","","","4","",""
"null","334335","pSARL_v2","pSARL_v263rw9puv","58509fbda6946500016117ed","fixation","img/fixation.png","null","","test","","","","","",""
"344.5","334696","pSARL_v2","pSARL_v263rw9puv","58509fbda6946500016117ed","freq","img/green_2bandit_a2.png","68","70","test","0","89","89","4","",""
"null","335168","pSARL_v2","pSARL_v263rw9puv","58509fbda6946500016117ed","freq_resp","img/green_2bandit_a.png","68","70","test","","","","4","",""
"null","335334","pSARL_v2","pSARL_v263rw9puv","58509fbda6946500016117ed","fixation","img/fixation.png","null","","test","","","","","",""
"471.59999999962747","335822","pSARL_v2","pSARL_v263rw9puv","58509fbda6946500016117ed","reward","img/slot.png","74","","test","","","","","",""
"null","336588","pSARL_v2","pSARL_v263rw9puv","58509fbda6946500016117ed","points","<div class=""verylowPoints""> -3 </div>","null","na","test","","","","4","-3","3"
"410.90000000037253","337015","pSARL_v2","pSARL_v263rw9puv","58509fbda6946500016117ed","freq","img/green_2bandit_a2.png","70","70","test","1","90","90","5","",""
"null","337421","pSARL_v2","pSARL_v263rw9puv","58509fbda6946500016117ed","freq_resp","img/green_2bandit_a.png","70","70","test","","","","5","",""
"null","337587","pSARL_v2","pSARL_v263rw9puv","58509fbda6946500016117ed","fixation","img/fixation.png","null","","test","","","","","",""
"306","337910","pSARL_v2","pSARL_v263rw9puv","58509fbda6946500016117ed","freq","img/green_2bandit_a2.png","70","70","test","1","91","91","5","",""
"null","338420","pSARL_v2","pSARL_v263rw9puv","58509fbda6946500016117ed","freq_resp","img/green_2bandit_a.png","70","70","test","","","","5","",""
"null","338587","pSARL_v2","pSARL_v263rw9puv","58509fbda6946500016117ed","fixation","img/fixation.png","null","","test","","","","","",""
"170.80000000074506","338774","pSARL_v2","pSARL_v263rw9puv","58509fbda6946500016117ed","freq","img/green_2bandit_a2.png","70","70","test","1","92","92","5","",""
"null","339420","pSARL_v2","pSARL_v263rw9puv","58509fbda6946500016117ed","freq_resp","img/green_2bandit_a.png","70","70","test","","","","5","",""
"null","339586","pSARL_v2","pSARL_v263rw9puv","58509fbda6946500016117ed","fixation","img/fixation.png","null","","test","","","","","",""
"6.799999998882413","339610","pSARL_v2","pSARL_v263rw9puv","58509fbda6946500016117ed","infreq","img/orange_2bandit_a2.png","70","68","test","0","93","93","5","",""
"null","340419","pSARL_v2","pSARL_v263rw9puv","58509fbda6946500016117ed","infreq_resp","img/orange_2bandit_a.png","70","68","test","","","","5","",""
"null","340586","pSARL_v2","pSARL_v263rw9puv","58509fbda6946500016117ed","fixation","img/fixation.png","null","","test","","","","","",""
"386","340990","pSARL_v2","pSARL_v263rw9puv","58509fbda6946500016117ed","freq","img/green_2bandit_a2.png","70","70","test","1","94","94","5","",""
"null","341421","pSARL_v2","pSARL_v263rw9puv","58509fbda6946500016117ed","freq_resp","img/green_2bandit_a.png","70","70","test","","","","5","",""
"null","341587","pSARL_v2","pSARL_v263rw9puv","58509fbda6946500016117ed","fixation","img/fixation.png","null","","test","","","","","",""
"373.2000000011176","341977","pSARL_v2","pSARL_v263rw9puv","58509fbda6946500016117ed","freq","img/green_2bandit_a2.png","70","70","test","1","95","95","5","",""
"null","342419","pSARL_v2","pSARL_v263rw9puv","58509fbda6946500016117ed","freq_resp","img/green_2bandit_a.png","70","70","test","","","","5","",""
"null","342585","pSARL_v2","pSARL_v263rw9puv","58509fbda6946500016117ed","fixation","img/fixation.png","null","","test","","","","","",""
"324.09999999962747","342927","pSARL_v2","pSARL_v263rw9puv","58509fbda6946500016117ed","freq","img/green_2bandit_a2.png","70","70","test","1","96","96","5","",""
"null","343419","pSARL_v2","pSARL_v263rw9puv","58509fbda6946500016117ed","freq_resp","img/green_2bandit_a.png","70","70","test","","","","5","",""
"null","343585","pSARL_v2","pSARL_v263rw9puv","58509fbda6946500016117ed","fixation","img/fixation.png","null","","test","","","","","",""
"283.59999999962747","343886","pSARL_v2","pSARL_v263rw9puv","58509fbda6946500016117ed","freq","img/green_2bandit_a2.png","70","70","test","1","97","97","5","",""
"null","344418","pSARL_v2","pSARL_v263rw9puv","58509fbda6946500016117ed","freq_resp","img/green_2bandit_a.png","70","70","test","","","","5","",""
"null","344585","pSARL_v2","pSARL_v263rw9puv","58509fbda6946500016117ed","fixation","img/fixation.png","null","","test","","","","","",""
"239.69999999925494","344841","pSARL_v2","pSARL_v263rw9puv","58509fbda6946500016117ed","freq","img/green_2bandit_a2.png","70","70","test","1","98","98","5","",""
"null","345421","pSARL_v2","pSARL_v263rw9puv","58509fbda6946500016117ed","freq_resp","img/green_2bandit_a.png","70","70","test","","","","5","",""
"null","345583","pSARL_v2","pSARL_v263rw9puv","58509fbda6946500016117ed","fixation","img/fixation.png","null","","test","","","","","",""
"289.40000000037253","345896","pSARL_v2","pSARL_v263rw9puv","58509fbda6946500016117ed","freq","img/green_2bandit_a2.png","70","70","test","1","99","99","5","",""
"null","346424","pSARL_v2","pSARL_v263rw9puv","58509fbda6946500016117ed","freq_resp","img/green_2bandit_a.png","70","70","test","","","","5","",""
"null","346590","pSARL_v2","pSARL_v263rw9puv","58509fbda6946500016117ed","fixation","img/fixation.png","null","","test","","","","","",""
"272.59999999962747","346884","pSARL_v2","pSARL_v263rw9puv","58509fbda6946500016117ed","freq","img/green_2bandit_a2.png","70","70","test","1","100","100","5","",""
"null","347431","pSARL_v2","pSARL_v263rw9puv","58509fbda6946500016117ed","freq_resp","img/green_2bandit_a.png","70","70","test","","","","5","",""
"null","347597","pSARL_v2","pSARL_v263rw9puv","58509fbda6946500016117ed","fixation","img/fixation.png","null","","test","","","","","",""
"289.09999999962747","347899","pSARL_v2","pSARL_v263rw9puv","58509fbda6946500016117ed","freq","img/green_2bandit_a2.png","70","70","test","1","101","101","5","",""
"null","348426","pSARL_v2","pSARL_v263rw9puv","58509fbda6946500016117ed","freq_resp","img/green_2bandit_a.png","70","70","test","","","","5","",""
"null","348598","pSARL_v2","pSARL_v263rw9puv","58509fbda6946500016117ed","fixation","img/fixation.png","null","","test","","","","","",""
"567.3000000007451","349182","pSARL_v2","pSARL_v263rw9puv","58509fbda6946500016117ed","freq","img/green_2bandit_a2.png","70","70","test","1","102","102","5","",""
"null","349431","pSARL_v2","pSARL_v263rw9puv","58509fbda6946500016117ed","freq_resp","img/green_2bandit_a.png","70","70","test","","","","5","",""
"null","349598","pSARL_v2","pSARL_v263rw9puv","58509fbda6946500016117ed","fixation","img/fixation.png","null","","test","","","","","",""
"382.40000000037253","350002","pSARL_v2","pSARL_v263rw9puv","58509fbda6946500016117ed","freq","img/green_2bandit_a2.png","70","70","test","1","103","103","5","",""
"null","350436","pSARL_v2","pSARL_v263rw9puv","58509fbda6946500016117ed","freq_resp","img/green_2bandit_a.png","70","70","test","","","","5","",""
"null","350605","pSARL_v2","pSARL_v263rw9puv","58509fbda6946500016117ed","fixation","img/fixation.png","null","","test","","","","","",""
"50.90000000037253","350672","pSARL_v2","pSARL_v263rw9puv","58509fbda6946500016117ed","freq","img/green_2bandit_a2.png","70","70","test","1","104","104","5","",""
"null","351438","pSARL_v2","pSARL_v263rw9puv","58509fbda6946500016117ed","freq_resp","img/green_2bandit_a.png","70","70","test","","","","5","",""
"null","351604","pSARL_v2","pSARL_v263rw9puv","58509fbda6946500016117ed","fixation","img/fixation.png","null","","test","","","","","",""
"294.90000000037253","351915","pSARL_v2","pSARL_v263rw9puv","58509fbda6946500016117ed","freq","img/green_2bandit_a2.png","70","70","test","1","105","105","5","",""
"null","352437","pSARL_v2","pSARL_v263rw9puv","58509fbda6946500016117ed","freq_resp","img/green_2bandit_a.png","70","70","test","","","","5","",""
"null","352603","pSARL_v2","pSARL_v263rw9puv","58509fbda6946500016117ed","fixation","img/fixation.png","null","","test","","","","","",""
"380","353001","pSARL_v2","pSARL_v263rw9puv","58509fbda6946500016117ed","freq","img/green_2bandit_a2.png","70","70","test","1","106","106","5","",""
"null","353437","pSARL_v2","pSARL_v263rw9puv","58509fbda6946500016117ed","freq_resp","img/green_2bandit_a.png","70","70","test","","","","5","",""
"null","353604","pSARL_v2","pSARL_v263rw9puv","58509fbda6946500016117ed","fixation","img/fixation.png","null","","test","","","","","",""
"278.80000000074506","353900","pSARL_v2","pSARL_v263rw9puv","58509fbda6946500016117ed","freq","img/green_2bandit_a2.png","70","70","test","1","107","107","5","",""
"null","354437","pSARL_v2","pSARL_v263rw9puv","58509fbda6946500016117ed","freq_resp","img/green_2bandit_a.png","70","70","test","","","","5","",""
"null","354604","pSARL_v2","pSARL_v263rw9puv","58509fbda6946500016117ed","fixation","img/fixation.png","null","","test","","","","","",""
"288.69999999925494","354909","pSARL_v2","pSARL_v263rw9puv","58509fbda6946500016117ed","freq","img/green_2bandit_a2.png","70","70","test","1","108","108","5","",""
"null","355437","pSARL_v2","pSARL_v263rw9puv","58509fbda6946500016117ed","freq_resp","img/green_2bandit_a.png","70","70","test","","","","5","",""
"null","355603","pSARL_v2","pSARL_v263rw9puv","58509fbda6946500016117ed","fixation","img/fixation.png","null","","test","","","","","",""
"517.1999999992549","356136","pSARL_v2","pSARL_v263rw9puv","58509fbda6946500016117ed","infreq","img/orange_2bandit_a2.png","70","68","test","0","109","109","5","",""
"null","356434","pSARL_v2","pSARL_v263rw9puv","58509fbda6946500016117ed","infreq_resp","img/orange_2bandit_a.png","70","68","test","","","","5","",""
"null","356600","pSARL_v2","pSARL_v263rw9puv","58509fbda6946500016117ed","fixation","img/fixation.png","null","","test","","","","","",""
"490.2999999988824","357107","pSARL_v2","pSARL_v263rw9puv","58509fbda6946500016117ed","freq","img/green_2bandit_a2.png","70","70","test","1","110","110","5","",""
"null","357432","pSARL_v2","pSARL_v263rw9puv","58509fbda6946500016117ed","freq_resp","img/green_2bandit_a.png","70","70","test","","","","5","",""
"null","357599","pSARL_v2","pSARL_v263rw9puv","58509fbda6946500016117ed","fixation","img/fixation.png","null","","test","","","","","",""
"321.59999999962747","357938","pSARL_v2","pSARL_v263rw9puv","58509fbda6946500016117ed","freq","img/green_2bandit_a2.png","70","70","test","1","111","111","5","",""
"null","358432","pSARL_v2","pSARL_v263rw9puv","58509fbda6946500016117ed","freq_resp","img/green_2bandit_a.png","70","70","test","","","","5","",""
"null","358599","pSARL_v2","pSARL_v263rw9puv","58509fbda6946500016117ed","fixation","img/fixation.png","null","","test","","","","","",""
"211.19999999925494","358827","pSARL_v2","pSARL_v263rw9puv","58509fbda6946500016117ed","freq","img/green_2bandit_a2.png","70","70","test","1","112","112","5","",""
"null","359432","pSARL_v2","pSARL_v263rw9puv","58509fbda6946500016117ed","freq_resp","img/green_2bandit_a.png","70","70","test","","","","5","",""
"null","359599","pSARL_v2","pSARL_v263rw9puv","58509fbda6946500016117ed","fixation","img/fixation.png","null","","test","","","","","",""
"140.90000000037253","359756","pSARL_v2","pSARL_v263rw9puv","58509fbda6946500016117ed","freq","img/green_2bandit_a2.png","70","70","test","1","113","113","5","",""
"null","360432","pSARL_v2","pSARL_v263rw9puv","58509fbda6946500016117ed","freq_resp","img/green_2bandit_a.png","70","70","test","","","","5","",""
"null","360599","pSARL_v2","pSARL_v263rw9puv","58509fbda6946500016117ed","fixation","img/fixation.png","null","","test","","","","","",""
"314.69999999925494","360930","pSARL_v2","pSARL_v263rw9puv","58509fbda6946500016117ed","freq","img/green_2bandit_a2.png","70","70","test","1","114","114","5","",""
"null","361432","pSARL_v2","pSARL_v263rw9puv","58509fbda6946500016117ed","freq_resp","img/green_2bandit_a.png","70","70","test","","","","5","",""
"null","361598","pSARL_v2","pSARL_v263rw9puv","58509fbda6946500016117ed","fixation","img/fixation.png","null","","test","","","","","",""
"160.19999999925494","361775","pSARL_v2","pSARL_v263rw9puv","58509fbda6946500016117ed","freq","img/green_2bandit_a2.png","70","70","test","1","115","115","5","",""
"null","362430","pSARL_v2","pSARL_v263rw9puv","58509fbda6946500016117ed","freq_resp","img/green_2bandit_a.png","70","70","test","","","","5","",""
"null","362597","pSARL_v2","pSARL_v263rw9puv","58509fbda6946500016117ed","fixation","img/fixation.png","null","","test","","","","","",""
"545.5999999996275","363159","pSARL_v2","pSARL_v263rw9puv","58509fbda6946500016117ed","reward","img/slot.png","74","","test","","","","","",""
"null","363925","pSARL_v2","pSARL_v263rw9puv","58509fbda6946500016117ed","points","<div class=""veryhighPoints""> +1 </div>","null","na","test","","","","5","1","4"
"511.69999999925494","364453","pSARL_v2","pSARL_v263rw9puv","58509fbda6946500016117ed","freq","img/green_2bandit_a2.png","70","70","test","1","116","116","6","",""
"null","364758","pSARL_v2","pSARL_v263rw9puv","58509fbda6946500016117ed","freq_resp","img/green_2bandit_a.png","70","70","test","","","","6","",""
"null","364925","pSARL_v2","pSARL_v263rw9puv","58509fbda6946500016117ed","fixation","img/fixation.png","null","","test","","","","","",""
"507","365449","pSARL_v2","pSARL_v263rw9puv","58509fbda6946500016117ed","freq","img/green_2bandit_a2.png","70","70","test","1","117","117","6","",""
"null","365759","pSARL_v2","pSARL_v263rw9puv","58509fbda6946500016117ed","freq_resp","img/green_2bandit_a.png","70","70","test","","","","6","",""
"null","365925","pSARL_v2","pSARL_v263rw9puv","58509fbda6946500016117ed","fixation","img/fixation.png","null","","test","","","","","",""
"316.2000000011176","366259","pSARL_v2","pSARL_v263rw9puv","58509fbda6946500016117ed","freq","img/green_2bandit_a2.png","70","70","test","1","118","118","6","",""
"null","366759","pSARL_v2","pSARL_v263rw9puv","58509fbda6946500016117ed","freq_resp","img/green_2bandit_a.png","70","70","test","","","","6","",""
"null","366926","pSARL_v2","pSARL_v263rw9puv","58509fbda6946500016117ed","fixation","img/fixation.png","null","","test","","","","","",""
"389.30000000074506","367332","pSARL_v2","pSARL_v263rw9puv","58509fbda6946500016117ed","infreq","img/orange_2bandit_a2.png","70","68","test","0","119","119","6","",""
"null","367758","pSARL_v2","pSARL_v263rw9puv","58509fbda6946500016117ed","infreq_resp","img/orange_2bandit_a.png","70","68","test","","","","6","",""
"null","367924","pSARL_v2","pSARL_v263rw9puv","58509fbda6946500016117ed","fixation","img/fixation.png","null","","test","","","","","",""
"370.7999999988824","368314","pSARL_v2","pSARL_v263rw9puv","58509fbda6946500016117ed","freq","img/green_2bandit_a2.png","70","70","test","1","120","120","6","",""
"null","368760","pSARL_v2","pSARL_v263rw9puv","58509fbda6946500016117ed","freq_resp","img/green_2bandit_a.png","70","70","test","","","","6","",""
"null","368927","pSARL_v2","pSARL_v263rw9puv","58509fbda6946500016117ed","fixation","img/fixation.png","null","","test","","","","","",""
"397.40000000037253","369340","pSARL_v2","pSARL_v263rw9puv","58509fbda6946500016117ed","freq","img/green_2bandit_a2.png","70","70","test","1","121","121","6","",""
"null","369759","pSARL_v2","pSARL_v263rw9puv","58509fbda6946500016117ed","freq_resp","img/green_2bandit_a.png","70","70","test","","","","6","",""
"null","369925","pSARL_v2","pSARL_v263rw9puv","58509fbda6946500016117ed","fixation","img/fixation.png","null","","test","","","","","",""
"528","370471","pSARL_v2","pSARL_v263rw9puv","58509fbda6946500016117ed","freq","img/green_2bandit_a2.png","70","70","test","1","122","122","6","",""
"null","370755","pSARL_v2","pSARL_v263rw9puv","58509fbda6946500016117ed","freq_resp","img/green_2bandit_a.png","70","70","test","","","","6","",""
"null","370917","pSARL_v2","pSARL_v263rw9puv","58509fbda6946500016117ed","fixation","img/fixation.png","null","","test","","","","","",""
"356.19999999925494","371286","pSARL_v2","pSARL_v263rw9puv","58509fbda6946500016117ed","freq","img/green_2bandit_a2.png","70","70","test","1","123","123","6","",""
"null","371746","pSARL_v2","pSARL_v263rw9puv","58509fbda6946500016117ed","freq_resp","img/green_2bandit_a.png","70","70","test","","","","6","",""
"null","371915","pSARL_v2","pSARL_v263rw9puv","58509fbda6946500016117ed","fixation","img/fixation.png","null","","test","","","","","",""
"342.80000000074506","372269","pSARL_v2","pSARL_v263rw9puv","58509fbda6946500016117ed","freq","img/green_2bandit_a2.png","70","70","test","1","124","124","6","",""
"null","372741","pSARL_v2","pSARL_v263rw9puv","58509fbda6946500016117ed","freq_resp","img/green_2bandit_a.png","70","70","test","","","","6","",""
"null","372913","pSARL_v2","pSARL_v263rw9puv","58509fbda6946500016117ed","fixation","img/fixation.png","null","","test","","","","","",""
"299.30000000074506","373223","pSARL_v2","pSARL_v263rw9puv","58509fbda6946500016117ed","freq","img/green_2bandit_a2.png","70","70","test","1","125","125","6","",""
"null","373739","pSARL_v2","pSARL_v263rw9puv","58509fbda6946500016117ed","freq_resp","img/green_2bandit_a.png","70","70","test","","","","6","",""
"null","373906","pSARL_v2","pSARL_v263rw9puv","58509fbda6946500016117ed","fixation","img/fixation.png","null","","test","","","","","",""
"476.19999999925494","374403","pSARL_v2","pSARL_v263rw9puv","58509fbda6946500016117ed","freq","img/green_2bandit_a2.png","70","70","test","1","126","126","6","",""
"null","374743","pSARL_v2","pSARL_v263rw9puv","58509fbda6946500016117ed","freq_resp","img/green_2bandit_a.png","70","70","test","","","","6","",""
"null","374910","pSARL_v2","pSARL_v263rw9puv","58509fbda6946500016117ed","fixation","img/fixation.png","null","","test","","","","","",""
"374.59999999962747","375303","pSARL_v2","pSARL_v263rw9puv","58509fbda6946500016117ed","freq","img/green_2bandit_a2.png","70","70","test","1","127","127","6","",""
"null","375745","pSARL_v2","pSARL_v263rw9puv","58509fbda6946500016117ed","freq_resp","img/green_2bandit_a.png","70","70","test","","","","6","",""
"null","375911","pSARL_v2","pSARL_v263rw9puv","58509fbda6946500016117ed","fixation","img/fixation.png","null","","test","","","","","",""
"444.59999999962747","376372","pSARL_v2","pSARL_v263rw9puv","58509fbda6946500016117ed","infreq","img/orange_2bandit_a2.png","68","68","test","1","128","128","6","",""
"null","376744","pSARL_v2","pSARL_v263rw9puv","58509fbda6946500016117ed","infreq_resp","img/orange_2bandit_a.png","68","68","test","","","","6","",""
"null","376910","pSARL_v2","pSARL_v263rw9puv","58509fbda6946500016117ed","fixation","img/fixation.png","null","","test","","","","","",""
"369.5","377297","pSARL_v2","pSARL_v263rw9puv","58509fbda6946500016117ed","freq","img/green_2bandit_a2.png","70","70","test","1","129","129","6","",""
"null","377744","pSARL_v2","pSARL_v263rw9puv","58509fbda6946500016117ed","freq_resp","img/green_2bandit_a.png","70","70","test","","","","6","",""
"null","377910","pSARL_v2","pSARL_v263rw9puv","58509fbda6946500016117ed","fixation","img/fixation.png","null","","test","","","","","",""
"339.19999999925494","378266","pSARL_v2","pSARL_v263rw9puv","58509fbda6946500016117ed","freq","img/green_2bandit_a2.png","70","70","test","1","130","130","6","",""
"null","378743","pSARL_v2","pSARL_v263rw9puv","58509fbda6946500016117ed","freq_resp","img/green_2bandit_a.png","70","70","test","","","","6","",""
"null","378910","pSARL_v2","pSARL_v263rw9puv","58509fbda6946500016117ed","fixation","img/fixation.png","null","","test","","","","","",""
"359.1000000014901","379286","pSARL_v2","pSARL_v263rw9puv","58509fbda6946500016117ed","freq","img/green_2bandit_a2.png","70","70","test","1","131","131","6","",""
"null","379742","pSARL_v2","pSARL_v263rw9puv","58509fbda6946500016117ed","freq_resp","img/green_2bandit_a.png","70","70","test","","","","6","",""
"null","379909","pSARL_v2","pSARL_v263rw9puv","58509fbda6946500016117ed","fixation","img/fixation.png","null","","test","","","","","",""
"382.59999999962747","380309","pSARL_v2","pSARL_v263rw9puv","58509fbda6946500016117ed","freq","img/green_2bandit_a2.png","70","70","test","1","132","132","6","",""
"null","380743","pSARL_v2","pSARL_v263rw9puv","58509fbda6946500016117ed","freq_resp","img/green_2bandit_a.png","70","70","test","","","","6","",""
"null","380910","pSARL_v2","pSARL_v263rw9puv","58509fbda6946500016117ed","fixation","img/fixation.png","null","","test","","","","","",""
"368.09999999962747","381295","pSARL_v2","pSARL_v263rw9puv","58509fbda6946500016117ed","freq","img/green_2bandit_a2.png","70","70","test","1","133","133","6","",""
"null","381742","pSARL_v2","pSARL_v263rw9puv","58509fbda6946500016117ed","freq_resp","img/green_2bandit_a.png","70","70","test","","","","6","",""
"null","381909","pSARL_v2","pSARL_v263rw9puv","58509fbda6946500016117ed","fixation","img/fixation.png","null","","test","","","","","",""
"382.09999999962747","382308","pSARL_v2","pSARL_v263rw9puv","58509fbda6946500016117ed","freq","img/green_2bandit_a2.png","70","70","test","1","134","134","6","",""
"null","382741","pSARL_v2","pSARL_v263rw9puv","58509fbda6946500016117ed","freq_resp","img/green_2bandit_a.png","70","70","test","","","","6","",""
"null","382907","pSARL_v2","pSARL_v263rw9puv","58509fbda6946500016117ed","fixation","img/fixation.png","null","","test","","","","","",""
"344","383268","pSARL_v2","pSARL_v263rw9puv","58509fbda6946500016117ed","freq","img/green_2bandit_a2.png","70","70","test","1","135","135","6","",""
"null","383741","pSARL_v2","pSARL_v263rw9puv","58509fbda6946500016117ed","freq_resp","img/green_2bandit_a.png","70","70","test","","","","6","",""
"null","383907","pSARL_v2","pSARL_v263rw9puv","58509fbda6946500016117ed","fixation","img/fixation.png","null","","test","","","","","",""
"587.9000000003725","384511","pSARL_v2","pSARL_v263rw9puv","58509fbda6946500016117ed","reward","img/slot.png","74","","test","","","","","",""
"null","385277","pSARL_v2","pSARL_v263rw9puv","58509fbda6946500016117ed","points","<div class=""verylowPoints""> -7 </div>","null","na","test","","","","6","-7","5"
"441.19999999925494","385736","pSARL_v2","pSARL_v263rw9puv","58509fbda6946500016117ed","freq","img/green_2bandit_a2.png","70","70","test","1","136","136","7","",""
"null","386111","pSARL_v2","pSARL_v263rw9puv","58509fbda6946500016117ed","freq_resp","img/green_2bandit_a.png","70","70","test","","","","7","",""
"null","386278","pSARL_v2","pSARL_v263rw9puv","58509fbda6946500016117ed","fixation","img/fixation.png","null","","test","","","","","",""
"321.40000000037253","386616","pSARL_v2","pSARL_v263rw9puv","58509fbda6946500016117ed","freq","img/green_2bandit_a2.png","70","70","test","1","137","137","7","",""
"null","387111","pSARL_v2","pSARL_v263rw9puv","58509fbda6946500016117ed","freq_resp","img/green_2bandit_a.png","70","70","test","","","","7","",""
"null","387278","pSARL_v2","pSARL_v263rw9puv","58509fbda6946500016117ed","fixation","img/fixation.png","null","","test","","","","","",""
"279.90000000037253","387575","pSARL_v2","pSARL_v263rw9puv","58509fbda6946500016117ed","freq","img/green_2bandit_a2.png","70","70","test","1","138","138","7","",""
"null","388112","pSARL_v2","pSARL_v263rw9puv","58509fbda6946500016117ed","freq_resp","img/green_2bandit_a.png","70","70","test","","","","7","",""
"null","388279","pSARL_v2","pSARL_v263rw9puv","58509fbda6946500016117ed","fixation","img/fixation.png","null","","test","","","","","",""
"408.30000000074506","388703","pSARL_v2","pSARL_v263rw9puv","58509fbda6946500016117ed","freq","img/green_2bandit_a2.png","70","70","test","1","139","139","7","",""
"null","389111","pSARL_v2","pSARL_v263rw9puv","58509fbda6946500016117ed","freq_resp","img/green_2bandit_a.png","70","70","test","","","","7","",""
"null","389278","pSARL_v2","pSARL_v263rw9puv","58509fbda6946500016117ed","fixation","img/fixation.png","null","","test","","","","","",""
"258","389554","pSARL_v2","pSARL_v263rw9puv","58509fbda6946500016117ed","freq","img/green_2bandit_a2.png","70","70","test","1","140","140","7","",""
"null","390113","pSARL_v2","pSARL_v263rw9puv","58509fbda6946500016117ed","freq_resp","img/green_2bandit_a.png","70","70","test","","","","7","",""
"null","390280","pSARL_v2","pSARL_v263rw9puv","58509fbda6946500016117ed","fixation","img/fixation.png","null","","test","","","","","",""
"316.5","390613","pSARL_v2","pSARL_v263rw9puv","58509fbda6946500016117ed","freq","img/green_2bandit_a2.png","70","70","test","1","141","141","7","",""
"null","391112","pSARL_v2","pSARL_v263rw9puv","58509fbda6946500016117ed","freq_resp","img/green_2bandit_a.png","70","70","test","","","","7","",""
"null","391279","pSARL_v2","pSARL_v263rw9puv","58509fbda6946500016117ed","fixation","img/fixation.png","null","","test","","","","","",""
"301.09999999962747","391597","pSARL_v2","pSARL_v263rw9puv","58509fbda6946500016117ed","freq","img/green_2bandit_a2.png","70","70","test","1","142","142","7","",""
"null","392112","pSARL_v2","pSARL_v263rw9puv","58509fbda6946500016117ed","freq_resp","img/green_2bandit_a.png","70","70","test","","","","7","",""
"null","392311","pSARL_v2","pSARL_v263rw9puv","58509fbda6946500016117ed","fixation","img/fixation.png","null","","test","","","","","",""
"322.69999999925494","392647","pSARL_v2","pSARL_v263rw9puv","58509fbda6946500016117ed","freq","img/green_2bandit_a2.png","70","70","test","1","143","143","7","",""
"null","393144","pSARL_v2","pSARL_v263rw9puv","58509fbda6946500016117ed","freq_resp","img/green_2bandit_a.png","70","70","test","","","","7","",""
"null","393310","pSARL_v2","pSARL_v263rw9puv","58509fbda6946500016117ed","fixation","img/fixation.png","null","","test","","","","","",""
"357.5","393680","pSARL_v2","pSARL_v263rw9puv","58509fbda6946500016117ed","freq","img/green_2bandit_a2.png","70","70","test","1","144","144","7","",""
"null","394136","pSARL_v2","pSARL_v263rw9puv","58509fbda6946500016117ed","freq_resp","img/green_2bandit_a.png","70","70","test","","","","7","",""
"null","394310","pSARL_v2","pSARL_v263rw9puv","58509fbda6946500016117ed","fixation","img/fixation.png","null","","test","","","","","",""
"307.7999999988824","394631","pSARL_v2","pSARL_v263rw9puv","58509fbda6946500016117ed","freq","img/green_2bandit_a2.png","70","70","test","1","145","145","7","",""
"null","395137","pSARL_v2","pSARL_v263rw9puv","58509fbda6946500016117ed","freq_resp","img/green_2bandit_a.png","70","70","test","","","","7","",""
"null","395312","pSARL_v2","pSARL_v263rw9puv","58509fbda6946500016117ed","fixation","img/fixation.png","null","","test","","","","","",""
"320.5","395650","pSARL_v2","pSARL_v263rw9puv","58509fbda6946500016117ed","freq","img/green_2bandit_a2.png","70","70","test","1","146","146","7","",""
"null","396145","pSARL_v2","pSARL_v263rw9puv","58509fbda6946500016117ed","freq_resp","img/green_2bandit_a.png","70","70","test","","","","7","",""
"null","396309","pSARL_v2","pSARL_v263rw9puv","58509fbda6946500016117ed","fixation","img/fixation.png","null","","test","","","","","",""
"307.90000000037253","396634","pSARL_v2","pSARL_v263rw9puv","58509fbda6946500016117ed","freq","img/green_2bandit_a2.png","70","70","test","1","147","147","7","",""
"null","397143","pSARL_v2","pSARL_v263rw9puv","58509fbda6946500016117ed","freq_resp","img/green_2bandit_a.png","70","70","test","","","","7","",""
"null","397313","pSARL_v2","pSARL_v263rw9puv","58509fbda6946500016117ed","fixation","img/fixation.png","null","","test","","","","","",""
"337.69999999925494","397668","pSARL_v2","pSARL_v263rw9puv","58509fbda6946500016117ed","freq","img/green_2bandit_a2.png","70","70","test","1","148","148","7","",""
"null","398147","pSARL_v2","pSARL_v263rw9puv","58509fbda6946500016117ed","freq_resp","img/green_2bandit_a.png","70","70","test","","","","7","",""
"null","398313","pSARL_v2","pSARL_v263rw9puv","58509fbda6946500016117ed","fixation","img/fixation.png","null","","test","","","","","",""
"327.5","398657","pSARL_v2","pSARL_v263rw9puv","58509fbda6946500016117ed","freq","img/green_2bandit_a2.png","70","70","test","1","149","149","7","",""
"null","399146","pSARL_v2","pSARL_v263rw9puv","58509fbda6946500016117ed","freq_resp","img/green_2bandit_a.png","70","70","test","","","","7","",""
"null","399313","pSARL_v2","pSARL_v263rw9puv","58509fbda6946500016117ed","fixation","img/fixation.png","null","","test","","","","","",""
"496.19999999925494","399827","pSARL_v2","pSARL_v263rw9puv","58509fbda6946500016117ed","infreq","img/orange_2bandit_a2.png","68","68","test","1","150","150","7","",""
"null","400147","pSARL_v2","pSARL_v263rw9puv","58509fbda6946500016117ed","infreq_resp","img/orange_2bandit_a.png","68","68","test","","","","7","",""
"null","400314","pSARL_v2","pSARL_v263rw9puv","58509fbda6946500016117ed","fixation","img/fixation.png","null","","test","","","","","",""
"360.40000000037253","400691","pSARL_v2","pSARL_v263rw9puv","58509fbda6946500016117ed","freq","img/green_2bandit_a2.png","70","70","test","1","151","151","7","",""
"null","401148","pSARL_v2","pSARL_v263rw9puv","58509fbda6946500016117ed","freq_resp","img/green_2bandit_a.png","70","70","test","","","","7","",""
"null","401315","pSARL_v2","pSARL_v263rw9puv","58509fbda6946500016117ed","fixation","img/fixation.png","null","","test","","","","","",""
"368.80000000074506","401702","pSARL_v2","pSARL_v263rw9puv","58509fbda6946500016117ed","freq","img/green_2bandit_a2.png","70","70","test","1","152","152","7","",""
"null","402150","pSARL_v2","pSARL_v263rw9puv","58509fbda6946500016117ed","freq_resp","img/green_2bandit_a.png","70","70","test","","","","7","",""
"null","402316","pSARL_v2","pSARL_v263rw9puv","58509fbda6946500016117ed","fixation","img/fixation.png","null","","test","","","","","",""
"280.69999999925494","402611","pSARL_v2","pSARL_v263rw9puv","58509fbda6946500016117ed","freq","img/green_2bandit_a2.png","70","70","test","1","153","153","7","",""
"null","403146","pSARL_v2","pSARL_v263rw9puv","58509fbda6946500016117ed","freq_resp","img/green_2bandit_a.png","70","70","test","","","","7","",""
"null","403312","pSARL_v2","pSARL_v263rw9puv","58509fbda6946500016117ed","fixation","img/fixation.png","null","","test","","","","","",""
"339.59999999962747","403669","pSARL_v2","pSARL_v263rw9puv","58509fbda6946500016117ed","freq","img/green_2bandit_a2.png","70","70","test","1","154","154","7","",""
"null","404143","pSARL_v2","pSARL_v263rw9puv","58509fbda6946500016117ed","freq_resp","img/green_2bandit_a.png","70","70","test","","","","7","",""
"null","404311","pSARL_v2","pSARL_v263rw9puv","58509fbda6946500016117ed","fixation","img/fixation.png","null","","test","","","","","",""
"356.09999999962747","404683","pSARL_v2","pSARL_v263rw9puv","58509fbda6946500016117ed","freq","img/green_2bandit_a2.png","70","70","test","1","155","155","7","",""
"null","405144","pSARL_v2","pSARL_v263rw9puv","58509fbda6946500016117ed","freq_resp","img/green_2bandit_a.png","70","70","test","","","","7","",""
"null","405310","pSARL_v2","pSARL_v263rw9puv","58509fbda6946500016117ed","fixation","img/fixation.png","null","","test","","","","","",""
"356","405682","pSARL_v2","pSARL_v263rw9puv","58509fbda6946500016117ed","freq","img/green_2bandit_a2.png","70","70","test","1","156","156","7","",""
"null","406143","pSARL_v2","pSARL_v263rw9puv","58509fbda6946500016117ed","freq_resp","img/green_2bandit_a.png","70","70","test","","","","7","",""
"null","406309","pSARL_v2","pSARL_v263rw9puv","58509fbda6946500016117ed","fixation","img/fixation.png","null","","test","","","","","",""
"685.8000000007451","407011","pSARL_v2","pSARL_v263rw9puv","58509fbda6946500016117ed","infreq","img/orange_2bandit_a2.png","68","68","test","1","157","157","7","",""
"null","407142","pSARL_v2","pSARL_v263rw9puv","58509fbda6946500016117ed","infreq_resp","img/orange_2bandit_a.png","68","68","test","","","","7","",""
"null","407309","pSARL_v2","pSARL_v263rw9puv","58509fbda6946500016117ed","fixation","img/fixation.png","null","","test","","","","","",""
"401.2000000011176","407727","pSARL_v2","pSARL_v263rw9puv","58509fbda6946500016117ed","freq","img/green_2bandit_a2.png","70","70","test","1","158","158","7","",""
"null","408141","pSARL_v2","pSARL_v263rw9puv","58509fbda6946500016117ed","freq_resp","img/green_2bandit_a.png","70","70","test","","","","7","",""
"null","408308","pSARL_v2","pSARL_v263rw9puv","58509fbda6946500016117ed","fixation","img/fixation.png","null","","test","","","","","",""
"721.0999999996275","409045","pSARL_v2","pSARL_v263rw9puv","58509fbda6946500016117ed","freq","img/green_2bandit_a2.png","70","70","test","1","159","159","7","",""
"null","409140","pSARL_v2","pSARL_v263rw9puv","58509fbda6946500016117ed","freq_resp","img/green_2bandit_a.png","70","70","test","","","","7","",""
"null","409306","pSARL_v2","pSARL_v263rw9puv","58509fbda6946500016117ed","fixation","img/fixation.png","null","","test","","","","","",""
"472.6000000014901","409795","pSARL_v2","pSARL_v263rw9puv","58509fbda6946500016117ed","reward","img/slot.png","74","","test","","","","","",""
"null","410561","pSARL_v2","pSARL_v263rw9puv","58509fbda6946500016117ed","points","<div class=""verylowPoints""> -6 </div>","null","na","test","","","","7","-6","6"
"365.69999999925494","410944","pSARL_v2","pSARL_v263rw9puv","58509fbda6946500016117ed","freq","img/green_2bandit_a2.png","70","70","test","1","160","160","8","",""
"null","411395","pSARL_v2","pSARL_v263rw9puv","58509fbda6946500016117ed","freq_resp","img/green_2bandit_a.png","70","70","test","","","","8","",""
"null","411561","pSARL_v2","pSARL_v263rw9puv","58509fbda6946500016117ed","fixation","img/fixation.png","null","","test","","","","","",""
"335.7000000011176","411914","pSARL_v2","pSARL_v263rw9puv","58509fbda6946500016117ed","freq","img/green_2bandit_a2.png","70","70","test","1","161","161","8","",""
"null","412395","pSARL_v2","pSARL_v263rw9puv","58509fbda6946500016117ed","freq_resp","img/green_2bandit_a.png","70","70","test","","","","8","",""
"null","412561","pSARL_v2","pSARL_v263rw9puv","58509fbda6946500016117ed","fixation","img/fixation.png","null","","test","","","","","",""
"408.69999999925494","412983","pSARL_v2","pSARL_v263rw9puv","58509fbda6946500016117ed","infreq","img/orange_2bandit_a2.png","68","68","test","1","162","162","8","",""
"null","413390","pSARL_v2","pSARL_v263rw9puv","58509fbda6946500016117ed","infreq_resp","img/orange_2bandit_a.png","68","68","test","","","","8","",""
"null","413559","pSARL_v2","pSARL_v263rw9puv","58509fbda6946500016117ed","fixation","img/fixation.png","null","","test","","","","","",""
"326.5","413904","pSARL_v2","pSARL_v263rw9puv","58509fbda6946500016117ed","freq","img/green_2bandit_a2.png","70","70","test","1","163","163","8","",""
"null","414394","pSARL_v2","pSARL_v263rw9puv","58509fbda6946500016117ed","freq_resp","img/green_2bandit_a.png","70","70","test","","","","8","",""
"null","414560","pSARL_v2","pSARL_v263rw9puv","58509fbda6946500016117ed","fixation","img/fixation.png","null","","test","","","","","",""
"395","414972","pSARL_v2","pSARL_v263rw9puv","58509fbda6946500016117ed","freq","img/green_2bandit_a2.png","70","70","test","1","164","164","8","",""
"null","415394","pSARL_v2","pSARL_v263rw9puv","58509fbda6946500016117ed","freq_resp","img/green_2bandit_a.png","70","70","test","","","","8","",""
"null","415561","pSARL_v2","pSARL_v263rw9puv","58509fbda6946500016117ed","fixation","img/fixation.png","null","","test","","","","","",""
"341.40000000037253","415940","pSARL_v2","pSARL_v263rw9puv","58509fbda6946500016117ed","freq","img/green_2bandit_a2.png","70","70","test","1","165","165","8","",""
"null","416411","pSARL_v2","pSARL_v263rw9puv","58509fbda6946500016117ed","freq_resp","img/green_2bandit_a.png","70","70","test","","","","8","",""
"null","416575","pSARL_v2","pSARL_v263rw9puv","58509fbda6946500016117ed","fixation","img/fixation.png","null","","test","","","","","",""
"329.30000000074506","416917","pSARL_v2","pSARL_v263rw9puv","58509fbda6946500016117ed","freq","img/green_2bandit_a2.png","70","70","test","1","166","166","8","",""
"null","417397","pSARL_v2","pSARL_v263rw9puv","58509fbda6946500016117ed","freq_resp","img/green_2bandit_a.png","70","70","test","","","","8","",""
"null","417559","pSARL_v2","pSARL_v263rw9puv","58509fbda6946500016117ed","fixation","img/fixation.png","null","","test","","","","","",""
"495","418065","pSARL_v2","pSARL_v263rw9puv","58509fbda6946500016117ed","infreq","img/orange_2bandit_a2.png","68","68","test","1","167","167","8","",""
"null","418381","pSARL_v2","pSARL_v263rw9puv","58509fbda6946500016117ed","infreq_resp","img/orange_2bandit_a.png","68","68","test","","","","8","",""
"null","418545","pSARL_v2","pSARL_v263rw9puv","58509fbda6946500016117ed","fixation","img/fixation.png","null","","test","","","","","",""
"528.0999999996275","419088","pSARL_v2","pSARL_v263rw9puv","58509fbda6946500016117ed","infreq","img/orange_2bandit_a2.png","68","68","test","1","168","168","8","",""
"null","419376","pSARL_v2","pSARL_v263rw9puv","58509fbda6946500016117ed","infreq_resp","img/orange_2bandit_a.png","68","68","test","","","","8","",""
"null","419542","pSARL_v2","pSARL_v263rw9puv","58509fbda6946500016117ed","fixation","img/fixation.png","null","","test","","","","","",""
"425.6000000014901","419988","pSARL_v2","pSARL_v263rw9puv","58509fbda6946500016117ed","freq","img/green_2bandit_a2.png","70","70","test","1","169","169","8","",""
"null","420379","pSARL_v2","pSARL_v263rw9puv","58509fbda6946500016117ed","freq_resp","img/green_2bandit_a.png","70","70","test","","","","8","",""
"null","420547","pSARL_v2","pSARL_v263rw9puv","58509fbda6946500016117ed","fixation","img/fixation.png","null","","test","","","","","",""
"353.59999999962747","420917","pSARL_v2","pSARL_v263rw9puv","58509fbda6946500016117ed","freq","img/green_2bandit_a2.png","70","70","test","1","170","170","8","",""
"null","421381","pSARL_v2","pSARL_v263rw9puv","58509fbda6946500016117ed","freq_resp","img/green_2bandit_a.png","70","70","test","","","","8","",""
"null","421547","pSARL_v2","pSARL_v263rw9puv","58509fbda6946500016117ed","fixation","img/fixation.png","null","","test","","","","","",""
"373.7000000011176","421937","pSARL_v2","pSARL_v263rw9puv","58509fbda6946500016117ed","freq","img/green_2bandit_a2.png","70","70","test","1","171","171","8","",""
"null","422379","pSARL_v2","pSARL_v263rw9puv","58509fbda6946500016117ed","freq_resp","img/green_2bandit_a.png","70","70","test","","","","8","",""
"null","422546","pSARL_v2","pSARL_v263rw9puv","58509fbda6946500016117ed","fixation","img/fixation.png","null","","test","","","","","",""
"278.40000000037253","422841","pSARL_v2","pSARL_v263rw9puv","58509fbda6946500016117ed","freq","img/green_2bandit_a2.png","70","70","test","1","172","172","8","",""
"null","423378","pSARL_v2","pSARL_v263rw9puv","58509fbda6946500016117ed","freq_resp","img/green_2bandit_a.png","70","70","test","","","","8","",""
"null","423545","pSARL_v2","pSARL_v263rw9puv","58509fbda6946500016117ed","fixation","img/fixation.png","null","","test","","","","","",""
"199.59999999962747","423761","pSARL_v2","pSARL_v263rw9puv","58509fbda6946500016117ed","freq","img/green_2bandit_a2.png","70","70","test","1","173","173","8","",""
"null","424378","pSARL_v2","pSARL_v263rw9puv","58509fbda6946500016117ed","freq_resp","img/green_2bandit_a.png","70","70","test","","","","8","",""
"null","424545","pSARL_v2","pSARL_v263rw9puv","58509fbda6946500016117ed","fixation","img/fixation.png","null","","test","","","","","",""
"328.7000000011176","424890","pSARL_v2","pSARL_v263rw9puv","58509fbda6946500016117ed","freq","img/green_2bandit_a2.png","70","70","test","1","174","174","8","",""
"null","425377","pSARL_v2","pSARL_v263rw9puv","58509fbda6946500016117ed","freq_resp","img/green_2bandit_a.png","70","70","test","","","","8","",""
"null","425544","pSARL_v2","pSARL_v263rw9puv","58509fbda6946500016117ed","fixation","img/fixation.png","null","","test","","","","","",""
"317.19999999925494","425873","pSARL_v2","pSARL_v263rw9puv","58509fbda6946500016117ed","freq","img/green_2bandit_a2.png","70","70","test","1","175","175","8","",""
"null","426371","pSARL_v2","pSARL_v263rw9puv","58509fbda6946500016117ed","freq_resp","img/green_2bandit_a.png","70","70","test","","","","8","",""
"null","426537","pSARL_v2","pSARL_v263rw9puv","58509fbda6946500016117ed","fixation","img/fixation.png","null","","test","","","","","",""
"349.5","426904","pSARL_v2","pSARL_v263rw9puv","58509fbda6946500016117ed","freq","img/green_2bandit_a2.png","70","70","test","1","176","176","8","",""
"null","427371","pSARL_v2","pSARL_v263rw9puv","58509fbda6946500016117ed","freq_resp","img/green_2bandit_a.png","70","70","test","","","","8","",""
"null","427537","pSARL_v2","pSARL_v263rw9puv","58509fbda6946500016117ed","fixation","img/fixation.png","null","","test","","","","","",""
"359.09999999962747","427914","pSARL_v2","pSARL_v263rw9puv","58509fbda6946500016117ed","freq","img/green_2bandit_a2.png","70","70","test","1","177","177","8","",""
"null","428371","pSARL_v2","pSARL_v263rw9puv","58509fbda6946500016117ed","freq_resp","img/green_2bandit_a.png","70","70","test","","","","8","",""
"null","428538","pSARL_v2","pSARL_v263rw9puv","58509fbda6946500016117ed","fixation","img/fixation.png","null","","test","","","","","",""
"392.7999999988824","428947","pSARL_v2","pSARL_v263rw9puv","58509fbda6946500016117ed","freq","img/green_2bandit_a2.png","70","70","test","1","178","178","8","",""
"null","429371","pSARL_v2","pSARL_v263rw9puv","58509fbda6946500016117ed","freq_resp","img/green_2bandit_a.png","70","70","test","","","","8","",""
"null","429538","pSARL_v2","pSARL_v263rw9puv","58509fbda6946500016117ed","fixation","img/fixation.png","null","","test","","","","","",""
"357.09999999962747","429911","pSARL_v2","pSARL_v263rw9puv","58509fbda6946500016117ed","freq","img/green_2bandit_a2.png","70","70","test","1","179","179","8","",""
"null","430370","pSARL_v2","pSARL_v263rw9puv","58509fbda6946500016117ed","freq_resp","img/green_2bandit_a.png","70","70","test","","","","8","",""
"null","430536","pSARL_v2","pSARL_v263rw9puv","58509fbda6946500016117ed","fixation","img/fixation.png","null","","test","","","","","",""
"298.09999999962747","430851","pSARL_v2","pSARL_v263rw9puv","58509fbda6946500016117ed","freq","img/green_2bandit_a2.png","70","70","test","1","180","180","8","",""
"null","431368","pSARL_v2","pSARL_v263rw9puv","58509fbda6946500016117ed","freq_resp","img/green_2bandit_a.png","70","70","test","","","","8","",""
"null","431535","pSARL_v2","pSARL_v263rw9puv","58509fbda6946500016117ed","fixation","img/fixation.png","null","","test","","","","","",""
"193.19999999925494","431745","pSARL_v2","pSARL_v263rw9puv","58509fbda6946500016117ed","freq","img/green_2bandit_a2.png","70","70","test","1","181","181","8","",""
"null","432367","pSARL_v2","pSARL_v263rw9puv","58509fbda6946500016117ed","freq_resp","img/green_2bandit_a.png","70","70","test","","","","8","",""
"null","432538","pSARL_v2","pSARL_v263rw9puv","58509fbda6946500016117ed","fixation","img/fixation.png","null","","test","","","","","",""
"229.5","432786","pSARL_v2","pSARL_v263rw9puv","58509fbda6946500016117ed","freq","img/green_2bandit_a2.png","70","70","test","1","182","182","8","",""
"null","433372","pSARL_v2","pSARL_v263rw9puv","58509fbda6946500016117ed","freq_resp","img/green_2bandit_a.png","70","70","test","","","","8","",""
"null","433538","pSARL_v2","pSARL_v263rw9puv","58509fbda6946500016117ed","fixation","img/fixation.png","null","","test","","","","","",""
"519.6999999992549","434074","pSARL_v2","pSARL_v263rw9puv","58509fbda6946500016117ed","reward","img/slot.png","74","","test","","","","","",""
"null","434840","pSARL_v2","pSARL_v263rw9puv","58509fbda6946500016117ed","points","<div class=""verylowPoints""> -4 </div>","null","na","test","","","","8","-4","7"
"421.1000000014901","435278","pSARL_v2","pSARL_v263rw9puv","58509fbda6946500016117ed","freq","img/green_2bandit_a2.png","70","70","test","1","183","183","9","",""
"null","435673","pSARL_v2","pSARL_v263rw9puv","58509fbda6946500016117ed","freq_resp","img/green_2bandit_a.png","70","70","test","","","","9","",""
"null","435840","pSARL_v2","pSARL_v263rw9puv","58509fbda6946500016117ed","fixation","img/fixation.png","null","","test","","","","","",""
"336.59999999962747","436193","pSARL_v2","pSARL_v263rw9puv","58509fbda6946500016117ed","freq","img/green_2bandit_a2.png","70","70","test","1","184","184","9","",""
"null","436674","pSARL_v2","pSARL_v263rw9puv","58509fbda6946500016117ed","freq_resp","img/green_2bandit_a.png","70","70","test","","","","9","",""
"null","436840","pSARL_v2","pSARL_v263rw9puv","58509fbda6946500016117ed","fixation","img/fixation.png","null","","test","","","","","",""
"250.19999999925494","437107","pSARL_v2","pSARL_v263rw9puv","58509fbda6946500016117ed","freq","img/green_2bandit_a2.png","70","70","test","1","185","185","9","",""
"null","437672","pSARL_v2","pSARL_v263rw9puv","58509fbda6946500016117ed","freq_resp","img/green_2bandit_a.png","70","70","test","","","","9","",""
"null","437839","pSARL_v2","pSARL_v263rw9puv","58509fbda6946500016117ed","fixation","img/fixation.png","null","","test","","","","","",""
"260.7000000011176","438116","pSARL_v2","pSARL_v263rw9puv","58509fbda6946500016117ed","freq","img/green_2bandit_a2.png","70","70","test","1","186","186","9","",""
"null","438672","pSARL_v2","pSARL_v263rw9puv","58509fbda6946500016117ed","freq_resp","img/green_2bandit_a.png","70","70","test","","","","9","",""
"null","438838","pSARL_v2","pSARL_v263rw9puv","58509fbda6946500016117ed","fixation","img/fixation.png","null","","test","","","","","",""
"186.30000000074506","439041","pSARL_v2","pSARL_v263rw9puv","58509fbda6946500016117ed","freq","img/green_2bandit_a2.png","70","70","test","1","187","187","9","",""
"null","439673","pSARL_v2","pSARL_v263rw9puv","58509fbda6946500016117ed","freq_resp","img/green_2bandit_a.png","70","70","test","","","","9","",""
"null","439839","pSARL_v2","pSARL_v263rw9puv","58509fbda6946500016117ed","fixation","img/fixation.png","null","","test","","","","","",""
"396.40000000037253","440255","pSARL_v2","pSARL_v263rw9puv","58509fbda6946500016117ed","infreq","img/orange_2bandit_a2.png","68","68","test","1","188","188","9","",""
"null","440671","pSARL_v2","pSARL_v263rw9puv","58509fbda6946500016117ed","infreq_resp","img/orange_2bandit_a.png","68","68","test","","","","9","",""
"null","440840","pSARL_v2","pSARL_v263rw9puv","58509fbda6946500016117ed","fixation","img/fixation.png","null","","test","","","","","",""
"457.2000000011176","441316","pSARL_v2","pSARL_v263rw9puv","58509fbda6946500016117ed","freq","img/green_2bandit_a2.png","70","70","test","1","189","189","9","",""
"null","441676","pSARL_v2","pSARL_v263rw9puv","58509fbda6946500016117ed","freq_resp","img/green_2bandit_a.png","70","70","test","","","","9","",""
"null","441842","pSARL_v2","pSARL_v263rw9puv","58509fbda6946500016117ed","fixation","img/fixation.png","null","","test","","","","","",""
"359.6000000014901","442217","pSARL_v2","pSARL_v263rw9puv","58509fbda6946500016117ed","freq","img/green_2bandit_a2.png","70","70","test","1","190","190","9","",""
"null","442675","pSARL_v2","pSARL_v263rw9puv","58509fbda6946500016117ed","freq_resp","img/green_2bandit_a.png","70","70","test","","","","9","",""
"null","442845","pSARL_v2","pSARL_v263rw9puv","58509fbda6946500016117ed","fixation","img/fixation.png","null","","test","","","","","",""
"369.7999999988824","443228","pSARL_v2","pSARL_v263rw9puv","58509fbda6946500016117ed","freq","img/green_2bandit_a2.png","70","70","test","1","191","191","9","",""
"null","443674","pSARL_v2","pSARL_v263rw9puv","58509fbda6946500016117ed","freq_resp","img/green_2bandit_a.png","70","70","test","","","","9","",""
"null","443840","pSARL_v2","pSARL_v263rw9puv","58509fbda6946500016117ed","fixation","img/fixation.png","null","","test","","","","","",""
"286.7000000011176","444143","pSARL_v2","pSARL_v263rw9puv","58509fbda6946500016117ed","freq","img/green_2bandit_a2.png","70","70","test","1","192","192","9","",""
"null","444673","pSARL_v2","pSARL_v263rw9puv","58509fbda6946500016117ed","freq_resp","img/green_2bandit_a.png","70","70","test","","","","9","",""
"null","444840","pSARL_v2","pSARL_v263rw9puv","58509fbda6946500016117ed","fixation","img/fixation.png","null","","test","","","","","",""
"319.40000000037253","445177","pSARL_v2","pSARL_v263rw9puv","58509fbda6946500016117ed","freq","img/green_2bandit_a2.png","70","70","test","1","193","193","9","",""
"null","445674","pSARL_v2","pSARL_v263rw9puv","58509fbda6946500016117ed","freq_resp","img/green_2bandit_a.png","70","70","test","","","","9","",""
"null","445840","pSARL_v2","pSARL_v263rw9puv","58509fbda6946500016117ed","fixation","img/fixation.png","null","","test","","","","","",""
"283.5","446141","pSARL_v2","pSARL_v263rw9puv","58509fbda6946500016117ed","freq","img/green_2bandit_a2.png","70","70","test","1","194","194","9","",""
"null","446674","pSARL_v2","pSARL_v263rw9puv","58509fbda6946500016117ed","freq_resp","img/green_2bandit_a.png","70","70","test","","","","9","",""
"null","446841","pSARL_v2","pSARL_v263rw9puv","58509fbda6946500016117ed","fixation","img/fixation.png","null","","test","","","","","",""
"296.2000000011176","447153","pSARL_v2","pSARL_v263rw9puv","58509fbda6946500016117ed","freq","img/green_2bandit_a2.png","70","70","test","1","195","195","9","",""
"null","447673","pSARL_v2","pSARL_v263rw9puv","58509fbda6946500016117ed","freq_resp","img/green_2bandit_a.png","70","70","test","","","","9","",""
"null","447840","pSARL_v2","pSARL_v263rw9puv","58509fbda6946500016117ed","fixation","img/fixation.png","null","","test","","","","","",""
"467.30000000074506","448324","pSARL_v2","pSARL_v263rw9puv","58509fbda6946500016117ed","freq","img/green_2bandit_a2.png","70","70","test","1","196","196","9","",""
"null","448673","pSARL_v2","pSARL_v263rw9puv","58509fbda6946500016117ed","freq_resp","img/green_2bandit_a.png","70","70","test","","","","9","",""
"null","448840","pSARL_v2","pSARL_v263rw9puv","58509fbda6946500016117ed","fixation","img/fixation.png","null","","test","","","","","",""
"313","449170","pSARL_v2","pSARL_v263rw9puv","58509fbda6946500016117ed","freq","img/green_2bandit_a2.png","70","70","test","1","197","197","9","",""
"null","449674","pSARL_v2","pSARL_v263rw9puv","58509fbda6946500016117ed","freq_resp","img/green_2bandit_a.png","70","70","test","","","","9","",""
"null","449841","pSARL_v2","pSARL_v263rw9puv","58509fbda6946500016117ed","fixation","img/fixation.png","null","","test","","","","","",""
"230.7000000011176","450088","pSARL_v2","pSARL_v263rw9puv","58509fbda6946500016117ed","freq","img/green_2bandit_a2.png","70","70","test","1","198","198","9","",""
"null","450674","pSARL_v2","pSARL_v263rw9puv","58509fbda6946500016117ed","freq_resp","img/green_2bandit_a.png","70","70","test","","","","9","",""
"null","450841","pSARL_v2","pSARL_v263rw9puv","58509fbda6946500016117ed","fixation","img/fixation.png","null","","test","","","","","",""
"453.69999999925494","451311","pSARL_v2","pSARL_v263rw9puv","58509fbda6946500016117ed","infreq","img/orange_2bandit_a2.png","68","68","test","1","199","199","9","",""
"null","451670","pSARL_v2","pSARL_v263rw9puv","58509fbda6946500016117ed","infreq_resp","img/orange_2bandit_a.png","68","68","test","","","","9","",""
"null","451834","pSARL_v2","pSARL_v263rw9puv","58509fbda6946500016117ed","fixation","img/fixation.png","null","","test","","","","","",""
"439.8999999985099","452291","pSARL_v2","pSARL_v263rw9puv","58509fbda6946500016117ed","freq","img/green_2bandit_a2.png","68","70","test","0","200","200","9","",""
"null","452668","pSARL_v2","pSARL_v263rw9puv","58509fbda6946500016117ed","freq_resp","img/green_2bandit_a.png","68","70","test","","","","9","",""
"null","452834","pSARL_v2","pSARL_v263rw9puv","58509fbda6946500016117ed","fixation","img/fixation.png","null","","test","","","","","",""
"366.1000000014901","453217","pSARL_v2","pSARL_v263rw9puv","58509fbda6946500016117ed","freq","img/green_2bandit_a2.png","70","70","test","1","201","201","9","",""
"null","453666","pSARL_v2","pSARL_v263rw9puv","58509fbda6946500016117ed","freq_resp","img/green_2bandit_a.png","70","70","test","","","","9","",""
"null","453833","pSARL_v2","pSARL_v263rw9puv","58509fbda6946500016117ed","fixation","img/fixation.png","null","","test","","","","","",""
"330","454182","pSARL_v2","pSARL_v263rw9puv","58509fbda6946500016117ed","freq","img/green_2bandit_a2.png","70","70","test","1","202","202","9","",""
"null","454669","pSARL_v2","pSARL_v263rw9puv","58509fbda6946500016117ed","freq_resp","img/green_2bandit_a.png","70","70","test","","","","9","",""
"null","454835","pSARL_v2","pSARL_v263rw9puv","58509fbda6946500016117ed","fixation","img/fixation.png","null","","test","","","","","",""
"468.59999999962747","455319","pSARL_v2","pSARL_v263rw9puv","58509fbda6946500016117ed","reward","img/slot.png","74","","test","","","","","",""
"null","456086","pSARL_v2","pSARL_v263rw9puv","58509fbda6946500016117ed","points","<div class=""verylowPoints""> -3 </div>","null","na","test","","","","9","-3","8"
"416.2000000011176","456519","pSARL_v2","pSARL_v263rw9puv","58509fbda6946500016117ed","freq","img/green_2bandit_a2.png","70","70","test","1","203","203","10","",""
"null","456919","pSARL_v2","pSARL_v263rw9puv","58509fbda6946500016117ed","freq_resp","img/green_2bandit_a.png","70","70","test","","","","10","",""
"null","457085","pSARL_v2","pSARL_v263rw9puv","58509fbda6946500016117ed","fixation","img/fixation.png","null","","test","","","","","",""
"346.40000000037253","457448","pSARL_v2","pSARL_v263rw9puv","58509fbda6946500016117ed","freq","img/green_2bandit_a2.png","70","70","test","1","204","204","10","",""
"null","457917","pSARL_v2","pSARL_v263rw9puv","58509fbda6946500016117ed","freq_resp","img/green_2bandit_a.png","70","70","test","","","","10","",""
"null","458084","pSARL_v2","pSARL_v263rw9puv","58509fbda6946500016117ed","fixation","img/fixation.png","null","","test","","","","","",""
"311.19999999925494","458413","pSARL_v2","pSARL_v263rw9puv","58509fbda6946500016117ed","freq","img/green_2bandit_a2.png","70","70","test","1","205","205","10","",""
"null","458917","pSARL_v2","pSARL_v263rw9puv","58509fbda6946500016117ed","freq_resp","img/green_2bandit_a.png","70","70","test","","","","10","",""
"null","459084","pSARL_v2","pSARL_v263rw9puv","58509fbda6946500016117ed","fixation","img/fixation.png","null","","test","","","","","",""
"440.2999999988824","459541","pSARL_v2","pSARL_v263rw9puv","58509fbda6946500016117ed","infreq","img/orange_2bandit_a2.png","68","68","test","1","206","206","10","",""
"null","459917","pSARL_v2","pSARL_v263rw9puv","58509fbda6946500016117ed","infreq_resp","img/orange_2bandit_a.png","68","68","test","","","","10","",""
"null","460083","pSARL_v2","pSARL_v263rw9puv","58509fbda6946500016117ed","fixation","img/fixation.png","null","","test","","","","","",""
